time,seconds_elapsed,z,y,x
1772574403729499100,0.2034990234375,0,0,0
1772574403739432200,0.21343212890625,-0.02642059326171875,0.009967684745788574,-0.012904465198516846
1772574403749367300,0.2233671875,-0.02415943145751953,0.01701045036315918,-0.013450413942337036
1772574403759301000,0.233301025390625,-0.01839447021484375,0.02144181728363037,-0.008965075016021729
1772574403779174400,0.25317431640625,0.10998153686523438,0.021266639232635498,0.03952375054359436
1772574403789085000,0.2630849609375,0.1309375762939453,0.02427142858505249,0.02406412363052368
1772574403799010300,0.27301025390625,0.0892333984375,0.014329373836517334,0.036754876375198364
1772574403808951600,0.28295166015625,0.045151710510253906,-0.020247936248779297,0.045228779315948486
1772574403818883300,0.29288330078125,-0.0025005340576171875,0.008357048034667969,0.03704473376274109
1772574403828813600,0.3028134765625,-0.024053573608398438,0.02121347188949585,0.025840550661087036
1772574403838744800,0.312744873046875,-0.035259246826171875,0.02450430393218994,0.011046499013900757
1772574403848677600,0.322677734375,0.0027341842651367188,0.04115891456604004,0.036858588457107544
1772574403868540000,0.342539794921875,0.1319131851196289,0.028074443340301514,-0.007730692625045776
1772574403878471200,0.35247119140625,0.1596975326538086,0.0074083805084228516,-0.002316415309906006
1772574403888405800,0.36240576171875,0.11900711059570312,-0.013474762439727783,-0.0020370185375213623
1772574403898338600,0.372338623046875,0.06748199462890625,-0.01621919870376587,0.01073428988456726
1772574403908270000,0.38227001953125,-0.012853622436523438,-0.006123065948486328,0.007829397916793823
1772574403918202400,0.392202392578125,-0.05740833282470703,-0.010480225086212158,0.017090827226638794
1772574403928139500,0.402139404296875,-0.022512435913085938,-0.0008677244186401367,0.015770643949508667
1772574403938073900,0.412073974609375,-0.012135505676269531,0.003943443298339844,0.02341407537460327
1772574403948014000,0.42201416015625,-0.011397361755371094,0.018223166465759277,0.04553908109664917
1772574403957950700,0.43195068359375,-0.006100654602050781,0.027780652046203613,0.026985973119735718
1772574403967871700,0.441871826171875,-0.010178565979003906,0.04641377925872803,0.010641992092132568
1772574403977802000,0.451802001953125,-0.018674850463867188,0.027675509452819824,0.028481751680374146
1772574403987743700,0.46174365234375,-0.0130157470703125,0.00045931339263916016,0.0004189014434814453
1772574403997678600,0.4716787109375,-0.016759872436523438,-0.007523655891418457,-0.025976508855819702
1772574404007595500,0.481595458984375,-0.0065364837646484375,0.0029647350311279297,-0.04785740375518799
1772574404017523200,0.491523193359375,0.045013427734375,-0.0153580904006958,-0.07969626784324646
1772574404027467800,0.5014677734375,0.08112812042236328,-0.020424365997314453,-0.09792706370353699
1772574404037397000,0.51139697265625,0.1162872314453125,-0.04512542486190796,-0.07500085234642029
1772574404047326000,0.521325927734375,0.1599283218383789,-0.06095850467681885,-0.07551386952400208
1772574404057255200,0.531255126953125,0.1747140884399414,-0.02155005931854248,-0.09790536761283875
1772574404067180000,0.541179931640625,0.18943214416503906,-0.0217360258102417,-0.09041765332221985
1772574404077109000,0.55110888671875,0.21332359313964844,0.03774738311767578,-0.1154664158821106
1772574404087063800,0.561063720703125,0.26949024200439453,0.10360336303710938,-0.13583073019981384
1772574404096995300,0.570995361328125,0.2734041213989258,0.035441040992736816,-0.08377033472061157
1772574404106919000,0.5809189453125,0.15643596649169922,-0.009043216705322266,0.04026493430137634
1772574404116849400,0.590849365234375,-0.03182411193847656,0.02542102336883545,0.0903698205947876
1772574404126787600,0.60078759765625,-0.20121479034423828,-0.0031266212463378906,-0.03201264142990112
1772574404136718800,0.61071875,-0.2776451110839844,0.038674116134643555,0.03817033767700195
1772574404146658300,0.620658203125,-0.511479377746582,-0.06421494483947754,0.12257751822471619
1772574404156590600,0.630590576171875,-0.6565313339233398,-0.09443449974060059,0.18300393223762512
1772574404166512600,0.6405126953125,-0.5980739593505859,-0.04366421699523926,0.03982901573181152
1772574404176444000,0.65044384765625,-0.4294557571411133,-0.0363236665725708,-0.08437556028366089
1772574404186378000,0.6603779296875,-0.2182636260986328,0.001762986183166504,-0.06375724077224731
1772574404196309500,0.6703095703125,-0.1757049560546875,0.020860910415649414,0.0037827491760253906
1772574404206254600,0.680254638671875,-0.1856670379638672,-0.0067310333251953125,0.015163242816925049
1772574404216187600,0.690187744140625,-0.0643472671508789,-0.014167428016662598,-0.0981406569480896
1772574404226107600,0.700107666015625,0.09671211242675781,0.0768054723739624,-0.19313156604766846
1772574404236039200,0.7100390625,0.2501955032348633,0.06085991859436035,-0.13713610172271729
1772574404245978600,0.719978515625,0.2839221954345703,0.023060202598571777,-0.06236833333969116
1772574404255911000,0.729910888671875,0.22368335723876953,0.06243908405303955,-0.04829418659210205
1772574404265839000,0.739839111328125,0.24943065643310547,0.061421751976013184,-0.1205795407295227
1772574404275771100,0.749771240234375,0.2561511993408203,0.0533750057220459,-0.05772554874420166
1772574404285744600,0.75974462890625,0.17856121063232422,0.07091140747070312,0.018413305282592773
1772574404295680800,0.7696806640625,0.06035041809082031,0.0669170618057251,0.008409559726715088
1772574404305568300,0.779568359375,0.0007219314575195312,0.028876781463623047,0.04850238561630249
1772574404315499500,0.78949951171875,-0.08143806457519531,-0.037232279777526855,0.10080337524414062
1772574404325457000,0.799456787109375,-0.25639915466308594,-0.08261764049530029,0.1298445463180542
1772574404335391000,0.809390869140625,-0.3345155715942383,-0.05421769618988037,0.11697906255722046
1772574404345301500,0.819301513671875,-0.36466503143310547,-0.0045615434646606445,0.061406850814819336
1772574404355233000,0.82923291015625,-0.8370914459228516,-0.03296351432800293,0.09005987644195557
1772574404365162500,0.83916259765625,-1.532505989074707,-0.012864351272583008,0.062163472175598145
1772574404375094000,0.849093994140625,-1.4795293807983398,0.0005424022674560547,-0.07422387599945068
1772574404385026800,0.85902685546875,-0.7991924285888672,-0.010864019393920898,-0.07037520408630371
1772574404394958300,0.868958251953125,-0.00908660888671875,-0.07152330875396729,0.13007760047912598
1772574404404899800,0.87889990234375,0.49030590057373047,-0.09839761257171631,0.20198646187782288
1772574404414832400,0.888832275390625,0.6810512542724609,-0.07815396785736084,0.02217203378677368
1772574404424755000,0.8987548828125,0.8460273742675781,0.014818787574768066,-0.09380561113357544
1772574404434686500,0.9086865234375,1.0138463973999023,0.061066627502441406,-0.08258801698684692
1772574404444619300,0.918619384765625,1.0575571060180664,0.08396577835083008,-0.06670719385147095
1772574404454551000,0.928551025390625,0.8944787979125977,0.031972408294677734,-0.046348392963409424
1772574404464486400,0.938486328125,0.4197854995727539,-0.09741902351379395,0.14067426323890686
1772574404474418400,0.94841845703125,-0.28620338439941406,-0.1860809326171875,0.4396219849586487
1772574404484362200,0.9583623046875,-0.8062019348144531,-0.1478801965713501,0.3914376199245453
1772574404494295300,0.96829541015625,-0.8103017807006836,0.006207942962646484,0.04857039451599121
1772574404504215000,0.978215087890625,-0.5098581314086914,0.15183866024017334,-0.1412920355796814
1772574404514146800,0.988146728515625,-0.1918506622314453,0.16359245777130127,-0.1680992841720581
1772574404524079900,0.998079833984375,0.03104400634765625,0.0826801061630249,-0.11666882038116455
1772574404534012000,1.008011962890625,0.12787532806396484,0.04494965076446533,-0.03343367576599121
1772574404543943400,1.017943359375,0.1387186050415039,-0.017403841018676758,-0.010389983654022217
1772574404553875500,1.02787548828125,0.11208724975585938,-0.05666708946228027,-0.003512263298034668
1772574404563810800,1.037810791015625,0.05795097351074219,-0.06361806392669678,-0.0038437843322753906
1772574404573743000,1.0477431640625,0.004974365234375,-0.03898751735687256,-0.07846057415008545
1772574404583689500,1.057689453125,-0.014021873474121094,-0.011172771453857422,-0.11438572406768799
1772574404593623000,1.067623046875,-0.03728961944580078,0.005740165710449219,-0.13592272996902466
1772574404603531500,1.077531494140625,-0.03663444519042969,-0.005790591239929199,-0.10994201898574829
1772574404613462500,1.087462646484375,0.0016765594482421875,-0.017144441604614258,-0.0939488410949707
1772574404623402500,1.097402587890625,0.0016202926635742188,-0.042447447776794434,-0.0982954204082489
1772574404633334300,1.107334228515625,-0.007878303527832031,-0.06764471530914307,-0.09930488467216492
1772574404643266800,1.117266845703125,0.006283760070800781,-0.03624141216278076,-0.06439310312271118
1772574404653198800,1.12719873046875,-0.026810646057128906,-0.02011096477508545,0.011757433414459229
1772574404663111000,1.13711083984375,-0.06869220733642578,-0.013664484024047852,0.036256104707717896
1772574404673041000,1.147041015625,-0.10989665985107422,-0.01604902744293213,0.03818359971046448
1772574404683010000,1.157010009765625,-0.16460895538330078,0.0014259815216064453,0.046032875776290894
1772574404692944100,1.166944091796875,-0.16205787658691406,-0.017740845680236816,-0.016339808702468872
1772574404702859500,1.176859619140625,0.019158363342285156,-0.01673150062561035,-0.07480567693710327
1772574404712791800,1.186791748046875,0.17375755310058594,0.02181708812713623,-0.05391210317611694
1772574404722728400,1.196728515625,0.1611776351928711,-0.04940032958984375,0.03438979387283325
1772574404732661200,1.2066611328125,0.07841873168945312,-0.06795501708984375,0.10685813426971436
1772574404742573800,1.21657373046875,0.034775733947753906,-0.03869438171386719,0.10094219446182251
1772574404752504300,1.22650439453125,0.05306529998779297,-0.014202117919921875,0.06335368752479553
1772574404762435000,1.23643505859375,0.0899515151977539,0.01429736614227295,0.02702254056930542
1772574404772365800,1.24636572265625,0.13568592071533203,0.018363595008850098,0.014598280191421509
1772574404782303000,1.256302978515625,0.1478443145751953,0.011823773384094238,-0.007175743579864502
1772574404792234200,1.266234130859375,0.13175678253173828,-0.0054416656494140625,-0.018795251846313477
1772574404802172000,1.276171875,0.1302204132080078,-0.004787564277648926,-0.04922792315483093
1772574404812103700,1.286103759765625,0.044094085693359375,-0.00034940242767333984,-0.03650259971618652
1772574404822027500,1.296027587890625,-0.05464744567871094,-0.01513528823852539,-0.0280512273311615
1772574404831958500,1.30595849609375,-0.09528160095214844,0.0035837888717651367,-0.043383270502090454
1772574404841897500,1.3158974609375,-0.11656570434570312,0.004155993461608887,-0.06849408149719238
1772574404851829200,1.325829345703125,-0.15647506713867188,0.01033174991607666,-0.041911780834198
1772574404861760500,1.335760498046875,-0.1582489013671875,-0.0011075735092163086,-0.039677202701568604
1772574404871692300,1.3456923828125,-0.037792205810546875,-0.011235833168029785,-0.07190701365470886
1772574404881629200,1.355629150390625,0.042942047119140625,-0.05885517597198486,-0.01511448621749878
1772574404891561700,1.365561767578125,0.023612022399902344,-0.05016911029815674,0.027150750160217285
1772574404901491200,1.3754912109375,-0.08002853393554688,-0.03771829605102539,0.0077149271965026855
1772574404911423200,1.38542333984375,-0.1914510726928711,-0.04379773139953613,-0.0024545490741729736
1772574404921355000,1.39535498046875,-0.24483108520507812,-0.01970982551574707,0.023821353912353516
1772574404931287000,1.405287109375,-0.19883441925048828,0.01580512523651123,0.04364544153213501
1772574404941242600,1.41524267578125,-0.06920623779296875,0.034209251403808594,0.010518282651901245
1772574404951177000,1.425177001953125,0.07694816589355469,0.058097124099731445,-0.01738092303276062
1772574404961104000,1.435103759765625,0.12657642364501953,0.0671391487121582,0.03598108887672424
1772574404971037400,1.445037353515625,0.14267539978027344,0.051099181175231934,0.06635621190071106
1772574404980972300,1.45497216796875,0.12101173400878906,0.0439455509185791,0.0646856427192688
1772574404990906000,1.464906005859375,0.09043693542480469,0.055142760276794434,0.055033594369888306
1772574405000837400,1.47483740234375,0.10289382934570312,0.05604517459869385,0.056106895208358765
1772574405010771000,1.48477099609375,0.11528873443603516,0.042015790939331055,0.048591941595077515
1772574405020712700,1.494712646484375,0.12765884399414062,0.02721881866455078,0.061060309410095215
1772574405030647000,1.50464697265625,0.08358097076416016,0.01146543025970459,0.07544600963592529
1772574405040571000,1.51457080078125,0.04983997344970703,0.014220595359802246,0.08242255449295044
1772574405050504200,1.524504150390625,-0.011495590209960938,0.01675558090209961,0.043596118688583374
1772574405060429000,1.534428955078125,-0.06701183319091797,0.028376221656799316,0.010948628187179565
1772574405070361600,1.544361572265625,-0.09803009033203125,0.00714564323425293,-0.005815386772155762
1772574405080272100,1.554272216796875,-0.06728172302246094,0.014632701873779297,-0.04976335167884827
1772574405090202400,1.564202392578125,-0.013527870178222656,-0.0017398595809936523,-0.09433576464653015
1772574405100168400,1.57416845703125,0.08635807037353516,-0.01383674144744873,-0.1461498737335205
1772574405110102300,1.584102294921875,0.1376199722290039,-0.018204450607299805,-0.17156046628952026
1772574405120024000,1.594024169921875,0.06105995178222656,-0.04795515537261963,-0.1467946171760559
1772574405129956600,1.60395654296875,-0.11790275573730469,-0.0630333423614502,-0.044011831283569336
1772574405139890400,1.613890380859375,-0.20482921600341797,-0.07042980194091797,0.004674553871154785
1772574405149823200,1.6238232421875,-0.11187362670898438,-0.05553913116455078,-0.060931265354156494
1772574405159752200,1.633752197265625,-0.0065860748291015625,0.0029603242874145508,-0.07903128862380981
1772574405169684500,1.6436845703125,0.026235580444335938,0.01827061176300049,-0.027304470539093018
1772574405179617500,1.653617431640625,0.011396408081054688,0.01916193962097168,-0.047669947147369385
1772574405189550000,1.663550048828125,-0.012593269348144531,0.0480344295501709,-0.05391192436218262
1772574405199481600,1.673481689453125,-0.017391204833984375,0.04322707653045654,-0.03791153430938721
1772574405209414100,1.6834140625,-0.040946006774902344,0.06183195114135742,-0.027517855167388916
1772574405219424500,1.693424560546875,-0.059342384338378906,0.04217493534088135,-0.03111100196838379
1772574405229364700,1.70336474609375,-0.030356407165527344,0.05121815204620361,-0.04397648572921753
1772574405239213000,1.713213134765625,0.021721839904785156,0.060013651847839355,-0.028026461601257324
1772574405249144000,1.72314404296875,-0.0022630691528320312,0.05402648448944092,-0.0062860846519470215
1772574405259089000,1.7330888671875,-0.03986358642578125,0.047826528549194336,-0.011883199214935303
1772574405269021200,1.743021240234375,-0.06734371185302734,0.0603485107421875,0.0023102164268493652
1772574405278929000,1.752928955078125,-0.11320781707763672,0.06342124938964844,0.04484871029853821
1772574405288858600,1.762858642578125,-0.11601924896240234,0.020053386688232422,0.06332185864448547
1772574405298806800,1.772806884765625,-0.0671396255493164,-0.0029420852661132812,0.07610344886779785
1772574405308738300,1.78273828125,0.004433631896972656,-0.006589412689208984,0.05068737268447876
1772574405318671600,1.792671630859375,0.060736656188964844,-0.034009456634521484,0.021115094423294067
1772574405328603400,1.802603271484375,0.05499267578125,-0.03784143924713135,0.02116304636001587
1772574405338518300,1.812518310546875,0.021149635314941406,-0.032187819480895996,0.022326678037643433
1772574405348448300,1.8224482421875,-0.021558761596679688,-0.021713614463806152,0.019080311059951782
1772574405358397700,1.832397705078125,-0.05416297912597656,-0.02995622158050537,0.020873844623565674
1772574405368329700,1.842329833984375,-0.06742668151855469,-0.004807114601135254,0.013302981853485107
1772574405378269000,1.85226904296875,-0.014661788940429688,0.011209368705749512,0.01497572660446167
1772574405388201700,1.86220166015625,0.04179859161376953,-0.014616608619689941,0.006800949573516846
1772574405398129700,1.872129638671875,0.07379913330078125,-0.044933319091796875,-0.03432607650756836
1772574405408062000,1.88206201171875,0.06297492980957031,-0.042581796646118164,-0.014042675495147705
1772574405417996000,1.89199609375,0.06176567077636719,-0.0219423770904541,0.014302074909210205
1772574405427928600,1.901928466796875,0.027597427368164062,-0.0018531084060668945,-0.010537981986999512
1772574405437861400,1.911861328125,-0.02013683319091797,-0.0011439323425292969,-0.016860783100128174
1772574405447794000,1.9217939453125,-0.05294036865234375,-0.0005625486373901367,-0.009094417095184326
1772574405457726500,1.9317265625,-0.09463691711425781,0.00020015239715576172,-0.0296362042427063
1772574405467659000,1.941658935546875,-0.10277748107910156,0.0062408447265625,-0.04077494144439697
1772574405477597700,1.95159765625,-0.07789230346679688,0.00816643238067627,0.009957671165466309
1772574405487531000,1.961531005859375,-0.048729896545410156,0.0011388063430786133,0.023168504238128662
1772574405497453000,1.971453125,-0.038840293884277344,-0.02461385726928711,0.008798480033874512
1772574405507385000,1.981385009765625,-0.06199169158935547,-0.00785374641418457,0.014320731163024902
1772574405517321500,1.991321533203125,-0.11768245697021484,-0.03386080265045166,0.0342521071434021
1772574405527253800,2.001253662109375,-0.11603927612304688,-0.03527510166168213,0.034757375717163086
1772574405537183200,2.011183349609375,-0.1145639419555664,-0.0217282772064209,0.020554661750793457
1772574405547115300,2.021115234375,-0.09911727905273438,-0.01710045337677002,0.010651051998138428
1772574405557046000,2.0310458984375,-0.06525039672851562,-0.0069234371185302734,0.0049613118171691895
1772574405566978000,2.04097802734375,-0.04135417938232422,0.0171205997467041,-0.000705331563949585
1772574405576913000,2.050912841796875,-0.027278900146484375,0.03616774082183838,0.01739397644996643
1772574405586845400,2.060845458984375,-0.02750396728515625,0.031168222427368164,0.07350426912307739
1772574405596779300,2.070779296875,0.005270957946777344,0.01675128936767578,0.07261896133422852
1772574405606711800,2.0807119140625,0.06580257415771484,-0.002504706382751465,0.04818624258041382
1772574405616647000,2.09064697265625,0.10658740997314453,-0.00820004940032959,0.042533814907073975
1772574405626579700,2.100579833984375,0.1421346664428711,-0.04796004295349121,0.0791657567024231
1772574405636519200,2.110519287109375,0.1301727294921875,-0.05999398231506348,0.11071935296058655
1772574405646452500,2.120452392578125,0.09976387023925781,-0.016414523124694824,0.11904770135879517
1772574405656384300,2.13038427734375,0.0323028564453125,-0.002405405044555664,0.08078062534332275
1772574405666317600,2.140317626953125,0.02718639373779297,0.0018625259399414062,0.05720341205596924
1772574405676236500,2.150236572265625,0.008059501647949219,0.010773777961730957,0.08171853423118591
1772574405686168300,2.160168212890625,-0.010760307312011719,-0.022640466690063477,0.06375163793563843
1772574405696101000,2.17010107421875,0.013035774230957031,-0.017512202262878418,0.03600364923477173
1772574405706033000,2.180032958984375,0.031685829162597656,-0.002851247787475586,0.041376709938049316
1772574405715976000,2.189975830078125,0.02650737762451172,-0.026087641716003418,0.014244258403778076
1772574405725909000,2.199908935546875,0.0355987548828125,-0.030493974685668945,-0.0076021552085876465
1772574405735833000,2.2098330078125,0.025768280029296875,-0.02581608295440674,-0.005355566740036011
1772574405745765400,2.219765380859375,-0.0027189254760742188,-0.016407370567321777,-0.0073508620262146
1772574405755694300,2.2296943359375,-0.04017162322998047,0.026095986366271973,0.0003781914710998535
1772574405765626000,2.239626220703125,-0.08178901672363281,0.0167999267578125,0.008180081844329834
1772574405775562000,2.24956201171875,-0.07570171356201172,0.0035483837127685547,-0.007603049278259277
1772574405785494300,2.259494384765625,-0.036846160888671875,0.01926589012145996,0.00461125373840332
1772574405795430000,2.269429931640625,-0.022207260131835938,0.020797252655029297,0.021331191062927246
1772574405805362400,2.279362548828125,-0.0030946731567382812,0.036344170570373535,0.004750490188598633
1772574405815268600,2.2892685546875,-0.007869720458984375,0.01398015022277832,-0.016717612743377686
1772574405825198600,2.299198486328125,0.01564788818359375,0.02968418598175049,-0.029056012630462646
1772574405835136500,2.309136474609375,0.010495185852050781,0.02629399299621582,-0.00402146577835083
1772574405845067000,2.31906689453125,0.01953887939453125,0.02767312526702881,-0.012653470039367676
1772574405855020500,2.3290205078125,0.028451919555664062,0.02413487434387207,-0.02592313289642334
1772574405864953600,2.33895361328125,0.05604839324951172,0.0017123222351074219,-0.02045339345932007
1772574405874886700,2.34888671875,0.07846355438232422,0.017421722412109375,-0.015101253986358643
1772574405884819700,2.35881982421875,0.07703113555908203,-0.0004979372024536133,0.00928419828414917
1772574405894755300,2.36875537109375,0.03803825378417969,0.018947124481201172,-0.004304945468902588
1772574405904688600,2.378688720703125,-0.04264640808105469,0.018831729888916016,-0.0038434863090515137
1772574405914628400,2.38862841796875,-0.056153297424316406,0.00950777530670166,-0.01389986276626587
1772574405924562200,2.398562255859375,0.029338836669921875,-0.003973245620727539,-0.010680794715881348
1772574405934464500,2.408464599609375,0.09935855865478516,-0.022246956825256348,0.007304072380065918
1772574405944395300,2.418395263671875,0.06476593017578125,-0.0313950777053833,-0.00675511360168457
1772574405954342000,2.428341796875,0.0025968551635742188,-0.03619098663330078,-0.015280187129974365
1772574405964274400,2.4382744140625,-0.053793907165527344,-0.02237880229949951,-0.00023484230041503906
1772574405974187000,2.44818701171875,-0.052796363830566406,0.0008231401443481445,-0.02361196279525757
1772574405984117500,2.458117431640625,-0.02364826202392578,-0.004212379455566406,-0.009533286094665527
1772574405994054700,2.4680546875,-0.03738975524902344,0.005162596702575684,-0.000398099422454834
1772574406003985700,2.477985595703125,-0.03209400177001953,-0.008955121040344238,-0.014944672584533691
1772574406013952000,2.487951904296875,-0.008073806762695312,-0.027248859405517578,-0.005418062210083008
1772574406023886600,2.497886474609375,-0.017412185668945312,-0.01688683032989502,-0.019291281700134277
1772574406033817300,2.5078173828125,-0.026617050170898438,-0.03464782238006592,0.00032806396484375
1772574406043751400,2.51775146484375,-0.016915321350097656,-0.013645052909851074,0.005883514881134033
1772574406053645300,2.527645263671875,-0.0074558258056640625,0.007796525955200195,-0.021230101585388184
1772574406063575600,2.537575439453125,0.03946495056152344,0.019757509231567383,-0.052836060523986816
1772574406073517000,2.54751708984375,0.057346343994140625,0.012369751930236816,-0.014129042625427246
1772574406083448300,2.5574482421875,0.07497596740722656,0.004684329032897949,-0.0232926607131958
1772574406093412400,2.567412353515625,0.08769035339355469,0.0013325214385986328,-0.02249598503112793
1772574406103347000,2.577346923828125,0.11439704895019531,0.002143263816833496,-0.026409447193145752
1772574406113239300,2.5872392578125,0.08427143096923828,0.011453032493591309,-0.053802311420440674
1772574406123169800,2.597169677734375,0.045284271240234375,0.015395879745483398,-0.05268651247024536
1772574406133128200,2.607128173828125,0.0022535324096679688,0.01906406879425049,-0.047094762325286865
1772574406143061200,2.617061279296875,-0.021188735961914062,0.01775217056274414,-0.022586464881896973
1772574406153021700,2.627021728515625,-0.03483390808105469,0.007316708564758301,-0.021589815616607666
1772574406162957600,2.63695751953125,-0.0435638427734375,-0.021587491035461426,-0.020536720752716064
1772574406172857600,2.646857666015625,-0.056838035583496094,-0.007736563682556152,-0.02412503957748413
1772574406182790100,2.6567900390625,-0.04163932800292969,-0.03179311752319336,-0.008829712867736816
1772574406192727600,2.6667275390625,-0.07854366302490234,-0.050432801246643066,0.0012136101722717285
1772574406202660400,2.676660400390625,-0.072540283203125,-0.03548872470855713,-0.008523404598236084
1772574406212596200,2.68659619140625,-0.01966094970703125,-0.020279645919799805,-0.014168083667755127
1772574406222529300,2.696529296875,0.013471603393554688,-0.019237518310546875,-0.015084385871887207
1772574406232459800,2.706459716796875,0.05078601837158203,-0.023128151893615723,-0.0018723011016845703
1772574406242392600,2.716392578125,0.04048442840576172,-0.013235688209533691,0.016518592834472656
1772574406252317700,2.726317626953125,0.04926586151123047,0.0006088018417358398,0.04404634237289429
1772574406262249700,2.736249755859375,0.020272254943847656,-0.01903390884399414,0.05229353904724121
1772574406272180200,2.74618017578125,0.029468536376953125,-0.005684971809387207,0.022747576236724854
1772574406282112000,2.756112060546875,0.01971721649169922,-0.011689186096191406,0.021958470344543457
1772574406292045000,2.766045166015625,0.0006999969482421875,-0.0175936222076416,0.03039848804473877
1772574406301977000,2.77597705078125,-0.018050193786621094,-0.013669371604919434,0.06677436828613281
1772574406311921400,2.78592138671875,-0.017668724060058594,-0.009605050086975098,0.07921448349952698
1772574406321824800,2.79582470703125,0.006203651428222656,-0.033438920974731445,0.06804576516151428
1772574406331744500,2.80574462890625,0.006117820739746094,-0.00947272777557373,0.0669201910495758
1772574406341657000,2.815656982421875,0.04837226867675781,0.004999756813049316,0.07528236508369446
1772574406361530600,2.835530517578125,0.07933330535888672,-0.00006902217864990234,0.05460923910140991
1772574406381397000,2.85539697265625,0.0022296905517578125,-0.016260743141174316,0.025215089321136475
1772574406391371800,2.865371826171875,-0.03534221649169922,-0.0171431303024292,0.005686283111572266
1772574406401308400,2.875308349609375,-0.04880523681640625,-0.012772798538208008,0.005471348762512207
1772574406411246600,2.88524658203125,-0.052669525146484375,-0.022092461585998535,-0.027284562587738037
1772574406421183500,2.89518359375,-0.04239654541015625,-0.02143692970275879,-0.03595179319381714
1772574406431062300,2.905062255859375,0.0053234100341796875,0.002854585647583008,-0.04045504331588745
1772574406440999200,2.914999267578125,0.04749011993408203,-0.006216645240783691,-0.05991685390472412
1772574406450966800,2.924966796875,0.027746200561523438,-0.010634303092956543,-0.04180663824081421
1772574406460906200,2.93490625,-0.000965118408203125,0.0030554533004760742,-0.03309577703475952
1772574406470831600,2.94483154296875,-0.038529396057128906,0.0019899606704711914,-0.03805059194564819
1772574406480769500,2.95476953125,-0.05664634704589844,0.0010362863540649414,-0.05706220865249634
1772574406490696000,2.964696044921875,-0.09331703186035156,0.0097123384475708,-0.05683368444442749
1772574406500632800,2.9746328125,-0.12001323699951172,0.004609584808349609,-0.04701709747314453
1772574406510560300,2.984560302734375,-0.08044052124023438,-0.027967095375061035,-0.07986730337142944
1772574406520496400,2.994496337890625,0.05254936218261719,-0.017041563987731934,-0.09839868545532227
1772574406530405600,3.004405517578125,0.11751461029052734,-0.030277490615844727,-0.04496479034423828
1772574406540339000,3.0143388671875,0.08736610412597656,-0.039286255836486816,-0.04331129789352417
1772574406550292200,3.024292236328125,0.05775642395019531,-0.0014618635177612305,-0.060820162296295166
1772574406560227600,3.0342275390625,0.05689525604248047,0.02140629291534424,-0.08314913511276245
1772574406570163700,3.044163818359375,0.03250694274902344,0.015530228614807129,-0.06766420602798462
1772574406580099000,3.05409912109375,0.017925262451171875,0.03358042240142822,-0.052073895931243896
1772574406590015700,3.064015625,-0.015193939208984375,0.018454670906066895,-0.04028666019439697
1772574406599949300,3.07394921875,-0.04773998260498047,0.008389592170715332,-0.051632821559906006
1772574406609861600,3.083861572265625,-0.09395408630371094,0.012998104095458984,-0.054031550884246826
1772574406619793000,3.09379296875,-0.12065696716308594,0.018004417419433594,-0.03341269493103027
1772574406629747000,3.103746826171875,-0.09994316101074219,0.056588053703308105,-0.032386064529418945
1772574406639680800,3.1136806640625,-0.042011260986328125,0.024494409561157227,-0.036601722240448
1772574406649613300,3.12361328125,-0.013309478759765625,0.007150411605834961,-0.04077315330505371
1772574406659547000,3.133546875,0.005527496337890625,0.03236114978790283,-0.030473709106445312
1772574406669497000,3.1434970703125,-0.004157066345214844,0.028584003448486328,-0.03440958261489868
1772574406679432200,3.15343212890625,-0.00894927978515625,0.019840359687805176,-0.029203593730926514
1772574406689325800,3.163325927734375,0.005177497863769531,0.01602911949157715,-0.0049880146980285645
1772574406699256800,3.1732568359375,-0.0044841766357421875,0.017290472984313965,-0.023062944412231445
1772574406709184300,3.183184326171875,0.051914215087890625,0.009302377700805664,-0.017219126224517822
1772574406719115000,3.193114990234375,0.11678314208984375,-0.017291545867919922,0.0027412772178649902
1772574406729071600,3.203071533203125,0.1430044174194336,-0.02530848979949951,-0.0009694695472717285
1772574406739005000,3.2130048828125,0.14066696166992188,-0.02480018138885498,-0.01407623291015625
1772574406748949200,3.22294921875,0.12908267974853516,-0.006573677062988281,-0.008330285549163818
1772574406758883600,3.232883544921875,0.08009529113769531,0.029485344886779785,-0.0076784491539001465
1772574406768799700,3.2427998046875,0.0131378173828125,0.03148388862609863,0.0067855119705200195
1772574406778732300,3.252732177734375,-0.015021324157714844,0.005081534385681152,0.011564910411834717
1772574406788674800,3.2626748046875,-0.04274463653564453,0.007771492004394531,0.030692219734191895
1772574406798608400,3.2726083984375,-0.046474456787109375,0.0014036893844604492,0.054912686347961426
1772574406808532200,3.2825322265625,-0.069000244140625,-0.013877272605895996,0.050965845584869385
1772574406818464800,3.29246484375,-0.06765937805175781,-0.04262232780456543,0.028264522552490234
1772574406828400000,3.302400146484375,-0.04290962219238281,-0.02791917324066162,0.03827226161956787
1772574406838333200,3.312333251953125,-0.009232521057128906,-0.012964367866516113,0.043190181255340576
1772574406848260600,3.322260498046875,0.01912975311279297,-0.002665996551513672,0.03850823640823364
1772574406858193000,3.33219287109375,0.047046661376953125,0.002439141273498535,0.03838628530502319
1772574406868126200,3.342126220703125,0.003922462463378906,-0.030706405639648438,0.04278695583343506
1772574406878058800,3.352058837890625,-0.02901172637939453,-0.007287502288818359,0.065773606300354
1772574406887988000,3.361988037109375,-0.042575836181640625,-0.002980828285217285,0.06015139818191528
1772574406897920300,3.371920166015625,-0.037125587463378906,-0.00303494930267334,0.05947113037109375
1772574406907853300,3.381853271484375,0.015293121337890625,-0.0028694868087768555,0.04942399263381958
1772574406917785600,3.39178564453125,0.05269908905029297,0.020930886268615723,0.044239938259124756
1772574406927720700,3.401720703125,0.08011245727539062,0.04424571990966797,0.05860638618469238
1772574406937653200,3.4116533203125,0.055393218994140625,0.02419114112854004,0.05931127071380615
1772574406947597800,3.421597900390625,-0.01591968536376953,0.013182282447814941,0.045679330825805664
1772574406957531600,3.43153173828125,-0.03896808624267578,0.030514836311340332,0.03659182786941528
1772574406967463400,3.44146337890625,-0.052234649658203125,0.02411651611328125,0.05109763145446777
1772574406977397000,3.45139697265625,-0.037059783935546875,0.013311386108398438,0.032287657260894775
1772574406987327700,3.46132763671875,-0.02687835693359375,0.02172219753265381,0.01369011402130127
1772574406997261000,3.471260986328125,-0.0074748992919921875,0.025490880012512207,0.018958628177642822
1772574407007189000,3.48118896484375,0.0634002685546875,0.029096484184265137,0.0003947615623474121
1772574407017121500,3.49112158203125,0.10487651824951172,0.018214106559753418,-0.008542954921722412
1772574407027045000,3.501045166015625,0.0845479965209961,0.0020903348922729492,0.006284832954406738
1772574407036977000,3.510976806640625,0.04584789276123047,-0.014565110206604004,0.007054805755615234
1772574407046909700,3.52090966796875,-0.01564502716064453,-0.008098840713500977,-0.006099700927734375
1772574407056841700,3.530841796875,-0.06677055358886719,-0.024880528450012207,0.008813619613647461
1772574407066733800,3.54073388671875,-0.07948875427246094,-0.0029011964797973633,0.018666446208953857
1772574407076661800,3.550661865234375,-0.06853199005126953,-0.01356351375579834,0.02382272481918335
1772574407086642400,3.560642333984375,-0.0578155517578125,-0.02364492416381836,0.02410048246383667
1772574407096575700,3.57057568359375,-0.05677032470703125,-0.028537988662719727,0.00023740530014038086
1772574407106502000,3.580501953125,-0.032227516174316406,-0.03304779529571533,0.028767406940460205
1772574407116434400,3.590434326171875,-0.022233963012695312,-0.009136319160461426,0.04268306493759155
1772574407126347500,3.600347412109375,-0.0218353271484375,-0.0044515132904052734,0.03263592720031738
1772574407136278000,3.610278076171875,-0.04971790313720703,-0.013970732688903809,0.03177160024642944
1772574407146252300,3.620252197265625,-0.053643226623535156,0.00041866302490234375,0.05878162384033203
1772574407156187400,3.6301875,-0.038745880126953125,0.010362386703491211,0.07101762294769287
1772574407166082000,3.64008203125,-0.019454002380371094,0.020644664764404297,0.06423234939575195
1772574407176013000,3.650012939453125,0.023085594177246094,0.016745686531066895,0.04886949062347412
1772574407185944300,3.6599443359375,0.05087089538574219,0.017319202423095703,0.03917449712753296
1772574407195875300,3.669875244140625,0.07825756072998047,-0.001353144645690918,0.04396790266036987
1772574407205813200,3.679813232421875,0.09581756591796875,0.026981472969055176,0.06273388862609863
1772574407215744800,3.689744873046875,0.0707845687866211,0.03991985321044922,0.03361153602600098
1772574407225704700,3.69970458984375,0.04152488708496094,0.04252910614013672,0.028040528297424316
1772574407235639300,3.709639404296875,0.012736320495605469,0.021555542945861816,0.04580432176589966
1772574407245570600,3.719570556640625,0.02208995819091797,0.010332226753234863,0.039588749408721924
1772574407255504600,3.729504638671875,0.02192211151123047,-0.005401611328125,0.05324232578277588
1772574407265403400,3.7394033203125,0.0312347412109375,-0.025771379470825195,0.029613196849822998
1772574407275334000,3.749333984375,0.01216888427734375,-0.013036370277404785,0.025241613388061523
1772574407285295900,3.7592958984375,-0.025404930114746094,-0.014745950698852539,0.016135990619659424
1772574407295229700,3.769229736328125,-0.038840293884277344,-0.021018147468566895,0.044573843479156494
1772574407305130500,3.779130615234375,-0.0191497802734375,-0.0174560546875,0.020454466342926025
1772574407315061000,3.78906103515625,0.014319419860839844,-0.004434466361999512,0.02961057424545288
1772574407325022500,3.7990224609375,0.01907062530517578,-0.025115489959716797,0.038977086544036865
1772574407334956000,3.8089560546875,-0.009128570556640625,-0.027025580406188965,0.05347102880477905
1772574407344894200,3.818894287109375,-0.013247489929199219,-0.024385929107666016,0.04491162300109863
1772574407354828300,3.828828369140625,0.034511566162109375,-0.012472391128540039,-0.024717628955841064
1772574407364755500,3.83875537109375,0.057929039001464844,0.00874471664428711,0.0011444687843322754
1772574407374688800,3.848688720703125,0.029216766357421875,-0.022495627403259277,0.026764094829559326
1772574407384611300,3.858611328125,0.019840240478515625,-0.03434884548187256,0.01946359872817993
1772574407394543600,3.868543701171875,0.04826545715332031,-0.03177523612976074,-0.016151726245880127
1772574407404486700,3.878486572265625,0.03381633758544922,-0.015050292015075684,0.0003541707992553711
1772574407414420000,3.888419921875,-0.060507774353027344,-0.003316164016723633,0.0247802734375
1772574407424359000,3.89835888671875,-0.007358551025390625,-0.024904727935791016,0.05198127031326294
1772574407434292700,3.908292724609375,-0.006833076477050781,0.0010485649108886719,0.032835543155670166
1772574407444204800,3.918204833984375,-0.006375312805175781,0.0321805477142334,0.010388314723968506
1772574407454136600,3.928136474609375,-0.034264564514160156,-0.011938691139221191,-0.011768341064453125
1772574407464070100,3.938070068359375,-0.0052738189697265625,0.010905027389526367,0.008031666278839111
1772574407474002000,3.948001953125,-0.08033180236816406,-0.00870203971862793,0.033329010009765625
1772574407483913700,3.957913818359375,-0.12127304077148438,0.01029503345489502,-0.026740849018096924
1772574407493843700,3.96784375,-0.053452491760253906,0.001332402229309082,-0.017473340034484863
1772574407503801300,3.97780126953125,-0.033913612365722656,0.016359806060791016,-0.004069864749908447
1772574407513734000,3.98773388671875,-0.03832530975341797,-0.006227254867553711,-0.015119373798370361
1772574407523666200,3.997666259765625,-0.0285491943359375,-0.0001804828643798828,-0.021463096141815186
1772574407533599000,4.007598876953125,-0.004786491394042969,0.005759596824645996,0.0009382963180541992
1772574407553465900,4.0274658203125,0.08378791809082031,0.03068065643310547,-0.02571392059326172
1772574407563394600,4.03739453125,0.08228778839111328,0.006790876388549805,-0.021979868412017822
1772574407573326800,4.047326904296875,0.05737876892089844,0.01546168327331543,-0.01829516887664795
1772574407583259100,4.057259033203125,0.028212547302246094,0.028400659561157227,-0.010049998760223389
1772574407593191700,4.067191650390625,-0.00514984130859375,0.022194743156433105,0.0029810667037963867
1772574407603124000,4.0771240234375,-0.0050182342529296875,0.016293048858642578,-0.0029386281967163086
1772574407613056500,4.087056396484375,-0.004933357238769531,0.020113468170166016,0.000370025634765625
1772574407622993000,4.096992919921875,-0.00016880035400390625,0.01466512680053711,-0.0010579824447631836
1772574407632925700,4.10692578125,0.009248733520507812,-0.009532690048217773,0.007343709468841553
1772574407642860000,4.116860107421875,0.027879714965820312,0.004642844200134277,0.0013788938522338867
1772574407652793000,4.12679296875,0.02261829376220703,-0.018897294998168945,0.004702329635620117
1772574407662730000,4.13672998046875,0.031586647033691406,-0.0187147855758667,-0.015801966190338135
1772574407672663600,4.14666357421875,0.021528244018554688,-0.018434882164001465,-0.01763218641281128
1772574407682596900,4.156596923828125,0.06338214874267578,-0.027286767959594727,-0.005534827709197998
1772574407692530200,4.1665302734375,0.05749034881591797,-0.03148937225341797,-0.007577955722808838
1772574407702451000,4.176450927734375,0.06119728088378906,-0.017166972160339355,-0.009027600288391113
1772574407712383200,4.18638330078125,0.013106346130371094,-0.012802600860595703,-0.024279296398162842
1772574407722316800,4.19631689453125,-0.020026206970214844,-0.00860607624053955,-0.015418648719787598
1772574407732249000,4.2062490234375,-0.019632339477539062,-0.028106212615966797,-0.039624154567718506
1772574407742195700,4.21619580078125,-0.023987770080566406,-0.01412653923034668,-0.011747479438781738
1772574407752129500,4.226129638671875,-0.014168739318847656,-0.02832925319671631,-0.01228398084640503
1772574407762044000,4.2360439453125,-0.04687690734863281,0.009405016899108887,-0.05046504735946655
1772574407771975700,4.2459755859375,-0.0696115493774414,-0.0007772445678710938,-0.031809210777282715
1772574407781909000,4.255908935546875,-0.06845760345458984,0.00804448127746582,-0.023484468460083008
1772574407791841000,4.265841064453125,-0.057969093322753906,-0.006528019905090332,-0.03454798460006714
1772574407801778000,4.27577783203125,-0.042998313903808594,-0.0064307451248168945,-0.022085964679718018
1772574407811710200,4.285710205078125,-0.023557662963867188,0.007779598236083984,-0.03790867328643799
1772574407821638700,4.295638671875,-0.013815879821777344,0.007320404052734375,-0.05818909406661987
1772574407831570700,4.30557080078125,-0.008991241455078125,-0.011675477027893066,-0.05000877380371094
1772574407841516300,4.315516357421875,0.00043487548828125,-0.011034011840820312,-0.03178739547729492
1772574407851449600,4.32544970703125,0.009764671325683594,-0.005695223808288574,-0.036305785179138184
1772574407861371100,4.33537109375,0.037795066833496094,-0.005159854888916016,-0.021526575088500977
1772574407871303200,4.34530322265625,0.03717041015625,-0.005135297775268555,-0.035345613956451416
1772574407881223200,4.35522314453125,0.02250194549560547,0.008407235145568848,-0.04444015026092529
1772574407891154200,4.365154296875,-0.02478504180908203,-0.007253408432006836,-0.03460419178009033
1772574407901099500,4.375099609375,-0.06180858612060547,-0.004122376441955566,-0.010505080223083496
1772574407911032000,4.385031982421875,-0.09349822998046875,-0.01488196849822998,-0.00948786735534668
1772574407920964600,4.394964599609375,-0.14357376098632812,-0.0339808464050293,-0.026532471179962158
1772574407930897200,4.404897216796875,-0.13649463653564453,-0.023104071617126465,-0.0054239630699157715
1772574407940828400,4.414828369140625,-0.08736419677734375,-0.015706539154052734,-0.008498072624206543
1772574407950761000,4.424760986328125,-0.010989189147949219,-0.03547394275665283,-0.021325767040252686
1772574407960704800,4.434704833984375,0.026373863220214844,-0.030957341194152832,-0.02480870485305786
1772574407970638300,4.444638427734375,0.034834861755371094,-0.007590651512145996,-0.014423608779907227
1772574407980559000,4.45455908203125,0.057274818420410156,-0.008060693740844727,-0.037071943283081055
1772574407990491400,4.464491455078125,0.055812835693359375,0.0007991790771484375,-0.026381731033325195
1772574408000435700,4.474435791015625,0.10155010223388672,-0.005027890205383301,-0.010597527027130127
1772574408010369300,4.484369384765625,0.151397705078125,0.0024548768997192383,-0.013221979141235352
1772574408020291300,4.494291259765625,0.16293907165527344,0.00851130485534668,0.008053362369537354
1772574408030223600,4.5042236328125,0.12734508514404297,-0.014883041381835938,-0.02761298418045044
1772574408040155100,4.514155029296875,0.08777332305908203,0.008081316947937012,-0.03466111421585083
1772574408050087400,4.52408740234375,0.04897308349609375,-0.022048234939575195,0.0005577206611633301
1772574408060019000,4.53401904296875,-0.007997512817382812,-0.028434395790100098,-0.021715819835662842
1772574408069951000,4.543950927734375,-0.06406307220458984,-0.0015588998794555664,-0.020390450954437256
1772574408079890200,4.55389013671875,-0.07694530487060547,-0.0026682615280151367,-0.00553739070892334
1772574408089823000,4.563822998046875,-0.08033943176269531,0.0017603635787963867,0.013186752796173096
1772574408099748600,4.57374853515625,-0.060219764709472656,0.020743370056152344,-0.00166243314743042
1772574408109680600,4.5836806640625,-0.03575325012207031,-0.007480621337890625,0.007264971733093262
1772574408119612700,4.59361279296875,-0.011686325073242188,-0.021226167678833008,0.006485283374786377
1772574408129545000,4.603544921875,-0.011525154113769531,-0.025532126426696777,0.01061469316482544
1772574408139482000,4.613482177734375,-0.020769119262695312,-0.02495133876800537,0.02460843324661255
1772574408149377000,4.623376953125,-0.025146484375,-0.01957225799560547,0.005709052085876465
1772574408159309600,4.6333095703125,-0.03419971466064453,-0.018683314323425293,0.00597381591796875
1772574408169274000,4.643274169921875,-0.02904224395751953,-0.003278374671936035,-0.02221769094467163
1772574408179209500,4.65320947265625,-0.019350051879882812,0.00284576416015625,-0.02701324224472046
1772574408189151000,4.66315087890625,0.03251934051513672,-0.005044460296630859,-0.02248591184616089
1772574408199086800,4.6730869140625,0.06000328063964844,0.0011152029037475586,-0.022856175899505615
1772574408209003500,4.68300341796875,0.10591793060302734,0.006774306297302246,-0.023205339908599854
1772574408218937600,4.6929375,0.09469795227050781,0.011643171310424805,-0.022832930088043213
1772574408228864500,4.702864501953125,0.05083179473876953,0.03906357288360596,-0.008253931999206543
1772574408238797800,4.7127978515625,0.021909713745117188,0.03245735168457031,-0.022082507610321045
1772574408248738300,4.72273828125,-0.020590782165527344,0.01614058017730713,-0.016645073890686035
1772574408258672400,4.73267236328125,-0.05293846130371094,0.01402747631072998,-0.025410950183868408
1772574408268582700,4.742582763671875,-0.08007144927978516,0.0168459415435791,-0.0012125372886657715
1772574408278514400,4.752514404296875,-0.10208511352539062,0.0058786869049072266,0.027465224266052246
1772574408288462600,4.762462646484375,-0.07663631439208984,0.018741607666015625,-0.0004215240478515625
1772574408298396000,4.77239599609375,-0.06577396392822266,-0.010896444320678711,0.01881176233291626
1772574408308331800,4.782331787109375,-0.04098796844482422,-0.03544414043426514,0.01355135440826416
1772574408318265300,4.792265380859375,-0.0024929046630859375,-0.03143107891082764,-0.00604856014251709
1772574408328192300,4.802192138671875,0.007151603698730469,-0.05613112449645996,-0.020800113677978516
1772574408338125000,4.812125,0.011980056762695312,-0.057184576988220215,-0.020993411540985107
1772574408348036600,4.82203662109375,-0.01621532440185547,-0.04879331588745117,-0.016159653663635254
1772574408357967400,4.83196728515625,-0.029822349548339844,-0.04045093059539795,-0.0019030570983886719
1772574408367899400,4.8418994140625,-0.07147026062011719,-0.055584073066711426,-0.011212766170501709
1772574408377830100,4.851830078125,-0.10782432556152344,-0.0743643045425415,-0.006228029727935791
1772574408387768600,4.8617685546875,-0.09668159484863281,-0.05385160446166992,0.02192908525466919
1772574408397700400,4.871700439453125,-0.07175636291503906,-0.05131125450134277,0.02146613597869873
1772574408407634200,4.88163427734375,-0.014374732971191406,-0.05281877517700195,0.0022772550582885742
1772574408417566000,4.89156591796875,0.027921676635742188,-0.039969444274902344,0.012075185775756836
1772574408427496700,4.90149658203125,0.031914710998535156,-0.0040808916091918945,0.04578202962875366
1772574408437428500,4.911428466796875,0.026464462280273438,-0.0020399093627929688,0.04599440097808838
1772574408447358000,4.92135791015625,0.025789260864257812,0.00007283687591552734,0.027181625366210938
1772574408457289500,4.93128955078125,0.025096893310546875,0.02097952365875244,0.03171032667160034
1772574408467227000,4.941226806640625,0.03384971618652344,0.01768326759338379,0.035735130310058594
1772574408477159000,4.951158935546875,0.042504310607910156,0.02356874942779541,0.011568844318389893
1772574408487120600,4.96112060546875,0.065185546875,0.0431901216506958,0.01617109775543213
1772574408497055700,4.9710556640625,0.05929756164550781,0.06206810474395752,0.03489577770233154
1772574408506959400,4.98095947265625,0.020624160766601562,0.05669713020324707,0.03490090370178223
1772574408516891400,4.990891357421875,0.006190299987792969,0.03700125217437744,0.01630103588104248
1772574408526840600,5.000840576171875,0.0014562606811523438,0.05960285663604736,0.026049435138702393
1772574408536774400,5.0107744140625,-0.02678203582763672,0.07241106033325195,0.03022247552871704
1772574408546720000,5.020719970703125,-0.031076431274414062,0.06647849082946777,-0.013249576091766357
1772574408556654800,5.03065478515625,-0.049393653869628906,0.05111563205718994,-0.0039275288581848145
1772574408566609000,5.04060888671875,-0.03443431854248047,0.041013479232788086,0.010839343070983887
1772574408576545500,5.050545654296875,-0.029181480407714844,0.022282123565673828,0.0166856050491333
1772574408586433000,5.06043310546875,-0.005214691162109375,0.027619123458862305,0.0035338401794433594
1772574408596365000,5.070364990234375,0.0042285919189453125,0.02806270122528076,-0.0378454327583313
1772574408606281500,5.080281494140625,0.018197059631347656,0.014253973960876465,-0.03690153360366821
1772574408616212000,5.0902119140625,0.027169227600097656,0.010211586952209473,-0.0272180438041687
1772574408626180600,5.1001806640625,0.03127861022949219,0.02025926113128662,-0.03684765100479126
1772574408636115000,5.110114990234375,0.06362533569335938,-0.017374277114868164,-0.041659772396087646
1772574408646027800,5.12002783203125,0.04845905303955078,-0.026842951774597168,-0.04140770435333252
1772574408655959800,5.129959716796875,0.010118484497070312,-0.0038262605667114258,-0.031208276748657227
1772574408665895400,5.1398955078125,-0.060515403747558594,-0.0002465248107910156,-0.040053725242614746
1772574408675827700,5.14982763671875,-0.1065225601196289,0.008585214614868164,-0.05366140604019165
1772574408685760000,5.159760009765625,-0.09547138214111328,0.02809286117553711,-0.05802685022354126
1772574408695692500,5.169692626953125,-0.023520469665527344,0.01992166042327881,-0.05301600694656372
1772574408705631000,5.179630859375,0.0000858306884765625,0.04994654655456543,-0.029381871223449707
1772574408715564000,5.18956396484375,0.02800750732421875,0.04650390148162842,-0.03911447525024414
1772574408725492500,5.199492431640625,0.07904815673828125,0.023976683616638184,-0.025154829025268555
1772574408735425000,5.209425048828125,0.1057891845703125,0.01052844524383545,-0.030289292335510254
1772574408745330700,5.21933056640625,0.12278270721435547,0.0340573787689209,-0.030754268169403076
1772574408755260400,5.229260498046875,0.12079811096191406,0.04676711559295654,-0.007584214210510254
1772574408765224000,5.239223876953125,0.07193374633789062,0.04872441291809082,-0.012679338455200195
1772574408775157000,5.249156982421875,0.06638050079345703,0.021599173545837402,0.02018076181411743
1772574408785093400,5.25909326171875,0.0044689178466796875,0.022975444793701172,0.04347711801528931
1772574408795027000,5.26902685546875,-0.03756237030029297,-0.0037206411361694336,0.048253536224365234
1772574408804927200,5.27892724609375,-0.04125499725341797,-0.010827302932739258,0.039021313190460205
1772574408814857500,5.288857421875,-0.04496288299560547,-0.007992148399353027,0.038987696170806885
1772574408824813300,5.298813232421875,-0.02521038055419922,-0.018428564071655273,0.04326140880584717
1772574408834746000,5.30874609375,0.0035829544067382812,-0.018957972526550293,0.04268139600753784
1772574408844681500,5.318681396484375,0.017737388610839844,-0.014551639556884766,0.03734278678894043
1772574408854614500,5.328614501953125,0.012829780578613281,0.003812551498413086,0.041423499584198
1772574408864546600,5.338546630859375,0.02689838409423828,0.016771912574768066,0.06910669803619385
1772574408874479400,5.348479248046875,0.007793426513671875,0.010491609573364258,0.06329488754272461
1772574408884422700,5.358422607421875,-0.010970115661621094,0.004125237464904785,0.0433807373046875
1772574408894356700,5.368356689453125,-0.048254966735839844,-0.002133607864379883,0.037924110889434814
1772574408904275200,5.378275146484375,-0.04257488250732422,0.020172476768493652,0.0560145378112793
1772574408914207700,5.388207763671875,-0.0182037353515625,0.023684144020080566,0.05509662628173828
1772574408924138500,5.398138427734375,-0.01779651641845703,0.03225362300872803,0.050202012062072754
1772574408934070800,5.40807080078125,-0.022129058837890625,0.05039870738983154,0.05510753393173218
1772574408944001500,5.41800146484375,-0.040561676025390625,0.05913126468658447,0.045718491077423096
1772574408953933800,5.427933837890625,-0.02575206756591797,0.044275760650634766,0.026867926120758057
1772574408963868200,5.4378681640625,0.0075740814208984375,0.05350649356842041,0.017232775688171387
1772574408973800700,5.44780078125,0.04500579833984375,0.06268954277038574,-0.006956517696380615
1772574408983745300,5.457745361328125,0.0724344253540039,0.05718648433685303,0.0019015073776245117
1772574408993678800,5.467678955078125,0.0758962631225586,0.042145609855651855,-0.012857615947723389
1772574409003611400,5.477611328125,0.07466411590576172,0.03636503219604492,-0.003540217876434326
1772574409013545000,5.487544921875,0.08297538757324219,0.015951991081237793,-0.017519354820251465
1772574409023481900,5.49748193359375,0.06300735473632812,0.018611669540405273,-0.021862328052520752
1772574409033415700,5.507415771484375,0.04818153381347656,-0.0031311511993408203,-0.026362061500549316
1772574409043329800,5.517329833984375,0.024207115173339844,0.0035386085510253906,-0.026192545890808105
1772574409053261600,5.527261474609375,0.014769554138183594,-0.00894320011138916,-0.021619737148284912
1772574409063198500,5.537198486328125,0.029067039489746094,-0.007293820381164551,-0.0028977394104003906
1772574409073130800,5.547130859375,-0.027503013610839844,-0.014992833137512207,0.010990321636199951
1772574409083036200,5.5570361328125,-0.04073143005371094,-0.027463555335998535,0.019838333129882812
1772574409092966000,5.5669658203125,-0.05375480651855469,-0.02560269832611084,0.03295868635177612
1772574409102923500,5.576923583984375,-0.09958934783935547,-0.03289079666137695,0.03595125675201416
1772574409112856000,5.58685595703125,-0.08827781677246094,-0.025214076042175293,0.014966011047363281
1772574409122788400,5.596788330078125,-0.053725242614746094,-0.03098154067993164,0.02730482816696167
1772574409132721000,5.606720947265625,-0.010390281677246094,-0.04065239429473877,0.054280877113342285
1772574409142655700,5.61665576171875,-0.00075531005859375,-0.021503090858459473,0.03914695978164673
1772574409152588300,5.62658837890625,0.013456344604492188,-0.007381439208984375,0.06243622303009033
1772574409162516700,5.636516845703125,0.027459144592285156,-0.01250767707824707,0.05714195966720581
1772574409172449000,5.646448974609375,0.04125499725341797,-0.03688514232635498,0.06054985523223877
1772574409182383600,5.656383544921875,0.05957984924316406,-0.009664535522460938,0.04917234182357788
1772574409192316200,5.666316162109375,-0.007103919982910156,0.01199793815612793,0.061441123485565186
1772574409202257000,5.6762568359375,-0.05384349822998047,-0.018390417098999023,0.07842817902565002
1772574409212190500,5.6861904296875,-0.06681442260742188,-0.029324889183044434,0.09125593304634094
1772574409222110500,5.6961103515625,-0.09374713897705078,-0.030033349990844727,0.08098521828651428
1772574409232042500,5.70604248046875,-0.06848430633544922,-0.03041362762451172,0.04728567600250244
1772574409241958400,5.71595849609375,-0.06726932525634766,-0.03978586196899414,0.04193979501724243
1772574409251888600,5.725888671875,-0.08494758605957031,-0.0299454927444458,0.045956432819366455
1772574409261842000,5.735842041015625,-0.08827400207519531,-0.024576187133789062,0.05912220478057861
1772574409271774500,5.7457744140625,-0.07750225067138672,-0.023297548294067383,0.0441325306892395
1772574409281716500,5.755716552734375,-0.0763864517211914,-0.0073899030685424805,0.043775975704193115
1772574409291650000,5.765650146484375,-0.047088623046875,0.008652567863464355,0.043525099754333496
1772574409301572000,5.775572021484375,-0.013637542724609375,-0.012842416763305664,0.0524943470954895
1772574409311504400,5.78550439453125,0.019212722778320312,-0.024342894554138184,0.056346774101257324
1772574409321439200,5.795439208984375,0.051505088806152344,-0.021530747413635254,0.03166818618774414
1772574409331371800,5.805371826171875,0.08800125122070312,-0.009538412094116211,0.05932345986366272
1772574409341303800,5.8153037109375,0.12394046783447266,-0.0028558969497680664,0.048748135566711426
1772574409351236400,5.825236328125,0.13115787506103516,0.01233518123626709,0.06220683455467224
1772574409361169000,5.8351689453125,0.12897109985351562,0.031189441680908203,0.052327632904052734
1772574409371101700,5.845101806640625,0.09396743774414062,0.015965938568115234,0.033095717430114746
1772574409381034000,5.855033935546875,0.07845878601074219,0.03326416015625,0.023228108882904053
1772574409390966500,5.864966552734375,0.07266044616699219,0.04516863822937012,0.02726346254348755
1772574409400900600,5.874900634765625,0.03874969482421875,0.023628711700439453,0.03598296642303467
1772574409410833200,5.884833251953125,0.024278640747070312,0.03992629051208496,0.04007834196090698
1772574409420752100,5.894752197265625,-0.02288532257080078,0.023000240325927734,0.03991347551345825
1772574409430683600,5.90468359375,-0.04571533203125,0.0018461942672729492,0.030938148498535156
1772574409440626000,5.9146259765625,-0.06812191009521484,-0.00022304058074951172,0.032034099102020264
1772574409450558200,5.92455810546875,-0.06663799285888672,-0.0019538402557373047,0.03341192007064819
1772574409460502800,5.934502685546875,-0.06055927276611328,-0.017073631286621094,0.002024412155151367
1772574409470436600,5.9444365234375,-0.04991436004638672,-0.0035823583602905273,-0.01049572229385376
1772574409480368400,5.954368408203125,-0.08658981323242188,-0.023180246353149414,-0.004790246486663818
1772574409490302000,5.964302001953125,-0.10387039184570312,-0.004581809043884277,-0.03724992275238037
1772574409500227800,5.974227783203125,-0.11150741577148438,-0.018840432167053223,-0.03628039360046387
1772574409510160400,5.984160400390625,-0.06728553771972656,-0.032465338706970215,-0.021315693855285645
1772574409520084700,5.994084716796875,-0.02382946014404297,-0.04547321796417236,-0.02025395631790161
1772574409530016500,6.0040166015625,-0.014057159423828125,-0.020293712615966797,-0.008990287780761719
1772574409539930600,6.0139306640625,-0.004445075988769531,-0.023691773414611816,-0.011756956577301025
1772574409549860900,6.02386083984375,0.019094467163085938,-0.012693524360656738,-0.0334816575050354
1772574409559792000,6.033792236328125,0.03278160095214844,-0.0017830133438110352,-0.027108609676361084
1772574409569722400,6.043722412109375,0.06979656219482422,0.01816260814666748,-0.002308785915374756
1772574409579657000,6.053656982421875,0.07796478271484375,0.009313225746154785,0.01253199577331543
1772574409589587500,6.06358740234375,0.08606529235839844,0.02374732494354248,-0.01506572961807251
1772574409599520500,6.0735205078125,0.0799417495727539,0.009377479553222656,-0.004663050174713135
1772574409609451500,6.083451416015625,0.09280872344970703,0.004363417625427246,0.029309868812561035
1772574409619426800,6.0934267578125,0.08674812316894531,0.0034238100051879883,0.0018841028213500977
1772574409629362200,6.103362060546875,0.0761566162109375,0.006693124771118164,0.01263737678527832
1772574409639254500,6.113254638671875,0.07050609588623047,0.009508371353149414,0.009066164493560791
1772574409649185500,6.123185546875,0.055591583251953125,0.016559958457946777,-0.01802527904510498
1772574409659151600,6.133151611328125,0.026842117309570312,-0.004978179931640625,-0.016235530376434326
1772574409669086200,6.143086181640625,0.026854515075683594,-0.030981063842773438,-0.00010985136032104492
1772574409678985500,6.1529853515625,0.012722969055175781,-0.037712812423706055,0.006009459495544434
1772574409688916500,6.16291650390625,0.008292198181152344,-0.0259019136428833,-0.0069893598556518555
1772574409698847000,6.172846923828125,-0.038448333740234375,-0.028413057327270508,-0.02928900718688965
1772574409708778000,6.182778076171875,-0.05149078369140625,-0.05433034896850586,-0.05173307657241821
1772574409718732000,6.19273193359375,-0.07846832275390625,-0.05608344078063965,-0.04556441307067871
1772574409728665300,6.202665283203125,-0.11920642852783203,-0.038275718688964844,-0.025101542472839355
1772574409738604000,6.21260400390625,-0.1405954360961914,-0.0008203983306884766,-0.028608381748199463
1772574409748537900,6.222537841796875,-0.15711593627929688,-0.009876370429992676,-0.05130743980407715
1772574409758481400,6.2324814453125,-0.09821033477783203,-0.022408246994018555,-0.04593610763549805
1772574409768416300,6.242416259765625,-0.06400108337402344,-0.024123430252075195,-0.04539144039154053
1772574409778325800,6.25232568359375,-0.006885528564453125,-0.025222420692443848,-0.03986078500747681
1772574409788258000,6.262258056640625,0.021024703979492188,-0.021309375762939453,-0.024360060691833496
1772574409798166800,6.272166748046875,0.034354209899902344,-0.012378454208374023,0.0013561248779296875
1772574409808099000,6.28209912109375,0.061656951904296875,0.00542902946472168,-0.0014025568962097168
1772574409837897700,6.311897705078125,0.0024547576904296875,0.01576995849609375,-0.023246705532073975
1772574409857792500,6.33179248046875,0.03960418701171875,-0.015735268592834473,-0.00830543041229248
1772574409867727600,6.3417275390625,0.015362739562988281,-0.024099111557006836,0.0024782419204711914
1772574409877654800,6.35165478515625,-0.0037059783935546875,0.01446676254272461,0.00868767499923706
1772574409887589000,6.361589111328125,0.005755424499511719,0.028752803802490234,-0.023763298988342285
1772574409897509400,6.37150927734375,0.06205940246582031,0.009940266609191895,-0.02862548828125
1772574409907442400,6.3814423828125,0.08450126647949219,-0.009160280227661133,-0.020084619522094727
1772574409917359600,6.391359619140625,0.07841682434082031,-0.0003981590270996094,0.0024275779724121094
1772574409927291100,6.401291015625,0.0725564956665039,-0.006605863571166992,-0.003273487091064453
1772574409937245000,6.411244873046875,0.01511383056640625,-0.02275228500366211,0.015121817588806152
1772574409947178500,6.421178466796875,-0.0130615234375,0.003545403480529785,0.04782509803771973
1772574409957107700,6.431107666015625,-0.031386375427246094,-0.022087574005126953,0.047123491764068604
1772574409967041000,6.441041015625,-0.03533363342285156,-0.05170130729675293,0.04152405261993408
1772574409976973000,6.45097314453125,-0.015753746032714844,-0.03304433822631836,0.04099929332733154
1772574409986906000,6.460906005859375,-0.005976676940917969,-0.04243612289428711,0.021878063678741455
1772574409996833300,6.470833251953125,0.01776599884033203,-0.04214763641357422,0.0033904314041137695
1772574410006765800,6.480765869140625,0.012869834899902344,-0.051381826400756836,0.022779643535614014
1772574410016701200,6.490701171875,0.008049964904785156,-0.05574202537536621,0.018230915069580078
1772574410026633700,6.5006337890625,0.022116661071777344,-0.04098248481750488,0.018494844436645508
1772574410036561200,6.51056103515625,0.031246185302734375,-0.04058849811553955,0.014159917831420898
1772574410046493400,6.520493408203125,0.007266044616699219,-0.04502213001251221,0.02850288152694702
1772574410056429000,6.530428955078125,-0.016332626342773438,-0.03526198863983154,0.04229158163070679
1772574410066361600,6.540361572265625,-0.06309127807617188,-0.02075517177581787,0.046734392642974854
1772574410076283000,6.550282958984375,-0.09498023986816406,-0.05307447910308838,0.06112140417098999
1772574410086214100,6.560214111328125,-0.12636470794677734,-0.05590677261352539,0.07645952701568604
1772574410096144100,6.57014404296875,-0.15723800659179688,-0.05316364765167236,0.08858001232147217
1772574410106075400,6.580075439453125,-0.2536020278930664,-0.05394184589385986,0.06430375576019287
1772574410116009200,6.59000927734375,-0.33443355560302734,-0.06198251247406006,0.06556224822998047
1772574410125940700,6.599940673828125,-0.34356117248535156,-0.06735718250274658,0.030296742916107178
1772574410135873800,6.609873779296875,-0.31984901428222656,-0.06570088863372803,-0.03697609901428223
1772574410145805600,6.6198056640625,-0.24507427215576172,-0.03361630439758301,-0.07106250524520874
1772574410155736800,6.62973681640625,-0.1576681137084961,-0.024329781532287598,-0.08729344606399536
1772574410165668600,6.639668701171875,-0.0718841552734375,-0.00028443336486816406,-0.07162457704544067
1772574410175602700,6.649602783203125,0.02646923065185547,0.028561711311340332,-0.08108854293823242
1772574410185534700,6.65953466796875,0.10898876190185547,0.04248857498168945,-0.13951092958450317
1772574410195470800,6.669470947265625,0.16662311553955078,0.09301066398620605,-0.1513804793357849
1772574410205403400,6.6794033203125,0.19039630889892578,0.12281620502471924,-0.11734622716903687
1772574410215331600,6.68933154296875,0.24683570861816406,0.15099143981933594,-0.12241321802139282
1772574410225263600,6.699263671875,0.31661415100097656,0.1679544448852539,-0.09950989484786987
1772574410235193300,6.709193359375,0.3666229248046875,0.2017291784286499,-0.09108960628509521
1772574410245125000,6.719125,0.3972625732421875,0.22318291664123535,-0.09220331907272339
1772574410255061800,6.729061767578125,0.3853588104248047,0.22723209857940674,-0.08891957998275757
1772574410264994000,6.738994140625,0.3598785400390625,0.22797715663909912,-0.06769979000091553
1772574410274950100,6.7489501953125,0.3304615020751953,0.20692408084869385,-0.009531199932098389
1772574410284884700,6.758884765625,0.2548789978027344,0.15044772624969482,-0.012431561946868896
1772574410294809300,6.768809326171875,0.16209983825683594,0.12556231021881104,-0.018785476684570312
1772574410304743000,6.778742919921875,0.038193702697753906,0.09965288639068604,-0.000023424625396728516
1772574410314675500,6.788675537109375,-0.08350086212158203,0.0502246618270874,-0.013241887092590332
1772574410324609000,6.798609130859375,-0.16076087951660156,0.006613016128540039,0.026417076587677002
1772574410334539500,6.80853955078125,-0.23683643341064453,-0.02585470676422119,0.023307740688323975
1772574410344472800,6.818472900390625,-0.2741813659667969,-0.0937504768371582,0.0062947869300842285
1772574410354403600,6.828403564453125,-0.3253011703491211,-0.1300656795501709,0.04161721467971802
1772574410364336600,6.838336669921875,-0.3240814208984375,-0.15384483337402344,0.057916343212127686
1772574410374271500,6.848271484375,-0.29032230377197266,-0.18854057788848877,0.021746695041656494
1772574410384204800,6.858204833984375,-0.1492919921875,-0.2014409303665161,0.10163289308547974
1772574410394138600,6.868138671875,-0.07681465148925781,-0.22198486328125,0.1742837131023407
1772574410404072000,6.878072021484375,0.01784515380859375,-0.24100995063781738,0.109122633934021
1772574410414013200,6.88801318359375,0.11551094055175781,-0.17892396450042725,0.06336003541946411
1772574410423947300,6.897947265625,0.14093971252441406,-0.16032660007476807,0.09846144914627075
1772574410433875000,6.907875,0.17078304290771484,-0.13320672512054443,0.15726473927497864
1772574410443808300,6.917808349609375,0.15314865112304688,-0.10218155384063721,0.15006205439567566
1772574410453730000,6.92772998046875,0.10767459869384766,-0.0630260705947876,0.13854867219924927
1772574410463662300,6.937662353515625,0.058264732360839844,-0.0012317895889282227,0.12220609188079834
1772574410473594000,6.947593994140625,0.05205249786376953,0.04514968395233154,0.07256019115447998
1772574410483526100,6.957526123046875,0.03649616241455078,0.10940432548522949,0.036987245082855225
1772574410493458400,6.96745849609375,-0.0023298263549804688,0.1534583568572998,0.034577250480651855
1772574410503390700,6.977390625,-0.04986858367919922,0.16349756717681885,0.046597063541412354
1772574410513336000,6.987336181640625,-0.09194374084472656,0.15953731536865234,0.03013777732849121
1772574410523269600,6.99726953125,-0.08639335632324219,0.16125226020812988,0.02256721258163452
1772574410533189600,7.007189697265625,0.0036678314208984375,0.168243408203125,0.013820290565490723
1772574410543122000,7.017121826171875,0.0874786376953125,0.1514747142791748,-0.009829223155975342
1772574410553039400,7.027039306640625,0.16052532196044922,0.15319299697875977,-0.024201512336730957
1772574410562970000,7.03697021484375,0.19484996795654297,0.134729266166687,-0.03838038444519043
1772574410572919000,7.0469189453125,0.21471405029296875,0.12897932529449463,-0.033121705055236816
1772574410582851600,7.0568515625,0.20158004760742188,0.06478285789489746,-0.013163983821868896
1772574410592793900,7.0667939453125,0.15598583221435547,0.04680776596069336,0.04950118064880371
1772574410602727200,7.07672705078125,0.06896591186523438,-0.0006290674209594727,0.054620563983917236
1772574410612660700,7.08666064453125,-0.007076263427734375,-0.048087239265441895,0.03619903326034546
1772574410622594300,7.09659423828125,-0.034758567810058594,-0.07100927829742432,0.03271394968032837
1772574410632510700,7.1065107421875,-0.05259418487548828,-0.08843457698822021,0.02016383409500122
1772574410642442800,7.11644287109375,-0.04667091369628906,-0.10014462471008301,0.01737499237060547
1772574410652378400,7.12637841796875,-0.017347335815429688,-0.11594879627227783,0.03360527753829956
1772574410662310400,7.136310302734375,0.016180038452148438,-0.1456083059310913,0.030441999435424805
1772574410672241200,7.1462412109375,0.016202926635742188,-0.1513139009475708,0.032078683376312256
1772574410682173200,7.156173095703125,-0.016716957092285156,-0.15690827369689941,0.04815411567687988
1772574410692108800,7.16610888671875,-0.06789493560791016,-0.1481618881225586,0.0176316499710083
1772574410702041300,7.176041259765625,-0.09945011138916016,-0.14345717430114746,0.011879384517669678
1772574410711974000,7.185973876953125,-0.1305685043334961,-0.11427497863769531,0.049318134784698486
1772574410721906200,7.19590625,-0.12830543518066406,-0.09387779235839844,0.03987783193588257
1772574410731850000,7.20585009765625,-0.11203861236572266,-0.08693885803222656,0.02669304609298706
1772574410741783600,7.215783447265625,-0.12912845611572266,-0.06037628650665283,0.041776061058044434
1772574410751701800,7.22570166015625,-0.09892463684082031,-0.033846139907836914,0.018459320068359375
1772574410761633800,7.2356337890625,-0.07871818542480469,-0.030890703201293945,0.009167492389678955
1772574410771566300,7.24556640625,-0.07775306701660156,-0.013551592826843262,0.018273651599884033
1772574410781498400,7.255498291015625,-0.0909576416015625,0.0036040544509887695,0.017521381378173828
1772574410791434200,7.265434326171875,-0.1039743423461914,0.01608407497406006,0.021628081798553467
1772574410801366800,7.27536669921875,-0.08387374877929688,0.028773069381713867,0.011376738548278809
1772574410811327000,7.285326904296875,-0.01238250732421875,0.027649283409118652,0.02947002649307251
1772574410821262300,7.295262451171875,0.05317497253417969,0.02674579620361328,0.037668824195861816
1772574410841095200,7.31509521484375,0.09672927856445312,0.031974196434020996,0.026730597019195557
1772574410851025200,7.325025146484375,0.09021282196044922,0.04264223575592041,0.003193378448486328
1772574410860957000,7.33495703125,0.055624961853027344,0.033493995666503906,-0.015746116638183594
1772574410870891500,7.3448916015625,0.021613121032714844,0.014779448509216309,0.01671987771987915
1772574410880823600,7.354823486328125,0.006979942321777344,0.010618805885314941,0.024937689304351807
1772574410890756400,7.36475634765625,0.025522232055664062,0.006649494171142578,-0.014320194721221924
1772574410900688400,7.3746884765625,0.06260395050048828,0.0072585344314575195,-0.020152807235717773
1772574410910619100,7.384619140625,0.05674457550048828,0.007459759712219238,-0.030484020709991455
1772574410920551000,7.394551025390625,0.046288490295410156,-0.0019611120223999023,-0.03613615036010742
1772574410930486800,7.40448681640625,0.017210006713867188,-0.006818890571594238,-0.06052917242050171
1772574410940419000,7.414419189453125,0.04514503479003906,-0.0023959875106811523,-0.07513505220413208
1772574410950361600,7.424361572265625,0.016145706176757812,0.0017403364181518555,-0.06107068061828613
1772574410960295000,7.434294921875,0.020597457885742188,0.010405302047729492,-0.06619912385940552
1772574410970214000,7.4442138671875,-0.0032176971435546875,-0.0002092123031616211,-0.061420321464538574
1772574410980145700,7.454145751953125,-0.017189979553222656,-0.010759472846984863,-0.07057058811187744
1772574410990096400,7.464096435546875,-0.016748428344726562,-0.007413625717163086,-0.07946842908859253
1772574411000030200,7.4740302734375,-0.08220767974853516,-0.02766883373260498,-0.0500565767288208
1772574411009948200,7.4839482421875,-0.12778663635253906,-0.01894056797027588,-0.035184383392333984
1772574411019880200,7.493880126953125,-0.14914226531982422,-0.01447451114654541,-0.07248002290725708
1772574411029809200,7.50380908203125,-0.11374282836914062,-0.03293192386627197,-0.07181167602539062
1772574411039741200,7.5137412109375,-0.08844947814941406,-0.03145861625671387,-0.03352320194244385
1772574411049676000,7.523676025390625,-0.08246803283691406,-0.03422069549560547,-0.04757964611053467
1772574411059608000,7.533608154296875,-0.07189750671386719,-0.04616951942443848,-0.042504310607910156
1772574411069549800,7.5435498046875,-0.05682945251464844,-0.029179096221923828,-0.03233957290649414
1772574411079483000,7.55348291015625,-0.023230552673339844,-0.030916571617126465,-0.008344113826751709
1772574411089394000,7.563393798828125,0.033370018005371094,-0.037439584732055664,-0.008191347122192383
1772574411099324700,7.57332470703125,0.04199981689453125,-0.01589357852935791,-0.021752774715423584
1772574411109282300,7.5832822265625,0.02223491668701172,-0.02776181697845459,-0.016454577445983887
1772574411119215900,7.5932158203125,0.01689434051513672,-0.011196255683898926,-0.03541654348373413
1772574411129134800,7.603134765625,0.03519630432128906,-0.013743877410888672,-0.016192495822906494
1772574411139067100,7.613067138671875,0.04849433898925781,-0.030276894569396973,-0.015733540058135986
1772574411158907600,7.63290771484375,0.050841331481933594,0.025242090225219727,0.019431650638580322
1772574411168841000,7.642841064453125,0.04052543640136719,0.025776982307434082,0.010861396789550781
1772574411178797800,7.6527978515625,0.011546134948730469,0.021187901496887207,-0.01731771230697632
1772574411188733200,7.662733154296875,0.01597118377685547,0.03550839424133301,-0.02218937873840332
1772574411198663000,7.672662841796875,0.020334243774414062,0.044881343841552734,-0.04090416431427002
1772574411208597800,7.68259765625,0.034081459045410156,0.049183011054992676,-0.05430865287780762
1772574411218529500,7.692529541015625,0.02881336212158203,0.05309450626373291,-0.024947524070739746
1772574411228463900,7.7024638671875,0.00482177734375,0.04741215705871582,-0.014732956886291504
1772574411238395100,7.71239501953125,0.009488105773925781,0.04642689228057861,-0.018927276134490967
1772574411248329200,7.7223291015625,0.023508071899414062,0.03573322296142578,-0.00934070348739624
1772574411258256000,7.732255859375,-0.02389812469482422,0.015583276748657227,-0.014176726341247559
1772574411268189200,7.742189208984375,-0.014052391052246094,-0.003929257392883301,-0.028450191020965576
1772574411278100700,7.752100830078125,-0.0044078826904296875,0.010140299797058105,-0.018954157829284668
1772574411288031700,7.76203173828125,-0.004361152648925781,0.014865398406982422,-0.01872020959854126
1772574411297961200,7.771961181640625,0.01922607421875,0.024315476417541504,-0.008883893489837646
1772574411307892200,7.781892333984375,0.0235748291015625,0.019487738609313965,-0.01823502779006958
1772574411317828000,7.791828125,0.03258037567138672,-0.01852703094482422,-0.02303600311279297
1772574411327759600,7.801759521484375,0.0037965774536132812,0.00038802623748779297,-0.004125356674194336
1772574411337696000,7.811696044921875,-0.024473190307617188,-0.023495793342590332,0.02427774667739868
1772574411347628000,7.8216279296875,-0.04758167266845703,-0.03264880180358887,0.014651596546173096
1772574411357592800,7.8315927734375,-0.05148029327392578,-0.013106346130371094,0.019792795181274414
1772574411367528200,7.841528076171875,-0.03650188446044922,-0.01691305637359619,0.020878970623016357
1772574411377426400,7.851426513671875,-0.012406349182128906,-0.010640144348144531,-0.0012000799179077148
1772574411387358000,7.86135791015625,0.006520271301269531,-0.018201828002929688,-0.013713300228118896
1772574411397287700,7.87128759765625,-0.007825851440429688,-0.02123117446899414,-0.017204642295837402
1772574411407219000,7.881218994140625,0.02985858917236328,-0.015005111694335938,-0.0023304224014282227
1772574411417181000,7.891180908203125,0.010407447814941406,0.00043702125549316406,0.00728607177734375
1772574411427115500,7.901115478515625,0.014824867248535156,-0.0033273696899414062,-0.025860905647277832
1772574411437017000,7.91101708984375,0.009734153747558594,0.011902570724487305,-0.030303895473480225
1772574411446948400,7.9209482421875,-0.004717826843261719,0.017565369606018066,0.007402181625366211
1772574411456883500,7.930883544921875,-0.01419830322265625,0.02784287929534912,0.016630947589874268
1772574411466815000,7.94081494140625,-0.03293895721435547,0.033335089683532715,0.04002106189727783
1772574411476770300,7.950770263671875,-0.0042877197265625,0.020005345344543457,0.02545386552810669
1772574411486704400,7.960704345703125,0.0003261566162109375,0.025818824768066406,0.015713036060333252
1772574411496633900,7.9706337890625,0.014275550842285156,0.01729726791381836,0.04347747564315796
1772574411506567400,7.9805673828125,0.023291587829589844,0.022837400436401367,0.07517382502555847
1772574411516507600,7.990507568359375,0.03690147399902344,-0.0002728700637817383,0.059243619441986084
1772574411526442000,8.00044189453125,0.012692451477050781,0.01886463165283203,0.05798327922821045
1772574411536365600,8.010365478515626,0.0030241012573242188,0.009431600570678711,0.08519694209098816
1772574411546299000,8.020298828125,0.0076351165771484375,-0.013762474060058594,0.08401951193809509
1772574411556227600,8.0302275390625,0.007466316223144531,-0.0036045312881469727,0.05472278594970703
1772574411566160400,8.040160400390626,-0.011538505554199219,-0.0031168460845947266,0.04919147491455078
1772574411576093700,8.05009375,-0.011414527893066406,-0.0025255680084228516,0.07653513550758362
1772574411586026500,8.060026611328125,-0.0018949508666992188,-0.001631021499633789,0.05666321516036987
1772574411595957500,8.06995751953125,-0.0019350051879882812,-0.014961600303649902,0.04667627811431885
1772574411605890000,8.07989013671875,0.016819000244140625,-0.02305912971496582,0.036755263805389404
1772574411615833300,8.089833251953126,0.030564308166503906,-0.026407241821289062,0.04584634304046631
1772574411625767200,8.09976708984375,0.06293487548828125,-0.015865802764892578,0.054507434368133545
1772574411635701800,8.10970166015625,0.06654644012451172,-0.015415310859680176,0.05782398581504822
1772574411645635300,8.11963525390625,0.04660797119140625,-0.0012547969818115234,0.051756858825683594
1772574411665486800,8.13948681640625,0.06411552429199219,0.024912357330322266,0.04462552070617676
1772574411675417900,8.14941796875,0.0207366943359375,0.004762530326843262,0.07139518857002258
1772574411685350100,8.15935009765625,-0.02192401885986328,0.013221383094787598,0.05528828501701355
1772574411695281000,8.169281005859375,-0.021497726440429688,0.0028269290924072266,0.05853357911109924
1772574411705213000,8.179212890625,-0.025754928588867188,-0.030931949615478516,0.07175835967063904
1772574411715144700,8.189144775390625,-0.0110626220703125,-0.03595614433288574,0.057163387537002563
1772574411725076700,8.19907666015625,0.017538070678710938,-0.03157496452331543,0.05254301428794861
1772574411735010800,8.2090107421875,0.026800155639648438,-0.05069875717163086,0.028887271881103516
1772574411744943000,8.218943115234374,0.03591728210449219,-0.04623603820800781,0.019307732582092285
1772574411754875100,8.228875244140625,0.021353721618652344,-0.051561951637268066,0.023622751235961914
1772574411764807400,8.238807373046875,-0.007079124450683594,-0.042874813079833984,0.01824730634689331
1772574411774751500,8.24875146484375,-0.02557086944580078,-0.0674964189529419,0.03700864315032959
1772574411784649200,8.258649169921876,-0.090850830078125,-0.07245266437530518,0.060891419649124146
1772574411794574000,8.268573974609374,-0.12214088439941406,-0.06238853931427002,0.056855469942092896
1772574411804507600,8.278507568359375,-0.1294698715209961,-0.051564693450927734,0.03891044855117798
1772574411814441000,8.28844091796875,-0.09912967681884766,-0.025979042053222656,-0.021593034267425537
1772574411844267500,8.318267578125,0.015844345092773438,0.027992963790893555,-0.0022063255310058594
1772574411854203000,8.328202880859376,0.010619163513183594,0.034531474113464355,-0.02535325288772583
1772574411864133600,8.338133544921876,-0.003939628601074219,0.026728510856628418,-0.020177364349365234
1772574411874068500,8.348068359375,0.0005693435668945312,0.042493462562561035,-0.010794281959533691
1772574411883998500,8.35799853515625,0.03790092468261719,0.030124425888061523,0.0027915239334106445
1772574411893898800,8.367898681640625,0.06518363952636719,0.032190799713134766,-0.016784250736236572
1772574411903833000,8.3778330078125,0.1249990463256836,0.03403043746948242,-0.031227588653564453
1772574411913789400,8.38778955078125,0.1274242401123047,0.016197919845581055,-0.026306748390197754
1772574411923725600,8.3977255859375,0.11582469940185547,0.030516982078552246,-0.03538018465042114
1772574411933657300,8.4076572265625,0.07622623443603516,0.048696041107177734,-0.030389785766601562
1772574411943593000,8.417593017578126,0.05143451690673828,0.03320872783660889,-0.021277785301208496
1772574411953524000,8.42752392578125,0.012938499450683594,0.008254766464233398,-0.022249817848205566
1772574411963459300,8.437459228515625,-0.015488624572753906,0.016373753547668457,-0.009584188461303711
1772574411973384400,8.447384521484375,0.0036373138427734375,0.0103224515914917,-0.001758873462677002
1772574411983318800,8.45731884765625,-0.005742073059082031,-0.023981451988220215,0.006942689418792725
1772574411993247200,8.467247314453125,-0.01958751678466797,-0.04369354248046875,0.012189626693725586
1772574412003181000,8.47718115234375,-0.06141185760498047,-0.039539456367492676,-0.03365057706832886
1772574412013116200,8.4871162109375,-0.08843040466308594,-0.0164182186126709,-0.031539857387542725
1772574412023050000,8.497050048828125,-0.10095977783203125,-0.026143550872802734,-0.020563066005706787
1772574412032981000,8.50698095703125,-0.09927845001220703,-0.03038811683654785,-0.04843348264694214
1772574412042914600,8.51691455078125,-0.07893085479736328,-0.033968329429626465,-0.03950387239456177
1772574412052850400,8.526850341796875,-0.07785224914550781,-0.051105618476867676,-0.007873713970184326
1772574412062784300,8.5367841796875,-0.05800437927246094,-0.03459000587463379,0.004406929016113281
1772574412072699600,8.54669970703125,-0.07147216796875,-0.03677475452423096,0.007494449615478516
1772574412082631700,8.556631591796876,-0.061232566833496094,-0.03361320495605469,0.03896850347518921
1772574412092536600,8.56653662109375,-0.02764606475830078,-0.044130682945251465,0.037574708461761475
1772574412102465800,8.5764658203125,-0.051128387451171875,-0.044841885566711426,0.03180629014968872
1772574412112424400,8.586424560546876,-0.036590576171875,-0.036285400390625,0.06736811995506287
1772574412122356500,8.5963564453125,0.07200145721435547,-0.03365492820739746,0.06937253475189209
1772574412132288000,8.6062880859375,0.10831642150878906,0.025418996810913086,0.04146760702133179
1772574412142210000,8.6162099609375,0.12053108215332031,0.04624617099761963,0.0017218589782714844
1772574412162074000,8.63607421875,0.08382415771484375,0.011121988296508789,-0.028011977672576904
1772574412172051500,8.646051513671875,0.05426597595214844,0.021085381507873535,-0.033687472343444824
1772574412181987000,8.655987060546876,-0.007807731628417969,0.0401761531829834,-0.04985380172729492
1772574412191883300,8.66588330078125,0.0063953399658203125,0.02176976203918457,-0.0429416298866272
1772574412201815000,8.67581494140625,0.020389556884765625,0.02730238437652588,-0.07313817739486694
1772574412211748900,8.685748779296874,0.0011920928955078125,0.03254258632659912,-0.11265140771865845
1772574412221680600,8.6956806640625,-0.012998580932617188,0.014036178588867188,-0.14743691682815552
1772574412231609000,8.705609130859376,-0.04111671447753906,0.028861045837402344,-0.10688954591751099
1772574412241540600,8.71554052734375,-0.04529094696044922,0.029705524444580078,-0.10040408372879028
1772574412251473000,8.725472900390624,-0.04942512512207031,0.030737996101379395,-0.09412753582000732
1772574412261404400,8.735404296875,-0.029958724975585938,0.055285096168518066,-0.10701459646224976
1772574412271343000,8.745343017578126,-0.0014104843139648438,0.046553730964660645,-0.06320697069168091
1772574412281267200,8.75526708984375,0.04556465148925781,-0.00953972339630127,-0.06684672832489014
1772574412291200000,8.765199951171875,0.04943084716796875,-0.008596658706665039,-0.07503384351730347
1772574412301132300,8.77513232421875,0.04385662078857422,0.006042599678039551,-0.05495673418045044
1772574412321011700,8.79501171875,0.037512779235839844,0.00619661808013916,-0.053389668464660645
1772574412330922000,8.804921875,0.032158851623535156,0.015662312507629395,-0.04312467575073242
1772574412350786600,8.82478662109375,0.0264892578125,-0.041551828384399414,-0.04042625427246094
1772574412360728000,8.83472802734375,0.07319450378417969,-0.008722782135009766,-0.030918240547180176
1772574412370661000,8.8446611328125,0.07680130004882812,-0.0052852630615234375,-0.031164169311523438
1772574412380619800,8.854619873046875,0.05687904357910156,-0.011713385581970215,-0.05911988019943237
1772574412390555400,8.864555419921874,0.004352569580078125,-0.018148064613342285,-0.02993875741958618
1772574412400477400,8.8744775390625,-0.05672264099121094,-0.03839731216430664,0.027309715747833252
1772574412410411800,8.884411865234375,-0.08853340148925781,-0.02984631061553955,0.008592307567596436
1772574412420346600,8.8943466796875,-0.14335155487060547,-0.021129608154296875,0.019155502319335938
1772574412430281000,8.904281005859374,-0.187896728515625,-0.011745810508728027,0.03957551717758179
1772574412440206000,8.9142060546875,-0.1659221649169922,-0.005900979042053223,0.04566222429275513
1772574412450139400,8.924139404296875,-0.1492166519165039,0.0012625455856323242,0.018095672130584717
1772574412460076300,8.934076171875,-0.12819576263427734,0.013715147972106934,0.028041541576385498
1772574412470010000,8.944010009765625,-0.06995296478271484,0.045212745666503906,0.022823631763458252
1772574412479938800,8.953938720703125,-0.022096633911132812,0.014971613883972168,0.008275330066680908
1772574412489872100,8.9638720703125,0.010893821716308594,0.004053235054016113,0.032610416412353516
1772574412499808300,8.973808349609374,0.0669088363647461,0.031194090843200684,0.08100056648254395
1772574412509741800,8.983741943359375,0.1173563003540039,0.015024304389953613,0.06301069259643555
1772574412519663400,8.993663330078125,0.16707706451416016,0.030779480934143066,0.030600309371948242
1772574412529595600,9.003595703125,0.17838382720947266,0.026533842086791992,0.03139019012451172
1772574412539501300,9.013501220703125,0.12840938568115234,-0.0018954277038574219,0.042272984981536865
1772574412549431000,9.02343115234375,0.12642383575439453,-0.011187911033630371,0.011464476585388184
1772574412559385600,9.033385498046876,0.1433858871459961,0.007023334503173828,-0.023924171924591064
1772574412569318000,9.04331787109375,0.08011150360107422,0.04707074165344238,-0.0315738320350647
1772574412579261200,9.05326123046875,0.07912826538085938,0.07210278511047363,-0.010876178741455078
1772574412589194800,9.06319482421875,0.002864837646484375,0.03528320789337158,0.005024254322052002
1772574412599117800,9.073117919921875,-0.048613548278808594,0.0036879777908325195,-0.031841278076171875
1772574412609050000,9.083050048828126,-0.06161022186279297,0.01045835018157959,0.006785690784454346
1772574412618993400,9.092993408203125,-0.0650177001953125,-0.010562658309936523,0.016864240169525146
1772574412628926700,9.1029267578125,-0.05426597595214844,-0.03083968162536621,0.02244555950164795
1772574412638841300,9.11284130859375,-0.0342864990234375,-0.012810945510864258,0.018905341625213623
1772574412648772900,9.12277294921875,-0.057044029235839844,-0.027624011039733887,0.02047187089920044
1772574412658710500,9.13271044921875,-0.037059783935546875,-0.055901288986206055,-0.015128612518310547
1772574412668642600,9.142642578125,0.0108184814453125,-0.04131758213043213,-0.036391496658325195
1772574412678577000,9.152576904296875,0.02494335174560547,-0.013159513473510742,-0.010728895664215088
1772574412688509200,9.16250927734375,-0.027052879333496094,0.00010752677917480469,-0.004317104816436768
1772574412698442200,9.172442138671874,-0.09234333038330078,0.008640289306640625,-0.017059504985809326
1772574412708374800,9.182374755859374,-0.10017585754394531,0.02736687660217285,-0.025361835956573486
1772574412718299100,9.192299072265625,0.07100963592529297,0.008609652519226074,0.0326840877532959
1772574412728230700,9.202230712890625,0.2068462371826172,-0.03604769706726074,0.07824748754501343
1772574412738197000,9.212197021484375,0.27495288848876953,-0.032048821449279785,-0.00864708423614502
1772574412748132000,9.222132080078126,0.20579910278320312,0.029679298400878906,-0.06545954942703247
1772574412758061000,9.23206103515625,0.011029243469238281,-0.0008862018585205078,0.017467021942138672
1772574412767995400,9.241995361328126,0.0029649734497070312,-0.030486464500427246,0.016768932342529297
1772574412777906000,9.251906005859375,0.13587665557861328,0.01729261875152588,0.00746530294418335
1772574412787838000,9.261837890625,0.14876556396484375,0.07905364036560059,0.01678943634033203
1772574412797781800,9.27178173828125,0.08605289459228516,0.10268509387969971,-0.04451793432235718
1772574412807715000,9.281715087890625,0.09007453918457031,0.13142073154449463,-0.02231663465499878
1772574412817658000,9.291658203125,0.08901023864746094,0.12311136722564697,0.02954477071762085
1772574412827592400,9.301592529296874,-0.011145591735839844,0.05990445613861084,0.1455560028553009
1772574412837507000,9.311507080078124,-0.16634750366210938,-0.023476123809814453,0.17598316073417664
1772574412847439400,9.321439453125,-0.4368448257446289,-0.1266998052597046,0.16072359681129456
1772574412857377300,9.331377197265626,-0.7218408584594727,-0.18295669555664062,0.1016542911529541
1772574412867310300,9.341310302734374,-0.6586885452270508,-0.11224162578582764,0.0360490083694458
1772574412877237800,9.35123779296875,-0.5825986862182617,-0.06471693515777588,-0.25371235609054565
