time,seconds_elapsed,z,y,x
1772574403729499100,0.2034990234375,9.701101303100586,0.9469595551490784,-0.47617170214653015
1772574403739432200,0.21343212890625,9.648459434509277,0.966102123260498,-0.5000999569892883
1772574403749367300,0.2233671875,9.638887405395508,0.9804590940475464,-0.5048855543136597
1772574403759301000,0.233301025390625,9.638887405395508,0.9900303483009338,-0.5000999569892883
1772574403769238800,0.24323876953125,9.691530227661133,0.9756734371185303,-0.4618147611618042
1772574403779174400,0.25317431640625,9.79681396484375,0.9900303483009338,-0.4331009089946747
1772574403789085000,0.2630849609375,9.839884757995605,0.99481600522995,-0.4426721930503845
1772574403799010300,0.27301025390625,9.81117057800293,0.9852447509765625,-0.42352959513664246
1772574403808951600,0.28295166015625,9.772886276245117,0.9469595551490784,-0.4091726839542389
1772574403818883300,0.29288330078125,9.725028991699219,0.9756734371185303,-0.4139583110809326
1772574403828813600,0.3028134765625,9.701101303100586,0.9900303483009338,-0.42352959513664246
1772574403838744800,0.312744873046875,9.686744689941406,0.99481600522995,-0.4378865361213684
1772574403848677600,0.322677734375,9.725028991699219,1.0139585733413696,-0.4091726839542389
1772574403868540000,0.342539794921875,9.868598937988281,1.0043872594833374,-0.45224347710609436
1772574403878471200,0.35247119140625,9.90688419342041,0.9852447509765625,-0.44745782017707825
1772574403888405800,0.36240576171875,9.873384475708008,0.966102123260498,-0.44745782017707825
1772574403898338600,0.372338623046875,9.825528144836426,0.966102123260498,-0.4331009089946747
1772574403908270000,0.38227001953125,9.744172096252441,0.9804590940475464,-0.4331009089946747
1772574403918202400,0.392202392578125,9.69631576538086,0.9804590940475464,-0.41874396800994873
1772574403928139500,0.402139404296875,9.729815483093262,0.99481600522995,-0.4139583110809326
1772574403938073900,0.412073974609375,9.739386558532715,1.0043872594833374,-0.39960137009620667
1772574403948014000,0.42201416015625,9.739386558532715,1.0235298871994019,-0.37088751792907715
1772574403957950700,0.43195068359375,9.744172096252441,1.0378868579864502,-0.3852444589138031
1772574403967871700,0.441871826171875,9.739386558532715,1.0618150234222412,-0.39960137009620667
1772574403977802000,0.451802001953125,9.729815483093262,1.0474581718444824,-0.380458801984787
1772574403987743700,0.46174365234375,9.734601020812988,1.0235298871994019,-0.4091726839542389
1772574403997678600,0.4716787109375,9.729815483093262,1.0187442302703857,-0.4378865361213684
1772574404007595500,0.481595458984375,9.739386558532715,1.033101201057434,-0.4618147611618042
1772574404017523200,0.491523193359375,9.792028427124023,1.0187442302703857,-0.4953143000602722
1772574404027467800,0.5014677734375,9.830313682556152,1.0187442302703857,-0.5144568681716919
1772574404037397000,0.51139697265625,9.868598937988281,0.9996016621589661,-0.4905286431312561
1772574404047326000,0.521325927734375,9.916455268859863,0.9900303483009338,-0.4905286431312561
1772574404057255200,0.531255126953125,9.93559741973877,1.0378868579864502,-0.5144568681716919
1772574404067180000,0.541179931640625,9.954740524291992,1.0474581718444824,-0.5096712112426758
1772574404077109000,0.55110888671875,9.983454704284668,1.119242787361145,-0.5383850932121277
1772574404087063800,0.561063720703125,10.04566764831543,1.2005987167358398,-0.5623133182525635
1772574404096995300,0.570995361328125,10.055238723754883,1.1479566097259521,-0.5144568681716919
1772574404106919000,0.5809189453125,9.940383911132812,1.119242787361145,-0.39481574296951294
1772574404116849400,0.590849365234375,9.748957633972168,1.1718848943710327,-0.3517449200153351
1772574404126787600,0.60078759765625,9.57188892364502,1.1623135805130005,-0.48574298620224
1772574404136718800,0.61071875,9.485747337341309,1.2245270013809204,-0.42831525206565857
1772574404146658300,0.620658203125,9.236893653869629,1.1383854150772095,-0.3565305769443512
1772574404156590600,0.630590576171875,9.073583602905273,1.119242787361145,-0.3086741268634796
1772574404166512600,0.6405126953125,9.117252349853516,1.1766705513000488,-0.4666004180908203
1772574404176444000,0.65044384765625,9.275178909301758,1.186241865158081,-0.605384111404419
1772574404186378000,0.6603779296875,9.480961799621582,1.2245270013809204,-0.5958128571510315
1772574404196309500,0.6703095703125,9.519247055053711,1.2436695098876953,-0.5383850932121277
1772574404206254600,0.680254638671875,9.504889488220215,1.2149556875228882,-0.5383850932121277
1772574404216187600,0.690187744140625,9.624530792236328,1.205384373664856,-0.6628118753433228
1772574404226107600,0.700107666015625,9.787242889404297,1.296311616897583,-0.7680960893630981
1772574404236039200,0.7100390625,9.945169448852539,1.2819547653198242,-0.7202396392822266
1772574404245978600,0.719978515625,9.983454704284668,1.2484551668167114,-0.6532405614852905
1772574404255911000,0.729910888671875,9.926026344299316,1.296311616897583,-0.6484549641609192
1772574404265839000,0.739839111328125,9.954740524291992,1.3058829307556152,-0.729810893535614
1772574404275771100,0.749771240234375,9.964311599731445,1.3106685876846313,-0.672383189201355
1772574404285744600,0.75974462890625,9.887741088867188,1.3441680669784546,-0.6005984544754028
1772574404295680800,0.7696806640625,9.768099784851074,1.358525037765503,-0.6149554252624512
1772574404305568300,0.779568359375,9.705886840820312,1.339382529258728,-0.576670229434967
1772574404315499500,0.78949951171875,9.619745254516602,1.2915260791778564,-0.5240281820297241
1772574404325457000,0.799456787109375,9.437891006469727,1.2628121376037598,-0.4953143000602722
1772574404335391000,0.809390869140625,9.351749420166016,1.3058829307556152,-0.5096712112426758
1772574404345301500,0.819301513671875,9.313464164733887,1.3680963516235352,-0.5670989751815796
1772574404355233000,0.82923291015625,8.824729919433594,1.3489537239074707,-0.5431707501411438
1772574404365162500,0.83916259765625,8.102097511291504,1.3728820085525513,-0.5862415432929993
1772574404375094000,0.849093994140625,8.13081169128418,1.3776676654815674,-0.729810893535614
1772574404385026800,0.85902685546875,8.800801277160645,1.3441680669784546,-0.7202396392822266
1772574404394958300,0.868958251953125,9.595816612243652,1.2532408237457275,-0.5048855543136597
1772574404404899800,0.87889990234375,10.107880592346191,1.1958130598068237,-0.41874396800994873
1772574404414832400,0.888832275390625,10.314262390136719,1.1910275220870972,-0.5910272002220154
1772574404424755000,0.8987548828125,10.496116638183594,1.2675977945327759,-0.7010970115661621
1772574404434686500,0.9086865234375,10.682756423950195,1.3058829307556152,-0.6819544434547424
1772574404444619300,0.918619384765625,10.744970321655273,1.3298112154006958,-0.6580262184143066
1772574404454551000,0.928551025390625,10.596614837646484,1.2867404222488403,-0.6293123364448547
1772574404464486400,0.938486328125,10.1276216506958,1.1718848943710327,-0.4331009089946747
1772574404474418400,0.94841845703125,9.413962364196777,1.1001001596450806,-0.12622138857841492
1772574404484362200,0.9583623046875,8.877371788024902,1.1527422666549683,-0.1740778535604477
1772574404494295300,0.96829541015625,8.858229637145996,1.3154542446136475,-0.519242525100708
1772574404504215000,0.978215087890625,9.150752067565918,1.4638092517852783,-0.7058826684951782
1772574404514146800,0.988146728515625,9.466604232788086,1.4733805656433105,-0.7250252366065979
1772574404524079900,0.998079833984375,9.691530227661133,1.3872389793395996,-0.6628118753433228
1772574404534012000,1.008011962890625,9.792028427124023,1.3441680669784546,-0.5670989751815796
1772574404543943400,1.017943359375,9.806385040283203,1.277169108390808,-0.5335994362831116
1772574404563810800,1.037810791015625,9.729815483093262,1.2245270013809204,-0.5144568681716919
1772574404573743000,1.0477431640625,9.677172660827637,1.2484551668167114,-0.5862415432929993
1772574404583689500,1.057689453125,9.65803050994873,1.277169108390808,-0.6197410821914673
1772574404593623000,1.067623046875,9.634101867675781,1.296311616897583,-0.638883650302887
1772574404603531500,1.077531494140625,9.634101867675781,1.2867404222488403,-0.6101697683334351
1772574404613462500,1.087462646484375,9.67238712310791,1.277169108390808,-0.5910272002220154
1772574404623402500,1.097402587890625,9.67238712310791,1.2532408237457275,-0.5910272002220154
1772574404633334300,1.107334228515625,9.662816047668457,1.2293126583099365,-0.5862415432929993
1772574404643266800,1.117266845703125,9.677172660827637,1.2628121376037598,-0.5431707501411438
1772574404653198800,1.12719873046875,9.64367389678955,1.2819547653198242,-0.4570291340351105
1772574404663111000,1.13711083984375,9.600603103637695,1.2915260791778564,-0.42352959513664246
1772574404673041000,1.147041015625,9.55753231048584,1.2915260791778564,-0.4139583110809326
1772574404683010000,1.157010009765625,9.500103950500488,1.3106685876846313,-0.39960137009620667
1772574404692944100,1.166944091796875,9.500103950500488,1.2915260791778564,-0.4570291340351105
1772574404702859500,1.176859619140625,9.681958198547363,1.2915260791778564,-0.5096712112426758
1772574404712791800,1.186791748046875,9.839884757995605,1.3298112154006958,-0.48095735907554626
1772574404722728400,1.196728515625,9.830313682556152,1.2580264806747437,-0.3852444589138031
1772574404732661200,1.2066611328125,9.748957633972168,1.2388839721679688,-0.3086741268634796
1772574404742573800,1.21657373046875,9.705886840820312,1.2675977945327759,-0.31345975399017334
1772574404752504300,1.22650439453125,9.725028991699219,1.2915260791778564,-0.3517449200153351
1772574404762435000,1.23643505859375,9.763314247131348,1.3202399015426636,-0.3900300860404968
1772574404772365800,1.24636572265625,9.81117057800293,1.3250255584716797,-0.4043870270252228
1772574404782303000,1.256302978515625,9.825528144836426,1.3202399015426636,-0.42831525206565857
1772574404792234200,1.266234130859375,9.81117057800293,1.3058829307556152,-0.4426721930503845
1772574404802172000,1.276171875,9.81117057800293,1.3106685876846313,-0.47617170214653015
1772574404812103700,1.286103759765625,9.725028991699219,1.3202399015426636,-0.4666004180908203
1772574404822027500,1.296027587890625,9.624530792236328,1.3106685876846313,-0.4618147611618042
1772574404831958500,1.30595849609375,9.581459999084473,1.334596872329712,-0.48095735907554626
1772574404841897500,1.3158974609375,9.55753231048584,1.339382529258728,-0.5096712112426758
1772574404851829200,1.325829345703125,9.514460563659668,1.3489537239074707,-0.48574298620224
1772574404861760500,1.335760498046875,9.509675025939941,1.339382529258728,-0.48574298620224
1772574404871692300,1.3456923828125,9.629316329956055,1.3298112154006958,-0.519242525100708
1772574404881629200,1.355629150390625,9.710672378540039,1.2819547653198242,-0.4618147611618042
1772574404891561700,1.365561767578125,9.691530227661133,1.2915260791778564,-0.41874396800994873
1772574404901491200,1.3754912109375,9.5862455368042,1.3058829307556152,-0.4378865361213684
1772574404911423200,1.38542333984375,9.471389770507812,1.3010972738265991,-0.44745782017707825
1772574404921355000,1.39535498046875,9.413962364196777,1.3250255584716797,-0.41874396800994873
1772574404931287000,1.405287109375,9.457033157348633,1.358525037765503,-0.39481574296951294
1772574404941242600,1.41524267578125,9.5862455368042,1.3728820085525513,-0.42352959513664246
1772574404951177000,1.425177001953125,9.734601020812988,1.3920245170593262,-0.44745782017707825
1772574404961104000,1.435103759765625,9.787242889404297,1.3968101739883423,-0.3900300860404968
1772574404971037400,1.445037353515625,9.806385040283203,1.3776676654815674,-0.3565305769443512
1772574404980972300,1.45497216796875,9.787242889404297,1.3680963516235352,-0.3565305769443512
1772574404990906000,1.464906005859375,9.758528709411621,1.3776676654815674,-0.36610186100006104
1772574405000837400,1.47483740234375,9.772886276245117,1.3776676654815674,-0.36610186100006104
1772574405010771000,1.48477099609375,9.787242889404297,1.363310694694519,-0.3756731450557709
1772574405020712700,1.494712646484375,9.801599502563477,1.3489537239074707,-0.36610186100006104
1772574405030647000,1.50464697265625,9.758528709411621,1.334596872329712,-0.3565305769443512
1772574405040571000,1.51457080078125,9.725028991699219,1.339382529258728,-0.3565305769443512
1772574405050504200,1.524504150390625,9.662816047668457,1.3441680669784546,-0.4043870270252228
1772574405060429000,1.534428955078125,9.605388641357422,1.358525037765503,-0.44745782017707825
1772574405070361600,1.544361572265625,9.57188892364502,1.339382529258728,-0.47617170214653015
1772574405080272100,1.554272216796875,9.600603103637695,1.3489537239074707,-0.5335994362831116
1772574405090202400,1.564202392578125,9.653244972229004,1.334596872329712,-0.5910272002220154
1772574405100168400,1.57416845703125,9.753743171691895,1.3250255584716797,-0.6532405614852905
1772574405110102300,1.584102294921875,9.806385040283203,1.3250255584716797,-0.6867401003837585
1772574405120024000,1.594024169921875,9.729815483093262,1.3010972738265991,-0.6675975322723389
1772574405129956600,1.60395654296875,9.54796028137207,1.2915260791778564,-0.5670989751815796
1772574405139890400,1.613890380859375,9.457033157348633,1.2867404222488403,-0.519242525100708
1772574405149823200,1.6238232421875,9.54796028137207,1.3010972738265991,-0.5862415432929993
1772574405159752200,1.633752197265625,9.653244972229004,1.358525037765503,-0.605384111404419
1772574405169684500,1.6436845703125,9.686744689941406,1.3728820085525513,-0.5527420043945312
1772574405179617500,1.653617431640625,9.67238712310791,1.3728820085525513,-0.5718846321105957
1772574405189550000,1.663550048828125,9.648459434509277,1.4015958309173584,-0.576670229434967
1772574405199481600,1.673481689453125,9.64367389678955,1.3968101739883423,-0.5575276613235474
1772574405209414100,1.6834140625,9.619745254516602,1.4159528017044067,-0.5431707501411438
1772574405219424500,1.693424560546875,9.600603103637695,1.3968101739883423,-0.5431707501411438
1772574405229364700,1.70336474609375,9.629316329956055,1.4063814878463745,-0.5527420043945312
1772574405239213000,1.713213134765625,9.681958198547363,1.4159528017044067,-0.5335994362831116
1772574405249144000,1.72314404296875,9.65803050994873,1.4111671447753906,-0.5096712112426758
1772574405259089000,1.7330888671875,9.619745254516602,1.4063814878463745,-0.5144568681716919
1772574405269021200,1.743021240234375,9.591031074523926,1.4207384586334229,-0.5000999569892883
1772574405278929000,1.752928955078125,9.543174743652344,1.425524115562439,-0.4570291340351105
1772574405288858600,1.762858642578125,9.538389205932617,1.3824533224105835,-0.4378865361213684
1772574405298806800,1.772806884765625,9.5862455368042,1.358525037765503,-0.42352959513664246
1772574405308738300,1.78273828125,9.65803050994873,1.3537393808364868,-0.44745782017707825
1772574405318671600,1.792671630859375,9.715457916259766,1.3250255584716797,-0.47617170214653015
1772574405328603400,1.802603271484375,9.710672378540039,1.3202399015426636,-0.47617170214653015
1772574405338518300,1.812518310546875,9.677172660827637,1.3250255584716797,-0.47617170214653015
1772574405348448300,1.8224482421875,9.634101867675781,1.334596872329712,-0.48095735907554626
1772574405358397700,1.832397705078125,9.600603103637695,1.3250255584716797,-0.48095735907554626
1772574405368329700,1.842329833984375,9.5862455368042,1.3489537239074707,-0.4905286431312561
1772574405378269000,1.85226904296875,9.638887405395508,1.363310694694519,-0.4905286431312561
1772574405388201700,1.86220166015625,9.69631576538086,1.334596872329712,-0.5000999569892883
1772574405398129700,1.872129638671875,9.729815483093262,1.3010972738265991,-0.5431707501411438
1772574405408062000,1.88206201171875,9.720243453979492,1.3010972738265991,-0.5240281820297241
1772574405417996000,1.89199609375,9.720243453979492,1.3202399015426636,-0.4953143000602722
1772574405427928600,1.901928466796875,9.686744689941406,1.339382529258728,-0.519242525100708
1772574405437861400,1.911861328125,9.638887405395508,1.339382529258728,-0.5240281820297241
1772574405447794000,1.9217939453125,9.605388641357422,1.339382529258728,-0.5144568681716919
1772574405457726500,1.9317265625,9.562317848205566,1.339382529258728,-0.5335994362831116
1772574405467659000,1.941658935546875,9.552745819091797,1.3441680669784546,-0.5431707501411438
1772574405477597700,1.95159765625,9.576674461364746,1.3441680669784546,-0.4905286431312561
1772574405487531000,1.961531005859375,9.605388641357422,1.334596872329712,-0.47617170214653015
1772574405497453000,1.971453125,9.614959716796875,1.3058829307556152,-0.4905286431312561
1772574405507385000,1.981385009765625,9.591031074523926,1.3202399015426636,-0.48574298620224
1772574405517321500,1.991321533203125,9.53360366821289,1.2915260791778564,-0.4666004180908203
1772574405527253800,2.001253662109375,9.53360366821289,1.2867404222488403,-0.4666004180908203
1772574405537183200,2.011183349609375,9.53360366821289,1.296311616897583,-0.48095735907554626
1772574405547115300,2.021115234375,9.54796028137207,1.296311616897583,-0.4905286431312561
1772574405557046000,2.0310458984375,9.581459999084473,1.3010972738265991,-0.4953143000602722
1772574405566978000,2.04097802734375,9.605388641357422,1.3202399015426636,-0.5000999569892883
1772574405576913000,2.050912841796875,9.619745254516602,1.334596872329712,-0.48095735907554626
1772574405586845400,2.060845458984375,9.619745254516602,1.3250255584716797,-0.42352959513664246
1772574405596779300,2.070779296875,9.653244972229004,1.3058829307556152,-0.42352959513664246
1772574405606711800,2.0807119140625,9.715457916259766,1.2819547653198242,-0.44745782017707825
1772574405616647000,2.09064697265625,9.758528709411621,1.272383451461792,-0.45224347710609436
1772574405626579700,2.100579833984375,9.79681396484375,1.2293126583099365,-0.4139583110809326
1772574405636519200,2.110519287109375,9.787242889404297,1.2149556875228882,-0.380458801984787
1772574405646452500,2.120452392578125,9.758528709411621,1.2580264806747437,-0.37088751792907715
1772574405656384300,2.13038427734375,9.691530227661133,1.272383451461792,-0.4091726839542389
1772574405666317600,2.140317626953125,9.686744689941406,1.277169108390808,-0.4331009089946747
1772574405676236500,2.150236572265625,9.667601585388184,1.2867404222488403,-0.4091726839542389
1772574405686168300,2.160168212890625,9.648459434509277,1.2532408237457275,-0.42831525206565857
1772574405696101000,2.17010107421875,9.67238712310791,1.2580264806747437,-0.4570291340351105
1772574405706033000,2.180032958984375,9.691530227661133,1.272383451461792,-0.45224347710609436
1772574405715976000,2.189975830078125,9.686744689941406,1.2484551668167114,-0.48095735907554626
1772574405725909000,2.199908935546875,9.69631576538086,1.2436695098876953,-0.5048855543136597
1772574405735833000,2.2098330078125,9.686744689941406,1.2484551668167114,-0.5048855543136597
1772574405745765400,2.219765380859375,9.65803050994873,1.2580264806747437,-0.5096712112426758
1772574405755694300,2.2296943359375,9.619745254516602,1.3010972738265991,-0.5048855543136597
1772574405765626000,2.239626220703125,9.576674461364746,1.2915260791778564,-0.5000999569892883
1772574405775562000,2.24956201171875,9.581459999084473,1.277169108390808,-0.519242525100708
1772574405785494300,2.259494384765625,9.619745254516602,1.2915260791778564,-0.5096712112426758
1772574405795430000,2.269429931640625,9.634101867675781,1.2915260791778564,-0.4953143000602722
1772574405805362400,2.279362548828125,9.653244972229004,1.3058829307556152,-0.5144568681716919
1772574405815268600,2.2892685546875,9.648459434509277,1.2819547653198242,-0.5383850932121277
1772574405825198600,2.299198486328125,9.67238712310791,1.296311616897583,-0.5527420043945312
1772574405835136500,2.309136474609375,9.667601585388184,1.2915260791778564,-0.5288137793540955
1772574405845067000,2.31906689453125,9.677172660827637,1.2915260791778564,-0.5383850932121277
1772574405855020500,2.3290205078125,9.686744689941406,1.2867404222488403,-0.5527420043945312
1772574405864953600,2.33895361328125,9.715457916259766,1.2628121376037598,-0.5479564070701599
1772574405874886700,2.34888671875,9.739386558532715,1.277169108390808,-0.5431707501411438
1772574405884819700,2.35881982421875,9.739386558532715,1.2580264806747437,-0.519242525100708
1772574405894755300,2.36875537109375,9.701101303100586,1.277169108390808,-0.5335994362831116
1772574405904688600,2.378688720703125,9.619745254516602,1.277169108390808,-0.5335994362831116
1772574405914628400,2.38862841796875,9.605388641357422,1.2675977945327759,-0.5431707501411438
1772574405924562200,2.398562255859375,9.691530227661133,1.2532408237457275,-0.5383850932121277
1772574405934464500,2.408464599609375,9.763314247131348,1.2340983152389526,-0.519242525100708
1772574405944395300,2.418395263671875,9.729815483093262,1.2245270013809204,-0.5335994362831116
1772574405954342000,2.428341796875,9.667601585388184,1.2197413444519043,-0.5431707501411438
1772574405964274400,2.4382744140625,9.610174179077148,1.2340983152389526,-0.5288137793540955
1772574405974187000,2.44818701171875,9.610174179077148,1.2580264806747437,-0.5527420043945312
1772574405984117500,2.458117431640625,9.638887405395508,1.2532408237457275,-0.5383850932121277
1772574405994054700,2.4680546875,9.624530792236328,1.2628121376037598,-0.5288137793540955
1772574406003985700,2.477985595703125,9.629316329956055,1.2484551668167114,-0.5431707501411438
1772574406013952000,2.487951904296875,9.653244972229004,1.2293126583099365,-0.5335994362831116
1772574406023886600,2.497886474609375,9.64367389678955,1.2388839721679688,-0.5479564070701599
1772574406033817300,2.5078173828125,9.634101867675781,1.2197413444519043,-0.5288137793540955
1772574406043751400,2.51775146484375,9.64367389678955,1.2388839721679688,-0.5240281820297241
1772574406053645300,2.527645263671875,9.653244972229004,1.2580264806747437,-0.5527420043945312
1772574406063575600,2.537575439453125,9.701101303100586,1.2675977945327759,-0.5862415432929993
1772574406073517000,2.54751708984375,9.720243453979492,1.2580264806747437,-0.5479564070701599
1772574406083448300,2.5574482421875,9.739386558532715,1.2484551668167114,-0.5575276613235474
1772574406093412400,2.567412353515625,9.753743171691895,1.2436695098876953,-0.5575276613235474
1772574406103347000,2.577346923828125,9.78245735168457,1.2436695098876953,-0.5623133182525635
1772574406113239300,2.5872392578125,9.753743171691895,1.2532408237457275,-0.5910272002220154
1772574406123169800,2.597169677734375,9.715457916259766,1.2580264806747437,-0.5910272002220154
1772574406133128200,2.607128173828125,9.67238712310791,1.2628121376037598,-0.5862415432929993
1772574406143061200,2.617061279296875,9.648459434509277,1.2628121376037598,-0.5623133182525635
1772574406153021700,2.627021728515625,9.634101867675781,1.2532408237457275,-0.5623133182525635
1772574406162957600,2.63695751953125,9.624530792236328,1.2245270013809204,-0.5623133182525635
1772574406172857600,2.646857666015625,9.610174179077148,1.2388839721679688,-0.5670989751815796
1772574406182790100,2.6567900390625,9.624530792236328,1.2149556875228882,-0.5527420043945312
1772574406192727600,2.6667275390625,9.5862455368042,1.1958130598068237,-0.5431707501411438
1772574406202660400,2.676660400390625,9.591031074523926,1.210170030593872,-0.5527420043945312
1772574406212596200,2.68659619140625,9.64367389678955,1.2245270013809204,-0.5575276613235474
1772574406222529300,2.696529296875,9.677172660827637,1.2245270013809204,-0.5575276613235474
1772574406232459800,2.706459716796875,9.715457916259766,1.2197413444519043,-0.5431707501411438
1772574406242392600,2.716392578125,9.705886840820312,1.2293126583099365,-0.5240281820297241
1772574406252317700,2.726317626953125,9.715457916259766,1.2436695098876953,-0.4953143000602722
1772574406262249700,2.736249755859375,9.686744689941406,1.2245270013809204,-0.48574298620224
1772574406272180200,2.74618017578125,9.69631576538086,1.2388839721679688,-0.5144568681716919
1772574406282112000,2.756112060546875,9.686744689941406,1.2340983152389526,-0.5144568681716919
1772574406292045000,2.766045166015625,9.667601585388184,1.2293126583099365,-0.5048855543136597
1772574406301977000,2.77597705078125,9.648459434509277,1.2340983152389526,-0.4666004180908203
1772574406311921400,2.78592138671875,9.648459434509277,1.2388839721679688,-0.45224347710609436
1772574406321824800,2.79582470703125,9.67238712310791,1.2149556875228882,-0.4618147611618042
1772574406331744500,2.80574462890625,9.67238712310791,1.2388839721679688,-0.4618147611618042
1772574406341657000,2.815656982421875,9.715457916259766,1.2532408237457275,-0.45224347710609436
1772574406361530600,2.835530517578125,9.748957633972168,1.2484551668167114,-0.4713860750198364
1772574406381397000,2.85539697265625,9.67238712310791,1.2340983152389526,-0.5000999569892883
1772574406391371800,2.865371826171875,9.634101867675781,1.2340983152389526,-0.519242525100708
1772574406401308400,2.875308349609375,9.619745254516602,1.2388839721679688,-0.519242525100708
1772574406411246600,2.88524658203125,9.614959716796875,1.2293126583099365,-0.5527420043945312
1772574406421183500,2.89518359375,9.624530792236328,1.2293126583099365,-0.5623133182525635
1772574406431062300,2.905062255859375,9.67238712310791,1.2532408237457275,-0.5670989751815796
1772574406450966800,2.924966796875,9.69631576538086,1.2388839721679688,-0.5670989751815796
1772574406460906200,2.93490625,9.667601585388184,1.2532408237457275,-0.5575276613235474
1772574406470831600,2.94483154296875,9.629316329956055,1.2532408237457275,-0.5623133182525635
1772574406480769500,2.95476953125,9.610174179077148,1.2532408237457275,-0.5814558863639832
1772574406490696000,2.964696044921875,9.57188892364502,1.2628121376037598,-0.5814558863639832
1772574406500632800,2.9746328125,9.543174743652344,1.2580264806747437,-0.5718846321105957
1772574406510560300,2.984560302734375,9.581459999084473,1.2245270013809204,-0.605384111404419
1772574406520496400,2.994496337890625,9.715457916259766,1.2340983152389526,-0.6245267391204834
1772574406530405600,3.004405517578125,9.78245735168457,1.2197413444519043,-0.5718846321105957
1772574406540339000,3.0143388671875,9.753743171691895,1.210170030593872,-0.5718846321105957
1772574406550292200,3.024292236328125,9.725028991699219,1.2484551668167114,-0.5910272002220154
1772574406560227600,3.0342275390625,9.725028991699219,1.272383451461792,-0.6149554252624512
1772574406570163700,3.044163818359375,9.701101303100586,1.2675977945327759,-0.6005984544754028
1772574406580099000,3.05409912109375,9.686744689941406,1.2867404222488403,-0.5862415432929993
1772574406590015700,3.064015625,9.653244972229004,1.272383451461792,-0.576670229434967
1772574406599949300,3.07394921875,9.619745254516602,1.2628121376037598,-0.5910272002220154
1772574406609861600,3.083861572265625,9.57188892364502,1.2675977945327759,-0.5958128571510315
1772574406619793000,3.09379296875,9.543174743652344,1.272383451461792,-0.576670229434967
1772574406629747000,3.103746826171875,9.562317848205566,1.3106685876846313,-0.576670229434967
1772574406639680800,3.1136806640625,9.619745254516602,1.277169108390808,-0.5814558863639832
1772574406649613300,3.12361328125,9.648459434509277,1.2580264806747437,-0.5862415432929993
1772574406659547000,3.133546875,9.667601585388184,1.2819547653198242,-0.576670229434967
1772574406669497000,3.1434970703125,9.65803050994873,1.277169108390808,-0.5814558863639832
1772574406679432200,3.15343212890625,9.653244972229004,1.2675977945327759,-0.576670229434967
1772574406689325800,3.163325927734375,9.667601585388184,1.2628121376037598,-0.5527420043945312
1772574406699256800,3.1732568359375,9.65803050994873,1.2628121376037598,-0.5718846321105957
1772574406709184300,3.183184326171875,9.715457916259766,1.2532408237457275,-0.5670989751815796
1772574406719115000,3.193114990234375,9.78245735168457,1.2245270013809204,-0.5479564070701599
1772574406729071600,3.203071533203125,9.81117057800293,1.2149556875228882,-0.5527420043945312
1772574406739005000,3.2130048828125,9.81117057800293,1.2149556875228882,-0.5670989751815796
1772574406748949200,3.22294921875,9.801599502563477,1.2340983152389526,-0.5623133182525635
1772574406758883600,3.232883544921875,9.753743171691895,1.272383451461792,-0.5623133182525635
1772574406768799700,3.2427998046875,9.686744689941406,1.277169108390808,-0.5479564070701599
1772574406778732300,3.252732177734375,9.65803050994873,1.2532408237457275,-0.5431707501411438
1772574406788674800,3.2626748046875,9.629316329956055,1.2580264806747437,-0.5240281820297241
1772574406798608400,3.2726083984375,9.624530792236328,1.2532408237457275,-0.5000999569892883
1772574406808532200,3.2825322265625,9.600603103637695,1.2388839721679688,-0.5048855543136597
1772574406818464800,3.29246484375,9.600603103637695,1.210170030593872,-0.5288137793540955
1772574406828400000,3.302400146484375,9.624530792236328,1.2245270013809204,-0.519242525100708
1772574406838333200,3.312333251953125,9.65803050994873,1.2388839721679688,-0.5144568681716919
1772574406848260600,3.322260498046875,9.686744689941406,1.2484551668167114,-0.519242525100708
1772574406858193000,3.33219287109375,9.715457916259766,1.2532408237457275,-0.519242525100708
1772574406868126200,3.342126220703125,9.67238712310791,1.2197413444519043,-0.5144568681716919
1772574406878058800,3.352058837890625,9.638887405395508,1.2436695098876953,-0.4905286431312561
1772574406887988000,3.361988037109375,9.624530792236328,1.2484551668167114,-0.4953143000602722
1772574406897920300,3.371920166015625,9.629316329956055,1.2484551668167114,-0.4953143000602722
1772574406907853300,3.381853271484375,9.681958198547363,1.2484551668167114,-0.5048855543136597
1772574406917785600,3.39178564453125,9.720243453979492,1.272383451461792,-0.5096712112426758
1772574406927720700,3.401720703125,9.748957633972168,1.296311616897583,-0.4953143000602722
1772574406937653200,3.4116533203125,9.725028991699219,1.277169108390808,-0.4953143000602722
1772574406947597800,3.421597900390625,9.653244972229004,1.2675977945327759,-0.5096712112426758
1772574406957531600,3.43153173828125,9.629316329956055,1.2867404222488403,-0.519242525100708
1772574406967463400,3.44146337890625,9.614959716796875,1.2819547653198242,-0.5048855543136597
1772574406977397000,3.45139697265625,9.629316329956055,1.272383451461792,-0.5240281820297241
1772574406987327700,3.46132763671875,9.638887405395508,1.2819547653198242,-0.5431707501411438
1772574406997261000,3.471260986328125,9.65803050994873,1.2867404222488403,-0.5383850932121277
1772574407007189000,3.48118896484375,9.729815483093262,1.2915260791778564,-0.5575276613235474
1772574407017121500,3.49112158203125,9.772886276245117,1.2819547653198242,-0.5670989751815796
1772574407027045000,3.501045166015625,9.753743171691895,1.2675977945327759,-0.5527420043945312
1772574407036977000,3.510976806640625,9.715457916259766,1.2532408237457275,-0.5527420043945312
1772574407046909700,3.52090966796875,9.653244972229004,1.2628121376037598,-0.5670989751815796
1772574407056841700,3.530841796875,9.600603103637695,1.2484551668167114,-0.5527420043945312
1772574407066733800,3.54073388671875,9.5862455368042,1.272383451461792,-0.5431707501411438
1772574407076661800,3.550661865234375,9.595816612243652,1.2628121376037598,-0.5383850932121277
1772574407086642400,3.560642333984375,9.605388641357422,1.2532408237457275,-0.5383850932121277
1772574407096575700,3.57057568359375,9.605388641357422,1.2484551668167114,-0.5623133182525635
1772574407106502000,3.580501953125,9.629316329956055,1.2436695098876953,-0.5335994362831116
1772574407116434400,3.590434326171875,9.638887405395508,1.2675977945327759,-0.519242525100708
1772574407126347500,3.600347412109375,9.638887405395508,1.272383451461792,-0.5288137793540955
1772574407136278000,3.610278076171875,9.610174179077148,1.2628121376037598,-0.5288137793540955
1772574407146252300,3.620252197265625,9.605388641357422,1.277169108390808,-0.5000999569892883
1772574407156187400,3.6301875,9.619745254516602,1.2867404222488403,-0.48574298620224
1772574407166082000,3.64008203125,9.638887405395508,1.296311616897583,-0.4905286431312561
1772574407176013000,3.650012939453125,9.681958198547363,1.2915260791778564,-0.5048855543136597
1772574407185944300,3.6599443359375,9.710672378540039,1.2915260791778564,-0.5144568681716919
1772574407195875300,3.669875244140625,9.739386558532715,1.272383451461792,-0.5096712112426758
1772574407205813200,3.679813232421875,9.758528709411621,1.3010972738265991,-0.4905286431312561
1772574407215744800,3.689744873046875,9.734601020812988,1.3154542446136475,-0.519242525100708
1772574407225704700,3.69970458984375,9.705886840820312,1.3202399015426636,-0.5240281820297241
1772574407235639300,3.709639404296875,9.677172660827637,1.3010972738265991,-0.5048855543136597
1772574407245570600,3.719570556640625,9.686744689941406,1.2915260791778564,-0.5096712112426758
1772574407255504600,3.729504638671875,9.686744689941406,1.277169108390808,-0.4953143000602722
1772574407265403400,3.7394033203125,9.69631576538086,1.2580264806747437,-0.519242525100708
1772574407275334000,3.749333984375,9.677172660827637,1.272383451461792,-0.5240281820297241
1772574407285295900,3.7592958984375,9.638887405395508,1.272383451461792,-0.5335994362831116
1772574407295229700,3.769229736328125,9.624530792236328,1.2675977945327759,-0.5048855543136597
1772574407305130500,3.779130615234375,9.64367389678955,1.272383451461792,-0.5288137793540955
1772574407315061000,3.78906103515625,9.677172660827637,1.2867404222488403,-0.519242525100708
1772574407325022500,3.7990224609375,9.681958198547363,1.2675977945327759,-0.5096712112426758
1772574407334956000,3.8089560546875,9.653244972229004,1.2675977945327759,-0.4953143000602722
1772574407344894200,3.818894287109375,9.648459434509277,1.272383451461792,-0.5048855543136597
1772574407354828300,3.828828369140625,9.69631576538086,1.2867404222488403,-0.576670229434967
1772574407364755500,3.83875537109375,9.720243453979492,1.3106685876846313,-0.5527420043945312
1772574407374688800,3.848688720703125,9.691530227661133,1.2819547653198242,-0.5288137793540955
1772574407384611300,3.858611328125,9.681958198547363,1.272383451461792,-0.5383850932121277
1772574407394543600,3.868543701171875,9.710672378540039,1.277169108390808,-0.576670229434967
1772574407404486700,3.878486572265625,9.69631576538086,1.296311616897583,-0.5623133182525635
1772574407414420000,3.888419921875,9.600603103637695,1.3106685876846313,-0.5383850932121277
1772574407424359000,3.89835888671875,9.653244972229004,1.2915260791778564,-0.5096712112426758
1772574407434292700,3.908292724609375,9.653244972229004,1.3202399015426636,-0.5288137793540955
1772574407444204800,3.918204833984375,9.653244972229004,1.3537393808364868,-0.5527420043945312
1772574407454136600,3.928136474609375,9.624530792236328,1.3106685876846313,-0.576670229434967
1772574407464070100,3.938070068359375,9.653244972229004,1.334596872329712,-0.5575276613235474
1772574407474002000,3.948001953125,9.576674461364746,1.3154542446136475,-0.5335994362831116
1772574407483913700,3.957913818359375,9.53360366821289,1.334596872329712,-0.5958128571510315
1772574407493843700,3.96784375,9.600603103637695,1.3250255584716797,-0.5862415432929993
1772574407503801300,3.97780126953125,9.619745254516602,1.339382529258728,-0.5718846321105957
1772574407513734000,3.98773388671875,9.614959716796875,1.3154542446136475,-0.5814558863639832
1772574407523666200,3.997666259765625,9.624530792236328,1.3202399015426636,-0.5862415432929993
1772574407533599000,4.007598876953125,9.648459434509277,1.3250255584716797,-0.5623133182525635
1772574407543533000,4.017532958984375,9.686744689941406,1.3441680669784546,-0.5431707501411438
1772574407553465900,4.0274658203125,9.739386558532715,1.3489537239074707,-0.5862415432929993
1772574407563394600,4.03739453125,9.739386558532715,1.3250255584716797,-0.5814558863639832
1772574407573326800,4.047326904296875,9.715457916259766,1.334596872329712,-0.576670229434967
1772574407583259100,4.057259033203125,9.686744689941406,1.3489537239074707,-0.5670989751815796
1772574407593191700,4.067191650390625,9.653244972229004,1.3441680669784546,-0.5527420043945312
1772574407603124000,4.0771240234375,9.653244972229004,1.339382529258728,-0.5575276613235474
1772574407613056500,4.087056396484375,9.653244972229004,1.3441680669784546,-0.5527420043945312
1772574407622993000,4.096992919921875,9.65803050994873,1.339382529258728,-0.5527420043945312
1772574407632925700,4.10692578125,9.667601585388184,1.3154542446136475,-0.5431707501411438
1772574407642860000,4.116860107421875,9.686744689941406,1.3298112154006958,-0.5479564070701599
1772574407652793000,4.12679296875,9.681958198547363,1.3058829307556152,-0.5431707501411438
1772574407662730000,4.13672998046875,9.691530227661133,1.3058829307556152,-0.5623133182525635
1772574407672663600,4.14666357421875,9.681958198547363,1.3058829307556152,-0.5623133182525635
1772574407682596900,4.156596923828125,9.725028991699219,1.296311616897583,-0.5479564070701599
1772574407692530200,4.1665302734375,9.720243453979492,1.2915260791778564,-0.5479564070701599
1772574407702451000,4.176450927734375,9.725028991699219,1.3058829307556152,-0.5479564070701599
1772574407712383200,4.18638330078125,9.677172660827637,1.3106685876846313,-0.5623133182525635
1772574407722316800,4.19631689453125,9.64367389678955,1.3154542446136475,-0.5527420043945312
1772574407732249000,4.2062490234375,9.64367389678955,1.296311616897583,-0.576670229434967
1772574407742195700,4.21619580078125,9.638887405395508,1.3106685876846313,-0.5479564070701599
1772574407752129500,4.226129638671875,9.648459434509277,1.296311616897583,-0.5479564070701599
1772574407762044000,4.2360439453125,9.614959716796875,1.334596872329712,-0.5862415432929993
1772574407771975700,4.2459755859375,9.591031074523926,1.3250255584716797,-0.5670989751815796
1772574407781909000,4.255908935546875,9.591031074523926,1.334596872329712,-0.5575276613235474
1772574407791841000,4.265841064453125,9.600603103637695,1.3202399015426636,-0.5670989751815796
1772574407801778000,4.27577783203125,9.614959716796875,1.3202399015426636,-0.5527420043945312
1772574407811710200,4.285710205078125,9.634101867675781,1.334596872329712,-0.5670989751815796
1772574407821638700,4.295638671875,9.64367389678955,1.334596872329712,-0.5862415432929993
1772574407831570700,4.30557080078125,9.648459434509277,1.3154542446136475,-0.576670229434967
1772574407841516300,4.315516357421875,9.65803050994873,1.3154542446136475,-0.5575276613235474
1772574407851449600,4.32544970703125,9.667601585388184,1.3202399015426636,-0.5623133182525635
1772574407861371100,4.33537109375,9.69631576538086,1.3202399015426636,-0.5479564070701599
1772574407871303200,4.34530322265625,9.69631576538086,1.3202399015426636,-0.5623133182525635
1772574407881223200,4.35522314453125,9.681958198547363,1.334596872329712,-0.5718846321105957
1772574407891154200,4.365154296875,9.634101867675781,1.3202399015426636,-0.5623133182525635
1772574407901099500,4.375099609375,9.595816612243652,1.3250255584716797,-0.5383850932121277
1772574407911032000,4.385031982421875,9.562317848205566,1.3154542446136475,-0.5383850932121277
1772574407920964600,4.394964599609375,9.509675025939941,1.296311616897583,-0.5575276613235474
1772574407930897200,4.404897216796875,9.514460563659668,1.3058829307556152,-0.5383850932121277
1772574407940828400,4.414828369140625,9.562317848205566,1.3106685876846313,-0.5431707501411438
1772574407950761000,4.424760986328125,9.638887405395508,1.2867404222488403,-0.5575276613235474
1772574407960704800,4.434704833984375,9.677172660827637,1.2867404222488403,-0.5623133182525635
1772574407970638300,4.444638427734375,9.686744689941406,1.3058829307556152,-0.5527420043945312
1772574407980559000,4.45455908203125,9.710672378540039,1.3010972738265991,-0.576670229434967
1772574407990491400,4.464491455078125,9.710672378540039,1.3058829307556152,-0.5670989751815796
1772574408000435700,4.474435791015625,9.758528709411621,1.296311616897583,-0.5527420043945312
1772574408010369300,4.484369384765625,9.81117057800293,1.3010972738265991,-0.5575276613235474
1772574408020291300,4.494291259765625,9.825528144836426,1.3058829307556152,-0.5383850932121277
1772574408030223600,4.5042236328125,9.792028427124023,1.2819547653198242,-0.576670229434967
1772574408040155100,4.514155029296875,9.753743171691895,1.3058829307556152,-0.5862415432929993
1772574408050087400,4.52408740234375,9.715457916259766,1.277169108390808,-0.5527420043945312
1772574408060019000,4.53401904296875,9.65803050994873,1.272383451461792,-0.576670229434967
1772574408069951000,4.543950927734375,9.600603103637695,1.3010972738265991,-0.576670229434967
1772574408079890200,4.55389013671875,9.5862455368042,1.3010972738265991,-0.5623133182525635
1772574408089823000,4.563822998046875,9.581459999084473,1.3058829307556152,-0.5431707501411438
1772574408099748600,4.57374853515625,9.600603103637695,1.3250255584716797,-0.5575276613235474
1772574408109680600,4.5836806640625,9.624530792236328,1.296311616897583,-0.5479564070701599
1772574408119612700,4.59361279296875,9.648459434509277,1.2819547653198242,-0.5479564070701599
1772574408129545000,4.603544921875,9.648459434509277,1.277169108390808,-0.5431707501411438
1772574408139482000,4.613482177734375,9.638887405395508,1.277169108390808,-0.5288137793540955
1772574408149377000,4.623376953125,9.634101867675781,1.2819547653198242,-0.5479564070701599
1772574408159309600,4.6333095703125,9.624530792236328,1.2819547653198242,-0.5479564070701599
1772574408169274000,4.643274169921875,9.629316329956055,1.296311616897583,-0.576670229434967
1772574408179209500,4.65320947265625,9.638887405395508,1.3010972738265991,-0.5814558863639832
1772574408189151000,4.66315087890625,9.691530227661133,1.2915260791778564,-0.576670229434967
1772574408199086800,4.6730869140625,9.720243453979492,1.296311616897583,-0.576670229434967
1772574408209003500,4.68300341796875,9.768099784851074,1.3010972738265991,-0.576670229434967
1772574408218937600,4.6929375,9.758528709411621,1.3058829307556152,-0.576670229434967
1772574408228864500,4.702864501953125,9.715457916259766,1.334596872329712,-0.5623133182525635
1772574408238797800,4.7127978515625,9.686744689941406,1.3298112154006958,-0.576670229434967
1772574408248738300,4.72273828125,9.64367389678955,1.3154542446136475,-0.5718846321105957
1772574408258672400,4.73267236328125,9.610174179077148,1.3154542446136475,-0.5814558863639832
1772574408268582700,4.742582763671875,9.581459999084473,1.3202399015426636,-0.5575276613235474
1772574408278514400,4.752514404296875,9.55753231048584,1.3106685876846313,-0.5288137793540955
1772574408288462600,4.762462646484375,9.581459999084473,1.3250255584716797,-0.5575276613235474
1772574408298396000,4.77239599609375,9.591031074523926,1.296311616897583,-0.5383850932121277
1772574408308331800,4.782331787109375,9.614959716796875,1.272383451461792,-0.5431707501411438
1772574408318265300,4.792265380859375,9.653244972229004,1.277169108390808,-0.5623133182525635
1772574408328192300,4.802192138671875,9.662816047668457,1.2532408237457275,-0.576670229434967
1772574408338125000,4.812125,9.667601585388184,1.2532408237457275,-0.576670229434967
1772574408348036600,4.82203662109375,9.638887405395508,1.2628121376037598,-0.5718846321105957
1772574408357967400,4.83196728515625,9.624530792236328,1.272383451461792,-0.5575276613235474
1772574408367899400,4.8418994140625,9.581459999084473,1.2580264806747437,-0.5670989751815796
1772574408377830100,4.851830078125,9.543174743652344,1.2388839721679688,-0.5623133182525635
1772574408387768600,4.8617685546875,9.552745819091797,1.2580264806747437,-0.5335994362831116
1772574408397700400,4.871700439453125,9.576674461364746,1.2580264806747437,-0.5335994362831116
1772574408407634200,4.88163427734375,9.634101867675781,1.2532408237457275,-0.5527420043945312
1772574408417566000,4.89156591796875,9.677172660827637,1.2628121376037598,-0.5431707501411438
1772574408427496700,4.90149658203125,9.681958198547363,1.296311616897583,-0.5096712112426758
1772574408437428500,4.911428466796875,9.677172660827637,1.296311616897583,-0.5096712112426758
1772574408447358000,4.92135791015625,9.677172660827637,1.296311616897583,-0.5288137793540955
1772574408457289500,4.93128955078125,9.677172660827637,1.3154542446136475,-0.5240281820297241
1772574408467227000,4.941226806640625,9.686744689941406,1.3106685876846313,-0.519242525100708
1772574408477159000,4.951158935546875,9.69631576538086,1.3154542446136475,-0.5431707501411438
1772574408487120600,4.96112060546875,9.720243453979492,1.334596872329712,-0.5383850932121277
1772574408497055700,4.9710556640625,9.715457916259766,1.3537393808364868,-0.519242525100708
1772574408506959400,4.98095947265625,9.677172660827637,1.3489537239074707,-0.519242525100708
1772574408516891400,4.990891357421875,9.662816047668457,1.3298112154006958,-0.5383850932121277
1772574408526840600,5.000840576171875,9.65803050994873,1.3537393808364868,-0.5288137793540955
1772574408536774400,5.0107744140625,9.629316329956055,1.3680963516235352,-0.5240281820297241
1772574408546720000,5.020719970703125,9.624530792236328,1.363310694694519,-0.5670989751815796
1772574408556654800,5.03065478515625,9.605388641357422,1.3489537239074707,-0.5575276613235474
1772574408566609000,5.04060888671875,9.619745254516602,1.339382529258728,-0.5431707501411438
1772574408576545500,5.050545654296875,9.624530792236328,1.3202399015426636,-0.5383850932121277
1772574408586433000,5.06043310546875,9.648459434509277,1.3250255584716797,-0.5527420043945312
1772574408596365000,5.070364990234375,9.65803050994873,1.3250255584716797,-0.5958128571510315
1772574408606281500,5.080281494140625,9.67238712310791,1.3106685876846313,-0.5958128571510315
1772574408616212000,5.0902119140625,9.681958198547363,1.3058829307556152,-0.5862415432929993
1772574408626180600,5.1001806640625,9.686744689941406,1.3154542446136475,-0.5958128571510315
1772574408636115000,5.110114990234375,9.720243453979492,1.277169108390808,-0.6005984544754028
1772574408646027800,5.12002783203125,9.705886840820312,1.2675977945327759,-0.6005984544754028
1772574408655959800,5.129959716796875,9.667601585388184,1.2915260791778564,-0.5910272002220154
1772574408665895400,5.1398955078125,9.595816612243652,1.296311616897583,-0.6005984544754028
1772574408675827700,5.14982763671875,9.54796028137207,1.3058829307556152,-0.6149554252624512
1772574408685760000,5.159760009765625,9.55753231048584,1.3250255584716797,-0.6197410821914673
1772574408695692500,5.169692626953125,9.629316329956055,1.3154542446136475,-0.6149554252624512
1772574408705631000,5.179630859375,9.653244972229004,1.3441680669784546,-0.5910272002220154
1772574408715564000,5.18956396484375,9.681958198547363,1.339382529258728,-0.6005984544754028
1772574408725492500,5.199492431640625,9.734601020812988,1.3154542446136475,-0.5862415432929993
1772574408735425000,5.209425048828125,9.763314247131348,1.3010972738265991,-0.5910272002220154
1772574408745330700,5.21933056640625,9.78245735168457,1.3250255584716797,-0.5910272002220154
1772574408755260400,5.229260498046875,9.78245735168457,1.339382529258728,-0.5670989751815796
1772574408765224000,5.239223876953125,9.734601020812988,1.3441680669784546,-0.5718846321105957
1772574408775157000,5.249156982421875,9.729815483093262,1.3202399015426636,-0.5383850932121277
1772574408785093400,5.25909326171875,9.667601585388184,1.3250255584716797,-0.5144568681716919
1772574408795027000,5.26902685546875,9.624530792236328,1.3010972738265991,-0.5096712112426758
1772574408804927200,5.27892724609375,9.619745254516602,1.296311616897583,-0.519242525100708
1772574408814857500,5.288857421875,9.614959716796875,1.3010972738265991,-0.519242525100708
1772574408824813300,5.298813232421875,9.634101867675781,1.2915260791778564,-0.5144568681716919
1772574408834746000,5.30874609375,9.662816047668457,1.2915260791778564,-0.5144568681716919
1772574408844681500,5.318681396484375,9.677172660827637,1.296311616897583,-0.519242525100708
1772574408854614500,5.328614501953125,9.67238712310791,1.3154542446136475,-0.5144568681716919
1772574408864546600,5.338546630859375,9.686744689941406,1.3298112154006958,-0.48574298620224
1772574408874479400,5.348479248046875,9.667601585388184,1.3250255584716797,-0.4905286431312561
1772574408884422700,5.358422607421875,9.648459434509277,1.3202399015426636,-0.5096712112426758
1772574408894356700,5.368356689453125,9.610174179077148,1.3154542446136475,-0.5144568681716919
1772574408904275200,5.378275146484375,9.614959716796875,1.339382529258728,-0.4953143000602722
1772574408914207700,5.388207763671875,9.638887405395508,1.3441680669784546,-0.4953143000602722
1772574408924138500,5.398138427734375,9.638887405395508,1.3537393808364868,-0.5000999569892883
1772574408934070800,5.40807080078125,9.634101867675781,1.3728820085525513,-0.4953143000602722
1772574408944001500,5.41800146484375,9.614959716796875,1.3824533224105835,-0.5048855543136597
1772574408953933800,5.427933837890625,9.629316329956055,1.3680963516235352,-0.5240281820297241
1772574408963868200,5.4378681640625,9.662816047668457,1.3776676654815674,-0.5335994362831116
1772574408973800700,5.44780078125,9.701101303100586,1.3872389793395996,-0.5575276613235474
1772574408983745300,5.457745361328125,9.729815483093262,1.3824533224105835,-0.5479564070701599
1772574408993678800,5.467678955078125,9.734601020812988,1.3680963516235352,-0.5623133182525635
1772574409003611400,5.477611328125,9.734601020812988,1.363310694694519,-0.5527420043945312
1772574409013545000,5.487544921875,9.744172096252441,1.3441680669784546,-0.5670989751815796
1772574409023481900,5.49748193359375,9.725028991699219,1.3489537239074707,-0.5718846321105957
1772574409033415700,5.507415771484375,9.710672378540039,1.3298112154006958,-0.576670229434967
1772574409043329800,5.517329833984375,9.686744689941406,1.339382529258728,-0.576670229434967
1772574409053261600,5.527261474609375,9.677172660827637,1.3298112154006958,-0.5718846321105957
1772574409063198500,5.537198486328125,9.691530227661133,1.334596872329712,-0.5527420043945312
1772574409073130800,5.547130859375,9.634101867675781,1.3298112154006958,-0.5383850932121277
1772574409083036200,5.5570361328125,9.619745254516602,1.3202399015426636,-0.5288137793540955
1772574409092966000,5.5669658203125,9.605388641357422,1.3250255584716797,-0.5144568681716919
1772574409102923500,5.576923583984375,9.55753231048584,1.3202399015426636,-0.5096712112426758
1772574409112856000,5.58685595703125,9.567103385925293,1.3298112154006958,-0.5288137793540955
1772574409122788400,5.596788330078125,9.600603103637695,1.3250255584716797,-0.5144568681716919
1772574409132721000,5.606720947265625,9.64367389678955,1.3154542446136475,-0.48574298620224
1772574409142655700,5.61665576171875,9.653244972229004,1.334596872329712,-0.5000999569892883
1772574409152588300,5.62658837890625,9.667601585388184,1.3489537239074707,-0.47617170214653015
1772574409162516700,5.636516845703125,9.681958198547363,1.3441680669784546,-0.48095735907554626
1772574409172449000,5.646448974609375,9.69631576538086,1.3202399015426636,-0.47617170214653015
1772574409182383600,5.656383544921875,9.715457916259766,1.3489537239074707,-0.48574298620224
1772574409192316200,5.666316162109375,9.648459434509277,1.3728820085525513,-0.4713860750198364
1772574409202257000,5.6762568359375,9.600603103637695,1.3441680669784546,-0.45224347710609436
1772574409212190500,5.6861904296875,9.5862455368042,1.334596872329712,-0.4378865361213684
1772574409222110500,5.6961103515625,9.55753231048584,1.334596872329712,-0.44745782017707825
1772574409232042500,5.70604248046875,9.581459999084473,1.334596872329712,-0.48095735907554626
1772574409241958400,5.71595849609375,9.581459999084473,1.3250255584716797,-0.48574298620224
1772574409251888600,5.725888671875,9.562317848205566,1.334596872329712,-0.48095735907554626
1772574409261842000,5.735842041015625,9.55753231048584,1.339382529258728,-0.4666004180908203
1772574409271774500,5.7457744140625,9.567103385925293,1.339382529258728,-0.48095735907554626
1772574409281716500,5.755716552734375,9.567103385925293,1.3537393808364868,-0.48095735907554626
1772574409291650000,5.765650146484375,9.595816612243652,1.3680963516235352,-0.48095735907554626
1772574409301572000,5.775572021484375,9.629316329956055,1.3441680669784546,-0.4713860750198364
1772574409311504400,5.78550439453125,9.662816047668457,1.3298112154006958,-0.4666004180908203
1772574409321439200,5.795439208984375,9.69631576538086,1.3298112154006958,-0.4905286431312561
1772574409331371800,5.805371826171875,9.734601020812988,1.339382529258728,-0.4618147611618042
1772574409341303800,5.8153037109375,9.772886276245117,1.3441680669784546,-0.4713860750198364
1772574409351236400,5.825236328125,9.78245735168457,1.358525037765503,-0.4570291340351105
1772574409361169000,5.8351689453125,9.78245735168457,1.3776676654815674,-0.4666004180908203
1772574409371101700,5.845101806640625,9.748957633972168,1.363310694694519,-0.48574298620224
1772574409381034000,5.855033935546875,9.734601020812988,1.3824533224105835,-0.4953143000602722
1772574409390966500,5.864966552734375,9.729815483093262,1.3968101739883423,-0.4905286431312561
1772574409400900600,5.874900634765625,9.69631576538086,1.3776676654815674,-0.48095735907554626
1772574409410833200,5.884833251953125,9.681958198547363,1.3968101739883423,-0.47617170214653015
1772574409420752100,5.894752197265625,9.634101867675781,1.3824533224105835,-0.47617170214653015
1772574409430683600,5.90468359375,9.610174179077148,1.363310694694519,-0.48574298620224
1772574409440626000,5.9146259765625,9.5862455368042,1.363310694694519,-0.48574298620224
1772574409450558200,5.92455810546875,9.5862455368042,1.363310694694519,-0.48574298620224
1772574409460502800,5.934502685546875,9.591031074523926,1.3489537239074707,-0.519242525100708
1772574409470436600,5.9444365234375,9.600603103637695,1.363310694694519,-0.5335994362831116
1772574409480368400,5.954368408203125,9.562317848205566,1.3441680669784546,-0.5288137793540955
1772574409490302000,5.964302001953125,9.543174743652344,1.363310694694519,-0.5623133182525635
1772574409500227800,5.974227783203125,9.53360366821289,1.3489537239074707,-0.5623133182525635
1772574409510160400,5.984160400390625,9.576674461364746,1.334596872329712,-0.5479564070701599
1772574409520084700,5.994084716796875,9.619745254516602,1.3202399015426636,-0.5479564070701599
1772574409530016500,6.0040166015625,9.629316329956055,1.3441680669784546,-0.5383850932121277
1772574409539930600,6.0139306640625,9.638887405395508,1.339382529258728,-0.5431707501411438
1772574409549860900,6.02386083984375,9.662816047668457,1.3489537239074707,-0.5670989751815796
1772574409559792000,6.033792236328125,9.677172660827637,1.358525037765503,-0.5623133182525635
1772574409569722400,6.043722412109375,9.715457916259766,1.3776676654815674,-0.5383850932121277
1772574409579657000,6.053656982421875,9.725028991699219,1.3680963516235352,-0.5240281820297241
1772574409589587500,6.06358740234375,9.734601020812988,1.3824533224105835,-0.5527420043945312
1772574409599520500,6.0735205078125,9.729815483093262,1.3680963516235352,-0.5431707501411438
1772574409609451500,6.083451416015625,9.744172096252441,1.363310694694519,-0.5096712112426758
1772574409619426800,6.0934267578125,9.739386558532715,1.363310694694519,-0.5383850932121277
1772574409629362200,6.103362060546875,9.729815483093262,1.3680963516235352,-0.5288137793540955
1772574409639254500,6.113254638671875,9.725028991699219,1.3728820085525513,-0.5335994362831116
1772574409649185500,6.123185546875,9.710672378540039,1.3824533224105835,-0.5623133182525635
1772574409659151600,6.133151611328125,9.681958198547363,1.363310694694519,-0.5623133182525635
1772574409669086200,6.143086181640625,9.681958198547363,1.339382529258728,-0.5479564070701599
1772574409678985500,6.1529853515625,9.667601585388184,1.334596872329712,-0.5431707501411438
1772574409688916500,6.16291650390625,9.662816047668457,1.3489537239074707,-0.5575276613235474
1772574409698847000,6.172846923828125,9.614959716796875,1.3489537239074707,-0.5814558863639832
1772574409708778000,6.182778076171875,9.600603103637695,1.3250255584716797,-0.605384111404419
1772574409718732000,6.19273193359375,9.57188892364502,1.3250255584716797,-0.6005984544754028
1772574409728665300,6.202665283203125,9.528818130493164,1.3441680669784546,-0.5814558863639832
1772574409738604000,6.21260400390625,9.504889488220215,1.3824533224105835,-0.5862415432929993
1772574409748537900,6.222537841796875,9.485747337341309,1.3728820085525513,-0.6101697683334351
1772574409758481400,6.2324814453125,9.543174743652344,1.358525037765503,-0.605384111404419
1772574409768416300,6.242416259765625,9.576674461364746,1.3537393808364868,-0.605384111404419
1772574409778325800,6.25232568359375,9.634101867675781,1.3489537239074707,-0.6005984544754028
1772574409788258000,6.262258056640625,9.662816047668457,1.3489537239074707,-0.5862415432929993
1772574409798166800,6.272166748046875,9.677172660827637,1.3537393808364868,-0.5623133182525635
1772574409808099000,6.28209912109375,9.705886840820312,1.3680963516235352,-0.5670989751815796
1772574409837897700,6.311897705078125,9.648459434509277,1.3728820085525513,-0.5910272002220154
1772574409857792500,6.33179248046875,9.686744689941406,1.339382529258728,-0.576670229434967
1772574409867727600,6.3417275390625,9.662816047668457,1.3298112154006958,-0.5670989751815796
1772574409877654800,6.35165478515625,9.64367389678955,1.3680963516235352,-0.5623133182525635
1772574409887589000,6.361589111328125,9.653244972229004,1.3824533224105835,-0.5958128571510315
1772574409897509400,6.37150927734375,9.710672378540039,1.363310694694519,-0.6005984544754028
1772574409907442400,6.3814423828125,9.734601020812988,1.3441680669784546,-0.5910272002220154
1772574409917359600,6.391359619140625,9.729815483093262,1.3537393808364868,-0.5670989751815796
1772574409927291100,6.401291015625,9.725028991699219,1.3489537239074707,-0.5718846321105957
1772574409937245000,6.411244873046875,9.667601585388184,1.334596872329712,-0.5527420043945312
1772574409947178500,6.421178466796875,9.638887405395508,1.363310694694519,-0.519242525100708
1772574409957107700,6.431107666015625,9.619745254516602,1.339382529258728,-0.519242525100708
1772574409967041000,6.441041015625,9.614959716796875,1.3106685876846313,-0.5240281820297241
1772574409976973000,6.45097314453125,9.634101867675781,1.3298112154006958,-0.5240281820297241
1772574409986906000,6.460906005859375,9.64367389678955,1.3202399015426636,-0.5431707501411438
1772574409996833300,6.470833251953125,9.667601585388184,1.3202399015426636,-0.5623133182525635
1772574410006765800,6.480765869140625,9.662816047668457,1.3106685876846313,-0.5431707501411438
1772574410016701200,6.490701171875,9.65803050994873,1.3058829307556152,-0.5479564070701599
1772574410026633700,6.5006337890625,9.67238712310791,1.3202399015426636,-0.5479564070701599
1772574410036561200,6.51056103515625,9.681958198547363,1.3202399015426636,-0.5527420043945312
1772574410046493400,6.520493408203125,9.65803050994873,1.3154542446136475,-0.5383850932121277
1772574410056429000,6.530428955078125,9.634101867675781,1.3250255584716797,-0.5240281820297241
1772574410066361600,6.540361572265625,9.5862455368042,1.339382529258728,-0.519242525100708
1772574410076283000,6.550282958984375,9.552745819091797,1.3058829307556152,-0.5048855543136597
1772574410086214100,6.560214111328125,9.519247055053711,1.3010972738265991,-0.4905286431312561
1772574410096144100,6.57014404296875,9.485747337341309,1.3010972738265991,-0.48095735907554626
1772574410106075400,6.580075439453125,9.385248184204102,1.296311616897583,-0.5096712112426758
1772574410116009200,6.59000927734375,9.29910659790039,1.2819547653198242,-0.5144568681716919
1772574410125940700,6.599940673828125,9.284749984741211,1.2675977945327759,-0.5575276613235474
1772574410135873800,6.609873779296875,9.303893089294434,1.2580264806747437,-0.6340979933738708
1772574410145805600,6.6198056640625,9.375677108764648,1.277169108390808,-0.6771687865257263
1772574410155736800,6.62973681640625,9.46181869506836,1.272383451461792,-0.7010970115661621
1772574410165668600,6.639668701171875,9.54796028137207,1.2819547653198242,-0.6915257573127747
1772574410175602700,6.649602783203125,9.648459434509277,1.296311616897583,-0.7058826684951782
1772574410185534700,6.65953466796875,9.734601020812988,1.296311616897583,-0.7680960893630981
1772574410195470800,6.669470947265625,9.79681396484375,1.334596872329712,-0.7824530005455017
1772574410205403400,6.6794033203125,9.825528144836426,1.3537393808364868,-0.7489534616470337
1772574410215331600,6.68933154296875,9.887741088867188,1.3728820085525513,-0.7537391185760498
1772574410225263600,6.699263671875,9.964311599731445,1.3824533224105835,-0.729810893535614
1772574410235193300,6.709193359375,10.02173900604248,1.4111671447753906,-0.7202396392822266
1772574410245125000,6.719125,10.06002426147461,1.430309772491455,-0.7202396392822266
1772574410255061800,6.729061767578125,10.055238723754883,1.4350954294204712,-0.7154539823532104
1772574410264994000,6.738994140625,10.036096572875977,1.4398809671401978,-0.6915257573127747
1772574410274950100,6.7489501953125,10.012167930603027,1.425524115562439,-0.6293123364448547
1772574410284884700,6.758884765625,9.940383911132812,1.3776676654815674,-0.6293123364448547
1772574410294809300,6.768809326171875,9.849455833435059,1.363310694694519,-0.6340979933738708
1772574410304743000,6.778742919921875,9.725028991699219,1.3489537239074707,-0.6149554252624512
1772574410314675500,6.788675537109375,9.600603103637695,1.3106685876846313,-0.6293123364448547
1772574410324609000,6.798609130859375,9.519247055053711,1.277169108390808,-0.5910272002220154
1772574410334539500,6.80853955078125,9.437891006469727,1.2532408237457275,-0.5958128571510315
1772574410344472800,6.818472900390625,9.394820213317871,1.1910275220870972,-0.6149554252624512
1772574410354403600,6.828403564453125,9.33739185333252,1.1575279235839844,-0.5814558863639832
1772574410364336600,6.838336669921875,9.332606315612793,1.1335997581481934,-0.5670989751815796
1772574410374271500,6.848271484375,9.361320495605469,1.095314621925354,-0.605384111404419
1772574410384204800,6.858204833984375,9.500103950500488,1.0761719942092896,-0.5240281820297241
1772574410394138600,6.868138671875,9.57188892364502,1.0474581718444824,-0.44745782017707825
1772574410404072000,6.878072021484375,9.667601585388184,1.0187442302703857,-0.5096712112426758
1772574410414013200,6.88801318359375,9.768099784851074,1.0713863372802734,-0.5527420043945312
1772574410423947300,6.897947265625,9.79681396484375,1.0809576511383057,-0.5144568681716919
1772574410433875000,6.907875,9.830313682556152,1.1001001596450806,-0.45224347710609436
1772574410443808300,6.917808349609375,9.815957069396973,1.1240284442901611,-0.4570291340351105
1772574410453730000,6.92772998046875,9.772886276245117,1.1575279235839844,-0.4666004180908203
1772574410463662300,6.937662353515625,9.725028991699219,1.2149556875228882,-0.48095735907554626
1772574410473594000,6.947593994140625,9.720243453979492,1.2580264806747437,-0.5288137793540955
1772574410483526100,6.957526123046875,9.705886840820312,1.3202399015426636,-0.5623133182525635
1772574410493458400,6.96745849609375,9.667601585388184,1.363310694694519,-0.5623133182525635
1772574410503390700,6.977390625,9.619745254516602,1.3728820085525513,-0.5479564070701599
1772574410513336000,6.987336181640625,9.576674461364746,1.3680963516235352,-0.5623133182525635
1772574410523269600,6.99726953125,9.581459999084473,1.3680963516235352,-0.5670989751815796
1772574410533189600,7.007189697265625,9.67238712310791,1.3728820085525513,-0.5718846321105957
1772574410543122000,7.017121826171875,9.758528709411621,1.3537393808364868,-0.5910272002220154
1772574410553039400,7.027039306640625,9.835099220275879,1.3537393808364868,-0.6005984544754028
1772574410562970000,7.03697021484375,9.873384475708008,1.334596872329712,-0.6101697683334351
1772574410572919000,7.0469189453125,9.897313117980957,1.3298112154006958,-0.6005984544754028
1772574410582851600,7.0568515625,9.887741088867188,1.2675977945327759,-0.576670229434967
1772574410592793900,7.0667939453125,9.844670295715332,1.2532408237457275,-0.5096712112426758
1772574410602727200,7.07672705078125,9.758528709411621,1.210170030593872,-0.5000999569892883
1772574410612660700,7.08666064453125,9.681958198547363,1.1670992374420166,-0.5144568681716919
1772574410622594300,7.09659423828125,9.653244972229004,1.1479566097259521,-0.5144568681716919
1772574410632510700,7.1065107421875,9.634101867675781,1.1335997581481934,-0.5240281820297241
1772574410642442800,7.11644287109375,9.638887405395508,1.1240284442901611,-0.5240281820297241
1772574410652378400,7.12637841796875,9.667601585388184,1.1096714735031128,-0.5048855543136597
1772574410662310400,7.136310302734375,9.701101303100586,1.0809576511383057,-0.5048855543136597
1772574410672241200,7.1462412109375,9.701101303100586,1.0761719942092896,-0.5000999569892883
1772574410682173200,7.156173095703125,9.667601585388184,1.0713863372802734,-0.48095735907554626
1772574410692108800,7.16610888671875,9.614959716796875,1.0809576511383057,-0.5096712112426758
1772574410702041300,7.176041259765625,9.581459999084473,1.0857433080673218,-0.5144568681716919
1772574410711974000,7.185973876953125,9.54796028137207,1.114457130432129,-0.47617170214653015
1772574410721906200,7.19590625,9.54796028137207,1.1335997581481934,-0.48574298620224
1772574410731850000,7.20585009765625,9.562317848205566,1.1383854150772095,-0.5000999569892883
1772574410741783600,7.215783447265625,9.543174743652344,1.1623135805130005,-0.48574298620224
1772574410751701800,7.22570166015625,9.57188892364502,1.186241865158081,-0.5096712112426758
1772574410761633800,7.2356337890625,9.591031074523926,1.186241865158081,-0.519242525100708
1772574410771566300,7.24556640625,9.591031074523926,1.2005987167358398,-0.5096712112426758
1772574410781498400,7.255498291015625,9.576674461364746,1.2149556875228882,-0.5096712112426758
1772574410791434200,7.265434326171875,9.562317848205566,1.2245270013809204,-0.5048855543136597
1772574410801366800,7.27536669921875,9.581459999084473,1.2340983152389526,-0.5144568681716919
1772574410811327000,7.285326904296875,9.653244972229004,1.2293126583099365,-0.4953143000602722
1772574410821262300,7.295262451171875,9.720243453979492,1.2245270013809204,-0.48574298620224
1772574410831163400,7.305163330078125,9.777671813964844,1.2532408237457275,-0.4905286431312561
1772574410841095200,7.31509521484375,9.768099784851074,1.2245270013809204,-0.4953143000602722
1772574410851025200,7.325025146484375,9.763314247131348,1.2340983152389526,-0.519242525100708
1772574410860957000,7.33495703125,9.729815483093262,1.2245270013809204,-0.5383850932121277
1772574410870891500,7.3448916015625,9.69631576538086,1.205384373664856,-0.5048855543136597
1772574410880823600,7.354823486328125,9.681958198547363,1.2005987167358398,-0.4953143000602722
1772574410890756400,7.36475634765625,9.701101303100586,1.1958130598068237,-0.5335994362831116
1772574410900688400,7.3746884765625,9.739386558532715,1.1958130598068237,-0.5383850932121277
1772574410910619100,7.384619140625,9.734601020812988,1.1958130598068237,-0.5479564070701599
1772574410920551000,7.394551025390625,9.725028991699219,1.186241865158081,-0.5527420043945312
1772574410930486800,7.40448681640625,9.69631576538086,1.181456208229065,-0.576670229434967
1772574410940419000,7.414419189453125,9.725028991699219,1.186241865158081,-0.5910272002220154
1772574410950361600,7.424361572265625,9.69631576538086,1.1910275220870972,-0.576670229434967
1772574410960295000,7.434294921875,9.701101303100586,1.2005987167358398,-0.5814558863639832
1772574410970214000,7.4442138671875,9.677172660827637,1.1910275220870972,-0.576670229434967
1772574410980145700,7.454145751953125,9.662816047668457,1.181456208229065,-0.5862415432929993
1772574410990096400,7.464096435546875,9.662816047668457,1.186241865158081,-0.5958128571510315
1772574411000030200,7.4740302734375,9.595816612243652,1.1670992374420166,-0.5670989751815796
1772574411009948200,7.4839482421875,9.54796028137207,1.1766705513000488,-0.5527420043945312
1772574411019880200,7.493880126953125,9.524032592773438,1.181456208229065,-0.5910272002220154
1772574411029809200,7.50380908203125,9.55753231048584,1.1623135805130005,-0.5910272002220154
1772574411039741200,7.5137412109375,9.581459999084473,1.1623135805130005,-0.5527420043945312
1772574411049676000,7.523676025390625,9.5862455368042,1.1575279235839844,-0.5670989751815796
1772574411059608000,7.533608154296875,9.595816612243652,1.1431710720062256,-0.5623133182525635
1772574411069549800,7.5435498046875,9.610174179077148,1.1575279235839844,-0.5527420043945312
1772574411079483000,7.55348291015625,9.64367389678955,1.1527422666549683,-0.5288137793540955
1772574411089394000,7.563393798828125,9.701101303100586,1.1431710720062256,-0.5288137793540955
1772574411099324700,7.57332470703125,9.710672378540039,1.1623135805130005,-0.5431707501411438
1772574411109282300,7.5832822265625,9.691530227661133,1.1479566097259521,-0.5383850932121277
1772574411119215900,7.5932158203125,9.686744689941406,1.1623135805130005,-0.5575276613235474
1772574411129134800,7.603134765625,9.705886840820312,1.1575279235839844,-0.5383850932121277
1772574411139067100,7.613067138671875,9.720243453979492,1.1383854150772095,-0.5383850932121277
1772574411158907600,7.63290771484375,9.725028991699219,1.1910275220870972,-0.5048855543136597
1772574411178797800,7.6527978515625,9.686744689941406,1.186241865158081,-0.5431707501411438
1772574411188733200,7.662733154296875,9.691530227661133,1.2005987167358398,-0.5479564070701599
1772574411198663000,7.672662841796875,9.69631576538086,1.210170030593872,-0.5670989751815796
1772574411208597800,7.68259765625,9.710672378540039,1.2149556875228882,-0.5814558863639832
1772574411218529500,7.692529541015625,9.705886840820312,1.2197413444519043,-0.5527420043945312
1772574411228463900,7.7024638671875,9.681958198547363,1.2149556875228882,-0.5431707501411438
1772574411238395100,7.71239501953125,9.686744689941406,1.2149556875228882,-0.5479564070701599
1772574411248329200,7.7223291015625,9.701101303100586,1.205384373664856,-0.5383850932121277
1772574411258256000,7.732255859375,9.653244972229004,1.186241865158081,-0.5431707501411438
1772574411268189200,7.742189208984375,9.662816047668457,1.1670992374420166,-0.5575276613235474
1772574411278100700,7.752100830078125,9.67238712310791,1.181456208229065,-0.5479564070701599
1772574411288031700,7.76203173828125,9.67238712310791,1.186241865158081,-0.5479564070701599
1772574411297961200,7.771961181640625,9.69631576538086,1.1958130598068237,-0.5383850932121277
1772574411307892200,7.781892333984375,9.701101303100586,1.1910275220870972,-0.5479564070701599
1772574411317828000,7.791828125,9.710672378540039,1.1527422666549683,-0.5527420043945312
1772574411327759600,7.801759521484375,9.681958198547363,1.1718848943710327,-0.5335994362831116
1772574411337696000,7.811696044921875,9.653244972229004,1.1479566097259521,-0.5048855543136597
1772574411347628000,7.8216279296875,9.629316329956055,1.1383854150772095,-0.5144568681716919
1772574411357592800,7.8315927734375,9.624530792236328,1.1575279235839844,-0.5096712112426758
1772574411367528200,7.841528076171875,9.638887405395508,1.1527422666549683,-0.5096712112426758
1772574411377426400,7.851426513671875,9.662816047668457,1.1575279235839844,-0.5335994362831116
1772574411387358000,7.86135791015625,9.681958198547363,1.1479566097259521,-0.5479564070701599
1772574411397287700,7.87128759765625,9.667601585388184,1.1431710720062256,-0.5527420043945312
1772574411407219000,7.881218994140625,9.705886840820312,1.1479566097259521,-0.5383850932121277
1772574411417181000,7.891180908203125,9.686744689941406,1.1623135805130005,-0.5288137793540955
1772574411427115500,7.901115478515625,9.691530227661133,1.1575279235839844,-0.5623133182525635
1772574411437017000,7.91101708984375,9.686744689941406,1.1718848943710327,-0.5670989751815796
1772574411446948400,7.9209482421875,9.67238712310791,1.1766705513000488,-0.5288137793540955
1772574411456883500,7.930883544921875,9.662816047668457,1.186241865158081,-0.519242525100708
1772574411466815000,7.94081494140625,9.64367389678955,1.1910275220870972,-0.4953143000602722
1772574411476770300,7.950770263671875,9.67238712310791,1.1766705513000488,-0.5096712112426758
1772574411486704400,7.960704345703125,9.677172660827637,1.181456208229065,-0.519242525100708
1772574411496633900,7.9706337890625,9.691530227661133,1.1718848943710327,-0.4905286431312561
1772574411506567400,7.9805673828125,9.701101303100586,1.1766705513000488,-0.4570291340351105
1772574411516507600,7.990507568359375,9.715457916259766,1.1527422666549683,-0.4713860750198364
1772574411526442000,8.00044189453125,9.691530227661133,1.1718848943710327,-0.4713860750198364
1772574411536365600,8.010365478515626,9.681958198547363,1.1623135805130005,-0.4426721930503845
1772574411546299000,8.020298828125,9.686744689941406,1.1383854150772095,-0.4426721930503845
1772574411556227600,8.0302275390625,9.686744689941406,1.1479566097259521,-0.4713860750198364
1772574411566160400,8.040160400390626,9.667601585388184,1.1479566097259521,-0.47617170214653015
1772574411576093700,8.05009375,9.667601585388184,1.1479566097259521,-0.44745782017707825
1772574411586026500,8.060026611328125,9.677172660827637,1.1479566097259521,-0.4666004180908203
1772574411595957500,8.06995751953125,9.677172660827637,1.1335997581481934,-0.47617170214653015
1772574411605890000,8.07989013671875,9.69631576538086,1.1240284442901611,-0.48574298620224
1772574411615833300,8.089833251953126,9.710672378540039,1.119242787361145,-0.47617170214653015
1772574411625767200,8.09976708984375,9.744172096252441,1.1288141012191772,-0.4666004180908203
1772574411635701800,8.10970166015625,9.748957633972168,1.1288141012191772,-0.4618147611618042
1772574411645635300,8.11963525390625,9.729815483093262,1.1431710720062256,-0.4666004180908203
1772574411655554600,8.129554443359375,9.725028991699219,1.181456208229065,-0.4713860750198364
1772574411665486800,8.13948681640625,9.748957633972168,1.1718848943710327,-0.4713860750198364
1772574411675417900,8.14941796875,9.705886840820312,1.1527422666549683,-0.4426721930503845
1772574411685350100,8.15935009765625,9.662816047668457,1.1623135805130005,-0.4570291340351105
1772574411695281000,8.169281005859375,9.662816047668457,1.1527422666549683,-0.45224347710609436
1772574411705213000,8.179212890625,9.65803050994873,1.119242787361145,-0.4378865361213684
1772574411715144700,8.189144775390625,9.67238712310791,1.114457130432129,-0.45224347710609436
1772574411725076700,8.19907666015625,9.701101303100586,1.119242787361145,-0.4570291340351105
1772574411735010800,8.2090107421875,9.710672378540039,1.1001001596450806,-0.48095735907554626
1772574411744943000,8.218943115234374,9.720243453979492,1.1048858165740967,-0.4905286431312561
1772574411754875100,8.228875244140625,9.705886840820312,1.1001001596450806,-0.48574298620224
1772574411764807400,8.238807373046875,9.677172660827637,1.1096714735031128,-0.4905286431312561
1772574411774751500,8.24875146484375,9.65803050994873,1.0857433080673218,-0.4713860750198364
1772574411784649200,8.258649169921876,9.591031074523926,1.0809576511383057,-0.44745782017707825
1772574411794574000,8.268573974609374,9.55753231048584,1.090528964996338,-0.45224347710609436
1772574411804507600,8.278507568359375,9.54796028137207,1.1001001596450806,-0.4713860750198364
1772574411814441000,8.28844091796875,9.576674461364746,1.1240284442901611,-0.5335994362831116
1772574411844267500,8.318267578125,9.691530227661133,1.1718848943710327,-0.5144568681716919
1772574411854203000,8.328202880859376,9.686744689941406,1.1766705513000488,-0.5383850932121277
1772574411864133600,8.338133544921876,9.67238712310791,1.1670992374420166,-0.5335994362831116
1772574411874068500,8.348068359375,9.677172660827637,1.181456208229065,-0.5240281820297241
1772574411883998500,8.35799853515625,9.715457916259766,1.1670992374420166,-0.5096712112426758
1772574411893898800,8.367898681640625,9.744172096252441,1.1670992374420166,-0.5288137793540955
1772574411903833000,8.3778330078125,9.806385040283203,1.1670992374420166,-0.5431707501411438
1772574411913789400,8.38778955078125,9.81117057800293,1.1479566097259521,-0.5383850932121277
1772574411923725600,8.3977255859375,9.801599502563477,1.1623135805130005,-0.5479564070701599
1772574411933657300,8.4076572265625,9.763314247131348,1.181456208229065,-0.5431707501411438
1772574411943593000,8.417593017578126,9.739386558532715,1.1670992374420166,-0.5335994362831116
1772574411953524000,8.42752392578125,9.701101303100586,1.1431710720062256,-0.5335994362831116
1772574411963459300,8.437459228515625,9.67238712310791,1.1527422666549683,-0.519242525100708
1772574411973384400,8.447384521484375,9.691530227661133,1.1479566097259521,-0.5096712112426758
1772574411983318800,8.45731884765625,9.681958198547363,1.114457130432129,-0.5000999569892883
1772574411993247200,8.467247314453125,9.667601585388184,1.095314621925354,-0.4953143000602722
1772574412003181000,8.47718115234375,9.624530792236328,1.1001001596450806,-0.5431707501411438
1772574412013116200,8.4871162109375,9.595816612243652,1.1240284442901611,-0.5431707501411438
1772574412023050000,8.497050048828125,9.581459999084473,1.114457130432129,-0.5335994362831116
1772574412032981000,8.50698095703125,9.581459999084473,1.1096714735031128,-0.5623133182525635
1772574412042914600,8.51691455078125,9.600603103637695,1.1048858165740967,-0.5527420043945312
1772574412052850400,8.526850341796875,9.600603103637695,1.0857433080673218,-0.519242525100708
1772574412062784300,8.5367841796875,9.619745254516602,1.1001001596450806,-0.5048855543136597
1772574412072699600,8.54669970703125,9.605388641357422,1.095314621925354,-0.5000999569892883
1772574412082631700,8.556631591796876,9.614959716796875,1.095314621925354,-0.4666004180908203
1772574412092536600,8.56653662109375,9.648459434509277,1.0809576511383057,-0.4666004180908203
1772574412102465800,8.5764658203125,9.624530792236328,1.0761719942092896,-0.4713860750198364
1772574412112424400,8.586424560546876,9.638887405395508,1.0809576511383057,-0.4331009089946747
1772574412122356500,8.5963564453125,9.748957633972168,1.0809576511383057,-0.42831525206565857
1772574412132288000,8.6062880859375,9.787242889404297,1.1383854150772095,-0.4570291340351105
1772574412142210000,8.6162099609375,9.801599502563477,1.1575279235839844,-0.5000999569892883
1772574412162074000,8.63607421875,9.768099784851074,1.119242787361145,-0.5383850932121277
1772574412172051500,8.646051513671875,9.739386558532715,1.1288141012191772,-0.5479564070701599
1772574412181987000,8.655987060546876,9.677172660827637,1.1479566097259521,-0.5670989751815796
1772574412191883300,8.66588330078125,9.691530227661133,1.1288141012191772,-0.5623133182525635
1772574412201815000,8.67581494140625,9.705886840820312,1.1335997581481934,-0.5958128571510315
1772574412211748900,8.685748779296874,9.686744689941406,1.1383854150772095,-0.638883650302887
1772574412221680600,8.6956806640625,9.67238712310791,1.119242787361145,-0.6771687865257263
1772574412231609000,8.705609130859376,9.64367389678955,1.1335997581481934,-0.638883650302887
1772574412241540600,8.71554052734375,9.638887405395508,1.1335997581481934,-0.6340979933738708
1772574412251473000,8.725472900390624,9.634101867675781,1.1335997581481934,-0.6293123364448547
1772574412261404400,8.735404296875,9.653244972229004,1.1575279235839844,-0.6436693072319031
1772574412271343000,8.745343017578126,9.681958198547363,1.1479566097259521,-0.6005984544754028
1772574412281267200,8.75526708984375,9.729815483093262,1.090528964996338,-0.605384111404419
1772574412291200000,8.765199951171875,9.734601020812988,1.090528964996338,-0.6149554252624512
1772574412301132300,8.77513232421875,9.729815483093262,1.1048858165740967,-0.5958128571510315
1772574412321011700,8.79501171875,9.725028991699219,1.1048858165740967,-0.5958128571510315
1772574412330922000,8.804921875,9.720243453979492,1.114457130432129,-0.5862415432929993
1772574412350786600,8.82478662109375,9.715457916259766,1.057029366493225,-0.5862415432929993
1772574412360728000,8.83472802734375,9.763314247131348,1.090528964996338,-0.576670229434967
1772574412370661000,8.8446611328125,9.768099784851074,1.095314621925354,-0.576670229434967
1772574412380619800,8.854619873046875,9.748957633972168,1.090528964996338,-0.605384111404419
1772574412390555400,8.864555419921874,9.69631576538086,1.0857433080673218,-0.576670229434967
1772574412400477400,8.8744775390625,9.634101867675781,1.0666006803512573,-0.519242525100708
1772574412410411800,8.884411865234375,9.600603103637695,1.0761719942092896,-0.5383850932121277
1772574412420346600,8.8943466796875,9.543174743652344,1.0857433080673218,-0.5288137793540955
1772574412430281000,8.904281005859374,9.495318412780762,1.095314621925354,-0.5096712112426758
1772574412440206000,8.9142060546875,9.514460563659668,1.1001001596450806,-0.5048855543136597
1772574412450139400,8.924139404296875,9.528818130493164,1.1048858165740967,-0.5335994362831116
1772574412460076300,8.934076171875,9.54796028137207,1.114457130432129,-0.5240281820297241
1772574412470010000,8.944010009765625,9.605388641357422,1.1431710720062256,-0.5288137793540955
1772574412479938800,8.953938720703125,9.653244972229004,1.1096714735031128,-0.5431707501411438
1772574412489872100,8.9638720703125,9.686744689941406,1.095314621925354,-0.519242525100708
1772574412499808300,8.973808349609374,9.744172096252441,1.119242787361145,-0.4713860750198364
1772574412509741800,8.983741943359375,9.79681396484375,1.1001001596450806,-0.4905286431312561
1772574412519663400,8.993663330078125,9.849455833435059,1.114457130432129,-0.5240281820297241
1772574412529595600,9.003595703125,9.863813400268555,1.1096714735031128,-0.5240281820297241
1772574412539501300,9.013501220703125,9.815957069396973,1.0809576511383057,-0.5144568681716919
1772574412549431000,9.02343115234375,9.815957069396973,1.0713863372802734,-0.5479564070701599
1772574412559385600,9.033385498046876,9.835099220275879,1.090528964996338,-0.5862415432929993
1772574412569318000,9.04331787109375,9.772886276245117,1.1335997581481934,-0.5958128571510315
1772574412579261200,9.05326123046875,9.772886276245117,1.1623135805130005,-0.576670229434967
1772574412589194800,9.06319482421875,9.69631576538086,1.1288141012191772,-0.5623133182525635
1772574412599117800,9.073117919921875,9.64367389678955,1.1001001596450806,-0.6005984544754028
1772574412609050000,9.083050048828126,9.629316329956055,1.1096714735031128,-0.5623133182525635
1772574412618993400,9.092993408203125,9.624530792236328,1.090528964996338,-0.5527420043945312
1772574412628926700,9.1029267578125,9.634101867675781,1.0713863372802734,-0.5479564070701599
1772574412638841300,9.11284130859375,9.653244972229004,1.090528964996338,-0.5527420043945312
1772574412648772900,9.12277294921875,9.629316329956055,1.0761719942092896,-0.5527420043945312
1772574412658710500,9.13271044921875,9.648459434509277,1.0474581718444824,-0.5910272002220154
1772574412668642600,9.142642578125,9.69631576538086,1.0618150234222412,-0.6149554252624512
1772574412678577000,9.152576904296875,9.710672378540039,1.090528964996338,-0.5910272002220154
1772574412688509200,9.16250927734375,9.65803050994873,1.1048858165740967,-0.5862415432929993
1772574412698442200,9.172442138671874,9.591031074523926,1.114457130432129,-0.6005984544754028
1772574412708374800,9.182374755859374,9.581459999084473,1.1335997581481934,-0.6101697683334351
1772574412718299100,9.192299072265625,9.753743171691895,1.114457130432129,-0.5527420043945312
1772574412728230700,9.202230712890625,9.892526626586914,1.0713863372802734,-0.5096712112426758
1772574412738197000,9.212197021484375,9.964311599731445,1.0809576511383057,-0.6005984544754028
1772574412748132000,9.222132080078126,9.897313117980957,1.1527422666549683,-0.6628118753433228
1772574412758061000,9.23206103515625,9.701101303100586,1.1335997581481934,-0.5862415432929993
1772574412767995400,9.241995361328126,9.691530227661133,1.114457130432129,-0.5910272002220154
1772574412777906000,9.251906005859375,9.825528144836426,1.1718848943710327,-0.6005984544754028
1772574412787838000,9.261837890625,9.839884757995605,1.2436695098876953,-0.5910272002220154
1772574412797781800,9.27178173828125,9.777671813964844,1.277169108390808,-0.6532405614852905
1772574412807715000,9.281715087890625,9.78245735168457,1.3154542446136475,-0.6293123364448547
1772574412817658000,9.291658203125,9.78245735168457,1.3154542446136475,-0.5718846321105957
1772574412827592400,9.301592529296874,9.681958198547363,1.2580264806747437,-0.44745782017707825
1772574412837507000,9.311507080078124,9.524032592773438,1.1766705513000488,-0.4091726839542389
1772574412847439400,9.321439453125,9.246464729309082,1.0713863372802734,-0.41874396800994873
1772574412857377300,9.331377197265626,8.949156761169434,1.0091729164123535,-0.47617170214653015
1772574412867310300,9.341310302734374,9.001798629760742,1.0713863372802734,-0.5431707501411438
1772574412877237800,9.35123779296875,9.068798065185547,1.1096714735031128,-0.8398807644844055
