time,seconds_elapsed,z,y,x
1772571927222488600,0.199488525390625,0,0,0
1772571927232427800,0.209427734375,0.0023937225341796875,-0.004769265651702881,-0.004776977002620697
1772571927242352600,0.2193525390625,0.0015954971313476562,0.00003826618194580078,0.0032150521874427795
1772571927252286000,0.229285888671875,0.011971473693847656,-0.0036105364561080933,0.009609691798686981
1772571927262217700,0.2392177734375,0.024900436401367188,0.008552581071853638,0.0038738995790481567
1772571927272150500,0.249150634765625,-0.011170387268066406,0.015054494142532349,0.003159940242767334
1772571927282085400,0.25908544921875,-0.00957489013671875,0.02114604413509369,-0.0014660805463790894
1772571927292019200,0.269019287109375,0.012568473815917969,0.006056889891624451,-0.0012628138065338135
1772571927301950200,0.2789501953125,0.006909370422363281,0.0014370083808898926,-0.005360119044780731
1772571927311882800,0.2888828125,-0.0024023056030273438,0.00573006272315979,-0.0005867034196853638
1772571927321814500,0.298814453125,-0.0065364837646484375,-0.007909014821052551,-0.013571847230196
1772571927331746800,0.308746826171875,0.015952110290527344,-0.015899106860160828,-0.008030526340007782
1772571927341677300,0.31867724609375,-0.016218185424804688,-0.001285448670387268,0.005868479609489441
1772571927351608800,0.32860888671875,0.00272369384765625,0.0032883137464523315,-0.012219291180372238
1772571927361555200,0.33855517578125,0.020415306091308594,0.012140274047851562,-0.015661511570215225
1772571927371459600,0.34845947265625,0.014646530151367188,0.016100555658340454,-0.0012935921549797058
1772571927391338500,0.36833837890625,-0.00560760498046875,0.010678857564926147,0.007746070623397827
1772571927401277700,0.378277587890625,0.017362594604492188,0.005911380052566528,0.011893056333065033
1772571927411206000,0.388205810546875,-0.015354156494140625,0.01959356665611267,-0.0069753751158714294
1772571927421140500,0.398140380859375,-0.014627456665039062,0.000651925802230835,0.0024993494153022766
1772571927431069000,0.40806884765625,-0.0048274993896484375,-0.008186861872673035,-0.0020665228366851807
1772571927441001200,0.418001220703125,0.013698577880859375,0.0061435699462890625,-0.006436407566070557
1772571927450937900,0.427937744140625,-0.032764434814453125,0.006023898720741272,0.0031285881996154785
1772571927460872000,0.437871826171875,-0.00847625732421875,0.010714218020439148,-0.0014742165803909302
1772571927470801700,0.4478017578125,-0.02657032012939453,0.0012295693159103394,-0.005999751389026642
1772571927480734200,0.457734130859375,-0.016366004943847656,-0.012513726949691772,0.0033690854907035828
1772571927490678800,0.4676787109375,-0.0019283294677734375,0.010958373546600342,0.003269113600254059
1772571927500616200,0.4776162109375,-0.006488800048828125,0.010717779397964478,-0.005970276892185211
1772571927510535700,0.48753564453125,0.012240409851074219,-0.012746438384056091,-0.0010209158062934875
1772571927520466000,0.4974658203125,-0.00669097900390625,-0.016931384801864624,0.008300282061100006
1772571927530398500,0.5073984375,-0.015761375427246094,0.006929934024810791,0.0033209994435310364
1772571927540329700,0.517329833984375,-0.0059967041015625,0.016045868396759033,-0.006149157881736755
1772571927550263600,0.527263671875,0.012768745422363281,-0.012274280190467834,0.0033490359783172607
1772571927560195000,0.537195068359375,-0.010853767395019531,-0.011886373162269592,-0.0014761090278625488
1772571927570124800,0.547124755859375,0.0034132003784179688,-0.01617361605167389,-0.02003616839647293
1772571927580056000,0.55705615234375,-0.0013380050659179688,0.0029374659061431885,-0.005597427487373352
1772571927589990100,0.566990234375,-0.00130462646484375,0.012324050068855286,0.013117887079715729
1772571927599921700,0.576921630859375,0.012725830078125,0.021377354860305786,-0.0012951716780662537
1772571927609866000,0.586865966796875,0.017076492309570312,0.00220702588558197,-0.006013236939907074
1772571927619798800,0.596798828125,-0.0020265579223632812,0.011534526944160461,-0.010618146508932114
1772571927629697800,0.60669775390625,-0.011326789855957031,0.006623521447181702,-0.005770683288574219
1772571927639627300,0.616627197265625,-0.006388664245605469,-0.002745121717453003,-0.005718253552913666
1772571927649594000,0.626593994140625,0.0077972412109375,0.006614416837692261,-0.0009908527135849
1772571927659527200,0.636527099609375,0.007626533508300781,0.011086121201515198,-0.019875958561897278
1772571927669462500,0.646462646484375,-0.006591796875,-0.012639731168746948,-0.01932065188884735
1772571927679396000,0.65639599609375,-0.02519989013671875,-0.017019078135490417,0.009431898593902588
1772571927689318100,0.666318115234375,-0.00592041015625,-0.002559661865234375,-0.00022379308938980103
1772571927699250400,0.67625048828125,-0.010489463806152344,-0.011951446533203125,-0.004889257252216339
1772571927709181200,0.68618115234375,-0.010281562805175781,0.0024044811725616455,-0.004671603441238403
1772571927719113500,0.696113525390625,0.018087387084960938,0.0022946298122406006,0.00962519645690918
1772571927729047600,0.706047607421875,0.0036525726318359375,0.011580392718315125,-0.000032924115657806396
1772571927738979800,0.715979736328125,0.003582000732421875,-0.007391989231109619,-0.014004688709974289
1772571927748917800,0.725917724609375,0.012915611267089844,-0.01671808958053589,0.00037629157304763794
1772571927758850600,0.7358505859375,0.0032758712768554688,-0.006973087787628174,-0.004210017621517181
1772571927768793900,0.7457939453125,-0.015597343444824219,0.0026969462633132935,-0.004114106297492981
1772571927778727700,0.755727783203125,-0.0012111663818359375,-0.002016395330429077,-0.013430003076791763
1772571927788643800,0.765643798828125,0.003513336181640625,0.0028643757104873657,-0.0038689225912094116
1772571927798576000,0.775576171875,-0.005961418151855469,0.007562190294265747,-0.013198863714933395
1772571927808506400,0.78550634765625,0.012970924377441406,0.0026646703481674194,0.0013702213764190674
1772571927818438400,0.7954384765625,-0.00608062744140625,0.012075856328010559,-0.003340482711791992
1772571927828347100,0.80534716796875,-0.010685920715332031,0.016418635845184326,0.001547291874885559
1772571927838276600,0.815276611328125,-0.010506629943847656,-0.002854272723197937,0.0017465651035308838
1772571927848239000,0.825239013671875,-0.005623817443847656,-0.0074767619371414185,0.0017382502555847168
1772571927858172000,0.835171875,-0.0008192062377929688,-0.002707183361053467,0.006339035928249359
1772571927868106200,0.845106201171875,-0.0008068084716796875,0.0020842403173446655,-0.003161303699016571
1772571927878039300,0.855039306640625,-0.010212898254394531,-0.0072272419929504395,0.0016189515590667725
1772571927887969500,0.864969482421875,-0.0006256103515625,-0.007168978452682495,0.006420820951461792
1772571927897902300,0.87490234375,-0.0006122589111328125,0.025746449828147888,0.01104312390089035
1772571927907812600,0.8848125,0.022942543029785156,0.011128082871437073,0.015489012002944946
1772571927917743000,0.8947431640625,0.027268409729003906,-0.003144770860671997,0.015150286257266998
1772571927927675400,0.90467529296875,-0.001438140869140625,0.0016546696424484253,0.005501322448253632
1772571927937606100,0.914606201171875,-0.020252227783203125,0.001766800880432129,0.0008230730891227722
1772571927947543600,0.92454345703125,-0.024625778198242188,0.0018771588802337646,-0.0038784965872764587
1772571927957475000,0.93447509765625,-0.010090827941894531,0.0018842965364456177,0.0009154602885246277
1772571927967448300,0.9444482421875,0.023036956787109375,-0.0028171539306640625,-0.0037875771522521973
1772571927977384000,0.954384033203125,0.008527755737304688,0.011394023895263672,-0.003906413912773132
1772571927987274200,0.964274169921875,0.0036764144897460938,-0.012301310896873474,0.0008896738290786743
1772571927997205500,0.97420556640625,0.0036134719848632812,0.006775796413421631,0.0009986311197280884
1772571928007142100,0.98414208984375,-0.01528167724609375,0.01140989363193512,-0.008414458483457565
1772571928017073700,0.99407373046875,-0.010316848754882812,-0.0029689520597457886,-0.01306338980793953
1772571928027012000,1.00401220703125,0.02281475067138672,0.0112447589635849,-0.008116330951452255
1772571928036944400,1.0139443359375,0.0035991668701171875,-0.0030293166637420654,-0.012670684605836868
1772571928046869000,1.023868896484375,-0.0058765411376953125,-0.003142222762107849,0.006495065987110138
1772571928056800800,1.03380078125,-0.010489463806152344,0.0016578733921051025,0.011215686798095703
1772571928066729700,1.043729736328125,-0.0009002685546875,0.001769930124282837,0.006340883672237396
1772571928076661200,1.0536611328125,0.008530616760253906,0.006487444043159485,0.010964520275592804
1772571928086596900,1.063596923828125,0.008388519287109375,0.00641845166683197,-0.008134964853525162
1772571928096528400,1.0735283203125,-0.0011644363403320312,-0.0032699406147003174,-0.0033713728189468384
1772571928106483200,1.083483154296875,-0.015271186828613281,-0.0031769275665283203,-0.003395959734916687
1772571928116417300,1.093417236328125,0.0085296630859375,-0.0032882243394851685,-0.008128564804792404
1772571928126351400,1.103351318359375,0.0036783218383789062,0.0015143156051635742,-0.00797412171959877
1772571928136285400,1.113285400390625,0.013032913208007812,-0.01730760931968689,0.006307058036327362
1772571928146214700,1.123214599609375,0.003398895263671875,0.0018529146909713745,0.0061231330037117004
1772571928156148200,1.133148193359375,-0.015493392944335938,0.015986233949661255,-0.0033753663301467896
1772571928166087400,1.14308740234375,-0.010528564453125,0.0063410550355911255,0.0015116110444068909
1772571928176021500,1.153021484375,-0.0009355545043945312,-0.003244727849960327,0.015734262764453888
1772571928185945600,1.162945556640625,-0.0009222030639648438,0.006264224648475647,-0.007947240024805069
1772571928195878700,1.172878662109375,0.008510589599609375,0.020324021577835083,-0.01260397955775261
1772571928205833200,1.182833251953125,-0.0010499954223632812,-0.0034169256687164307,-0.007767859846353531
1772571928215768600,1.1927685546875,-0.11875724792480469,-0.007929503917694092,0.021750472486019135
1772571928225672400,1.20267236328125,0.18924808502197266,-0.030190929770469666,-0.023657143115997314
1772571928235604700,1.212604736328125,-0.091705322265625,0.021739870309829712,0.00009818375110626221
1772571928245550000,1.222550048828125,0.06048870086669922,-0.00182265043258667,0.000624537467956543
1772571928255483400,1.2324833984375,-0.0017328262329101562,-0.011171713471412659,0.005446538329124451
1772571928265402400,1.24240234375,-0.0017023086547851562,-0.015756934881210327,-0.008951690047979355
1772571928275334400,1.25233447265625,-0.0016651153564453125,0.0030745118856430054,-0.009389694780111313
1772571928285268000,1.26226806640625,-0.011040687561035156,0.01678141951560974,0.0038003548979759216
1772571928295200300,1.2722001953125,-0.020262718200683594,0.016135558485984802,0.01236262172460556
1772571928305130800,1.282130859375,0.008326530456542969,0.011196449398994446,0.0026588216423988342
1772571928315062800,1.292062744140625,0.00818634033203125,0.0016310811042785645,0.012052416801452637
1772571928325008600,1.302008544921875,0.008050918579101562,0.0015415996313095093,0.002453349530696869
1772571928344860000,1.32185986328125,0.012575149536132812,0.0013900399208068848,0.002266332507133484
1772571928354791700,1.331791748046875,0.0029468536376953125,-0.003303319215774536,0.007059201598167419
1772571928364703500,1.341703369140625,0.00760650634765625,0.006207287311553955,-0.002556063234806061
1772571928374633500,1.351633544921875,-0.006648063659667969,0.006244257092475891,0.0021127909421920776
1772571928384591600,1.361591552734375,0.00287628173828125,-0.0030360370874404907,-0.0027100592851638794
1772571928394524400,1.3715244140625,0.007534027099609375,-0.012263581156730652,0.002066195011138916
1772571928404457000,1.38145703125,-0.0020093917846679688,0.006813615560531616,0.006761081516742706
1772571928414389800,1.3913896484375,-0.011394500732421875,-0.002678021788597107,-0.007458407431840897
1772571928424321800,1.40132177734375,0.002918243408203125,0.01634073257446289,-0.007313374429941177
1772571928434254600,1.411254638671875,0.007576942443847656,0.011398911476135254,0.011661864817142487
1772571928444198100,1.4211982421875,-0.011384963989257812,0.015955984592437744,0.006779663264751434
1772571928454131700,1.431131591796875,0.0029306411743164062,0.006311282515525818,0.006586067378520966
1772571928464050700,1.44105078125,0.0075893402099609375,-0.0031720250844955444,0.001786656677722931
1772571928473983000,1.45098291015625,-0.020788192749023438,-0.0031820684671401978,-0.01234816387295723
1772571928483917600,1.46091748046875,-0.006318092346191406,0.0016172826290130615,-0.012018512934446335
1772571928493849900,1.470849853515625,0.007909774780273438,-0.012395009398460388,0.016452327370643616
1772571928503783400,1.480783447265625,0.021903038024902344,0.0019757896661758423,0.011490263044834137
1772571928513716200,1.49071630859375,0.007411956787109375,0.0019812732934951782,-0.0029076188802719116
1772571928523646200,1.500646240234375,-0.011548042297363281,0.006796553730964661,0.011186033487319946
1772571928533578500,1.51057861328125,-0.020772933959960938,0.0019117742776870728,0.001704476773738861
1772571928543512800,1.520512939453125,-0.011012077331542969,0.006728276610374451,0.0016968026757240295
1772571928553445000,1.530445068359375,-0.010828971862792969,-0.002761930227279663,0.006294764578342438
1772571928563392300,1.540392333984375,-0.0012311935424804688,-0.0026767104864120483,0.020233161747455597
1772571928573326000,1.550326171875,-0.0012121200561523438,0.01163417100906372,0.005687803030014038
1772571928583244000,1.560244140625,-0.010607719421386719,-0.0027490556240081787,0.010324053466320038
1772571928593176600,1.570176513671875,-0.0010118484497070312,-0.00757676362991333,0.010275788605213165
1772571928603085800,1.5800859375,-0.005702972412109375,0.011320427060127258,-0.003998808562755585
1772571928613015800,1.590015869140625,-0.0056095123291015625,0.025397226214408875,-0.01813851296901703
1772571928622975200,1.599975341796875,-0.0008058547973632812,0.010785818099975586,-0.003792986273765564
1772571928632908300,1.609908203125,-0.005499839782714844,-0.012999102473258972,0.010414965450763702
1772571928642843100,1.619843017578125,-0.010118484497070312,0.015507534146308899,0.0009462684392929077
1772571928652776200,1.629776123046875,-0.005238533020019531,0.0009583532810211182,0.000952988862991333
1772571928672645000,1.64964501953125,0.008978843688964844,-0.022225230932235718,0.005694113671779633
1772571928682568400,1.659568359375,0.008826255798339844,0.01124638319015503,0.010324999690055847
1772571928692501000,1.6695009765625,-0.0054473876953125,0.0016801804304122925,-0.003952130675315857
1772571928702383000,1.679383056640625,-0.0053577423095703125,-0.003018200397491455,-0.003865636885166168
1772571928712310500,1.689310546875,-0.005268096923828125,-0.0030314773321151733,0.005739711225032806
1772571928722297900,1.6992978515625,0.004235267639160156,0.0018688738346099854,0.0008526518940925598
1772571928732231200,1.709231201171875,-0.0005445480346679688,-0.007541775703430176,0.005569517612457275
1772571928742164000,1.7191640625,-0.009950637817382812,0.016063272953033447,0.014815054833889008
1772571928752097300,1.72909716796875,-0.009785652160644531,-0.0029996931552886963,-0.004247263073921204
1772571928762043100,1.739043212890625,-0.009625434875488281,-0.012226969003677368,-0.0041557177901268005
1772571928771977700,1.748977783203125,-0.014174461364746094,0.0068489015102386475,0.00535321980714798
1772571928781893400,1.758893310546875,0.009604454040527344,0.016089871525764465,0.005384072661399841
1772571928801737200,1.7787373046875,-0.004763603210449219,0.006710410118103027,0.0006940513849258423
1772571928811667700,1.788667724609375,-0.004683494567871094,-0.0028814971446990967,0.005411796271800995
1772571928821631500,1.798631591796875,-0.014025688171386719,-0.016819089651107788,0.005342394113540649
1772571928831565300,1.8085654296875,0.005040168762207031,0.011751219630241394,0.005375407636165619
1772571928841492500,1.818492431640625,0.00024890899658203125,-0.0073418766260147095,-0.004110656678676605
1772571928851425500,1.828425537109375,-0.013883590698242188,-0.007079780101776123,-0.0040214210748672485
1772571928861359900,1.83835986328125,-0.013653755187988281,0.002595871686935425,-0.008745331317186356
1772571928871293200,1.848293212890625,0.0006999969482421875,-0.0068268924951553345,0.000738777220249176
1772571928881220400,1.858220458984375,0.010105133056640625,-0.006676152348518372,-0.0087677501142025
1772571928891153200,1.868153076171875,-0.004192352294921875,-0.0064251720905303955,0.005524888634681702
1772571928901094000,1.878093994140625,0.0005846023559570312,0.007946819067001343,-0.00406327098608017
1772571928911027500,1.88802734375,-0.004136085510253906,-0.0014638155698776245,-0.00397307425737381
1772571928920926700,1.8979267578125,-0.004069328308105469,-0.0012994557619094849,-0.003988899290561676
1772571928930856700,1.907856689453125,0.005414009094238281,0.012987673282623291,0.000705622136592865
1772571928940816600,1.917816650390625,0.010031700134277344,0.003392547369003296,0.0007146447896957397
1772571928950749700,1.927749755859375,0.01928234100341797,-0.01085267961025238,-0.003985129296779633
1772571928960693200,1.937693359375,0.004833221435546875,0.013010337948799133,0.0007109567523002625
1772571928970627300,1.94762744140625,-0.004664421081542969,0.003414735198020935,-0.0040900856256484985
1772571928980551700,1.9575517578125,-0.009295463562011719,0.008104786276817322,-0.00881103053689003
1772571928990484700,1.967484619140625,-0.004431724548339844,0.022133901715278625,0.0053810179233551025
1772571929000415000,1.9774150390625,0.005057334899902344,0.026512712240219116,0.010120183229446411
1772571929010348000,1.98734814453125,0.01909923553466797,0.02140137553215027,0.009869180619716644
1772571929020278000,1.997278076171875,0.009364128112792969,0.016375213861465454,-0.009211990982294083
1772571929030210600,2.00721044921875,-0.014336585998535156,-0.002693668007850647,-0.008936423808336258
1772571929040143600,2.0171435546875,-0.004681587219238281,-0.0026110708713531494,0.005360782146453857
1772571929050076200,2.027076171875,0.009521484375,0.011595919728279114,0.0005853250622749329
1772571929060007200,2.037007080078125,-0.004761695861816406,-0.016912519931793213,-0.013527724891901016
1772571929069939700,2.046939697265625,-0.004681587219238281,0.002140134572982788,-0.013279777020215988
1772571929079872500,2.05687255859375,0.00010585784912109375,0.0020422786474227905,0.001086302101612091
1772571929089804800,2.0668046875,0.0048122406005859375,0.0019453465938568115,0.010607413947582245
1772571929099735800,2.07673583984375,0.00002288818359375,0.016076385974884033,-0.00838126614689827
1772571929109668400,2.08666845703125,-0.009390830993652344,-0.0031901299953460693,-0.017739348113536835
1772571929119580400,2.096580322265625,-0.004525184631347656,-0.012617617845535278,-0.01271265372633934
1772571929129510700,2.1065107421875,0.014384269714355469,0.0017568767070770264,0.006253033876419067
1772571929139443700,2.116443603515625,0.0000209808349609375,0.011081159114837646,0.010778583586215973
1772571929149374500,2.12637451171875,-0.004689216613769531,-0.007900223135948181,0.015330016613006592
1772571929159345400,2.136345458984375,-0.009322166442871094,0.0017881840467453003,0.0009713098406791687
1772571929169280000,2.146280029296875,-0.0044574737548828125,-0.012431025505065918,-0.003730975091457367
1772571929179176400,2.156176513671875,-0.009093284606933594,-0.007476970553398132,0.0011613890528678894
1772571929189107200,2.166107177734375,0.0004749298095703125,-0.012022539973258972,-0.0035458430647850037
1772571929199040000,2.1760400390625,0.0004673004150390625,-0.0024678707122802734,-0.0033647194504737854
1772571929208971000,2.185970947265625,0.00046062469482421875,0.00221899151802063,0.0014206692576408386
1772571929218904800,2.19590478515625,0.014581680297851562,0.02085144817829132,0.010836660861968994
1772571929228836000,2.205836181640625,-0.004492759704589844,0.0015053749084472656,0.0012595951557159424
1772571929238770700,2.215770751953125,0.004998207092285156,0.0062272995710372925,-0.003449253737926483
1772571929248702500,2.225702392578125,0.0002040863037109375,0.006161198019981384,0.006149202585220337
1772571929258635800,2.2356357421875,-0.004506111145019531,0.02012138068675995,0.010674715042114258
1772571929268567600,2.245567626953125,0.014407157897949219,0.0007874667644500732,0.0009990409016609192
1772571929278500400,2.255500244140625,0.014170646667480469,0.0053187161684036255,0.0056103989481925964
1772571929288432400,2.265432373046875,0.013933181762695312,0.009976372122764587,0.0008307993412017822
1772571929298371000,2.27537109375,-0.014554023742675781,0.0006341040134429932,0.0007363185286521912
1772571929308303600,2.2853037109375,-0.004893302917480469,-0.01356513798236847,-0.00396382063627243
1772571929318254000,2.295254150390625,0.004608154296875,-0.013504266738891602,0.000833369791507721
1772571929328188400,2.3051884765625,0.01865386962890625,-0.003722265362739563,0.010257400572299957
1772571929338119400,2.315119384765625,0.0042171478271484375,-0.003723829984664917,0.0007930472493171692
1772571929348053500,2.325053466796875,-0.014689445495605469,-0.008229881525039673,-0.0040111243724823
1772571929357982700,2.334982666015625,-0.009737014770507812,-0.003344997763633728,0.005491867661476135
1772571929367916300,2.344916259765625,0.013968467712402344,0.010874956846237183,-0.008806031197309494
1772571929377814300,2.354814208984375,-0.005097389221191406,-0.0034961998462677,-0.00863509252667427
1772571929387744300,2.364744140625,-0.01913738250732422,0.001207798719406128,-0.008470457047224045
1772571929397719600,2.374719482421875,-0.004693031311035156,-0.02712850272655487,0.0012140125036239624
1772571929407654100,2.384654052734375,0.004802703857421875,-0.02673998475074768,0.0060261934995651245
1772571929417556000,2.394555908203125,0.0000152587890625,0.0018945485353469849,0.001237824559211731
1772571929427487200,2.4044873046875,-0.004694938659667969,-0.00280722975730896,-0.012887861579656601
1772571929437447200,2.414447265625,-0.023451805114746094,-0.002722635865211487,0.0014752671122550964
1772571929447381200,2.42438134765625,-0.013645172119140625,-0.012055322527885437,0.011089473962783813
1772571929457307600,2.4343076171875,0.010123252868652344,0.0023097842931747437,-0.002997942268848419
1772571929467241000,2.444240966796875,0.005248069763183594,-0.002601534128189087,0.006591245532035828
1772571929477179400,2.454179443359375,-0.013672828674316406,0.002087503671646118,0.020627908408641815
1772571929487113200,2.46411328125,0.0053882598876953125,0.002091124653816223,0.020304836332798004
1772571929497017300,2.474017333984375,0.00058746337890625,0.006904184818267822,-0.008264463394880295
1772571929506948400,2.4839482421875,-0.018256187438964844,0.0067262351512908936,0.001311182975769043
1772571929516905500,2.493905517578125,0.000881195068359375,-0.0027645528316497803,0.001310110092163086
1772571929526839000,2.503839111328125,0.010282516479492188,0.002028554677963257,0.0013089999556541443
1772571929536770600,2.5137705078125,0.0006952285766601562,-0.007485345005989075,0.006016500294208527
1772571929546704100,2.5237041015625,0.005390167236328125,-0.0026142895221710205,0.001331426203250885
1772571929556635100,2.53363525390625,0.005297660827636719,0.011694058775901794,-0.003376878798007965
1772571929566568200,2.543568115234375,0.00521087646484375,0.006726965308189392,0.006017759442329407
1772571929576505000,2.553505126953125,0.0004177093505859375,0.006450578570365906,0.006039544939994812
1772571929586438400,2.5634384765625,-0.018423080444335938,-0.012553513050079346,-0.008167926222085953
1772571929596367000,2.5733671875,0.010137557983398438,0.0017186403274536133,0.006013438105583191
1772571929606300000,2.5832998046875,0.0005512237548828125,0.0157528817653656,0.006035253405570984
1772571929616250400,2.59325048828125,0.000537872314453125,-0.017330586910247803,-0.012775693088769913
1772571929626185200,2.603185302734375,0.0005283355712890625,-0.012294739484786987,0.0062923431396484375
1772571929636081000,2.613080810546875,0.0005207061767578125,0.0019740164279937744,0.0062063634395599365
1772571929646012000,2.623011962890625,0.009928703308105469,0.011397406458854675,-0.012712489813566208
1772571929655960600,2.632960693359375,-0.009073257446289062,-0.0075884610414505005,-0.01237839087843895
1772571929665893000,2.64289306640625,-0.008922576904296875,0.0019943416118621826,0.011389851570129395
1772571929675825700,2.65282568359375,-0.008769989013671875,-0.002911686897277832,-0.007714923471212387
1772571929685758200,2.66275830078125,-0.0086212158203125,0.0016812682151794434,-0.002857021987438202
1772571929695667000,2.6726669921875,0.0009393692016601562,-0.01253528892993927,-0.00268767774105072
1772571929705597200,2.68259716796875,0.005629539489746094,0.006646960973739624,-0.0025191307067871094
1772571929715557400,2.692557373046875,-0.008593559265136719,0.0019669681787490845,0.0023555755615234375
1772571929725490700,2.70249072265625,-0.003742218017578125,-0.01686108112335205,0.002335287630558014
1772571929735420200,2.712420166015625,0.005740165710449219,-0.00261843204498291,-0.007100101560354233
1772571929745353000,2.72235302734375,0.010352134704589844,0.011588707566261292,0.0024579092860221863
1772571929755287000,2.732287109375,-0.018073081970214844,0.020851165056228638,0.007146261632442474
1772571929765219800,2.7422197265625,0.0010652542114257812,0.006212979555130005,0.007049642503261566
1772571929775150300,2.752150390625,0.015176773071289062,-0.012889817357063293,0.011561952531337738
1772571929785083100,2.762083251953125,-0.0039052963256835938,0.0011853128671646118,-0.0028370991349220276
1772571929795019800,2.772019775390625,-0.0038394927978515625,0.015228420495986938,0.0019395127892494202
1772571929804953000,2.781953125,0.0056400299072265625,0.005595847964286804,-0.011995252221822739
1772571929814882300,2.79188232421875,0.0008382797241210938,0.014856904745101929,-0.011774610728025436
1772571929824814800,2.80181494140625,-0.0085906982421875,-0.008997276425361633,-0.006948579102754593
1772571929834790700,2.811790771484375,-0.008450508117675781,-0.008707717061042786,0.002607010304927826
1772571929844727800,2.821727783203125,0.00110626220703125,-0.008523479104042053,0.0119997039437294
1772571929854612200,2.8316123046875,0.005794525146484375,-0.013051778078079224,-0.0022046416997909546
1772571929864544000,2.8415439453125,0.010404586791992188,0.0060378313064575195,0.007373064756393433
1772571929874476000,2.85147607421875,-0.003894805908203125,0.020101383328437805,0.007169611752033234
1772571929884408000,2.861407958984375,0.005587577819824219,0.0009710788726806641,-0.002449408173561096
1772571929894317600,2.871317626953125,0.0054931640625,-0.008423298597335815,0.0023189187049865723
1772571929904247000,2.8812470703125,-0.008722305297851562,0.005678743124008179,-0.002306327223777771
1772571929914211800,2.8912119140625,-0.008575439453125,0.01022958755493164,0.007068455219268799
1772571929924145200,2.901145263671875,-0.0037250518798828125,-0.0040282756090164185,0.0022627785801887512
1772571929934071300,2.9110712890625,0.010460853576660156,-0.0038215219974517822,0.00214453786611557
1772571929944003600,2.921003662109375,0.005578041076660156,0.01040707528591156,0.0067350417375564575
1772571929953942000,2.93094189453125,-0.013349533081054688,0.010170698165893555,0.016162067651748657
1772571929963875000,2.940875,-0.003711700439453125,0.0006224066019058228,0.0066988468170166016
1772571929973802800,2.950802734375,0.005766868591308594,0.0053590089082717896,0.0018993169069290161
1772571929983735000,2.960735107421875,-0.0037479400634765625,-0.008716389536857605,0.0017870888113975525
1772571929993670700,2.970670654296875,0.005728721618652344,-0.013139262795448303,-0.012349512428045273
1772571930003603500,2.980603515625,0.005633354187011719,0.0011419057846069336,0.0021058842539787292
1772571930013534500,2.990534423828125,-0.0038747787475585938,0.019793778657913208,-0.0073274485766887665
1772571930023467300,3.00046728515625,-0.008516311645507812,0.005174621939659119,-0.002477772533893585
1772571930033407200,3.0104072265625,0.0010461807250976562,-0.01861889660358429,0.00690007209777832
1772571930043340500,3.020340576171875,-0.0036802291870117188,-0.004144385457038879,-0.01683848351240158
1772571930053282600,3.030282470703125,-0.0036191940307617188,-0.004138961434364319,0.011817626655101776
1772571930063217000,3.040216796875,0.005856513977050781,-0.008740857243537903,0.0023273006081581116
1772571930073141200,3.050141357421875,-0.0036602020263671875,0.005670905113220215,-0.021336734294891357
1772571930083074600,3.060074462890625,-0.008309364318847656,-0.008509606122970581,-0.01615404337644577
1772571930093012000,3.070011962890625,-0.008170127868652344,-0.008430704474449158,-0.00644688680768013
1772571930102945800,3.07994580078125,0.0060901641845703125,-0.008149787783622742,-0.006421778351068497
1772571930112837000,3.089837158203125,-0.008139610290527344,-0.0031662434339523315,0.003123074769973755
1772571930122766600,3.0997666015625,-0.0032949447631835938,0.010949462652206421,-0.01093277707695961
1772571930132729900,3.109729736328125,0.010885238647460938,0.006097584962844849,0.0033942312002182007
1772571930142662700,3.11966259765625,-0.008130073547363281,0.006035745143890381,0.0172780379652977
1772571930152589300,3.12958935546875,0.010838508605957031,0.010784760117530823,0.007387600839138031
1772571930162521600,3.139521484375,0.0059490203857421875,-0.00829295814037323,-0.006737526506185532
1772571930172454400,3.149454345703125,0.010557174682617188,-0.01282423734664917,-0.0066062770783901215
1772571930182386700,3.15938671875,-0.017868995666503906,0.0014517009258270264,-0.0017650872468948364
1772571930192325600,3.16932568359375,-0.012861251831054688,-0.003344014286994934,0.002993658185005188
1772571930202258400,3.179258544921875,0.0014810562133789062,-0.003350481390953064,0.007570013403892517
1772571930212185900,3.189185791015625,0.001453399658203125,0.010970771312713623,-0.001952625811100006
1772571930222118100,3.1991181640625,0.015555381774902344,-0.003401458263397217,-0.0017963051795959473
1772571930232063500,3.2090634765625,0.015298843383789062,-0.008218452334403992,0.0029647424817085266
1772571930241997300,3.218997314453125,0.0009202957153320312,-0.008144363760948181,0.0028347447514533997
1772571930251923000,3.2289228515625,-0.0038042068481445312,-0.0032616406679153442,-0.0019003823399543762
1772571930261856000,3.23885595703125,-0.003742218017578125,-0.007878869771957397,0.007572725415229797
1772571930271792400,3.24879248046875,0.01044464111328125,0.0017073601484298706,-0.0019481703639030457
1772571930281725700,3.2587255859375,-0.0038557052612304688,0.02055169641971588,-0.0018949732184410095
1772571930291659800,3.26865966796875,0.0056247711181640625,0.0014139115810394287,-0.006553027778863907
1772571930301593300,3.27859326171875,-0.0038890838623046875,0.006239339709281921,-0.01113344356417656
1772571930311514600,3.2885146484375,-0.0038242340087890625,0.0014658123254776,0.003095656633377075
1772571930321446700,3.29844677734375,-0.0084686279296875,0.006087079644203186,-0.001542508602142334
1772571930331355600,3.308355712890625,0.0010881423950195312,-0.008101850748062134,0.003313519060611725
1772571930341285400,3.318285400390625,-0.00363922119140625,0.01090596616268158,0.0032790154218673706
1772571930351263000,3.328262939453125,0.010546684265136719,0.010763466358184814,-0.0014651790261268616
1772571930361197600,3.338197509765625,-0.0037565231323242188,-0.0035032927989959717,-0.006027307361364365
1772571930371119400,3.348119384765625,0.015141487121582031,0.005909457802772522,0.0035110414028167725
1772571930381052700,3.358052734375,0.0054721832275390625,0.0011414885520935059,0.008078768849372864
1772571930390950100,3.3679501953125,-0.0040378570556640625,-0.00344693660736084,0.003155238926410675
1772571930400879900,3.3778798828125,0.014863014221191406,-0.02689404785633087,0.003123372793197632
1772571930410822400,3.387822509765625,0.00048732757568359375,-0.012282297015190125,0.007903829216957092
1772571930420753400,3.39775341796875,0.00989532470703125,0.0020866096019744873,-0.001624368131160736
1772571930430714000,3.407714111328125,-0.00439453125,-0.0074284374713897705,-0.0015765130519866943
1772571930440648200,3.417648193359375,-0.013737678527832031,-0.007366150617599487,-0.0015330314636230469
1772571930450547000,3.427546875,0.0006160736083984375,-0.007204398512840271,0.003220014274120331
1772571930460477400,3.4374775390625,0.010022163391113281,-0.00704522430896759,0.0031853169202804565
1772571930470412300,3.447412353515625,0.009853363037109375,-0.006890088319778442,-0.015578337013721466
1772571930480343300,3.45734326171875,-0.004435539245605469,0.002579048275947571,0.008244991302490234
1772571930490275800,3.46727587890625,-0.004361152648925781,0.026015430688858032,-0.0011858269572257996
1772571930500206800,3.477206787109375,0.019255638122558594,-0.0027326196432113647,-0.015271127223968506
1772571930510145500,3.4871455078125,-0.018733978271484375,-0.002750024199485779,0.003939874470233917
1772571930520077300,3.497077392578125,-0.004299163818359375,0.0021440982818603516,0.0038949400186538696
1772571930530033700,3.50703369140625,0.005185127258300781,0.011767134070396423,-0.010274980217218399
1772571930539968000,3.516968017578125,-0.004321098327636719,0.011710748076438904,-0.000665813684463501
1772571930549869300,3.526869384765625,0.009877204895019531,0.011553838849067688,-0.010253209620714188
1772571930559800300,3.53680029296875,0.00029277801513671875,-0.007333427667617798,0.013481363654136658
1772571930569763800,3.546763916015625,0.0049953460693359375,0.006952434778213501,0.008570633828639984
1772571930579698200,3.5566982421875,0.009619712829589844,-0.0025429129600524902,0.008450277149677277
1772571930589628000,3.5666279296875,0.00004100799560546875,-0.011878639459609985,0.008328408002853394
1772571930599561700,3.576561767578125,0.009456634521484375,-0.006933659315109253,0.0035017356276512146
1772571930609500700,3.586500732421875,-0.0001201629638671875,-0.002071067690849304,-0.015268884599208832
1772571930619435000,3.59643505859375,0.0045909881591796875,-0.006809428334236145,-0.0055729784071445465
1772571930629331000,3.6063310546875,0.013933181762695312,-0.011467888951301575,-0.0008500441908836365
1772571930639261400,3.616261474609375,0.018408775329589844,-0.006529778242111206,-0.005523744970560074
1772571930649224000,3.626223876953125,-0.01956462860107422,-0.0018777549266815186,-0.01001610979437828
1772571930659157800,3.63615771484375,-0.023946762084960938,0.01702633500099182,0.008904598653316498
1772571930669086200,3.646086181640625,0.004702568054199219,0.0026551783084869385,0.01348549872636795
1772571930679019300,3.656019287109375,-0.00008392333984375,0.011965185403823853,0.003864280879497528
1772571930688951800,3.665951904296875,0.0046291351318359375,-0.0072335004806518555,0.0038223639130592346
1772571930698884900,3.675884765625,-0.009573936462402344,-0.01649172604084015,-0.0010305270552635193
1772571930708816000,3.68581591796875,0.000003814697265625,-0.0021546632051467896,-0.010408062487840652
1772571930718748700,3.695748779296875,0.00000476837158203125,-0.006890252232551575,0.003911912441253662
1772571930728679700,3.7056796875,-0.009415626525878906,0.012199342250823975,0.01328287273645401
1772571930738612200,3.7156123046875,-0.0045490264892578125,0.011933118104934692,-0.019877932965755463
1772571930748547800,3.7255478515625,-0.009182929992675781,0.0023540854454040527,-0.005396608263254166
1772571930758481000,3.73548095703125,0.000385284423828125,-0.01177184283733368,-0.0004777833819389343
1772571930768381700,3.745381591796875,0.005089759826660156,0.0024874508380889893,0.004158452153205872
1772571930778311400,3.7553115234375,0.005005836486816406,-0.016451284289360046,-0.0053073205053806305
1772571930788276700,3.76527685546875,-0.009202003479003906,-0.011531621217727661,0.004219114780426025
1772571930798210000,3.7752099609375,-0.0043392181396484375,-0.006693735718727112,0.013586707413196564
1772571930808146200,3.785146240234375,-0.008975028991699219,0.0169985294342041,0.0038642212748527527
1772571930818079700,3.795079833984375,-0.0041179656982421875,0.002627849578857422,0.017946317791938782
1772571930828021200,3.805021240234375,-0.013468742370605469,-0.01150260865688324,-0.005775365978479385
1772571930837955600,3.81495556640625,-0.0038270950317382812,0.00275266170501709,-0.005558814853429794
1772571930847847700,3.82484765625,0.019779205322265625,0.012162208557128906,-0.010255005210638046
1772571930857777700,3.834777587890625,-0.004093170166015625,-0.016354262828826904,0.004161939024925232
1772571930867742500,3.844742431640625,0.0006818771362304688,-0.016043171286582947,0.01363217830657959
1772571930877676000,3.854676025390625,0.014797210693359375,-0.006421506404876709,0.0040085166692733765
1772571930887611100,3.864611083984375,-0.0042819976806640625,0.007749080657958984,0.0038593634963035583
1772571930897545000,3.874544921875,-0.004210472106933594,0.002949744462966919,0.013131633400917053
1772571930907453000,3.884452880859375,-0.004139900207519531,0.016963616013526917,0.008325912058353424
1772571930917384200,3.89438427734375,0.0100555419921875,0.01190941035747528,0.0034992769360542297
1772571930927337700,3.904337646484375,0.009886741638183594,0.01185162365436554,0.0032569319009780884
1772571930937271000,3.91427099609375,-0.013821601867675781,-0.025976240634918213,0.0032233744859695435
1772571930947178800,3.9241787109375,0.0005321502685546875,0.012265503406524658,0.00789717584848404
1772571930957109800,3.93410986328125,0.014646530151367188,-0.011341527104377747,0.0031772181391716003
1772571930967065900,3.94406591796875,-0.004433631896972656,-0.0016968101263046265,-0.001462005078792572
1772571930976999200,3.953999267578125,-0.013776779174804688,0.0030791908502578735,0.00789722055196762
1772571930986941000,3.96394091796875,-0.004128456115722656,0.0076742023229599,0.021808981895446777
1772571930996875000,3.973875,0.005359649658203125,-0.0019337981939315796,-0.011595238000154495
1772571931006798800,3.983798828125,0.005269050598144531,0.002844005823135376,-0.006669189780950546
1772571931016732000,3.99373193359375,-0.0042362213134765625,-0.0018735826015472412,0.002778567373752594
1772571931026681000,4.00368115234375,-0.004166603088378906,-0.0018038749694824219,0.002753019332885742
1772571931036616000,4.013615966796875,-0.0040988922119140625,0.002973899245262146,-0.016006924211978912
1772571931046502000,4.023501953125,-0.0040302276611328125,-0.006555482745170593,-0.0014929026365280151
1772571931056431900,4.033431884765625,0.000743865966796875,-0.0016992241144180298,0.012779749929904938
1772571931066393900,4.043393798828125,-0.013393402099609375,-0.00644257664680481,0.0031703561544418335
1772571931076327000,4.053326904296875,0.010374069213867188,-0.01110599935054779,-0.00628068670630455
1772571931086256400,4.06325634765625,0.0054912567138671875,0.0032432973384857178,-0.010863881558179855
1772571931096189200,4.073189208984375,-0.008728981018066406,-0.010796844959259033,-0.005852196365594864
1772571931106120400,4.083120361328125,-0.0038766860961914062,0.0036492645740509033,-0.001128368079662323
1772571931116053200,4.09305322265625,-0.0132293701171875,-0.0010831505060195923,-0.00589524582028389
1772571931125990700,4.10299072265625,-0.0035905838012695312,0.012998461723327637,-0.001069396734237671
1772571931135923700,4.112923828125,0.005887031555175781,0.026845380663871765,-0.010449778288602829
1772571931145852700,4.122852783203125,0.005791664123535156,0.0026908516883850098,-0.019672080874443054
1772571931155785500,4.132785400390625,-0.013138771057128906,0.0025831013917922974,0.009029366075992584
1772571931165691400,4.14269140625,0.0106201171875,-0.01144641637802124,0.018316730856895447
1772571931175621600,4.15262158203125,0.010441780090332031,-0.0018000751733779907,0.008614987134933472
1772571931185580000,4.162580078125,0.000850677490234375,0.007584065198898315,-0.0008234381675720215
1772571931195512800,4.172512939453125,0.005542755126953125,0.007596686482429504,0.004022657871246338
1772571931205459700,4.182459716796875,-0.003970146179199219,0.017027154564857483,0.00417926162481308
1772571931215394000,4.19239404296875,-0.013322830200195312,0.00736391544342041,0.008941993117332458
1772571931225314800,4.202314697265625,-0.0036859512329101562,0.0073807090520858765,0.004105061292648315
1772571931235247900,4.212247802734375,0.0010814666748046875,-0.011436983942985535,-0.0005499199032783508
1772571931245189400,4.222189453125,0.015186309814453125,-0.011106550693511963,0.008897170424461365
1772571931255123000,4.232123046875,0.010223388671875,0.0032427608966827393,-0.0006475746631622314
1772571931265043200,4.242043212890625,0.005345344543457031,0.003126576542854309,-0.005326423794031143
1772571931274975700,4.251975830078125,0.0052547454833984375,-0.0015957504510879517,0.009010158479213715
1772571931284911400,4.261911376953125,-0.008958816528320312,-0.011049255728721619,-0.0004351288080215454
1772571931294844200,4.27184423828125,-0.008808135986328125,0.003198474645614624,0.0042997002601623535
1772571931304772400,4.2817724609375,0.005463600158691406,-0.0015236884355545044,-0.005171921104192734
1772571931314705000,4.291704833984375,0.0006628036499023438,-0.006169170141220093,0.004353933036327362
1772571931324640500,4.301640625,-0.022891998291015625,-0.0060279518365859985,0.004302099347114563
1772571931334573000,4.311572998046875,-0.008385658264160156,-0.010597005486488342,0.004249386489391327
1772571931344513800,4.321513671875,0.010589599609375,-0.010483339428901672,-0.0005092844367027283
1772571931354447400,4.331447265625,0.005705833435058594,-0.005662932991981506,0.00422852486371994
1772571931364344300,4.34134423828125,0.0009031295776367188,0.0037859678268432617,-0.005238484591245651
1772571931374274000,4.351274169921875,0.015017509460449219,0.008267998695373535,-0.009942058473825455
1772571931384236000,4.361236083984375,-0.004063606262207031,-0.006159588694572449,-0.01456751674413681
1772571931394149000,4.371149169921875,0.000713348388671875,0.022131845355033875,-0.004886854439973831
1772571931414035500,4.391035400390625,0.005475044250488281,-0.0016760975122451782,0.018707074224948883
1772571931423970600,4.400970458984375,0.010095596313476562,-0.00652100145816803,-0.000418342649936676
1772571931433896200,4.410896240234375,-0.013614654541015625,-0.006475180387496948,0.004317931830883026
1772571931443830300,4.420830322265625,-0.02280426025390625,0.007696300745010376,-0.00044364482164382935
1772571931453761000,4.430760986328125,-0.003589630126953125,0.016922324895858765,-0.0003142505884170532
1772571931463694800,4.44069482421875,0.005889892578125,0.0023496150970458984,0.009130649268627167
1772571931473604000,4.45060400390625,0.010500907897949219,0.0022470206022262573,-0.00041628628969192505
1772571931483535400,4.460535400390625,0.0056171417236328125,-0.0119791179895401,-0.00028733909130096436
1772571931493501200,4.470501220703125,0.0008153915405273438,-0.011842578649520874,-0.004868704825639725
1772571931503436000,4.48043603515625,-0.00390625,0.025959953665733337,-0.000056490302085876465
1772571931513337300,4.49033740234375,-0.027385711669921875,0.0020225942134857178,-0.014059692621231079
1772571931523268600,4.5002685546875,-0.022222518920898438,-0.016705825924873352,0.009637042880058289
1772571931533209600,4.510209716796875,0.011105537414550781,-0.0021611303091049194,0.0000782310962677002
1772571931543142100,4.52014208984375,-0.007912635803222656,0.0025205910205841064,-0.004610944539308548
1772571931553060900,4.530060791015625,-0.007781028747558594,0.007225513458251953,-0.004614550620317459
1772571931562991900,4.539991943359375,-0.012359619140625,0.011750787496566772,0.005001537501811981
1772571931572930000,4.549929931640625,0.006684303283691406,0.01609925925731659,-0.00457962229847908
1772571931582861800,4.55986181640625,0.015989303588867188,-0.01709015667438507,0.00022426247596740723
1772571931592800000,4.569800048828125,0.011014938354492188,-0.0215761661529541,0.00023949891328811646
1772571931602732300,4.579732177734375,0.0014142990112304688,-0.0024457722902297974,-0.004349317401647568
1772571931612659200,4.5896591796875,-0.008028984069824219,0.007151797413825989,-0.008863475173711777
1772571931622591000,4.599591064453125,-0.0031890869140625,0.0071722716093063354,-0.003986436873674393
1772571931632525300,4.609525390625,0.0015735626220703125,0.006989836692810059,0.0008093267679214478
1772571931642457300,4.619457275390625,0.020383834838867188,0.0021018534898757935,0.0007152780890464783
1772571931652409000,4.6294091796875,0.015333175659179688,0.0021052807569503784,0.0055342018604278564
1772571931662343200,4.63934326171875,-0.022592544555664062,0.011627092957496643,0.005361385643482208
1772571931672255700,4.649255859375,-0.022214889526367188,-0.0027559101581573486,-0.008831311017274857
1772571931682187800,4.659187744140625,0.011113166809082031,-0.002672240138053894,0.024399787187576294
1772571931692129500,4.669129638671875,0.010927200317382812,0.01153719425201416,0.014594919979572296
1772571931702062300,4.679062255859375,0.010746955871582031,-0.012362942099571228,0.000349678099155426
1772571931712011000,4.689010986328125,0.00115203857421875,0.0020073652267456055,0.004870280623435974
1772571931721945300,4.6989453125,-0.008287429809570312,-0.002595663070678711,0.004811592400074005
1772571931731877000,4.708877197265625,-0.01756763458251953,-0.0025140047073364258,0.000043526291847229004
1772571931741811500,4.7188115234375,-0.007860183715820312,-0.0023323893547058105,0.00006352365016937256
1772571931751742200,4.7287421875,0.015813827514648438,0.0024534761905670166,-0.004726681858301163
1772571931761676000,4.738676025390625,0.0014257431030273438,-0.011776790022850037,-0.004625421017408371
1772571931771606800,4.748606689453125,-0.0033054351806640625,-0.016351312398910522,-0.004529360681772232
1772571931781540400,4.758540283203125,-0.007961273193359375,-0.006622537970542908,-0.0043335966765880585
1772571931791471900,4.768471923828125,0.006298065185546875,-0.015992239117622375,0.005176536738872528
1772571931801405400,4.778405517578125,0.010901451110839844,0.0031470656394958496,0.009718276560306549
1772571931811353300,4.788353271484375,0.0013036727905273438,-0.001676991581916809,0.004868470132350922
1772571931821288200,4.7982880859375,0.015407562255859375,0.007705241441726685,-0.004406493157148361
1772571931831179800,4.8081796875,0.010442733764648438,-0.0019030123949050903,0.005104772746562958
1772571931841110300,4.8181103515625,-0.003856658935546875,0.00287570059299469,0.00023054331541061401
1772571931851076900,4.828076904296875,-0.008501052856445312,-0.0019439607858657837,-0.004359457641839981
1772571931861011200,4.83801123046875,0.0010585784912109375,0.0074427127838134766,0.00044251978397369385
1772571931870917600,4.847917724609375,0.015168190002441406,-0.016286373138427734,-0.018481336534023285
1772571931880849200,4.85784912109375,0.010207176208496094,-0.011267945170402527,-0.004128102213144302
1772571931890809900,4.867809814453125,-0.004090309143066406,0.007895007729530334,0.005275331437587738
1772571931900744000,4.877743896484375,0.0006866455078125,-0.006323292851448059,0.009813666343688965
1772571931910666200,4.887666259765625,0.010094642639160156,-0.010990023612976074,-0.004554424434900284
1772571931920599600,4.897599609375,0.014634132385253906,-0.0060612112283706665,-0.004454303532838821
1772571931930531300,4.90753125,-0.013864517211914062,-0.0058204978704452515,0.00045055150985717773
1772571931940464400,4.91746435546875,0.0004911422729492188,-0.010393679141998291,0.0004637688398361206
1772571931950371300,4.927371337890625,0.0004825592041015625,0.008551865816116333,0.0005760267376899719
1772571931960301800,4.9373017578125,-0.004237174987792969,-0.0008688569068908691,-0.0088283009827137
1772571931970261000,4.947260986328125,0.005253791809082031,-0.0010190308094024658,0.005465395748615265
1772571931980194300,4.9571943359375,-0.0042514801025390625,-0.015089422464370728,0.010103628039360046
1772571931990130200,4.967130126953125,-0.008890151977539062,-0.010090932250022888,0.00524737685918808
1772571932000063700,4.977063720703125,0.0053806304931640625,0.004343435168266296,0.0004703253507614136
1772571932009995000,4.9869951171875,0.000583648681640625,-0.0004997849464416504,0.005190066993236542
1772571932019928300,4.99692822265625,0.0005769729614257812,0.008760854601860046,0.0051260292530059814
1772571932029833500,5.00683349609375,0.005274772644042969,0.003944531083106995,0.005061261355876923
1772571932039764000,5.016763916015625,-0.008939743041992188,0.00391717255115509,-0.004419561475515366
1772571932049720300,5.02672021484375,0.0006275177001953125,-0.0009197741746902466,0.0003834739327430725
1772571932059653600,5.036653564453125,0.0006151199340820312,0.013260424137115479,0.009914569556713104
1772571932069595600,5.046595703125,0.024146080017089844,0.00366133451461792,0.0004525482654571533
1772571932079529700,5.05652978515625,0.009617805480957031,-0.015194997191429138,0.0003626793622970581
1772571932089459000,5.066458984375,0.009455680847167969,-0.005384907126426697,-0.00914110615849495
1772571932099392300,5.076392333984375,-0.00482940673828125,0.008970364928245544,0.005056433379650116
1772571932109317000,5.086317138671875,-0.00004100799560546875,0.008859902620315552,0.0238255113363266
1772571932119249700,5.096249755859375,0.009377479553222656,-0.00547577440738678,0.014030225574970245
1772571932129157600,5.10615771484375,-0.0001964569091796875,-0.0007393509149551392,0.004502676427364349
1772571932139088000,5.116087890625,-0.004901885986328125,-0.005498513579368591,0.00454963743686676
1772571932149047000,5.126047119140625,-0.00011157989501953125,-0.0006597787141799927,0.01851879060268402
1772571932158980000,5.13597998046875,-0.009528160095214844,-0.005319640040397644,0.004106827080249786
1772571932168926700,5.1459267578125,-0.014078140258789062,-0.014711827039718628,-0.0005462691187858582
1772571932178861000,5.155861083984375,0.00028133392333984375,0.004406154155731201,-0.009933624416589737
1772571932188777500,5.165777587890625,0.00027751922607421875,-0.009856551885604858,-0.00032845139503479004
1772571932198710000,5.1757099609375,0.014399528503417969,-0.019172370433807373,0.013823524117469788
1772571932208643300,5.185643310546875,0.0000324249267578125,-0.004687964916229248,-0.005222242325544357
1772571932218576100,5.195576171875,-0.004677772521972656,0.009554371237754822,-0.005114477127790451
1772571932228522200,5.205522216796875,0.00010967254638671875,0.004623547196388245,0.00911729782819748
1772571932238456300,5.215456298828125,0.004817008972167969,-0.014351487159729004,-0.0004293769598007202
1772571932248352300,5.225352294921875,0.018860816955566406,-0.009366124868392944,0.01853545755147934
1772571932258282500,5.235282470703125,0.01854705810546875,-0.013982176780700684,0.008831799030303955
1772571932268244000,5.245243896484375,-0.014722824096679688,-0.0042934417724609375,-0.0007117912173271179
1772571932278177500,5.255177490234375,0.009063720703125,-0.004183486104011536,0.008839316666126251
1772571932288106200,5.265106201171875,0.013620376586914062,-0.032326921820640564,0.013421311974525452
1772571932298039000,5.2750390625,-0.00543975830078125,-0.008307412266731262,0.008508041501045227
1772571932307952600,5.28495263671875,-0.0006399154663085938,-0.008231744170188904,-0.0010302439332008362
1772571932317883600,5.294883544921875,-0.005337715148925781,-0.00334756076335907,-0.001093640923500061
1772571932327836700,5.304836669921875,0.013583183288574219,-0.007860347628593445,0.008362546563148499
1772571932337769700,5.314769775390625,-0.014894485473632812,-0.0030843615531921387,0.003638342022895813
1772571932347703300,5.324703369140625,0.004189491271972656,0.011029914021492004,-0.0011101588606834412
1772571932357636600,5.33463671875,0.013536453247070312,0.006175890564918518,-0.005880836397409439
1772571932367585300,5.344585205078125,0.008599281311035156,0.006212905049324036,-0.010470647364854813
1772571932377520000,5.35452001953125,-0.0009632110595703125,0.015666991472244263,0.0037473291158676147
1772571932387407000,5.364406982421875,-0.0056552886962890625,-0.008098870515823364,0.008313246071338654
1772571932397337300,5.37433740234375,-0.0008497238159179688,-0.008128076791763306,0.003486834466457367
1772571932407291600,5.384291748046875,-0.010251045227050781,0.006070837378501892,0.012763425707817078
1772571932417224000,5.394223876953125,-0.014789581298828125,-0.0034091174602508545,0.003154247999191284
1772571932427137300,5.40413720703125,-0.005124092102050781,-0.0034157782793045044,-0.0016856268048286438
1772571932437067500,5.414067626953125,-0.00032901763916015625,0.005995467305183411,-0.006345394998788834
1772571932447039700,5.424039794921875,0.004385948181152344,0.029375344514846802,-0.006218817085027695
1772571932456974600,5.433974609375,0.004313468933105469,-0.004137307405471802,-0.0013858303427696228
1772571932466897400,5.4438974609375,-0.005175590515136719,-0.008738577365875244,-0.001443237066268921
1772571932476830700,5.453830810546875,0.009036064147949219,-0.008554518222808838,0.0032088235020637512
1772571932486756600,5.463756591796875,-0.0005311965942382812,0.0056509822607040405,-0.006241124123334885
1772571932496689400,5.473689453125,-0.0005197525024414062,0.0006832778453826904,-0.0061146579682827
1772571932506622000,5.4836220703125,0.018323898315429688,-0.004099622368812561,-0.0059920139610767365
1772571932516554800,5.4935546875,0.013309478759765625,-0.008702173829078674,0.008154772222042084
1772571932526499600,5.50349951171875,0.0083770751953125,0.010417833924293518,-0.00618932768702507
1772571932536433400,5.513433349609375,0.017653465270996094,0.005574032664299011,-0.0013568326830863953
1772571932546357800,5.523357666015625,0.0032329559326171875,-0.008606284856796265,-0.0013135001063346863
1772571932556290600,5.53329052734375,-0.01094818115234375,0.019927754998207092,-0.0013704821467399597
1772571932566223600,5.5432236328125,-0.015475273132324219,0.0055082738399505615,0.003381691873073578
1772571932576156400,5.553156494140625,-0.0058002471923828125,0.0006449520587921143,-0.001261204481124878
1772571932586089500,5.56308935546875,-0.010411262512207031,0.0052798837423324585,-0.0012194514274597168
1772571932596022500,5.5730224609375,-0.0055294036865234375,0.01454685628414154,0.0036297962069511414
1772571932605948200,5.5829482421875,-0.014853477478027344,0.023658722639083862,-0.0011185705661773682
1772571932615880400,5.59288037109375,-0.0004787445068359375,0.009075045585632324,-0.005786057561635971
1772571932625819600,5.602819580078125,0.013654708862304688,-0.005163565278053284,0.008355513215065002
1772571932635752700,5.612752685546875,-0.0054073333740234375,-0.005039095878601074,0.008135661482810974
1772571932645659000,5.622658935546875,0.0041027069091796875,0.018424078822135925,0.003312148153781891
1772571932655589000,5.632589111328125,0.008742332458496094,0.013446822762489319,0.007986262440681458
1772571932665544400,5.64254443359375,0.013304710388183594,-0.005573168396949768,0.0031653419137001038
1772571932675477200,5.652477294921875,0.008375167846679688,-0.01025177538394928,0.012550495564937592
1772571932685419800,5.662419677734375,-0.001178741455078125,0.013297677040100098,-0.0017637088894844055
1772571932695353600,5.672353515625,-0.015283584594726562,0.00830523669719696,-0.011132504791021347
1772571932705271300,5.682271240234375,-0.0009031295776367188,-0.005919918417930603,0.0030966177582740784
1772571932715203300,5.692203369140625,0.013241767883300781,-0.010694757103919983,0.002966165542602539
1772571932725122800,5.702122802734375,0.0036039352416992188,0.008255749940872192,-0.01579749584197998
1772571932735053800,5.7120537109375,-0.0058765411376953125,0.017675742506980896,-0.001389436423778534
1772571932744992000,5.721991943359375,0.0036382675170898438,0.012710988521575928,0.003261677920818329
1772571932754923500,5.731923583984375,-0.00583648681640625,0.012334927916526794,0.0032280460000038147
1772571932764855600,5.74185546875,-0.0010309219360351562,-0.001957342028617859,0.007800504565238953
1772571932774787000,5.751787109375,0.0036935806274414062,-0.00659489631652832,-0.0017259642481803894
1772571932784718600,5.761718505859375,0.022467613220214844,-0.0018399804830551147,0.003033868968486786
1772571932794650000,5.771650146484375,-0.0014514923095703125,-0.01589667797088623,0.007813937962055206
1772571932804582100,5.78158203125,-0.015553474426269531,-0.0062781572341918945,0.007908806204795837
1772571932814513700,5.791513671875,-0.010584831237792969,-0.006236404180526733,0.00308912992477417
1772571932824451300,5.801451416015625,0.00371551513671875,-0.010700568556785583,0.0029552727937698364
1772571932834383400,5.81138330078125,-0.005764961242675781,-0.0010659396648406982,-0.0017835870385169983
1772571932844315600,5.821315673828125,-0.0009584426879882812,-0.005819663405418396,0.002874143421649933
1772571932854248000,5.831248046875,-0.0056514739990234375,0.0037329494953155518,-0.0019629448652267456
1772571932864178200,5.84117822265625,-0.005558967590332031,-0.005708768963813782,0.002902120351791382
1772571932874110200,5.851110107421875,-0.0007581710815429688,-0.014992386102676392,0.007481761276721954
1772571932884043500,5.86104345703125,0.013380050659179688,-0.005286216735839844,-0.006851043552160263
1772571932893975600,5.8709755859375,-0.00096893310546875,-0.0005524307489395142,-0.006614815443754196
1772571932903940900,5.88094091796875,-0.00095367431640625,-0.0005053728818893433,0.007643751800060272
1772571932913876200,5.890876220703125,0.0037698745727539062,-0.009875699877738953,0.0028285011649131775
1772571932923791400,5.900791259765625,0.0037059783935546875,-0.004964172840118408,0.012219235301017761
1772571932933725000,5.910724853515625,-0.005774497985839844,0.01869925856590271,-0.006593663245439529
1772571932943663600,5.92066357421875,0.008447647094726562,0.013616085052490234,0.01718132197856903
1772571932953597700,5.93059765625,0.00830841064453125,-0.0055074542760849,-0.0020217448472976685
1772571932963504000,5.940504150390625,0.0034608840942382812,-0.01008594036102295,-0.011485617607831955
1772571932973435400,5.950435302734375,0.008111953735351562,-0.014588013291358948,0.0027510076761245728
1772571932983393000,5.96039306640625,-0.006148338317871094,-0.014407262206077576,0.007432796061038971
1772571932993326800,5.970326904296875,-0.020171165466308594,-0.004812866449356079,0.0074309781193733215
1772571933003228000,5.980227783203125,-0.005710601806640625,0.000012829899787902832,0.012039832770824432
1772571933013158700,5.99015869140625,-0.005614280700683594,-0.009467452764511108,0.007151305675506592
1772571933023126800,6.000126708984375,-0.005520820617675781,-0.00466349720954895,-0.006972905248403549
1772571933033061000,6.01006103515625,0.008696556091308594,0.014286324381828308,-0.0022269710898399353
1772571933042989800,6.01998974609375,-0.00557708740234375,0.004770725965499878,0.007349327206611633
1772571933052923600,6.029923583984375,-0.005486488342285156,0.000021025538444519043,-0.006675552576780319
1772571933062857200,6.039857177734375,-0.014815330505371094,-0.004548177123069763,-0.001834966242313385
1772571933072791000,6.049791015625,-0.009860038757324219,0.00498393177986145,0.01223907619714737
1772571933082718500,6.059718505859375,0.013845443725585938,0.00023134052753448486,0.002738162875175476
1772571933092651800,6.06965185546875,0.018320083618164062,0.019201606512069702,-0.011311192065477371
1772571933102589200,6.079589111328125,-0.0055294036865234375,0.00950351357460022,-0.0016864687204360962
1772571933112523000,6.08952294921875,0.003981590270996094,-0.014260068535804749,0.0076764971017837524
1772571933122420000,6.099419921875,-0.0007915496826171875,0.004749312996864319,0.007468260824680328
1772571933132350000,6.109349853515625,0.013344764709472656,0.0189342200756073,0.0026593804359436035
1772571933142318000,6.119318115234375,-0.010423660278320312,-0.00007548928260803223,0.012154728174209595
1772571933152251600,6.129251708984375,-0.014959335327148438,-0.004743710160255432,-0.002154625952243805
1772571933162156800,6.13915673828125,0.008830070495605469,-0.00923389196395874,-0.01622382551431656
1772571933172087800,6.149087890625,-0.0007390975952148438,0.005287498235702515,-0.0017073377966880798
1772571933182058200,6.159058349609375,-0.014853477478027344,0.0005293339490890503,0.007759109139442444
1772571933191993000,6.1689931640625,-0.00048160552978515625,0.014684721827507019,0.007751867175102234
1772571933201915600,6.17891552734375,0.013650894165039062,-0.0043567270040512085,0.0029365122318267822
1772571933211849500,6.188849365234375,0.0087127685546875,-0.0041443705558776855,-0.0019016116857528687
1772571933221779200,6.198779296875,0.008564949035644531,0.014899477362632751,0.012376159429550171
1772571933231712500,6.20871240234375,-0.0009946823120117188,0.0005644708871841431,-0.011455390602350235
1772571933241643800,6.218643798828125,-0.01981353759765625,-0.008823707699775696,-0.001826547086238861
1772571933251576800,6.228576904296875,-0.010066986083984375,0.01019616425037384,0.002933219075202942
1772571933261507600,6.238507568359375,0.008932113647460938,-0.018085643649101257,0.007613658905029297
1772571933271440400,6.2484404296875,0.013489723205566406,0.024732157588005066,-0.002009287476539612
1772571933281368300,6.258368408203125,-0.01969623565673828,0.0008160769939422607,0.0027517974376678467
1772571933291300600,6.268300537109375,-0.005242347717285156,-0.0039689987897872925,0.002827979624271393
1772571933301212200,6.278212158203125,-0.0051555633544921875,0.0055526793003082275,0.00280153751373291
1772571933311142700,6.288142578125,-0.00036144256591796875,0.0006886422634124756,0.00287686288356781
1772571933321098000,6.298097900390625,0.004355430603027344,0.01473991572856903,-0.011377628892660141
1772571933331030800,6.30803076171875,0.008990287780761719,0.03807632625102997,-0.0017518103122711182
1772571933340966100,6.317966064453125,-0.0005788803100585938,-0.00008726119995117188,0.007613956928253174
1772571933350899200,6.327899169921875,-0.014697074890136719,0.0046612173318862915,-0.0017067566514015198
1772571933360836900,6.3378369140625,0.004380226135253906,0.014038443565368652,-0.010971661657094955
1772571933370770400,6.3477705078125,0.0090179443359375,-0.009801417589187622,-0.0014522001147270203
1772571933380693500,6.357693603515625,-0.019384384155273438,-0.00489179790019989,0.003303036093711853
1772571933390626000,6.3676259765625,-0.019062042236328125,-0.00006256997585296631,0.012684166431427002
1772571933400558300,6.377558349609375,0.009502410888671875,0.00959739089012146,-0.011051204055547714
1772571933410454800,6.387454833984375,-0.00478363037109375,0.004849106073379517,0.0032620131969451904
1772571933430356500,6.4073564453125,-0.0045452117919921875,0.009496048092842102,0.007601708173751831
1772571933440291800,6.417291748046875,0.0002422332763671875,0.0092572420835495,-0.006853628903627396
1772571933450221000,6.427220947265625,0.004944801330566406,-0.0001928955316543579,-0.011446457356214523
1772571933460156200,6.43715625,0.004858970642089844,-0.014092698693275452,0.0028716325759887695
1772571933470094600,6.447094482421875,0.004778861999511719,-0.004421219229698181,0.007332898676395416
1772571933480030000,6.457030029296875,0.00469970703125,0.004988431930541992,0.007212221622467041
1772571933489960400,6.46696044921875,0.0046215057373046875,0.00021676719188690186,0.0022836774587631226
1772571933499895000,6.47689501953125,0.009252548217773438,-0.009184643626213074,-0.002358376979827881
1772571933509819400,6.4868193359375,0.004389762878417969,0.00040639936923980713,0.0070979297161102295
1772571933519753200,6.496753173828125,-0.009809494018554688,0.00041972100734710693,0.002272576093673706
1772571933529659000,6.506658935546875,-0.00022983551025390625,0.014558553695678711,0.0023372694849967957
1772571933539590000,6.51658984375,-0.00022602081298828125,0.01904529333114624,-0.007119063287973404
1772571933549548300,6.52654833984375,-0.000225067138671875,-0.009401977062225342,-0.006897296756505966
1772571933559481900,6.53648193359375,-0.014346122741699219,0.00009067356586456299,0.0027377083897590637
1772571933569415700,6.546415771484375,-0.009397506713867188,0.004716530442237854,0.0026936158537864685
1772571933579349500,6.556349609375,0.009594917297363281,-0.004860490560531616,-0.0021596476435661316
1772571933589283300,6.566283447265625,0.009433746337890625,-0.00005009770393371582,0.0026860758662223816
1772571933599217200,6.576217041015625,0.009276390075683594,0.004679426550865173,0.007351435720920563
1772571933609150700,6.586150634765625,-0.009713172912597656,0.01403801143169403,0.002624914050102234
1772571933619084500,6.59608447265625,-0.0048427581787109375,0.004406943917274475,-0.0021258890628814697
1772571933628985900,6.60598583984375,-0.004763603210449219,-0.0002533942461013794,-0.0067992545664310455
1772571933638916400,6.615916259765625,-0.0046863555908203125,0.0045808106660842896,-0.001975797116756439
1772571933648878600,6.625878662109375,0.0048084259033203125,-0.004791676998138428,-0.0020412057638168335
1772571933658812400,6.6358125,-0.004688262939453125,-0.00008375942707061768,0.002701215445995331
1772571933668746200,6.645746337890625,-0.014028549194335938,-0.014188051223754883,0.007467642426490784
1772571933678679800,6.6556796875,0.00032901763916015625,0.004903584718704224,0.0028370320796966553
1772571933688610000,6.665610107421875,-0.004384040832519531,-0.01880231499671936,0.002791285514831543
1772571933698543400,6.67554345703125,0.0003986358642578125,-0.01386086642742157,-0.006672617048025131
1772571933708479700,6.685479736328125,0.005099296569824219,0.0005160272121429443,0.007667258381843567
1772571933718413600,6.69541357421875,0.0003070831298828125,-0.01370026171207428,-0.0018744543194770813
1772571933728350500,6.7053505859375,0.014428138732910156,-0.013451814651489258,-0.006550271064043045
1772571933738284500,6.715284423828125,0.0000629425048828125,0.005525529384613037,0.012496136128902435
1772571933748204800,6.725204833984375,0.00006198883056640625,0.005454197525978088,0.002870500087738037
1772571933758137600,6.7351376953125,-0.004645347595214844,0.0005727857351303101,0.0027246102690696716
1772571933768084200,6.745084228515625,0.009558677673339844,0.01460769772529602,-0.002027854323387146
1772571933778018300,6.755018310546875,-0.009436607360839844,0.014486357569694519,-0.0019942447543144226
1772571933787911700,6.76491162109375,-0.009282112121582031,-0.013885736465454102,0.007558614015579224
1772571933797841700,6.774841552734375,-0.00441741943359375,0.009807482361793518,0.0027255862951278687
1772571933807822300,6.784822265625,-0.009051322937011719,0.0048531293869018555,0.002785235643386841
1772571933817757200,6.794757080078125,0.0005159378051757812,0.00950092077255249,-0.0018669068813323975
1772571933827641600,6.8046416015625,-0.004200935363769531,0.014071151614189148,-0.0018342584371566772
1772571933837571600,6.814571533203125,-0.008840560913085938,0.004438847303390503,-0.0016991496086120605
1772571933847506700,6.824506591796875,-0.008694648742675781,-0.014449432492256165,0.0032419562339782715
1772571933857437000,6.83443701171875,-0.013258934020996094,-0.014087259769439697,0.0030881837010383606
1772571933867399200,6.844399169921875,0.0057964324951171875,-0.009124428033828735,-0.011085789650678635
1772571933877332700,6.854332763671875,-0.0037174224853515625,0.009882122278213501,0.0032262951135635376
1772571933887257000,6.864257080078125,-0.00365447998046875,0.014344871044158936,0.007882654666900635
1772571933897190000,6.87418994140625,0.0058231353759765625,0.00470869243144989,0.007854118943214417
1772571933907128800,6.88412890625,0.005725860595703125,0.009358912706375122,-0.001793786883354187
1772571933917062100,6.894062255859375,-0.008498191833496094,-0.0000928640365600586,-0.006369639188051224
1772571933926968800,6.90396875,0.0010614395141601562,-0.0001723170280456543,-0.01097053661942482
1772571933936899300,6.9138994140625,-0.008372306823730469,0.028000935912132263,-0.015494748950004578
1772571933946839600,6.923839599609375,0.0011854171752929688,-0.010215073823928833,0.0035976767539978027
1772571933956771300,6.933771240234375,0.0011653900146484375,-0.005315452814102173,-0.0011710748076438904
1772571933966702800,6.943702880859375,0.0011463165283203125,-0.0004974901676177979,-0.0058603473007678986
1772571933976634400,6.95363427734375,0.005835533142089844,-0.014594882726669312,0.003656052052974701
1772571933986569500,6.963569580078125,0.0057392120361328125,-0.00030709803104400635,0.008305251598358154
1772571933996501500,6.97350146484375,0.029188156127929688,-0.014508962631225586,0.00335848331451416
1772571934006436600,6.9834365234375,0.0051593780517578125,-0.009537771344184875,0.00309966504573822
1772571934016369000,6.993368896484375,0.0050754547119140625,0.014082953333854675,-0.0017603486776351929
1772571934026336800,7.003336669921875,0.009701728820800781,-0.0003597438335418701,0.002879194915294647
1772571934036272600,7.013272705078125,-0.009294509887695312,0.004374265670776367,-0.0018741190433502197
1772571934046167600,7.02316748046875,-0.0091400146484375,0.018447160720825195,-0.0018413513898849487
1772571934056099300,7.033099365234375,0.009846687316894531,0.02286909520626068,-0.006519455462694168
1772571934066027300,7.04302734375,0.0049724578857421875,-0.0056429654359817505,0.017135441303253174
1772571934075958800,7.052958740234375,0.004889488220214844,-0.0008195340633392334,-0.006794605404138565
1772571934085885400,7.062885498046875,0.009516716003417969,0.01804789900779724,0.0027391016483306885
1772571934095816400,7.07281640625,0.009358406066894531,0.013058602809906006,0.002593696117401123
1772571934105755100,7.082755126953125,-0.0002155303955078125,-0.01058053970336914,0.0024506300687789917
1772571934115686700,7.092686767578125,-0.00021076202392578125,-0.005776822566986084,0.007119916379451752
1772571934125645600,7.1026455078125,-0.0002079010009765625,0.0038576722145080566,0.0021943673491477966
1772571934135580000,7.112579833984375,0.004502296447753906,-0.005502387881278992,-0.0025492608547210693
1772571934145498600,7.12249853515625,0.0044269561767578125,-0.00538991391658783,0.0021004527807235718
1772571934155431400,7.132431396484375,0.009061813354492188,0.008845791220664978,0.016192756593227386
1772571934165383400,7.142383544921875,0.008912086486816406,0.00390838086605072,-0.012225624173879623
1772571934175318000,7.152318115234375,-0.0006532669067382812,0.008572623133659363,0.0068123117089271545
1772571934185241900,7.162241943359375,-0.0053501129150390625,0.0036407113075256348,0.001989983022212982
1772571934195175400,7.172175537109375,-0.0005540847778320312,-0.0011091828346252441,0.006871342658996582
1772571934205079800,7.182079833984375,0.004164695739746094,0.003536924719810486,0.002150788903236389
1772571934215010300,7.19201025390625,0.004096031188964844,-0.0060204267501831055,-0.007300708442926407
1772571934224943900,7.20194384765625,0.0040283203125,-0.0012927353382110596,0.002239696681499481
1772571934234875000,7.211875,0.008670806884765625,-0.010769575834274292,0.002203904092311859
1772571934244809000,7.22180908203125,0.003818511962890625,-0.0012541264295578003,0.006978631019592285
1772571934254740200,7.231740234375,-0.0009546279907226562,-0.0011118203401565552,0.0019526556134223938
1772571934264702500,7.241702392578125,0.01789569854736328,-0.0010731369256973267,0.0019216537475585938
1772571934274636800,7.25163671875,-0.0012340545654296875,0.0034707635641098022,0.0018911659717559814
1772571934284563500,7.2615634765625,-0.0012121200561523438,0.0033310353755950928,0.011280111968517303
1772571934294497000,7.2714970703125,0.008225440979003906,-0.01083017885684967,-0.0030321255326271057
1772571934304429800,7.281429931640625,-0.015454292297363281,-0.0012124031782150269,-0.002980053424835205
1772571934314363400,7.29136328125,-0.01519775390625,-0.01519724726676941,0.0016801580786705017
1772571934324292000,7.3012919921875,-0.010235786437988281,-0.005508109927177429,0.0015558898448944092
1772571934334225200,7.31122509765625,0.008770942687988281,0.008628249168395996,0.0061387717723846436
1772571934344160800,7.321160888671875,0.013334274291992188,-0.010431185364723206,0.006037995219230652
1772571934354094000,7.331093994140625,0.008403778076171875,-0.010237246751785278,0.005837574601173401
1772571934364006000,7.341005859375,-0.00115203857421875,0.003978818655014038,0.0009303838014602661
1772571934373937200,7.350937255859375,-0.005841255187988281,-0.0054846107959747314,0.005523703992366791
1772571934383896300,7.360896240234375,0.008382797241210938,-0.010183945298194885,-0.0038806647062301636
1772571934393830100,7.370830078125,0.01765727996826172,0.004233002662658691,0.00570407509803772
1772571934403744800,7.380744873046875,0.0032358169555664062,0.013600409030914307,-0.0037072375416755676
1772571934413676800,7.3906767578125,-0.010945320129394531,-0.000629916787147522,-0.0036456510424613953
1772571934423628800,7.40062890625,-0.0060558319091796875,0.004109323024749756,0.00603688508272171
1772571934433563000,7.41056298828125,0.008169174194335938,0.00887085497379303,0.005937807261943817
1772571934443501800,7.420501708984375,0.008031845092773438,-0.005279853940010071,-0.008390258997678757
1772571934453436200,7.430436279296875,0.007898330688476562,-0.0051724910736083984,-0.008348491042852402
1772571934463326200,7.440326171875,-0.001651763916015625,-0.005066990852355957,-0.012813795357942581
1772571934473256200,7.450256103515625,-0.015748977661132812,-0.028605982661247253,0.0015253573656082153
1772571934483218200,7.46021826171875,0.01747417449951172,-0.009377017617225647,0.0015032067894935608
1772571934493151500,7.4701513671875,0.007765769958496094,0.004925146698951721,0.015605464577674866
1772571934503057700,7.4800576171875,-0.0064907073974609375,0.0001544952392578125,0.00603078305721283
1772571934512988400,7.489988525390625,-0.020508766174316406,-0.009245172142982483,0.0012232139706611633
1772571934522954000,7.4999541015625,-0.01074981689453125,0.009763464331626892,0.010621555149555206
1772571934532888000,7.50988818359375,0.0035543441772460938,0.004911512136459351,0.0011319518089294434
1772571934542817800,7.51981787109375,0.0034952163696289062,-0.013985365629196167,-0.0035922378301620483
1772571934552751600,7.529751708984375,-0.005982398986816406,-0.004213660955429077,0.001177765429019928
1772571934562687000,7.53968701171875,0.01765918731689453,0.014812394976615906,0.001058325171470642
1772571934572620800,7.549620849609375,0.012656211853027344,0.000459820032119751,-0.008476298302412033
1772571934582551300,7.55955126953125,-0.006388664245605469,0.005180850625038147,-0.017851978540420532
1772571934592484600,7.569484619140625,-0.0062808990478515625,0.014430448412895203,0.005990058183670044
1772571934602384100,7.579384033203125,0.0079498291015625,0.004792794585227966,0.0011831596493721008
1772571934612314000,7.589314208984375,-0.0016002655029296875,0.000023692846298217773,0.00577399879693985
1772571934622252500,7.59925244140625,0.00313568115234375,-0.00005798041820526123,0.0010720938444137573
1772571934632183300,7.609183349609375,-0.0016231536865234375,0.00927896797657013,0.00566304475069046
1772571934642141000,7.619140869140625,-0.0015964508056640625,-0.00027345120906829834,0.0008633509278297424
1772571934652074500,7.629074462890625,-0.006279945373535156,-0.009563207626342773,0.005555629730224609
1772571934662012000,7.639011962890625,0.0079498291015625,0.00013555586338043213,0.005361467599868774
1772571934671946000,7.648946044921875,-0.011015892028808594,0.004760652780532837,0.0005650594830513
1772571934681872100,7.6588720703125,0.0032939910888671875,-0.0001077502965927124,0.0052640438079833984
1772571934691805400,7.668805419921875,0.007946968078613281,-0.00008513033390045166,-0.004139736294746399
1772571934701676500,7.678676513671875,0.00310516357421875,-0.009480923414230347,0.005448669195175171
1772571934711603500,7.688603515625,-0.006363868713378906,0.00011435151100158691,0.0005495324730873108
1772571934721607400,7.698607421875,0.012576103210449219,-0.009283766150474548,0.0004381239414215088
1772571934731542000,7.7085419921875,-0.0017604827880859375,-0.004400342702865601,0.0005337148904800415
1772571934741476600,7.7184765625,-0.020565032958984375,0.028652548789978027,-0.013597700744867325
1772571934751411200,7.7284111328125,-0.015512466430664062,0.013967975974082947,-0.008660938590765
1772571934761305000,7.73830517578125,0.008289337158203125,-0.005078479647636414,-0.01332629844546318
1772571934771235600,7.748235595703125,-0.005974769592285156,0.009152039885520935,0.010440312325954437
1772571934781200000,7.758199951171875,-0.0011663436889648438,-0.0003975331783294678,-0.008566517382860184
1772571934791133700,7.7681337890625,-0.0011472702026367188,-0.0050786882638931274,0.0009932443499565125
1772571934801072600,7.77807275390625,-0.0011272430419921875,-0.005075320601463318,-0.00843895599246025
1772571934811007000,7.788007080078125,0.0036001205444335938,-0.004969924688339233,-0.003589905798435211
1772571934820930000,7.797929931640625,-0.005878448486328125,-0.00005720555782318115,-0.0036297589540481567
1772571934830863400,7.80786328125,-0.005780220031738281,-0.009453341364860535,-0.01298491284251213
1772571934840800800,7.81780078125,0.008441925048828125,0.009558707475662231,-0.017576925456523895
1772571934850734600,7.827734619140625,0.0035924911499023438,0.0000022798776626586914,0.0015519410371780396
1772571934860686000,7.83768603515625,0.017658233642578125,-0.01881200075149536,0.010944798588752747
1772571934870621400,7.847621337890625,-0.006178855895996094,0.01919110119342804,-0.003363579511642456
1772571934880526000,7.857526123046875,-0.0013685226440429688,0.014284446835517883,0.0012998506426811218
1772571934890458600,7.867458740234375,-0.006053924560546875,-0.00005933642387390137,-0.012947376817464828
1772571934900399000,7.877399169921875,-0.0012454986572265625,-0.004645422101020813,-0.012831445783376694
1772571934910332200,7.887332275390625,0.017610549926757812,0.004767268896102905,-0.01261432096362114
1772571934920238000,7.897238037109375,0.007901191711425781,0.009316101670265198,0.006430089473724365
1772571934930168600,7.90716845703125,0.007769584655761719,0.009180918335914612,0.001615867018699646
1772571934940121300,7.917121337890625,-0.006485939025878906,0.004339441657066345,0.006197534501552582
1772571934950054000,7.927053955078125,-0.01108551025390625,-0.0005234330892562866,0.01090744137763977
1772571934959963600,7.936963623046875,-0.006191253662109375,-0.0005957484245300293,0.006018593907356262
1772571934969894100,7.94689404296875,-0.010794639587402344,-0.0053756386041641235,0.0011099278926849365
1772571934979852500,7.9568525390625,0.012927055358886719,-0.0005587339401245117,0.0011980384588241577
1772571934989785600,7.96678564453125,0.01741790771484375,0.004280611872673035,0.001179613173007965
1772571934999690000,7.97668994140625,-0.0017070770263671875,-0.009895771741867065,0.005868352949619293
1772571935009620200,7.9866201171875,0.012445449829101562,-0.01902662217617035,0.0010634958744049072
1772571935019592700,7.9965927734375,0.012238502502441406,0.0000425875186920166,-0.0036595389246940613
1772571935029527000,8.006527099609375,0.0026178359985351562,-0.00003936886787414551,-0.008305605500936508
1772571935039447000,8.016447021484375,0.0025739669799804688,-0.000018641352653503418,-0.008165638893842697
1772571935049380000,8.026380126953125,0.007239341735839844,0.004710361361503601,-0.0033194124698638916
1772571935059320000,8.036320068359375,-0.011717796325683594,-0.00466310977935791,0.001444309949874878
1772571935069254000,8.04625390625,-0.006814002990722656,0.00485190749168396,-0.012704003602266312
1772571935079181000,8.05618115234375,0.0074253082275390625,0.023625493049621582,-0.0030735433101654053
1772571935089114400,8.0661142578125,0.0025920867919921875,0.009126052260398865,-0.0029194429516792297
1772571935099050800,8.07605078125,-0.0021610260009765625,-0.009840324521064758,0.001940712332725525
1772571935108984000,8.085984130859375,0.012000083923339844,-0.009554877877235413,0.0018085688352584839
1772571935118884600,8.095884521484376,-0.0023260116577148438,-0.009375602006912231,-0.0029286369681358337
1772571935128814600,8.105814697265625,0.002422332763671875,0.014241710305213928,-0.012293744832277298
1772571935138756400,8.11575634765625,-0.007035255432128906,0.023442357778549194,-0.002773277461528778
1772571935148687600,8.1256875,-0.011628150939941406,0.018464475870132446,0.001983076333999634
1772571935158619100,8.135619140625,-0.006728172302246094,0.004254400730133057,0.0018485113978385925
1772571935168550700,8.145550537109376,0.007510185241699219,-0.0005050301551818848,-0.007597949355840683
1772571935178486500,8.155486572265625,0.012093544006347656,-0.0004772096872329712,-0.0027594491839408875
1772571935188418300,8.165418212890625,-0.006945610046386719,0.009069353342056274,0.002097994089126587
1772571935198345700,8.175345703125,0.00258636474609375,-0.0004789084196090698,0.006874442100524902
1772571935208277000,8.185277099609374,-0.0021648406982421875,-0.0005528479814529419,0.002155870199203491
1772571935218211800,8.1952119140625,-0.0021305084228515625,-0.0004221796989440918,-0.0025871172547340393
1772571935228143600,8.2051435546875,0.0026149749755859375,0.013629406690597534,-0.0072510577738285065
1772571935238109700,8.215109619140625,-0.0021371841430664062,0.004005938768386841,-0.0024218112230300903
1772571935248045000,8.225045166015626,0.007315635681152344,0.003958567976951599,-0.0023781731724739075
1772571935257939200,8.234939208984375,-0.006932258605957031,-0.005504593253135681,0.011687837541103363
1772571935267870500,8.244870361328125,-0.0021085739135742188,-0.0006841719150543213,0.0019760802388191223
1772571935277809700,8.2548095703125,0.0026350021362304688,-0.010069847106933594,0.011361867189407349
1772571935287741700,8.26474169921875,0.007296562194824219,-0.005072012543678284,0.025401152670383453
1772571935297706000,8.2747060546875,-0.0022420883178710938,-0.009675905108451843,-0.01739799976348877
1772571935307641000,8.28464111328125,0.011920928955078125,0.014048442244529724,-0.012397896498441696
1772571935317558500,8.29455859375,0.0070095062255859375,0.004618823528289795,0.0019377842545509338
1772571935327491800,8.304491943359375,-0.0025262832641601562,0.014080464839935303,0.0066156163811683655
1772571935337428000,8.314427978515624,0.0022258758544921875,0.004348054528236389,-0.007721986621618271
1772571935347361500,8.324361572265625,-0.016646385192871094,0.018522799015045166,-0.0029845014214515686
1772571935357295600,8.334295654296875,0.0071735382080078125,-0.0006001889705657959,0.0064839646220207214
1772571935367229200,8.344229248046876,0.0070552825927734375,-0.010087907314300537,0.020602822303771973
1772571935377187000,8.35418701171875,-0.007187843322753906,-0.00519031286239624,-0.0032837167382240295
1772571935387123000,8.364123046875,-0.016485214233398438,-0.00037510693073272705,-0.003227449953556061
1772571935396993500,8.37399365234375,-0.0020856857299804688,-0.005057469010353088,0.0063457489013671875
1772571935406923300,8.38392333984375,0.0026559829711914062,-0.0048510730266571045,-0.007885981351137161
1772571935416890400,8.393890380859375,-0.00209808349609375,0.00937645137310028,-0.0029444620013237
1772571935426823700,8.40382373046875,-0.0020627975463867188,-0.004884809255599976,-0.0028955787420272827
1772571935436747000,8.4137470703125,-0.0020284652709960938,-0.00007542967796325684,0.006573133170604706
1772571935446679300,8.42367919921875,-0.016119956970214844,0.004653826355934143,0.006365522742271423
1772571935456618800,8.43361865234375,-0.0064334869384765625,0.004494965076446533,-0.0078648142516613
1772571935466551800,8.4435517578125,0.007798194885253906,0.00914803147315979,0.006496645510196686
1772571935476487700,8.45348779296875,0.03121185302734375,0.00891430675983429,0.011098496615886688
1772571935486421000,8.4634208984375,0.0024423599243164062,0.003975898027420044,-0.003312051296234131
1772571935496320000,8.473320068359374,-0.01643657684326172,0.004130929708480835,0.0014550015330314636
1772571935506250000,8.48325,-0.0020380020141601562,-0.019460812211036682,0.01095077395439148
1772571935516214300,8.49321435546875,0.0027036666870117188,-0.005092188715934753,0.0016575828194618225
1772571935526147600,8.503147705078124,-0.011466026306152344,0.009037226438522339,-0.003077097237110138
1772571935536081200,8.5130810546875,-0.011274337768554688,-0.0005097836256027222,0.001479901373386383
1772571935546014500,8.523014404296875,-0.02050304412841797,-0.009999707341194153,0.0014567747712135315
1772571935555949300,8.53294921875,-0.0013246536254882812,0.004211500287055969,-0.003375902771949768
1772571935565883000,8.5428828125,0.003406524658203125,0.008768662810325623,-0.003318101167678833
1772571935575807000,8.552806884765625,0.012768745422363281,-0.024418801069259644,0.001346096396446228
1772571935585739500,8.562739501953125,-0.0062770843505859375,-0.0005500912666320801,0.0013251975178718567
1772571935595682300,8.572682373046876,-0.0014629364013671875,0.013504281640052795,0.006112933158874512
1772571935605615900,8.582615966796874,-0.015563011169433594,-0.005634978413581848,0.006009109318256378
1772571935615535000,8.59253515625,-0.020010948181152344,-0.005621463060379028,-0.0034072399139404297
1772571935625467100,8.602467041015625,0.008575439453125,-0.015026181936264038,-0.007956195622682571
1772571935635361500,8.612361572265625,0.0037260055541992188,-0.0101480633020401,-0.0032143965363502502
1772571935645290000,8.6222900390625,0.008372306823730469,-0.009959548711776733,-0.007967423647642136
1772571935655279600,8.632279541015626,0.0035238265991210938,0.03260470926761627,-0.00783483311533928
1772571935665214200,8.642214111328125,-0.015369415283203125,0.008538424968719482,-0.007702711969614029
1772571935675138300,8.65213818359375,-0.010401725769042969,-0.005912065505981445,-0.0028641968965530396
1772571935685072000,8.66207177734375,0.0038976669311523438,-0.010501325130462646,0.011207789182662964
1772571935694972700,8.67197265625,0.013250350952148438,-0.0008890926837921143,-0.0031032487750053406
1772571935704903000,8.68190283203125,-0.0010967254638671875,-0.0008548945188522339,-0.0077568478882312775
1772571935714843000,8.6918427734375,0.06484699249267578,-0.01535119116306305,0.006802201271057129
1772571935724774100,8.701774169921874,-0.02567291259765625,0.006845951080322266,0.007198706269264221
1772571935734727700,8.711727783203125,0.012445449829101562,0.005329713225364685,0.0027796104550361633
1772571935744661200,8.7216611328125,-0.0065708160400390625,-0.005776911973953247,0.012555576860904694
1772571935754594000,8.731593994140624,-0.025274276733398438,-0.007079169154167175,-0.001372598111629486
1772571935764527400,8.74152734375,-0.038964271545410156,0.00627271831035614,-0.00585411861538887
1772571935774460200,8.751460205078125,-0.0241851806640625,0.010694906115531921,0.0035590454936027527
1772571935784393500,8.7613935546875,-0.05674552917480469,0.015549302101135254,0.0077032670378685
1772571935794336300,8.771336181640624,-0.022855758666992188,0.00710923969745636,-0.007460195571184158
1772571935804270300,8.781270263671875,0.06224822998046875,-0.014404520392417908,-0.0035375580191612244
1772571935814188800,8.791188720703126,0.05648612976074219,0.0008911639451980591,0.015257909893989563
