time,seconds_elapsed,z,y,x
1772571927152651800,0.12965185546875,-0.0009320789249613881,0.0002663082559593022,0.000665770610794425
1772571927212557800,0.189557861328125,-0.0009320789249613881,0.0002663082559593022,-0.0003994623839389533
1772571927222488600,0.199488525390625,0.0001331541279796511,0.0002663082559593022,-0.0003994623839389533
1772571927232427800,0.209427734375,-0.0009320789249613881,0.0002663082559593022,-0.0003994623839389533
1772571927242352600,0.2193525390625,-0.0009320789249613881,0.0002663082559593022,-0.0003994623839389533
1772571927252286000,0.229285888671875,0.0001331541279796511,0.0002663082559593022,0.000665770610794425
1772571927262217700,0.2392177734375,0.0001331541279796511,0.0002663082559593022,0.000665770610794425
1772571927272150500,0.249150634765625,0.0001331541279796511,-0.0007989247678779066,0.000665770610794425
1772571927282085400,0.25908544921875,0.0001331541279796511,-0.0007989247678779066,-0.0003994623839389533
1772571927301950200,0.2789501953125,0.0001331541279796511,0.0002663082559593022,-0.00359516148455441
1772571927311882800,0.2888828125,-0.0009320789249613881,-0.0007989247678779066,-0.0014646954368799925
1772571927321814500,0.298814453125,-0.0009320789249613881,0.0002663082559593022,0.000665770610794425
1772571927331746800,0.308746826171875,-0.0009320789249613881,0.0002663082559593022,-0.0014646954368799925
1772571927341677300,0.31867724609375,-0.0009320789249613881,0.0002663082559593022,-0.0014646954368799925
1772571927351608800,0.32860888671875,-0.0009320789249613881,0.00133154122158885,-0.0003994623839389533
1772571927361555200,0.33855517578125,0.0001331541279796511,0.0023967742454260588,-0.0014646954368799925
1772571927371459600,0.34845947265625,0.0011983871227130294,-0.0007989247678779066,-0.0025299284607172012
1772571927391338500,0.36833837890625,0.0001331541279796511,-0.0007989247678779066,-0.0025299284607172012
1772571927401277700,0.378277587890625,0.0011983871227130294,0.0002663082559593022,-0.00359516148455441
1772571927411206000,0.388205810546875,0.0001331541279796511,-0.0007989247678779066,-0.00359516148455441
1772571927421140500,0.398140380859375,-0.0009320789249613881,0.0002663082559593022,-0.0025299284607172012
1772571927431069000,0.40806884765625,0.0001331541279796511,0.00133154122158885,-0.00359516148455441
1772571927441001200,0.418001220703125,-0.0009320789249613881,0.00133154122158885,-0.0025299284607172012
1772571927450937900,0.427937744140625,0.0001331541279796511,0.00133154122158885,-0.0014646954368799925
1772571927460872000,0.437871826171875,0.0001331541279796511,0.00133154122158885,-0.00359516148455441
1772571927470801700,0.4478017578125,-0.0009320789249613881,0.0002663082559593022,-0.0014646954368799925
1772571927480734200,0.457734130859375,-0.001997311832383275,-0.0007989247678779066,-0.0014646954368799925
1772571927490678800,0.4676787109375,0.0001331541279796511,0.0002663082559593022,0.000665770610794425
1772571927500616200,0.4776162109375,0.0001331541279796511,0.00133154122158885,-0.0014646954368799925
1772571927510535700,0.48753564453125,-0.0009320789249613881,0.00133154122158885,-0.0003994623839389533
1772571927520466000,0.4974658203125,0.0001331541279796511,0.0002663082559593022,-0.0003994623839389533
1772571927530398500,0.5073984375,0.0011983871227130294,-0.0007989247678779066,-0.0014646954368799925
1772571927540329700,0.517329833984375,0.00226362026296556,-0.0007989247678779066,-0.0003994623839389533
1772571927550263600,0.527263671875,-0.0009320789249613881,0.0002663082559593022,-0.0003994623839389533
1772571927560195000,0.537195068359375,-0.0009320789249613881,-0.0007989247678779066,-0.0003994623839389533
1772571927570124800,0.547124755859375,0.0001331541279796511,0.0002663082559593022,-0.0003994623839389533
1772571927580056000,0.55705615234375,0.0001331541279796511,-0.0007989247678779066,-0.0003994623839389533
1772571927589990100,0.566990234375,0.0011983871227130294,-0.0007989247678779066,-0.0014646954368799925
1772571927599921700,0.576921630859375,0.0001331541279796511,-0.0007989247678779066,-0.0003994623839389533
1772571927609866000,0.586865966796875,0.0011983871227130294,-0.0007989247678779066,-0.0003994623839389533
1772571927619798800,0.596798828125,0.0001331541279796511,-0.0007989247678779066,-0.0003994623839389533
1772571927629697800,0.60669775390625,0.0001331541279796511,-0.0007989247678779066,-0.0003994623839389533
1772571927639627300,0.616627197265625,0.0011983871227130294,-0.0007989247678779066,-0.0014646954368799925
1772571927649594000,0.626593994140625,0.0011983871227130294,-0.0007989247678779066,0.000665770610794425
1772571927659527200,0.636527099609375,-0.0009320789249613881,-0.0018641578499227762,0.000665770610794425
1772571927669462500,0.646462646484375,-0.0009320789249613881,0.00133154122158885,0.000665770610794425
1772571927679396000,0.65639599609375,0.0001331541279796511,0.0023967742454260588,-0.0003994623839389533
1772571927689318100,0.666318115234375,0.0011983871227130294,-0.0007989247678779066,-0.0003994623839389533
1772571927699250400,0.67625048828125,0.0001331541279796511,0.0002663082559593022,0.000665770610794425
1772571927709181200,0.68618115234375,0.0011983871227130294,0.00133154122158885,-0.0003994623839389533
1772571927719113500,0.696113525390625,0.0001331541279796511,0.00133154122158885,0.000665770610794425
1772571927729047600,0.706047607421875,0.0001331541279796511,-0.0007989247678779066,0.000665770610794425
1772571927738979800,0.715979736328125,0.0001331541279796511,0.00133154122158885,-0.0003994623839389533
1772571927748917800,0.725917724609375,-0.0009320789249613881,0.0002663082559593022,0.000665770610794425
1772571927758850600,0.7358505859375,0.0001331541279796511,0.00133154122158885,-0.0003994623839389533
1772571927768793900,0.7457939453125,0.0001331541279796511,0.0002663082559593022,-0.0014646954368799925
1772571927778727700,0.755727783203125,0.0001331541279796511,0.0002663082559593022,-0.0003994623839389533
1772571927788643800,0.765643798828125,0.0011983871227130294,-0.0007989247678779066,-0.0014646954368799925
1772571927798576000,0.775576171875,0.0011983871227130294,0.0002663082559593022,-0.0003994623839389533
1772571927808506400,0.78550634765625,0.0001331541279796511,0.0023967742454260588,0.000665770610794425
1772571927818438400,0.7954384765625,0.0001331541279796511,0.0002663082559593022,-0.0003994623839389533
1772571927828347100,0.80534716796875,-0.0009320789249613881,0.00133154122158885,0.0017310036346316338
1772571927838276600,0.815276611328125,-0.0009320789249613881,0.0023967742454260588,0.0017310036346316338
1772571927848239000,0.825239013671875,0.0001331541279796511,0.0002663082559593022,-0.0003994623839389533
1772571927858172000,0.835171875,-0.0009320789249613881,-0.0007989247678779066,0.000665770610794425
1772571927868106200,0.845106201171875,-0.0009320789249613881,0.0002663082559593022,-0.0003994623839389533
1772571927878039300,0.855039306640625,0.0011983871227130294,0.0002663082559593022,-0.0014646954368799925
1772571927887969500,0.864969482421875,0.0011983871227130294,0.00133154122158885,0.000665770610794425
1772571927897902300,0.87490234375,0.0001331541279796511,0.0002663082559593022,0.0017310036346316338
1772571927907812600,0.8848125,-0.0009320789249613881,-0.0007989247678779066,0.000665770610794425
1772571927917743000,0.8947431640625,0.0001331541279796511,-0.0007989247678779066,-0.0003994623839389533
1772571927927675400,0.90467529296875,0.0001331541279796511,0.0002663082559593022,-0.0003994623839389533
1772571927937606100,0.914606201171875,0.0001331541279796511,0.00133154122158885,-0.0014646954368799925
1772571927947543600,0.92454345703125,0.0001331541279796511,0.0002663082559593022,-0.0014646954368799925
1772571927957475000,0.93447509765625,0.0001331541279796511,0.0002663082559593022,-0.0003994623839389533
1772571927967448300,0.9444482421875,0.0001331541279796511,0.0002663082559593022,-0.0003994623839389533
1772571927977384000,0.954384033203125,0.0001331541279796511,-0.0018641578499227762,-0.0003994623839389533
1772571927987274200,0.964274169921875,-0.0009320789249613881,0.0002663082559593022,-0.0003994623839389533
1772571927997205500,0.97420556640625,-0.0009320789249613881,0.00133154122158885,-0.0003994623839389533
1772571928007142100,0.98414208984375,0.0001331541279796511,0.0002663082559593022,-0.0003994623839389533
1772571928017073700,0.99407373046875,0.0001331541279796511,-0.0007989247678779066,0.000665770610794425
1772571928027012000,1.00401220703125,0.0001331541279796511,0.0002663082559593022,-0.0003994623839389533
1772571928036944400,1.0139443359375,0.0011983871227130294,0.0002663082559593022,-0.0003994623839389533
1772571928046869000,1.023868896484375,0.0011983871227130294,0.00133154122158885,0.0017310036346316338
1772571928056800800,1.03380078125,0.0011983871227130294,0.00133154122158885,-0.0003994623839389533
1772571928066729700,1.043729736328125,0.0001331541279796511,0.0002663082559593022,-0.0014646954368799925
1772571928076661200,1.0536611328125,0.0001331541279796511,0.0002663082559593022,-0.0003994623839389533
1772571928086596900,1.063596923828125,0.0011983871227130294,-0.0007989247678779066,-0.0003994623839389533
1772571928096528400,1.0735283203125,0.0001331541279796511,-0.0007989247678779066,0.0017310036346316338
1772571928106483200,1.083483154296875,0.0001331541279796511,-0.0007989247678779066,-0.0003994623839389533
1772571928116417300,1.093417236328125,0.0001331541279796511,-0.0007989247678779066,0.0017310036346316338
1772571928126351400,1.103351318359375,0.0011983871227130294,0.0002663082559593022,-0.0003994623839389533
1772571928136285400,1.113285400390625,-0.0009320789249613881,0.0002663082559593022,-0.0003994623839389533
1772571928146214700,1.123214599609375,-0.0009320789249613881,-0.0007989247678779066,-0.0003994623839389533
1772571928156148200,1.133148193359375,0.0001331541279796511,0.0002663082559593022,-0.0003994623839389533
1772571928166087400,1.14308740234375,0.0001331541279796511,0.00133154122158885,-0.0003994623839389533
1772571928176021500,1.153021484375,0.0001331541279796511,0.00133154122158885,0.000665770610794425
1772571928185945600,1.162945556640625,-0.0009320789249613881,0.00133154122158885,-0.0003994623839389533
1772571928195878700,1.172878662109375,0.0001331541279796511,-0.0007989247678779066,-0.0003994623839389533
1772571928215768600,1.1927685546875,-0.0009320789249613881,0.011983871459960938,-0.0014646954368799925
1772571928225672400,1.20267236328125,0.0001331541279796511,0.021570969372987747,-0.012117025442421436
1772571928235604700,1.212604736328125,0.0001331541279796511,-0.0018641578499227762,0.0038614696823060513
1772571928245550000,1.222550048828125,0.0001331541279796511,0.005592473316937685,-0.00359516148455441
1772571928255483400,1.2324833984375,-0.0009320789249613881,0.00133154122158885,-0.0003994623839389533
1772571928265402400,1.24240234375,0.0001331541279796511,-0.0018641578499227762,0.000665770610794425
1772571928275334400,1.25233447265625,0.0001331541279796511,-0.0061250897124409676,0.0027962366584688425
1772571928285268000,1.26226806640625,-0.0009320789249613881,-0.011451254598796368,0.0038614696823060513
1772571928295200300,1.2722001953125,0.0011983871227130294,-0.008255556225776672,0.0038614696823060513
1772571928305130800,1.282130859375,0.0001331541279796511,-0.0007989247678779066,-0.0003994623839389533
1772571928315062800,1.292062744140625,0.0001331541279796511,0.0002663082559593022,-0.0003994623839389533
1772571928325008600,1.302008544921875,0.0011983871227130294,0.0002663082559593022,0.000665770610794425
1772571928344860000,1.32185986328125,0.0011983871227130294,-0.0007989247678779066,-0.0003994623839389533
1772571928354791700,1.331791748046875,0.0001331541279796511,0.00133154122158885,-0.0003994623839389533
1772571928364703500,1.341703369140625,0.0001331541279796511,-0.0007989247678779066,-0.0003994623839389533
1772571928374633500,1.351633544921875,0.0011983871227130294,-0.0007989247678779066,-0.0014646954368799925
1772571928384591600,1.361591552734375,-0.0009320789249613881,-0.0007989247678779066,-0.0025299284607172012
1772571928394524400,1.3715244140625,-0.0009320789249613881,0.0002663082559593022,-0.0014646954368799925
1772571928404457000,1.38145703125,0.0001331541279796511,0.0002663082559593022,-0.0003994623839389533
1772571928414389800,1.3913896484375,0.0011983871227130294,0.0002663082559593022,-0.0003994623839389533
1772571928424321800,1.40132177734375,0.0001331541279796511,0.0002663082559593022,-0.0014646954368799925
1772571928434254600,1.411254638671875,0.0011983871227130294,0.0002663082559593022,-0.0003994623839389533
1772571928444198100,1.4211982421875,0.0001331541279796511,0.0002663082559593022,-0.0003994623839389533
1772571928454131700,1.431131591796875,0.0001331541279796511,-0.0007989247678779066,-0.0003994623839389533
1772571928464050700,1.44105078125,0.0011983871227130294,0.0002663082559593022,-0.0003994623839389533
1772571928473983000,1.45098291015625,0.0001331541279796511,0.0002663082559593022,0.000665770610794425
1772571928483917600,1.46091748046875,-0.0009320789249613881,0.00133154122158885,-0.0003994623839389533
1772571928493849900,1.470849853515625,0.0011983871227130294,0.0002663082559593022,-0.0014646954368799925
1772571928503783400,1.480783447265625,0.0001331541279796511,0.0002663082559593022,-0.0003994623839389533
1772571928513716200,1.49071630859375,0.0001331541279796511,-0.0007989247678779066,-0.0003994623839389533
1772571928523646200,1.500646240234375,0.0001331541279796511,-0.0007989247678779066,-0.0014646954368799925
1772571928533578500,1.51057861328125,0.0001331541279796511,0.00133154122158885,0.000665770610794425
1772571928543512800,1.520512939453125,0.0001331541279796511,0.0002663082559593022,-0.0014646954368799925
1772571928553445000,1.530445068359375,0.0011983871227130294,-0.0007989247678779066,-0.0003994623839389533
1772571928563392300,1.540392333984375,0.0011983871227130294,-0.0007989247678779066,-0.0003994623839389533
1772571928573326000,1.550326171875,0.0011983871227130294,-0.0007989247678779066,-0.0014646954368799925
1772571928583244000,1.560244140625,-0.0009320789249613881,0.0002663082559593022,0.000665770610794425
1772571928593176600,1.570176513671875,-0.0009320789249613881,0.00133154122158885,0.0017310036346316338
1772571928603085800,1.5800859375,-0.0009320789249613881,0.0002663082559593022,0.000665770610794425
1772571928613015800,1.590015869140625,0.0001331541279796511,-0.0007989247678779066,-0.0014646954368799925
1772571928622975200,1.599975341796875,0.0011983871227130294,-0.0007989247678779066,0.000665770610794425
1772571928632908300,1.609908203125,0.0011983871227130294,0.0002663082559593022,0.000665770610794425
1772571928642843100,1.619843017578125,0.0001331541279796511,0.00133154122158885,-0.0003994623839389533
1772571928652776200,1.629776123046875,-0.0009320789249613881,0.0002663082559593022,0.0017310036346316338
1772571928662711600,1.639711669921875,-0.0009320789249613881,0.00133154122158885,0.000665770610794425
1772571928672645000,1.64964501953125,0.0001331541279796511,0.0002663082559593022,-0.0014646954368799925
1772571928682568400,1.659568359375,0.00226362026296556,0.0002663082559593022,-0.0014646954368799925
1772571928692501000,1.6695009765625,0.0001331541279796511,0.0002663082559593022,-0.0003994623839389533
1772571928702383000,1.679383056640625,0.0001331541279796511,0.0002663082559593022,-0.0003994623839389533
1772571928712310500,1.689310546875,-0.0009320789249613881,0.00133154122158885,0.000665770610794425
1772571928722297900,1.6992978515625,0.0011983871227130294,-0.0007989247678779066,-0.0014646954368799925
1772571928732231200,1.709231201171875,-0.0009320789249613881,0.0002663082559593022,-0.0003994623839389533
1772571928742164000,1.7191640625,-0.0009320789249613881,-0.0007989247678779066,0.000665770610794425
1772571928752097300,1.72909716796875,0.0011983871227130294,0.0002663082559593022,-0.0003994623839389533
1772571928762043100,1.739043212890625,0.0001331541279796511,0.0002663082559593022,-0.0014646954368799925
1772571928771977700,1.748977783203125,-0.0009320789249613881,0.0002663082559593022,-0.0003994623839389533
1772571928781893400,1.758893310546875,0.0011983871227130294,0.00133154122158885,0.000665770610794425
1772571928791826000,1.768825927734375,0.0001331541279796511,0.00133154122158885,-0.0003994623839389533
1772571928801737200,1.7787373046875,0.0001331541279796511,-0.0007989247678779066,-0.0014646954368799925
1772571928811667700,1.788667724609375,0.0001331541279796511,0.0002663082559593022,0.000665770610794425
1772571928821631500,1.798631591796875,0.0001331541279796511,0.0002663082559593022,-0.0014646954368799925
1772571928831565300,1.8085654296875,0.0001331541279796511,0.00133154122158885,-0.0003994623839389533
1772571928841492500,1.818492431640625,0.0001331541279796511,0.0002663082559593022,0.000665770610794425
1772571928851425500,1.828425537109375,0.0001331541279796511,0.0002663082559593022,-0.0014646954368799925
1772571928861359900,1.83835986328125,0.0011983871227130294,-0.0007989247678779066,-0.0014646954368799925
1772571928871293200,1.848293212890625,-0.0009320789249613881,-0.0007989247678779066,-0.0003994623839389533
1772571928881220400,1.858220458984375,-0.001997311832383275,-0.0007989247678779066,-0.0003994623839389533
1772571928891153200,1.868153076171875,0.0001331541279796511,0.0002663082559593022,-0.0014646954368799925
1772571928901094000,1.878093994140625,-0.0009320789249613881,-0.0007989247678779066,-0.0014646954368799925
1772571928911027500,1.88802734375,-0.0009320789249613881,0.0002663082559593022,-0.0014646954368799925
1772571928920926700,1.8979267578125,0.0011983871227130294,-0.0007989247678779066,-0.0014646954368799925
1772571928930856700,1.907856689453125,0.0001331541279796511,-0.0007989247678779066,-0.0014646954368799925
1772571928940816600,1.917816650390625,0.0001331541279796511,0.0002663082559593022,-0.0003994623839389533
1772571928950749700,1.927749755859375,0.0001331541279796511,0.0002663082559593022,0.000665770610794425
1772571928960693200,1.937693359375,-0.0009320789249613881,-0.0007989247678779066,-0.0014646954368799925
1772571928970627300,1.94762744140625,0.0001331541279796511,-0.0007989247678779066,-0.0003994623839389533
1772571928980551700,1.9575517578125,0.0001331541279796511,-0.0007989247678779066,-0.0003994623839389533
1772571928990484700,1.967484619140625,0.0001331541279796511,-0.0007989247678779066,-0.0003994623839389533
1772571929000415000,1.9774150390625,0.0011983871227130294,0.00133154122158885,-0.0003994623839389533
1772571929010348000,1.98734814453125,0.0011983871227130294,-0.0007989247678779066,-0.0003994623839389533
1772571929020278000,1.997278076171875,0.0011983871227130294,-0.0007989247678779066,-0.0003994623839389533
1772571929030210600,2.00721044921875,0.0001331541279796511,0.00133154122158885,-0.0003994623839389533
1772571929040143600,2.0171435546875,-0.0009320789249613881,0.0002663082559593022,-0.0003994623839389533
1772571929050076200,2.027076171875,-0.0009320789249613881,0.0002663082559593022,-0.0003994623839389533
1772571929060007200,2.037007080078125,-0.0009320789249613881,0.0002663082559593022,0.000665770610794425
1772571929069939700,2.046939697265625,-0.0009320789249613881,0.0002663082559593022,0.000665770610794425
1772571929079872500,2.05687255859375,0.0011983871227130294,0.0002663082559593022,0.000665770610794425
1772571929089804800,2.0668046875,0.0001331541279796511,0.00133154122158885,0.000665770610794425
1772571929099735800,2.07673583984375,-0.0009320789249613881,0.0002663082559593022,-0.0003994623839389533
1772571929109668400,2.08666845703125,0.0001331541279796511,-0.0007989247678779066,0.0017310036346316338
1772571929119580400,2.096580322265625,-0.0009320789249613881,0.0002663082559593022,0.000665770610794425
1772571929129510700,2.1065107421875,0.0001331541279796511,-0.0007989247678779066,-0.0003994623839389533
1772571929139443700,2.116443603515625,-0.0009320789249613881,-0.0007989247678779066,0.000665770610794425
1772571929149374500,2.12637451171875,-0.0009320789249613881,0.0002663082559593022,-0.0003994623839389533
1772571929159345400,2.136345458984375,-0.0009320789249613881,0.0002663082559593022,-0.0014646954368799925
1772571929169280000,2.146280029296875,-0.0009320789249613881,0.0002663082559593022,0.000665770610794425
1772571929179176400,2.156176513671875,0.0001331541279796511,0.00133154122158885,-0.0003994623839389533
1772571929189107200,2.166107177734375,0.0001331541279796511,0.0002663082559593022,-0.0003994623839389533
1772571929199040000,2.1760400390625,0.0001331541279796511,0.00133154122158885,0.000665770610794425
1772571929208971000,2.185970947265625,0.0001331541279796511,0.0002663082559593022,0.000665770610794425
1772571929218904800,2.19590478515625,-0.0009320789249613881,0.0002663082559593022,0.0017310036346316338
1772571929228836000,2.205836181640625,0.0001331541279796511,0.0002663082559593022,0.0017310036346316338
1772571929238770700,2.215770751953125,0.0001331541279796511,0.0002663082559593022,-0.0003994623839389533
1772571929248702500,2.225702392578125,-0.0009320789249613881,0.00133154122158885,-0.0003994623839389533
1772571929258635800,2.2356357421875,0.0001331541279796511,-0.0007989247678779066,0.000665770610794425
1772571929268567600,2.245567626953125,0.0001331541279796511,-0.0007989247678779066,0.0017310036346316338
1772571929278500400,2.255500244140625,0.0001331541279796511,-0.0007989247678779066,0.0017310036346316338
1772571929288432400,2.265432373046875,-0.0009320789249613881,0.0002663082559593022,-0.0003994623839389533
1772571929298371000,2.27537109375,0.0001331541279796511,-0.0007989247678779066,-0.0025299284607172012
1772571929308303600,2.2853037109375,0.0001331541279796511,0.0002663082559593022,0.000665770610794425
1772571929318254000,2.295254150390625,-0.0009320789249613881,0.0002663082559593022,0.0017310036346316338
1772571929328188400,2.3051884765625,0.0001331541279796511,0.0002663082559593022,-0.0014646954368799925
1772571929338119400,2.315119384765625,-0.0009320789249613881,0.00133154122158885,0.000665770610794425
1772571929348053500,2.325053466796875,0.0011983871227130294,-0.0007989247678779066,-0.0014646954368799925
1772571929357982700,2.334982666015625,0.0011983871227130294,0.0002663082559593022,-0.0003994623839389533
1772571929367916300,2.344916259765625,0.0001331541279796511,-0.0007989247678779066,-0.0003994623839389533
1772571929377814300,2.354814208984375,-0.001997311832383275,0.0002663082559593022,0.000665770610794425
1772571929387744300,2.364744140625,0.0001331541279796511,0.0002663082559593022,0.000665770610794425
1772571929397719600,2.374719482421875,-0.001997311832383275,0.00133154122158885,0.000665770610794425
1772571929407654100,2.384654052734375,-0.0009320789249613881,0.00133154122158885,0.000665770610794425
1772571929417556000,2.394555908203125,0.0001331541279796511,0.0002663082559593022,0.000665770610794425
1772571929427487200,2.4044873046875,0.0001331541279796511,0.0002663082559593022,-0.0003994623839389533
1772571929437447200,2.414447265625,-0.0009320789249613881,0.0002663082559593022,-0.0003994623839389533
1772571929447381200,2.42438134765625,0.0011983871227130294,0.0023967742454260588,-0.0003994623839389533
1772571929457307600,2.4343076171875,0.0001331541279796511,0.0023967742454260588,-0.0003994623839389533
1772571929467241000,2.444240966796875,0.0001331541279796511,0.00133154122158885,0.0017310036346316338
1772571929477179400,2.454179443359375,0.0001331541279796511,0.0002663082559593022,0.000665770610794425
1772571929487113200,2.46411328125,0.0001331541279796511,0.0002663082559593022,-0.0003994623839389533
1772571929497017300,2.474017333984375,0.0001331541279796511,0.0002663082559593022,-0.0014646954368799925
1772571929506948400,2.4839482421875,0.0001331541279796511,0.0002663082559593022,0.000665770610794425
1772571929516905500,2.493905517578125,0.0001331541279796511,0.0002663082559593022,-0.0003994623839389533
1772571929526839000,2.503839111328125,0.0001331541279796511,0.0002663082559593022,-0.0003994623839389533
1772571929536770600,2.5137705078125,0.0001331541279796511,0.0002663082559593022,0.000665770610794425
1772571929546704100,2.5237041015625,-0.0009320789249613881,0.00133154122158885,-0.0003994623839389533
1772571929556635100,2.53363525390625,-0.0009320789249613881,0.0002663082559593022,-0.0014646954368799925
1772571929566568200,2.543568115234375,-0.0009320789249613881,-0.0007989247678779066,0.000665770610794425
1772571929576505000,2.553505126953125,0.0001331541279796511,0.00133154122158885,0.0017310036346316338
1772571929586438400,2.5634384765625,0.0011983871227130294,0.0002663082559593022,0.000665770610794425
1772571929596367000,2.5733671875,0.0001331541279796511,-0.0007989247678779066,0.000665770610794425
1772571929606300000,2.5832998046875,0.0001331541279796511,0.00133154122158885,0.000665770610794425
1772571929616250400,2.59325048828125,-0.0009320789249613881,0.00133154122158885,-0.0014646954368799925
1772571929626185200,2.603185302734375,0.0001331541279796511,0.0002663082559593022,-0.0003994623839389533
1772571929636081000,2.613080810546875,0.0011983871227130294,0.0002663082559593022,0.000665770610794425
1772571929646012000,2.623011962890625,0.0011983871227130294,0.0002663082559593022,-0.0003994623839389533
1772571929655960600,2.632960693359375,0.0001331541279796511,0.00133154122158885,-0.0003994623839389533
1772571929665893000,2.64289306640625,0.0011983871227130294,0.0002663082559593022,-0.0003994623839389533
1772571929675825700,2.65282568359375,0.0001331541279796511,-0.0007989247678779066,0.0017310036346316338
1772571929685758200,2.66275830078125,0.0001331541279796511,0.0002663082559593022,0.0017310036346316338
1772571929695667000,2.6726669921875,0.0001331541279796511,0.00133154122158885,0.000665770610794425
1772571929705597200,2.68259716796875,-0.0009320789249613881,0.00133154122158885,-0.0014646954368799925
1772571929715557400,2.692557373046875,-0.0009320789249613881,0.00133154122158885,-0.0014646954368799925
1772571929725490700,2.70249072265625,0.0011983871227130294,0.0002663082559593022,-0.0003994623839389533
1772571929735420200,2.712420166015625,0.0001331541279796511,0.0002663082559593022,0.0017310036346316338
1772571929745353000,2.72235302734375,-0.0009320789249613881,0.0002663082559593022,-0.0003994623839389533
1772571929755287000,2.732287109375,0.0001331541279796511,0.0002663082559593022,-0.0003994623839389533
1772571929765219800,2.7422197265625,-0.0009320789249613881,0.0002663082559593022,0.0017310036346316338
1772571929775150300,2.752150390625,-0.0009320789249613881,-0.0007989247678779066,0.0017310036346316338
1772571929785083100,2.762083251953125,0.0001331541279796511,-0.0007989247678779066,0.0027962366584688425
1772571929795019800,2.772019775390625,0.0001331541279796511,0.0002663082559593022,0.000665770610794425
1772571929804953000,2.781953125,0.0001331541279796511,0.0023967742454260588,-0.0003994623839389533
1772571929814882300,2.79188232421875,0.0001331541279796511,0.0002663082559593022,0.000665770610794425
1772571929824814800,2.80181494140625,-0.0009320789249613881,-0.0007989247678779066,0.000665770610794425
1772571929834790700,2.811790771484375,-0.0009320789249613881,0.0002663082559593022,-0.0014646954368799925
1772571929844727800,2.821727783203125,0.0011983871227130294,0.0002663082559593022,-0.0003994623839389533
1772571929854612200,2.8316123046875,0.0001331541279796511,0.00133154122158885,-0.0003994623839389533
1772571929864544000,2.8415439453125,-0.0009320789249613881,0.00133154122158885,-0.0003994623839389533
1772571929874476000,2.85147607421875,0.0001331541279796511,-0.0007989247678779066,-0.0003994623839389533
1772571929884408000,2.861407958984375,0.0011983871227130294,-0.0007989247678779066,-0.0003994623839389533
1772571929894317600,2.871317626953125,0.0011983871227130294,0.0002663082559593022,-0.0003994623839389533
1772571929904247000,2.8812470703125,0.0001331541279796511,0.00133154122158885,0.0017310036346316338
1772571929914211800,2.8912119140625,0.0001331541279796511,-0.0007989247678779066,0.000665770610794425
1772571929924145200,2.901145263671875,0.0001331541279796511,0.0002663082559593022,-0.0003994623839389533
1772571929934071300,2.9110712890625,0.0001331541279796511,-0.0007989247678779066,-0.0014646954368799925
1772571929944003600,2.921003662109375,0.0011983871227130294,-0.0007989247678779066,-0.0003994623839389533
1772571929953942000,2.93094189453125,0.0001331541279796511,0.00133154122158885,0.000665770610794425
1772571929963875000,2.940875,0.0001331541279796511,0.0023967742454260588,-0.0003994623839389533
1772571929973802800,2.950802734375,0.0001331541279796511,0.0002663082559593022,-0.0003994623839389533
1772571929983735000,2.960735107421875,0.0001331541279796511,-0.0007989247678779066,-0.0014646954368799925
1772571929993670700,2.970670654296875,0.0011983871227130294,0.0002663082559593022,-0.0014646954368799925
1772571930003603500,2.980603515625,-0.0009320789249613881,0.00133154122158885,0.000665770610794425
1772571930013534500,2.990534423828125,0.0011983871227130294,0.0002663082559593022,0.0017310036346316338
1772571930023467300,3.00046728515625,0.0011983871227130294,0.0002663082559593022,0.0017310036346316338
1772571930033407200,3.0104072265625,0.0001331541279796511,-0.0007989247678779066,0.0017310036346316338
1772571930043340500,3.020340576171875,0.0001331541279796511,-0.0007989247678779066,-0.0003994623839389533
1772571930053282600,3.030282470703125,-0.0009320789249613881,0.00133154122158885,0.000665770610794425
1772571930063217000,3.040216796875,-0.0009320789249613881,0.00133154122158885,-0.0003994623839389533
1772571930073141200,3.050141357421875,0.0011983871227130294,-0.0007989247678779066,-0.0014646954368799925
1772571930083074600,3.060074462890625,0.00226362026296556,0.00133154122158885,-0.0003994623839389533
1772571930093012000,3.070011962890625,0.0001331541279796511,0.0002663082559593022,0.000665770610794425
1772571930102945800,3.07994580078125,0.0011983871227130294,-0.0007989247678779066,-0.0014646954368799925
1772571930112837000,3.089837158203125,0.0001331541279796511,0.0002663082559593022,-0.0014646954368799925
1772571930122766600,3.0997666015625,0.0001331541279796511,0.00133154122158885,0.000665770610794425
1772571930132729900,3.109729736328125,0.0011983871227130294,0.0002663082559593022,-0.0003994623839389533
1772571930142662700,3.11966259765625,0.00226362026296556,-0.0018641578499227762,-0.0003994623839389533
1772571930152589300,3.12958935546875,0.00226362026296556,-0.0018641578499227762,-0.0014646954368799925
1772571930162521600,3.139521484375,-0.0009320789249613881,0.00133154122158885,0.000665770610794425
1772571930172454400,3.149454345703125,0.0011983871227130294,0.0002663082559593022,-0.0003994623839389533
1772571930182386700,3.15938671875,-0.0009320789249613881,0.0002663082559593022,0.000665770610794425
1772571930192325600,3.16932568359375,0.0001331541279796511,0.0002663082559593022,0.000665770610794425
1772571930202258400,3.179258544921875,0.0011983871227130294,-0.0007989247678779066,0.000665770610794425
1772571930212185900,3.189185791015625,0.0001331541279796511,0.0002663082559593022,-0.0014646954368799925
1772571930222118100,3.1991181640625,-0.0009320789249613881,0.00133154122158885,0.000665770610794425
1772571930232063500,3.2090634765625,-0.0009320789249613881,0.0002663082559593022,0.0017310036346316338
1772571930241997300,3.218997314453125,0.0001331541279796511,-0.0007989247678779066,0.000665770610794425
1772571930251923000,3.2289228515625,0.0001331541279796511,0.0002663082559593022,-0.0003994623839389533
1772571930261856000,3.23885595703125,-0.001997311832383275,0.0002663082559593022,-0.0003994623839389533
1772571930271792400,3.24879248046875,-0.0009320789249613881,0.0002663082559593022,-0.0003994623839389533
1772571930281725700,3.2587255859375,0.0001331541279796511,0.0002663082559593022,-0.0003994623839389533
1772571930291659800,3.26865966796875,0.0011983871227130294,0.0002663082559593022,-0.0003994623839389533
1772571930301593300,3.27859326171875,0.0011983871227130294,0.0002663082559593022,-0.0014646954368799925
1772571930311514600,3.2885146484375,0.0011983871227130294,-0.0007989247678779066,-0.0003994623839389533
1772571930321446700,3.29844677734375,0.0001331541279796511,0.00133154122158885,0.000665770610794425
1772571930331355600,3.308355712890625,0.0001331541279796511,0.00133154122158885,-0.0003994623839389533
1772571930341285400,3.318285400390625,0.0001331541279796511,0.0002663082559593022,-0.0003994623839389533
1772571930351263000,3.328262939453125,0.0011983871227130294,0.0002663082559593022,-0.0003994623839389533
1772571930361197600,3.338197509765625,0.0001331541279796511,0.00133154122158885,-0.0003994623839389533
1772571930371119400,3.348119384765625,0.0001331541279796511,0.0002663082559593022,0.000665770610794425
1772571930381052700,3.358052734375,0.0011983871227130294,-0.0007989247678779066,-0.0003994623839389533
1772571930390950100,3.3679501953125,0.0001331541279796511,-0.0007989247678779066,-0.0014646954368799925
1772571930400879900,3.3778798828125,0.0001331541279796511,0.0002663082559593022,-0.0003994623839389533
1772571930410822400,3.387822509765625,-0.0009320789249613881,0.00133154122158885,-0.0003994623839389533
1772571930420753400,3.39775341796875,0.0001331541279796511,0.0002663082559593022,-0.0003994623839389533
1772571930430714000,3.407714111328125,0.0001331541279796511,0.0002663082559593022,0.000665770610794425
1772571930440648200,3.417648193359375,0.00226362026296556,0.0002663082559593022,0.000665770610794425
1772571930450547000,3.427546875,0.0011983871227130294,0.0002663082559593022,-0.0003994623839389533
1772571930460477400,3.4374775390625,0.0011983871227130294,0.0002663082559593022,-0.0003994623839389533
1772571930470412300,3.447412353515625,-0.0009320789249613881,0.00133154122158885,-0.0003994623839389533
1772571930480343300,3.45734326171875,0.0001331541279796511,0.0002663082559593022,0.000665770610794425
1772571930490275800,3.46727587890625,-0.0009320789249613881,0.00133154122158885,0.000665770610794425
1772571930500206800,3.477206787109375,0.0001331541279796511,0.0002663082559593022,0.000665770610794425
1772571930510145500,3.4871455078125,0.0001331541279796511,0.00133154122158885,0.000665770610794425
1772571930520077300,3.497077392578125,0.0001331541279796511,0.0002663082559593022,-0.0014646954368799925
1772571930530033700,3.50703369140625,0.0001331541279796511,0.0002663082559593022,-0.0025299284607172012
1772571930539968000,3.516968017578125,0.0001331541279796511,0.0002663082559593022,-0.0014646954368799925
1772571930549869300,3.526869384765625,0.0001331541279796511,-0.0018641578499227762,-0.0003994623839389533
1772571930559800300,3.53680029296875,0.0001331541279796511,0.0002663082559593022,-0.0014646954368799925
1772571930569763800,3.546763916015625,-0.0009320789249613881,0.0002663082559593022,-0.0003994623839389533
1772571930579698200,3.5566982421875,-0.0009320789249613881,0.0002663082559593022,-0.0003994623839389533
1772571930589628000,3.5666279296875,0.0011983871227130294,0.0002663082559593022,-0.0003994623839389533
1772571930599561700,3.576561767578125,0.0001331541279796511,0.0002663082559593022,-0.0003994623839389533
1772571930609500700,3.586500732421875,0.0001331541279796511,0.00133154122158885,-0.0003994623839389533
1772571930619435000,3.59643505859375,-0.001997311832383275,0.0002663082559593022,0.000665770610794425
1772571930629331000,3.6063310546875,-0.0009320789249613881,-0.0007989247678779066,0.000665770610794425
1772571930639261400,3.616261474609375,0.0001331541279796511,0.0002663082559593022,-0.0003994623839389533
1772571930649224000,3.626223876953125,-0.0009320789249613881,0.00133154122158885,0.0017310036346316338
1772571930659157800,3.63615771484375,0.0001331541279796511,-0.0007989247678779066,-0.0003994623839389533
1772571930669086200,3.646086181640625,0.0001331541279796511,0.0002663082559593022,-0.0003994623839389533
1772571930679019300,3.656019287109375,0.0001331541279796511,0.0002663082559593022,0.000665770610794425
1772571930688951800,3.665951904296875,-0.0009320789249613881,0.0002663082559593022,0.0017310036346316338
1772571930698884900,3.675884765625,0.0001331541279796511,-0.0007989247678779066,-0.0003994623839389533
1772571930718748700,3.695748779296875,0.0001331541279796511,0.0002663082559593022,0.000665770610794425
1772571930728679700,3.7056796875,0.0011983871227130294,0.0002663082559593022,-0.0014646954368799925
1772571930738612200,3.7156123046875,0.0001331541279796511,0.0002663082559593022,0.000665770610794425
1772571930748547800,3.7255478515625,-0.001997311832383275,0.0002663082559593022,-0.0003994623839389533
1772571930758481000,3.73548095703125,0.0011983871227130294,0.00133154122158885,-0.0003994623839389533
1772571930768381700,3.745381591796875,0.0001331541279796511,-0.0007989247678779066,0.000665770610794425
1772571930778311400,3.7553115234375,0.0001331541279796511,0.0002663082559593022,0.000665770610794425
1772571930788276700,3.76527685546875,0.0001331541279796511,0.0002663082559593022,0.000665770610794425
1772571930798210000,3.7752099609375,0.0001331541279796511,0.0002663082559593022,0.000665770610794425
1772571930808146200,3.785146240234375,-0.0009320789249613881,-0.0007989247678779066,-0.0003994623839389533
1772571930818079700,3.795079833984375,0.0001331541279796511,0.0002663082559593022,-0.0003994623839389533
1772571930828021200,3.805021240234375,0.0011983871227130294,0.00133154122158885,-0.0003994623839389533
1772571930837955600,3.81495556640625,0.0011983871227130294,0.00133154122158885,0.000665770610794425
1772571930847847700,3.82484765625,0.0001331541279796511,-0.0007989247678779066,-0.0003994623839389533
1772571930857777700,3.834777587890625,0.0011983871227130294,0.00133154122158885,0.000665770610794425
1772571930867742500,3.844742431640625,0.0001331541279796511,0.00133154122158885,-0.0003994623839389533
1772571930877676000,3.854676025390625,0.0001331541279796511,0.0002663082559593022,0.000665770610794425
1772571930887611100,3.864611083984375,0.0011983871227130294,-0.0007989247678779066,0.000665770610794425
1772571930897545000,3.874544921875,0.0001331541279796511,-0.0007989247678779066,-0.0003994623839389533
1772571930907453000,3.884452880859375,0.0001331541279796511,0.00133154122158885,0.000665770610794425
1772571930917384200,3.89438427734375,0.0001331541279796511,0.0002663082559593022,0.000665770610794425
1772571930927337700,3.904337646484375,0.0011983871227130294,-0.0018641578499227762,-0.0014646954368799925
1772571930937271000,3.91427099609375,0.0001331541279796511,0.0002663082559593022,-0.0003994623839389533
1772571930947178800,3.9241787109375,0.0011983871227130294,0.0002663082559593022,-0.0014646954368799925
1772571930957109800,3.93410986328125,0.0011983871227130294,0.00133154122158885,-0.0014646954368799925
1772571930967065900,3.94406591796875,0.0001331541279796511,0.00133154122158885,-0.0003994623839389533
1772571930976999200,3.953999267578125,0.0011983871227130294,-0.0007989247678779066,-0.0003994623839389533
1772571930986941000,3.96394091796875,0.0011983871227130294,-0.0007989247678779066,0.000665770610794425
1772571930996875000,3.973875,0.0001331541279796511,-0.0007989247678779066,0.000665770610794425
1772571931006798800,3.983798828125,-0.001997311832383275,0.0002663082559593022,-0.0003994623839389533
1772571931016732000,3.99373193359375,0.0001331541279796511,-0.0007989247678779066,-0.0003994623839389533
1772571931026681000,4.00368115234375,0.0001331541279796511,0.0002663082559593022,-0.0003994623839389533
1772571931036616000,4.013615966796875,0.0011983871227130294,0.00133154122158885,-0.0003994623839389533
1772571931046502000,4.023501953125,0.0001331541279796511,0.00133154122158885,0.000665770610794425
1772571931056431900,4.033431884765625,0.0001331541279796511,0.00133154122158885,-0.0003994623839389533
1772571931066393900,4.043393798828125,0.0001331541279796511,0.0002663082559593022,0.000665770610794425
1772571931076327000,4.053326904296875,0.0011983871227130294,0.0002663082559593022,0.000665770610794425
1772571931086256400,4.06325634765625,0.0001331541279796511,0.0002663082559593022,-0.0003994623839389533
1772571931096189200,4.073189208984375,0.0001331541279796511,0.00133154122158885,-0.0014646954368799925
1772571931106120400,4.083120361328125,0.0011983871227130294,-0.0007989247678779066,-0.0014646954368799925
1772571931116053200,4.09305322265625,-0.001997311832383275,-0.0007989247678779066,-0.0003994623839389533
1772571931125990700,4.10299072265625,0.0011983871227130294,0.0002663082559593022,0.000665770610794425
1772571931135923700,4.112923828125,0.0011983871227130294,0.0002663082559593022,0.000665770610794425
1772571931145852700,4.122852783203125,0.0001331541279796511,0.0002663082559593022,0.0017310036346316338
1772571931155785500,4.132785400390625,0.0001331541279796511,0.00133154122158885,0.000665770610794425
1772571931165691400,4.14269140625,0.0001331541279796511,0.0002663082559593022,-0.0014646954368799925
1772571931175621600,4.15262158203125,0.0001331541279796511,0.0002663082559593022,-0.0003994623839389533
1772571931185580000,4.162580078125,0.0001331541279796511,0.00133154122158885,0.000665770610794425
1772571931195512800,4.172512939453125,-0.0009320789249613881,0.00133154122158885,-0.0014646954368799925
1772571931205459700,4.182459716796875,0.0001331541279796511,0.0023967742454260588,-0.0014646954368799925
1772571931215394000,4.19239404296875,-0.0009320789249613881,0.00133154122158885,-0.0003994623839389533
1772571931225314800,4.202314697265625,0.0001331541279796511,0.0002663082559593022,-0.0014646954368799925
1772571931235247900,4.212247802734375,0.0001331541279796511,0.00133154122158885,-0.0014646954368799925
1772571931245189400,4.222189453125,0.0001331541279796511,0.0002663082559593022,-0.0014646954368799925
1772571931255123000,4.232123046875,0.0001331541279796511,0.0002663082559593022,-0.0003994623839389533
1772571931265043200,4.242043212890625,0.0011983871227130294,0.0002663082559593022,0.000665770610794425
1772571931274975700,4.251975830078125,0.0001331541279796511,0.00133154122158885,-0.0003994623839389533
1772571931284911400,4.261911376953125,0.0001331541279796511,0.00133154122158885,0.000665770610794425
1772571931294844200,4.27184423828125,0.0011983871227130294,0.0002663082559593022,0.000665770610794425
1772571931304772400,4.2817724609375,0.00226362026296556,0.0002663082559593022,-0.0003994623839389533
1772571931314705000,4.291704833984375,-0.0009320789249613881,0.0002663082559593022,-0.0003994623839389533
1772571931324640500,4.301640625,0.0001331541279796511,0.0002663082559593022,-0.0003994623839389533
1772571931334573000,4.311572998046875,0.0011983871227130294,0.0002663082559593022,-0.0003994623839389533
1772571931344513800,4.321513671875,0.0001331541279796511,0.0002663082559593022,0.000665770610794425
1772571931354447400,4.331447265625,0.0001331541279796511,0.0002663082559593022,0.000665770610794425
1772571931364344300,4.34134423828125,0.0001331541279796511,0.0002663082559593022,0.000665770610794425
1772571931374274000,4.351274169921875,0.0011983871227130294,-0.0007989247678779066,0.0017310036346316338
1772571931384236000,4.361236083984375,0.0011983871227130294,-0.0007989247678779066,0.0017310036346316338
1772571931394149000,4.371149169921875,0.0001331541279796511,0.0002663082559593022,0.000665770610794425
1772571931414035500,4.391035400390625,-0.001997311832383275,0.0002663082559593022,-0.0003994623839389533
1772571931423970600,4.400970458984375,0.0001331541279796511,0.0002663082559593022,0.0017310036346316338
1772571931433896200,4.410896240234375,0.0001331541279796511,0.0002663082559593022,0.000665770610794425
1772571931443830300,4.420830322265625,0.0011983871227130294,0.0002663082559593022,0.000665770610794425
1772571931453761000,4.430760986328125,0.0001331541279796511,0.00133154122158885,0.000665770610794425
1772571931463694800,4.44069482421875,-0.0009320789249613881,0.0002663082559593022,0.0017310036346316338
1772571931473604000,4.45060400390625,-0.0009320789249613881,0.0002663082559593022,0.000665770610794425
1772571931483535400,4.460535400390625,0.0001331541279796511,0.00133154122158885,0.000665770610794425
1772571931493501200,4.470501220703125,0.0001331541279796511,0.00133154122158885,0.000665770610794425
1772571931503436000,4.48043603515625,-0.0009320789249613881,0.0002663082559593022,0.000665770610794425
1772571931513337300,4.49033740234375,0.0001331541279796511,0.00133154122158885,-0.0003994623839389533
1772571931523268600,4.5002685546875,0.0001331541279796511,-0.0007989247678779066,-0.0014646954368799925
1772571931533209600,4.510209716796875,0.0011983871227130294,0.0002663082559593022,-0.0014646954368799925
1772571931543142100,4.52014208984375,0.0001331541279796511,0.0002663082559593022,0.000665770610794425
1772571931553060900,4.530060791015625,0.0001331541279796511,-0.0007989247678779066,-0.0003994623839389533
1772571931562991900,4.539991943359375,0.0001331541279796511,0.00133154122158885,0.000665770610794425
1772571931572930000,4.549929931640625,0.0001331541279796511,-0.0007989247678779066,0.0017310036346316338
1772571931582861800,4.55986181640625,0.0011983871227130294,0.0002663082559593022,-0.0003994623839389533
1772571931592800000,4.569800048828125,0.0011983871227130294,0.0002663082559593022,0.000665770610794425
1772571931602732300,4.579732177734375,-0.0009320789249613881,0.00133154122158885,0.000665770610794425
1772571931612659200,4.5896591796875,0.0001331541279796511,0.00133154122158885,-0.0014646954368799925
1772571931622591000,4.599591064453125,0.0001331541279796511,0.0002663082559593022,-0.0014646954368799925
1772571931632525300,4.609525390625,0.0001331541279796511,0.0002663082559593022,0.000665770610794425
1772571931642457300,4.619457275390625,0.0001331541279796511,-0.0007989247678779066,0.000665770610794425
1772571931652409000,4.6294091796875,0.0001331541279796511,0.00133154122158885,-0.0003994623839389533
1772571931662343200,4.63934326171875,0.0001331541279796511,-0.0007989247678779066,-0.0014646954368799925
1772571931672255700,4.649255859375,-0.0009320789249613881,0.0002663082559593022,0.000665770610794425
1772571931682187800,4.659187744140625,-0.0009320789249613881,0.00133154122158885,-0.0003994623839389533
1772571931692129500,4.669129638671875,0.0011983871227130294,0.0002663082559593022,-0.0003994623839389533
1772571931702062300,4.679062255859375,-0.0009320789249613881,0.00133154122158885,0.0017310036346316338
1772571931712011000,4.689010986328125,0.0001331541279796511,-0.0018641578499227762,-0.0003994623839389533
1772571931721945300,4.6989453125,-0.0009320789249613881,0.0002663082559593022,-0.0014646954368799925
1772571931731877000,4.708877197265625,0.0001331541279796511,0.0002663082559593022,-0.0003994623839389533
1772571931741811500,4.7188115234375,0.0001331541279796511,0.0002663082559593022,-0.0014646954368799925
1772571931761676000,4.738676025390625,-0.0009320789249613881,0.0002663082559593022,0.000665770610794425
1772571931771606800,4.748606689453125,0.0011983871227130294,0.0002663082559593022,0.000665770610794425
1772571931781540400,4.758540283203125,0.0011983871227130294,0.00133154122158885,-0.0003994623839389533
1772571931791471900,4.768471923828125,0.0001331541279796511,0.0002663082559593022,0.000665770610794425
1772571931801405400,4.778405517578125,0.0001331541279796511,-0.0007989247678779066,-0.0003994623839389533
1772571931811353300,4.788353271484375,0.0001331541279796511,0.0002663082559593022,0.000665770610794425
1772571931821288200,4.7982880859375,0.0001331541279796511,0.0023967742454260588,0.000665770610794425
1772571931831179800,4.8081796875,0.0001331541279796511,0.0002663082559593022,0.000665770610794425
1772571931841110300,4.8181103515625,0.0001331541279796511,-0.0007989247678779066,-0.0003994623839389533
1772571931851076900,4.828076904296875,0.0001331541279796511,0.00133154122158885,0.000665770610794425
1772571931861011200,4.83801123046875,0.0001331541279796511,0.0002663082559593022,0.000665770610794425
1772571931870918100,4.847918212890625,0.0011983871227130294,-0.0007989247678779066,0.000665770610794425
1772571931880849200,4.85784912109375,0.0001331541279796511,-0.0007989247678779066,-0.0003994623839389533
1772571931890809900,4.867809814453125,0.0011983871227130294,-0.0007989247678779066,-0.0014646954368799925
1772571931900744000,4.877743896484375,0.0011983871227130294,-0.0007989247678779066,-0.0003994623839389533
1772571931910666200,4.887666259765625,-0.0009320789249613881,-0.0007989247678779066,0.000665770610794425
1772571931920599600,4.897599609375,-0.001997311832383275,0.0002663082559593022,-0.0003994623839389533
1772571931930531300,4.90753125,0.0001331541279796511,0.00133154122158885,-0.0014646954368799925
1772571931940464400,4.91746435546875,0.0001331541279796511,0.0002663082559593022,-0.0003994623839389533
1772571931950371300,4.927371337890625,0.0011983871227130294,0.00133154122158885,0.000665770610794425
1772571931960301800,4.9373017578125,-0.0009320789249613881,0.0002663082559593022,-0.0014646954368799925
1772571931970261000,4.947260986328125,0.0001331541279796511,0.0002663082559593022,0.0017310036346316338
1772571931980194300,4.9571943359375,0.0001331541279796511,0.0002663082559593022,-0.0003994623839389533
1772571931990130200,4.967130126953125,0.0001331541279796511,0.0002663082559593022,-0.0003994623839389533
1772571932000063700,4.977063720703125,0.0011983871227130294,0.0002663082559593022,-0.0014646954368799925
1772571932009995000,4.9869951171875,0.0011983871227130294,0.0002663082559593022,0.000665770610794425
1772571932019928300,4.99692822265625,-0.0009320789249613881,0.0002663082559593022,0.0017310036346316338
1772571932029833500,5.00683349609375,0.0001331541279796511,0.0002663082559593022,-0.0003994623839389533
1772571932039764000,5.016763916015625,0.0001331541279796511,0.0002663082559593022,-0.0003994623839389533
1772571932049720300,5.02672021484375,0.0001331541279796511,0.0002663082559593022,0.000665770610794425
1772571932059653600,5.036653564453125,0.0011983871227130294,0.00133154122158885,-0.0003994623839389533
1772571932069595600,5.046595703125,0.0011983871227130294,0.00133154122158885,-0.0003994623839389533
1772571932079529700,5.05652978515625,0.0011983871227130294,-0.0007989247678779066,-0.0003994623839389533
1772571932089459000,5.066458984375,0.0001331541279796511,-0.0007989247678779066,-0.0014646954368799925
1772571932099392300,5.076392333984375,0.0001331541279796511,-0.0007989247678779066,-0.0014646954368799925
1772571932109317000,5.086317138671875,0.0011983871227130294,0.0002663082559593022,-0.0003994623839389533
1772571932119249700,5.096249755859375,0.0011983871227130294,0.0002663082559593022,0.000665770610794425
1772571932129157600,5.10615771484375,-0.0009320789249613881,0.00133154122158885,0.000665770610794425
1772571932139088000,5.116087890625,0.0001331541279796511,0.00133154122158885,0.000665770610794425
1772571932149047000,5.126047119140625,0.0001331541279796511,-0.0007989247678779066,-0.0003994623839389533
1772571932158980000,5.13597998046875,-0.0009320789249613881,0.0002663082559593022,-0.0003994623839389533
1772571932168926700,5.1459267578125,-0.0009320789249613881,0.00133154122158885,0.000665770610794425
1772571932178861000,5.155861083984375,0.0001331541279796511,0.0002663082559593022,-0.0003994623839389533
1772571932188777500,5.165777587890625,-0.0009320789249613881,0.0002663082559593022,0.000665770610794425
1772571932198710000,5.1757099609375,0.0001331541279796511,0.0002663082559593022,0.000665770610794425
1772571932208643300,5.185643310546875,0.0011983871227130294,0.0002663082559593022,-0.0003994623839389533
1772571932218576100,5.195576171875,0.0001331541279796511,0.0002663082559593022,-0.0003994623839389533
1772571932228522200,5.205522216796875,0.0001331541279796511,0.0002663082559593022,0.000665770610794425
1772571932238456300,5.215456298828125,-0.0009320789249613881,0.0002663082559593022,0.000665770610794425
1772571932248352300,5.225352294921875,-0.0009320789249613881,0.00133154122158885,-0.0003994623839389533
1772571932258282500,5.235282470703125,-0.0009320789249613881,0.0002663082559593022,0.000665770610794425
1772571932268244000,5.245243896484375,0.0001331541279796511,0.0002663082559593022,-0.0003994623839389533
1772571932278177500,5.255177490234375,0.0001331541279796511,0.00133154122158885,-0.0003994623839389533
1772571932288106200,5.265106201171875,0.0001331541279796511,0.0002663082559593022,-0.0003994623839389533
1772571932298039000,5.2750390625,0.0011983871227130294,0.0002663082559593022,0.000665770610794425
1772571932307952600,5.28495263671875,0.0001331541279796511,0.0002663082559593022,0.000665770610794425
1772571932317883600,5.294883544921875,0.0001331541279796511,-0.0007989247678779066,-0.0003994623839389533
1772571932327836700,5.304836669921875,0.0001331541279796511,0.0002663082559593022,-0.0014646954368799925
1772571932337769700,5.314769775390625,-0.0009320789249613881,0.00133154122158885,0.000665770610794425
1772571932347703300,5.324703369140625,0.0001331541279796511,0.0002663082559593022,0.000665770610794425
1772571932357636600,5.33463671875,0.0001331541279796511,-0.0007989247678779066,-0.0003994623839389533
1772571932367585300,5.344585205078125,0.0001331541279796511,0.0002663082559593022,-0.0014646954368799925
1772571932377520000,5.35452001953125,0.0011983871227130294,-0.0007989247678779066,-0.0014646954368799925
1772571932387407000,5.364406982421875,0.0001331541279796511,-0.0007989247678779066,-0.0003994623839389533
1772571932397337300,5.37433740234375,0.0001331541279796511,0.0002663082559593022,0.0017310036346316338
1772571932407291600,5.384291748046875,0.0011983871227130294,-0.0007989247678779066,0.000665770610794425
1772571932417224000,5.394223876953125,0.0001331541279796511,0.0002663082559593022,-0.0003994623839389533
1772571932427137300,5.40413720703125,-0.0009320789249613881,-0.0007989247678779066,0.000665770610794425
1772571932437067500,5.414067626953125,0.0001331541279796511,0.0002663082559593022,0.000665770610794425
1772571932447039700,5.424039794921875,0.0001331541279796511,0.0002663082559593022,0.000665770610794425
1772571932456974600,5.433974609375,0.0001331541279796511,0.0002663082559593022,0.000665770610794425
1772571932466897400,5.4438974609375,0.0001331541279796511,-0.0007989247678779066,-0.0003994623839389533
1772571932476830700,5.453830810546875,0.0001331541279796511,-0.0007989247678779066,-0.0003994623839389533
1772571932486756600,5.463756591796875,0.0001331541279796511,0.0002663082559593022,0.000665770610794425
1772571932496689400,5.473689453125,-0.0009320789249613881,0.0002663082559593022,0.0017310036346316338
1772571932506622000,5.4836220703125,0.0001331541279796511,0.0002663082559593022,0.000665770610794425
1772571932516554800,5.4935546875,-0.0009320789249613881,-0.0007989247678779066,-0.0003994623839389533
1772571932526499600,5.50349951171875,0.0011983871227130294,-0.0007989247678779066,-0.0014646954368799925
1772571932546357800,5.523357666015625,0.0001331541279796511,0.0002663082559593022,-0.0003994623839389533
1772571932556290600,5.53329052734375,-0.0009320789249613881,-0.0007989247678779066,-0.0014646954368799925
1772571932566223600,5.5432236328125,0.0001331541279796511,0.0002663082559593022,-0.0003994623839389533
1772571932576156400,5.553156494140625,0.0001331541279796511,0.00133154122158885,0.000665770610794425
1772571932586089500,5.56308935546875,0.0001331541279796511,0.0002663082559593022,0.000665770610794425
1772571932596022500,5.5730224609375,0.0011983871227130294,0.00133154122158885,0.000665770610794425
1772571932605948200,5.5829482421875,0.0001331541279796511,0.0002663082559593022,0.000665770610794425
1772571932615880400,5.59288037109375,-0.0009320789249613881,0.0002663082559593022,0.000665770610794425
1772571932625819600,5.602819580078125,0.0001331541279796511,-0.0007989247678779066,-0.0003994623839389533
1772571932635752700,5.612752685546875,0.0001331541279796511,-0.0007989247678779066,-0.0003994623839389533
1772571932645659000,5.622658935546875,0.0001331541279796511,0.0002663082559593022,0.0017310036346316338
1772571932655589000,5.632589111328125,0.0001331541279796511,0.0002663082559593022,-0.0003994623839389533
1772571932665544400,5.64254443359375,0.0001331541279796511,0.0002663082559593022,-0.0003994623839389533
1772571932675477200,5.652477294921875,0.0001331541279796511,0.0002663082559593022,0.000665770610794425
1772571932685419800,5.662419677734375,0.0001331541279796511,0.0002663082559593022,0.0017310036346316338
1772571932695353600,5.672353515625,0.0011983871227130294,0.0002663082559593022,0.000665770610794425
1772571932705271300,5.682271240234375,0.0011983871227130294,-0.0007989247678779066,-0.0003994623839389533
1772571932715203300,5.692203369140625,-0.0009320789249613881,-0.0007989247678779066,0.0017310036346316338
1772571932725122800,5.702122802734375,0.0011983871227130294,0.00133154122158885,0.000665770610794425
1772571932735053800,5.7120537109375,0.0011983871227130294,0.0002663082559593022,-0.0014646954368799925
1772571932744992000,5.721991943359375,0.0001331541279796511,-0.0007989247678779066,-0.0003994623839389533
1772571932754923500,5.731923583984375,0.0001331541279796511,0.0002663082559593022,0.0017310036346316338
1772571932764855600,5.74185546875,0.0011983871227130294,-0.0007989247678779066,-0.0003994623839389533
1772571932774787000,5.751787109375,0.0001331541279796511,0.0002663082559593022,-0.0003994623839389533
1772571932784718600,5.761718505859375,-0.0009320789249613881,0.0002663082559593022,0.000665770610794425
1772571932794650000,5.771650146484375,0.0001331541279796511,0.00133154122158885,-0.0003994623839389533
1772571932804582100,5.78158203125,-0.0009320789249613881,0.0023967742454260588,0.000665770610794425
1772571932814513700,5.791513671875,0.0001331541279796511,0.0002663082559593022,0.000665770610794425
1772571932824451300,5.801451416015625,0.0011983871227130294,-0.0007989247678779066,-0.0014646954368799925
1772571932834383400,5.81138330078125,0.0011983871227130294,0.0002663082559593022,-0.0003994623839389533
1772571932844315600,5.821315673828125,0.0001331541279796511,-0.0007989247678779066,0.000665770610794425
1772571932854248000,5.831248046875,0.0001331541279796511,-0.0007989247678779066,-0.0003994623839389533
1772571932864178200,5.84117822265625,-0.0009320789249613881,0.00133154122158885,-0.0003994623839389533
1772571932874110200,5.851110107421875,0.0001331541279796511,-0.0007989247678779066,-0.0003994623839389533
1772571932884043500,5.86104345703125,0.0011983871227130294,-0.0007989247678779066,-0.0003994623839389533
1772571932893975600,5.8709755859375,0.0001331541279796511,0.00133154122158885,0.000665770610794425
1772571932903940900,5.88094091796875,-0.0009320789249613881,0.0002663082559593022,-0.0003994623839389533
1772571932913876200,5.890876220703125,0.0001331541279796511,0.0002663082559593022,-0.0003994623839389533
1772571932923791400,5.900791259765625,0.0001331541279796511,0.0002663082559593022,-0.0003994623839389533
1772571932933725000,5.910724853515625,-0.0009320789249613881,0.0023967742454260588,-0.0003994623839389533
1772571932943663600,5.92066357421875,0.0001331541279796511,0.00133154122158885,0.000665770610794425
1772571932953597700,5.93059765625,0.0011983871227130294,-0.0007989247678779066,0.000665770610794425
1772571932963504000,5.940504150390625,0.0001331541279796511,-0.0007989247678779066,-0.0003994623839389533
1772571932973435400,5.950435302734375,0.0001331541279796511,-0.0007989247678779066,-0.0003994623839389533
1772571932983393000,5.96039306640625,0.0011983871227130294,0.0002663082559593022,0.000665770610794425
1772571932993326800,5.970326904296875,0.0001331541279796511,0.00133154122158885,0.000665770610794425
1772571933003228000,5.980227783203125,-0.001997311832383275,0.0002663082559593022,-0.0003994623839389533
1772571933013158700,5.99015869140625,0.0001331541279796511,0.0002663082559593022,0.000665770610794425
1772571933023126800,6.000126708984375,0.0011983871227130294,0.00133154122158885,0.000665770610794425
1772571933033061000,6.01006103515625,-0.0009320789249613881,-0.0007989247678779066,-0.0003994623839389533
1772571933042989800,6.01998974609375,0.0001331541279796511,0.00133154122158885,-0.0014646954368799925
1772571933052923600,6.029923583984375,0.0001331541279796511,0.0023967742454260588,-0.0003994623839389533
1772571933062857200,6.039857177734375,0.0001331541279796511,0.0002663082559593022,-0.0014646954368799925
1772571933072791000,6.049791015625,0.0011983871227130294,-0.0007989247678779066,-0.0003994623839389533
1772571933082718500,6.059718505859375,0.0011983871227130294,0.00133154122158885,-0.0003994623839389533
1772571933092651800,6.06965185546875,0.0001331541279796511,0.00133154122158885,-0.0014646954368799925
1772571933102589200,6.079589111328125,0.0011983871227130294,0.0002663082559593022,-0.0003994623839389533
1772571933112523000,6.08952294921875,0.0011983871227130294,-0.0007989247678779066,0.000665770610794425
1772571933122420000,6.099419921875,0.0001331541279796511,-0.0007989247678779066,0.000665770610794425
1772571933132350000,6.109349853515625,-0.001997311832383275,0.0002663082559593022,-0.0014646954368799925
1772571933142318000,6.119318115234375,0.0001331541279796511,0.00133154122158885,-0.0014646954368799925
1772571933152251600,6.129251708984375,0.0011983871227130294,0.0002663082559593022,-0.0003994623839389533
1772571933162156800,6.13915673828125,0.0001331541279796511,0.0002663082559593022,-0.0014646954368799925
1772571933172087800,6.149087890625,0.0011983871227130294,0.00133154122158885,-0.0025299284607172012
1772571933182058200,6.159058349609375,0.0001331541279796511,0.0002663082559593022,-0.0003994623839389533
1772571933191993000,6.1689931640625,0.0001331541279796511,0.00133154122158885,-0.0003994623839389533
1772571933201915600,6.17891552734375,-0.0009320789249613881,0.0002663082559593022,-0.0003994623839389533
1772571933211849500,6.188849365234375,0.0001331541279796511,-0.0007989247678779066,-0.0014646954368799925
1772571933221779200,6.198779296875,0.0011983871227130294,0.00133154122158885,-0.0014646954368799925
1772571933231712500,6.20871240234375,0.0011983871227130294,-0.0007989247678779066,-0.0003994623839389533
1772571933241643800,6.218643798828125,0.0001331541279796511,0.0002663082559593022,-0.0003994623839389533
1772571933251576800,6.228576904296875,0.0001331541279796511,0.0002663082559593022,-0.0003994623839389533
1772571933261507600,6.238507568359375,0.0001331541279796511,0.0002663082559593022,-0.0014646954368799925
1772571933271440400,6.2484404296875,-0.0009320789249613881,-0.0007989247678779066,-0.0014646954368799925
1772571933281368300,6.258368408203125,0.0011983871227130294,0.0002663082559593022,-0.0003994623839389533
1772571933291300600,6.268300537109375,0.0001331541279796511,0.00133154122158885,0.000665770610794425
1772571933301212200,6.278212158203125,0.0001331541279796511,0.0002663082559593022,-0.0003994623839389533
1772571933311142700,6.288142578125,0.0001331541279796511,0.00133154122158885,0.000665770610794425
1772571933321098000,6.298097900390625,0.0001331541279796511,-0.0007989247678779066,0.000665770610794425
1772571933331030800,6.30803076171875,0.0011983871227130294,0.0002663082559593022,-0.0003994623839389533
1772571933340966100,6.317966064453125,0.0001331541279796511,-0.0007989247678779066,-0.0014646954368799925
1772571933350899200,6.327899169921875,0.0001331541279796511,0.0023967742454260588,-0.0003994623839389533
1772571933360836900,6.3378369140625,-0.0009320789249613881,0.00133154122158885,-0.0003994623839389533
1772571933370770400,6.3477705078125,0.0001331541279796511,-0.0007989247678779066,0.000665770610794425
1772571933380693500,6.357693603515625,-0.0009320789249613881,0.0002663082559593022,-0.0003994623839389533
1772571933390626000,6.3676259765625,0.0011983871227130294,0.0002663082559593022,-0.0003994623839389533
1772571933400558300,6.377558349609375,0.0011983871227130294,0.0002663082559593022,-0.0025299284607172012
1772571933410454800,6.387454833984375,-0.0010652330238372087,0,-0.00133154122158885
1772571933430356500,6.4073564453125,0.0010652330238372087,-0.0021304660476744175,-0.0002663082559593022
1772571933440291800,6.417291748046875,0.0010652330238372087,-0.0021304660476744175,0.0007989247678779066
1772571933450221000,6.427220947265625,0,0,-0.00133154122158885
1772571933460156200,6.43715625,0,0,-0.0023967742454260588
1772571933470094600,6.447094482421875,-0.0010652330238372087,-0.0021304660476744175,-0.0002663082559593022
1772571933480030000,6.457030029296875,0,0,0.0007989247678779066
1772571933489960400,6.46696044921875,0,-0.0010652330238372087,-0.0002663082559593022
1772571933499895000,6.47689501953125,-0.0010652330238372087,0.0010652330238372087,-0.0002663082559593022
1772571933509819400,6.4868193359375,0.0010652330238372087,0,-0.0002663082559593022
1772571933519753200,6.496753173828125,0,0,-0.0002663082559593022
1772571933529659000,6.506658935546875,0,0.0010652330238372087,-0.0002663082559593022
1772571933539590000,6.51658984375,0.0010652330238372087,0,-0.0002663082559593022
1772571933549548300,6.52654833984375,0,0.0010652330238372087,-0.00133154122158885
1772571933559481900,6.53648193359375,0,0.0010652330238372087,0.0007989247678779066
1772571933569415700,6.546415771484375,0,0,0.0007989247678779066
1772571933579349500,6.556349609375,0,-0.0010652330238372087,0.0007989247678779066
1772571933589283300,6.566283447265625,0.0010652330238372087,0.0010652330238372087,-0.0002663082559593022
1772571933599217200,6.576217041015625,0,0,-0.0002663082559593022
1772571933609150700,6.586150634765625,-0.0010652330238372087,0.0010652330238372087,-0.0002663082559593022
1772571933619084500,6.59608447265625,0,0,-0.0002663082559593022
1772571933628985900,6.60598583984375,0.0010652330238372087,0,-0.00133154122158885
1772571933638916400,6.615916259765625,0,0,-0.00133154122158885
1772571933648878600,6.625878662109375,-0.0010652330238372087,-0.0010652330238372087,-0.00133154122158885
1772571933658812400,6.6358125,0.0010652330238372087,0,0.0007989247678779066
1772571933668746200,6.645746337890625,0,0.0010652330238372087,-0.0002663082559593022
1772571933678679800,6.6556796875,0.0010652330238372087,0.0021304660476744175,-0.0002663082559593022
1772571933688610000,6.665610107421875,0,0,0.0007989247678779066
1772571933698543400,6.67554345703125,0.0010652330238372087,0,0.0007989247678779066
1772571933708479700,6.685479736328125,0,0.0010652330238372087,-0.0002663082559593022
1772571933718413600,6.69541357421875,-0.0010652330238372087,0,0.0007989247678779066
1772571933728350500,6.7053505859375,0,0,-0.0002663082559593022
1772571933738284500,6.715284423828125,0,0.0010652330238372087,0.0007989247678779066
1772571933748204800,6.725204833984375,0.0010652330238372087,0,-0.0002663082559593022
1772571933758137600,6.7351376953125,-0.0010652330238372087,-0.0010652330238372087,0.0007989247678779066
1772571933768084200,6.745084228515625,0,0,0.0007989247678779066
1772571933778018300,6.755018310546875,0.0010652330238372087,0,-0.00133154122158885
1772571933787911700,6.76491162109375,0,0.0010652330238372087,-0.00133154122158885
1772571933797841700,6.774841552734375,0,0,0.0007989247678779066
1772571933807822300,6.784822265625,-0.0010652330238372087,0.0010652330238372087,0.0007989247678779066
1772571933817757200,6.794757080078125,0,0.0010652330238372087,-0.0002663082559593022
1772571933827641600,6.8046416015625,0,0,-0.0002663082559593022
1772571933837571600,6.814571533203125,-0.0010652330238372087,0.0010652330238372087,-0.0002663082559593022
1772571933847506700,6.824506591796875,0,0.0021304660476744175,-0.0002663082559593022
1772571933857437000,6.83443701171875,0,-0.0010652330238372087,-0.00133154122158885
1772571933867399200,6.844399169921875,-0.0010652330238372087,0,-0.0002663082559593022
1772571933877332700,6.854332763671875,0,0,-0.0002663082559593022
1772571933887257000,6.864257080078125,0,0,0.0007989247678779066
1772571933897190000,6.87418994140625,0,0.0010652330238372087,-0.0002663082559593022
1772571933907128800,6.88412890625,0,-0.0010652330238372087,-0.0002663082559593022
1772571933917062100,6.894062255859375,0,0.0010652330238372087,-0.00133154122158885
1772571933926968800,6.90396875,0,0,0.0007989247678779066
1772571933936899300,6.9138994140625,0,0,0.0007989247678779066
1772571933946839600,6.923839599609375,0.0010652330238372087,0,0.0007989247678779066
1772571933956771300,6.933771240234375,0.0010652330238372087,0,-0.0002663082559593022
1772571933966702800,6.943702880859375,0.0010652330238372087,0,-0.0002663082559593022
1772571933976634400,6.95363427734375,0,0,-0.0002663082559593022
1772571933986569500,6.963569580078125,0,0,0.0007989247678779066
1772571933996501500,6.97350146484375,0,-0.0010652330238372087,0.0007989247678779066
1772571934006436600,6.9834365234375,0.0010652330238372087,-0.0021304660476744175,-0.0002663082559593022
1772571934016369000,6.993368896484375,0,-0.0010652330238372087,0.0007989247678779066
1772571934026336800,7.003336669921875,-0.0010652330238372087,-0.0010652330238372087,0.0007989247678779066
1772571934036272600,7.013272705078125,-0.0010652330238372087,0,-0.0002663082559593022
1772571934046167600,7.02316748046875,0,0,-0.0002663082559593022
1772571934056099300,7.033099365234375,0.0010652330238372087,0,-0.0002663082559593022
1772571934066027300,7.04302734375,-0.0010652330238372087,0,-0.00133154122158885
1772571934075958800,7.052958740234375,0.0010652330238372087,-0.0010652330238372087,-0.0002663082559593022
1772571934085885400,7.062885498046875,-0.0010652330238372087,0,-0.0002663082559593022
1772571934095816400,7.07281640625,0,-0.0010652330238372087,-0.0002663082559593022
1772571934105755100,7.082755126953125,0,-0.0010652330238372087,-0.00133154122158885
1772571934115686700,7.092686767578125,0,0,0.0007989247678779066
1772571934125645600,7.1026455078125,-0.0010652330238372087,-0.0010652330238372087,-0.00133154122158885
1772571934135580000,7.112579833984375,0,0,-0.00133154122158885
1772571934145498600,7.12249853515625,0.0010652330238372087,-0.0010652330238372087,-0.0002663082559593022
1772571934155431400,7.132431396484375,0,0,-0.0002663082559593022
1772571934165383400,7.142383544921875,0,0.0010652330238372087,0.0007989247678779066
1772571934175318000,7.152318115234375,0.0010652330238372087,0,-0.0002663082559593022
1772571934185241900,7.162241943359375,0.0010652330238372087,0,0.0007989247678779066
1772571934195175400,7.172175537109375,-0.0010652330238372087,0.0021304660476744175,-0.0002663082559593022
1772571934205079800,7.182079833984375,0,0.0010652330238372087,0.0007989247678779066
1772571934215010300,7.19201025390625,0,0,0.0007989247678779066
1772571934224943900,7.20194384765625,0,0,0.0007989247678779066
1772571934234875000,7.211875,0,0,0.0007989247678779066
1772571934244809000,7.22180908203125,0,0.0010652330238372087,0.0007989247678779066
1772571934254740200,7.231740234375,0,-0.0021304660476744175,-0.00133154122158885
1772571934264702500,7.241702392578125,0,0,-0.0002663082559593022
1772571934274636800,7.25163671875,0,0,0.0018641578499227762
1772571934284563500,7.2615634765625,-0.0010652330238372087,0,0.0007989247678779066
1772571934294497000,7.2714970703125,0,0,-0.0002663082559593022
1772571934304429800,7.281429931640625,0,0,-0.0002663082559593022
1772571934314363400,7.29136328125,-0.0010652330238372087,-0.0010652330238372087,-0.00133154122158885
1772571934324292000,7.3012919921875,-0.0021304660476744175,-0.0010652330238372087,-0.0002663082559593022
1772571934334225200,7.31122509765625,0,-0.0010652330238372087,0.0007989247678779066
1772571934344160800,7.321160888671875,0,0,0.0007989247678779066
1772571934354094000,7.331093994140625,0,-0.0010652330238372087,-0.0002663082559593022
1772571934364006000,7.341005859375,0.0010652330238372087,-0.0010652330238372087,0.0007989247678779066
1772571934373937200,7.350937255859375,0,-0.0010652330238372087,-0.0002663082559593022
1772571934383896300,7.360896240234375,-0.0010652330238372087,0.0010652330238372087,0.0007989247678779066
1772571934393830100,7.370830078125,0,0.0010652330238372087,-0.00133154122158885
1772571934403744800,7.380744873046875,0.0010652330238372087,0.0010652330238372087,-0.0002663082559593022
1772571934413676800,7.3906767578125,0.0010652330238372087,0,-0.00133154122158885
1772571934423628800,7.40062890625,0,0.0021304660476744175,-0.0002663082559593022
1772571934433563000,7.41056298828125,0,0,-0.00133154122158885
1772571934443501800,7.420501708984375,0.0021304660476744175,-0.0010652330238372087,-0.00133154122158885
1772571934453436200,7.430436279296875,-0.0010652330238372087,-0.0010652330238372087,-0.0002663082559593022
1772571934463326200,7.440326171875,-0.0010652330238372087,0.0010652330238372087,-0.0002663082559593022
1772571934473256200,7.450256103515625,0.0010652330238372087,0,0.0007989247678779066
1772571934483218200,7.46021826171875,-0.0010652330238372087,0,0.0007989247678779066
1772571934493151500,7.4701513671875,0,0,-0.0002663082559593022
1772571934503057700,7.4800576171875,0,0.0010652330238372087,-0.0002663082559593022
1772571934512988400,7.489988525390625,0,0,-0.0002663082559593022
1772571934522954000,7.4999541015625,0,0,-0.0002663082559593022
1772571934532888000,7.50988818359375,-0.0010652330238372087,0.0010652330238372087,-0.0002663082559593022
1772571934542817800,7.51981787109375,-0.0010652330238372087,0,-0.0002663082559593022
1772571934552751600,7.529751708984375,0,0,-0.00133154122158885
1772571934562687000,7.53968701171875,0,-0.0010652330238372087,-0.00133154122158885
1772571934572620800,7.549620849609375,0,-0.0010652330238372087,-0.0002663082559593022
1772571934582551300,7.55955126953125,0,-0.0010652330238372087,-0.0002663082559593022
1772571934592484600,7.569484619140625,0,0,0.0007989247678779066
1772571934602384100,7.579384033203125,0,0,-0.0002663082559593022
1772571934612314000,7.589314208984375,-0.0010652330238372087,-0.0010652330238372087,-0.0002663082559593022
1772571934622252500,7.59925244140625,0,0.0010652330238372087,0.0007989247678779066
1772571934632183300,7.609183349609375,0,-0.0010652330238372087,0.0007989247678779066
1772571934642141000,7.619140869140625,-0.0010652330238372087,0,-0.0002663082559593022
1772571934652074500,7.629074462890625,0.0021304660476744175,0,-0.00133154122158885
1772571934662012000,7.639011962890625,0.0010652330238372087,-0.0010652330238372087,-0.00133154122158885
1772571934671946000,7.648946044921875,0,0,0.0007989247678779066
1772571934681872100,7.6588720703125,0.0010652330238372087,0,0.0007989247678779066
1772571934691805400,7.668805419921875,0.0010652330238372087,0.0010652330238372087,-0.0002663082559593022
1772571934701676500,7.678676513671875,0,0.0010652330238372087,-0.0002663082559593022
1772571934711603500,7.688603515625,0,-0.0010652330238372087,-0.0002663082559593022
1772571934721607400,7.698607421875,0.0010652330238372087,-0.0010652330238372087,-0.0002663082559593022
1772571934731542000,7.7085419921875,0,0.0010652330238372087,-0.0002663082559593022
1772571934741476600,7.7184765625,-0.0010652330238372087,0,-0.0002663082559593022
1772571934751411200,7.7284111328125,0,0,0.0007989247678779066
1772571934761305000,7.73830517578125,0.0010652330238372087,-0.0010652330238372087,-0.0002663082559593022
1772571934771235600,7.748235595703125,0,0,-0.0002663082559593022
1772571934781200000,7.758199951171875,0,0,-0.0002663082559593022
1772571934791133700,7.7681337890625,0.0010652330238372087,0,-0.0002663082559593022
1772571934801072600,7.77807275390625,0,0,0.0007989247678779066
1772571934811007000,7.788007080078125,0.0010652330238372087,0,-0.0002663082559593022
1772571934820930000,7.797929931640625,0,-0.0010652330238372087,-0.00133154122158885
1772571934830863400,7.80786328125,0,0,-0.0002663082559593022
1772571934840800800,7.81780078125,0,-0.0010652330238372087,-0.0002663082559593022
1772571934850734600,7.827734619140625,0,0,-0.0002663082559593022
1772571934860686000,7.83768603515625,0,0,-0.0002663082559593022
1772571934870621400,7.847621337890625,0.0010652330238372087,0,-0.0002663082559593022
1772571934880526000,7.857526123046875,0.0010652330238372087,-0.0010652330238372087,-0.00133154122158885
1772571934890458600,7.867458740234375,0,-0.0010652330238372087,-0.0002663082559593022
1772571934900399000,7.877399169921875,0,-0.0010652330238372087,-0.00133154122158885
1772571934910332200,7.887332275390625,-0.0010652330238372087,0,0.0007989247678779066
1772571934920238000,7.897238037109375,0.0010652330238372087,0,0.0007989247678779066
1772571934930168600,7.90716845703125,0,0,-0.0002663082559593022
1772571934940121300,7.917121337890625,0,-0.0010652330238372087,-0.0002663082559593022
1772571934950054000,7.927053955078125,-0.0010652330238372087,0.0010652330238372087,0.0007989247678779066
1772571934959963600,7.936963623046875,0,0,0.0007989247678779066
1772571934969894100,7.94689404296875,0,-0.0010652330238372087,0.0007989247678779066
1772571934979852500,7.9568525390625,-0.0021304660476744175,0.0010652330238372087,-0.0002663082559593022
1772571934989785600,7.96678564453125,0,0,-0.00133154122158885
1772571934999690000,7.97668994140625,0.0010652330238372087,0,-0.0002663082559593022
1772571935009620200,7.9866201171875,0,0,-0.00133154122158885
1772571935019592700,7.9965927734375,-0.0010652330238372087,0,0.0007989247678779066
1772571935029527000,8.006527099609375,0,0,0.0007989247678779066
1772571935039447000,8.016447021484375,0,0,-0.0002663082559593022
1772571935049380000,8.026380126953125,0,0,-0.0002663082559593022
1772571935059320000,8.036320068359375,0.0010652330238372087,0,-0.00133154122158885
1772571935069254000,8.04625390625,0,0,-0.0002663082559593022
1772571935079181000,8.05618115234375,0,0,-0.0002663082559593022
1772571935089114400,8.0661142578125,0,0.0010652330238372087,-0.0002663082559593022
1772571935099050800,8.07605078125,0,0.0010652330238372087,-0.0002663082559593022
1772571935108984000,8.085984130859375,0,-0.0010652330238372087,-0.00133154122158885
1772571935118884600,8.095884521484376,0,0,-0.0002663082559593022
1772571935128814600,8.105814697265625,-0.0010652330238372087,0,0.0007989247678779066
1772571935138756400,8.11575634765625,0.0010652330238372087,-0.0010652330238372087,-0.0002663082559593022
1772571935148687600,8.1256875,0,0,-0.00133154122158885
1772571935158619100,8.135619140625,0.0010652330238372087,-0.0010652330238372087,-0.0023967742454260588
1772571935168550700,8.145550537109376,0,0,-0.0002663082559593022
1772571935178486500,8.155486572265625,-0.0010652330238372087,0,-0.0002663082559593022
1772571935188418300,8.165418212890625,0,0.0010652330238372087,-0.00133154122158885
1772571935198345700,8.175345703125,0,0.0010652330238372087,-0.0002663082559593022
1772571935208277000,8.185277099609374,-0.0010652330238372087,0.0010652330238372087,0.0007989247678779066
1772571935218211800,8.1952119140625,0,0,-0.00133154122158885
1772571935228143600,8.2051435546875,0,0,0.0007989247678779066
1772571935238109700,8.215109619140625,0.0010652330238372087,0,-0.0002663082559593022
1772571935248045000,8.225045166015626,-0.0010652330238372087,0,-0.0002663082559593022
1772571935257939200,8.234939208984375,0,-0.0010652330238372087,-0.0002663082559593022
1772571935267870500,8.244870361328125,0,-0.0010652330238372087,-0.0002663082559593022
1772571935277809700,8.2548095703125,0,0,-0.0002663082559593022
1772571935287741700,8.26474169921875,0,0.0010652330238372087,-0.00133154122158885
1772571935297706000,8.2747060546875,0,0,-0.0002663082559593022
1772571935307641000,8.28464111328125,0,0,-0.0002663082559593022
1772571935317558500,8.29455859375,-0.0010652330238372087,0,-0.0023967742454260588
1772571935327491800,8.304491943359375,0,0,-0.00133154122158885
1772571935337428000,8.314427978515624,0.0010652330238372087,-0.0010652330238372087,0.0007989247678779066
1772571935347361500,8.324361572265625,0,-0.0010652330238372087,-0.00133154122158885
1772571935357295600,8.334295654296875,0,0,-0.0002663082559593022
1772571935367229200,8.344229248046876,0.0010652330238372087,0.0010652330238372087,0.0007989247678779066
1772571935377187000,8.35418701171875,0.0010652330238372087,0,-0.0002663082559593022
1772571935387123000,8.364123046875,0,0,-0.0002663082559593022
1772571935396993500,8.37399365234375,0,0.0010652330238372087,-0.0002663082559593022
1772571935406923300,8.38392333984375,0.0010652330238372087,0,-0.00133154122158885
1772571935416890400,8.393890380859375,0.0010652330238372087,0.0010652330238372087,-0.0002663082559593022
1772571935426823700,8.40382373046875,0.0010652330238372087,0,-0.0002663082559593022
1772571935436747000,8.4137470703125,-0.0010652330238372087,0,-0.0002663082559593022
1772571935446679300,8.42367919921875,-0.0010652330238372087,-0.0010652330238372087,-0.0002663082559593022
1772571935456618800,8.43361865234375,0,0,0.0007989247678779066
1772571935466551800,8.4435517578125,-0.0010652330238372087,0.0010652330238372087,-0.0002663082559593022
1772571935476487700,8.45348779296875,0,0,0.0007989247678779066
1772571935486421000,8.4634208984375,0,-0.0010652330238372087,0.0007989247678779066
1772571935496320000,8.473320068359374,-0.0010652330238372087,0,-0.0023967742454260588
1772571935506250000,8.48325,0,0.0010652330238372087,-0.0002663082559593022
1772571935516214300,8.49321435546875,0,0.0031956990715116262,0.0007989247678779066
1772571935526147600,8.503147705078124,0,0,0.0007989247678779066
1772571935536081200,8.5130810546875,0.0010652330238372087,-0.0021304660476744175,-0.0002663082559593022
1772571935546014500,8.523014404296875,0,0,0.0007989247678779066
1772571935555949300,8.53294921875,0,-0.0010652330238372087,0.0007989247678779066
1772571935565883000,8.5428828125,0,0,0.0007989247678779066
1772571935575807000,8.552806884765625,0,-0.0010652330238372087,0.0007989247678779066
1772571935585739500,8.562739501953125,0,0,0.0007989247678779066
1772571935595682300,8.572682373046876,0.0010652330238372087,0.0010652330238372087,0.0007989247678779066
1772571935605615900,8.582615966796874,0.0021304660476744175,0,0.0007989247678779066
1772571935615535000,8.59253515625,0.0010652330238372087,0.0010652330238372087,0.0007989247678779066
1772571935625467100,8.602467041015625,0,0.0010652330238372087,0.0007989247678779066
1772571935635361500,8.612361572265625,0,-0.0010652330238372087,0.0007989247678779066
1772571935645290000,8.6222900390625,-0.0010652330238372087,-0.0010652330238372087,-0.0002663082559593022
1772571935655279600,8.632279541015626,0.0010652330238372087,0,-0.0002663082559593022
1772571935665214200,8.642214111328125,0,0,-0.0002663082559593022
1772571935675138300,8.65213818359375,0,0,0.0018641578499227762
1772571935685072000,8.66207177734375,0.0010652330238372087,-0.0010652330238372087,-0.0002663082559593022
1772571935694972700,8.67197265625,0,0,-0.0002663082559593022
1772571935704903000,8.68190283203125,-0.0010652330238372087,0,-0.0002663082559593022
1772571935714843000,8.6918427734375,0.0010652330238372087,0.0031956990715116262,0.00399462366476655
1772571935724774100,8.701774169921874,-0.0010652330238372087,0.0053261648863554,0.016777420416474342
1772571935734727700,8.711727783203125,-0.0010652330238372087,0.004260932095348835,0.014646953903138638
1772571935744661200,8.7216611328125,0.0010652330238372087,0.004260932095348835,0.016777420416474342
1772571935754594000,8.731593994140624,0,0.004260932095348835,0.014646953903138638
1772571935764527400,8.74152734375,0,0.0021304660476744175,0.009320789016783237
1772571935774460200,8.751460205078125,0.0010652330238372087,-0.0010652330238372087,0.0018641578499227762
1772571935784393500,8.7613935546875,0,-0.0053261648863554,-0.0034620072692632675
1772571935794336300,8.771336181640624,-0.0010652330238372087,-0.009587096981704235,-0.013049104250967503
1772571935804270300,8.781270263671875,0,-0.009587096981704235,-0.022636201232671738
1772571935814188800,8.791188720703126,-0.0010652330238372087,-0.0010652330238372087,-0.009853405877947807
1772571935824121300,8.801121337890624,0.0010652330238372087,0.0010652330238372087,-0.00133154122158885
