time,seconds_elapsed,z,y,x
1772533323090524200,0.224524169921875,0,0,0
1772533323100455200,0.234455078125,-0.2003021240234375,-0.01983499526977539,-0.06273755431175232
1772533323110391600,0.2443916015625,-0.3429594039916992,-0.10760557651519775,-0.05969327688217163
1772533323120324900,0.254324951171875,-0.29239511489868164,-0.27756989002227783,-0.26695629954338074
1772533323130253800,0.26425390625,0.3091855049133301,-0.4261857271194458,-0.4754493236541748
1772533323140185300,0.274185302734375,1.2253375053405762,-0.524623692035675,-0.423654168844223
1772533323150117400,0.284117431640625,1.7057867050170898,-0.5294960141181946,-0.11592176556587219
1772533323160049200,0.294049072265625,1.3971357345581055,-0.37300121784210205,0.20250821113586426
1772533323169982700,0.303982666015625,0.691749095916748,-0.17457592487335205,0.36261940002441406
1772533323179915300,0.313915283203125,-0.17400217056274414,0.001231551170349121,0.27854055166244507
1772533323189848000,0.32384814453125,-0.9138474464416504,0.16464173793792725,0.37355706095695496
1772533323199780600,0.333780517578125,-1.318868637084961,0.4736543893814087,0.19919657707214355
1772533323209713400,0.34371337890625,-1.1811790466308594,0.7291200160980225,-0.4439047574996948
1772533323219646000,0.35364599609375,-0.35449647903442383,0.7132024765014648,-0.9431741833686829
1772533323229588700,0.363588623046875,0.37832164764404297,0.6171393394470215,-1.1978318691253662
1772533323239525400,0.373525390625,0.9664931297302246,0.8779890537261963,-1.362769603729248
1772533323249438700,0.383438720703125,1.6991300582885742,1.5831128358840942,-1.127912998199463
1772533323259366000,0.393365966796875,3.933335304260254,2.055663585662842,-0.22619688510894775
1772533323269303800,0.4033037109375,6.92996072769165,2.3693151473999023,0.5040096640586853
1772533323279235300,0.4132353515625,6.872923851013184,2.2331383228302,1.0040949583053589
1772533323289181400,0.423181396484375,7.102723121643066,1.605062484741211,0.5546949505805969
1772533323299118800,0.433118896484375,7.378714561462402,2.4705471992492676,0.3663490414619446
1772533323309045200,0.443045166015625,7.979605674743652,3.41322660446167,-0.08971858024597168
1772533323318978300,0.452978271484375,9.679998397827148,2.6014468669891357,-0.8349248170852661
1772533323328896500,0.462896484375,10.448205947875977,0.9775989055633545,-1.0468950271606445
1772533323338823400,0.472823486328125,9.930318832397461,1.0572595596313477,-0.7766520977020264
1772533323348772900,0.48277294921875,8.231171607971191,3.556013345718384,0.23965778946876526
1772533323358709000,0.492708984375,5.5271501541137695,6.343812942504883,2.0750160217285156
1772533323368621800,0.502621826171875,3.9987735748291016,5.536319255828857,2.7595112323760986
1772533323378555600,0.5125556640625,4.363498687744141,2.618682861328125,-0.40950560569763184
1772533323388487700,0.52248779296875,5.713527679443359,0.833672046661377,-3.7912564277648926
1772533323398421200,0.532421142578125,6.7411909103393555,0.10170841217041016,-4.602631092071533
1772533323408352800,0.542352783203125,6.674722671508789,0.002185344696044922,-3.3485684394836426
1772533323418286000,0.5522861328125,5.9085845947265625,0.1679534912109375,-1.1025892496109009
1772533323428227300,0.562227294921875,4.216269493103027,-0.45965147018432617,0.3046463131904602
1772533323438161700,0.57216162109375,3.430455207824707,-0.5354175567626953,0.6549333333969116
1772533323448081700,0.58208154296875,2.058102607727051,0.18531227111816406,1.1252739429473877
1772533323458014500,0.592014404296875,-0.5231533050537109,0.5910162925720215,1.795654535293579
1772533323467944400,0.6019443359375,-4.082128524780273,1.262716293334961,2.0505940914154053
1772533323477877000,0.611876953125,-8.424418449401855,0.4398808479309082,1.6702758073806763
1772533323487810000,0.62181005859375,-10.206064224243164,-1.5097193717956543,1.166959285736084
1772533323497742600,0.63174267578125,-8.777542114257812,-2.1509947776794434,2.4172401428222656
1772533323507673900,0.641673828125,-5.320161819458008,-2.207275390625,3.5408904552459717
1772533323517606100,0.651606201171875,-3.2475929260253906,-2.765519618988037,3.611724376678467
1772533323527531300,0.66153125,-2.464369773864746,-3.284916877746582,3.2812392711639404
1772533323537463000,0.671463134765625,-2.4728012084960938,-3.3102493286132812,2.4113540649414062
1772533323547400400,0.681400390625,-4.320470809936523,-2.177729606628418,3.4811322689056396
1772533323557332700,0.691332763671875,-6.355993747711182,-1.5084809064865112,4.428873538970947
1772533323567265300,0.701265380859375,-6.996135234832764,-2.621105432510376,3.0689516067504883
1772533323577197600,0.711197509765625,-7.724846839904785,-3.6234240531921387,0.24601179361343384
1772533323587130600,0.721130615234375,-9.378106117248535,-3.4087209701538086,-1.8265724182128906
1772533323597063000,0.73106298828125,-10.680928230285645,-2.6767027378082275,-2.883057117462158
1772533323607007700,0.7410078125,-10.838245391845703,-2.094797134399414,-2.953279733657837
1772533323616941600,0.750941650390625,-11.559805870056152,-1.860086441040039,-1.4843918085098267
1772533323626870800,0.760870849609375,-13.927604675292969,-1.7079708576202393,0.2305053472518921
1772533323636803800,0.770803955078125,-15.662322998046875,-1.9731276035308838,-0.06542736291885376
1772533323646720300,0.78072021484375,-14.818981170654297,-2.4257922172546387,-1.4761638641357422
1772533323656651800,0.79065185546875,-12.775071144104004,-2.4815800189971924,-1.6209392547607422
1772533323666584800,0.800584716796875,-9.879779815673828,-2.319512128829956,-0.27443045377731323
1772533323676516600,0.8105166015625,-7.439687252044678,-2.5368196964263916,0.8316643238067627
1772533323686463000,0.820462890625,-5.943876266479492,-2.612095832824707,0.9171909093856812
1772533323696396000,0.83039599609375,-4.506893634796143,-2.7725653648376465,0.6980530023574829
1772533323706313000,0.84031298828125,-3.597710132598877,-2.689446210861206,0.52794349193573
1772533323716244700,0.85024462890625,-4.599414825439453,-1.9252088069915771,0.41525566577911377
1772533323726184400,0.860184326171875,-7.067144870758057,-1.2202088832855225,0.40803635120391846
1772533323736116700,0.87011669921875,-8.582347869873047,-0.9460998773574829,0.16307693719863892
1772533323746047500,0.880047607421875,-7.46687650680542,-0.9725598692893982,0.5132587552070618
1772533323755979500,0.8899794921875,-5.720004081726074,-1.159901738166809,0.9895533323287964
1772533323765927700,0.899927734375,-5.230515480041504,-1.162428379058838,1.4314594268798828
1772533323775861500,0.909861572265625,-5.28856086730957,-0.7157021760940552,1.068167805671692
1772533323785782500,0.919782470703125,-5.440680503845215,-0.9270334839820862,0.03622448444366455
1772533323795715000,0.929715087890625,-5.635190010070801,-1.5555216073989868,-0.5434938073158264
1772533323805618700,0.93961865234375,-5.304023742675781,-1.0377721786499023,-0.47922632098197937
1772533323815548400,0.94954833984375,-4.15766716003418,-0.06832408905029297,-0.45319318771362305
1772533323825514800,0.9595146484375,-1.8144536018371582,0.51050865650177,-0.47931525111198425
1772533323835448000,0.969447998046875,0.789637565612793,1.7158156633377075,0.599506139755249
1772533323845365000,0.979364990234375,4.312039852142334,3.293854236602783,1.632026195526123
1772533323855296500,0.989296630859375,4.449134349822998,4.936522483825684,0.7466861009597778
1772533323865230800,0.99923095703125,3.634185314178467,6.076963424682617,-1.1882916688919067
1772533323875162600,1.00916259765625,5.748364448547363,7.12525749206543,-2.543628692626953
1772533323885091000,1.019091064453125,11.583011627197266,7.596449851989746,-2.987034797668457
1772533323895022800,1.02902294921875,19.639469146728516,7.424300193786621,-3.1194419860839844
1772533323904958500,1.03895849609375,29.561534881591797,9.316272735595703,-4.845250606536865
1772533323914890500,1.048890380859375,36.12225341796875,10.322203636169434,-7.628852367401123
1772533323924825300,1.058825439453125,34.2606201171875,5.868720054626465,-5.307228088378906
1772533323934757600,1.068757568359375,29.920211791992188,2.215437412261963,-4.474040508270264
1772533323944710000,1.0787099609375,27.835893630981445,0.14592552185058594,-1.7615529298782349
1772533323954644000,1.08864404296875,22.502490997314453,1.7004895210266113,1.504459023475647
1772533323964553700,1.0985537109375,18.10491943359375,4.932437896728516,1.3130285739898682
1772533323974485500,1.108485595703125,16.23399543762207,6.221355438232422,-0.49017202854156494
1772533323984425200,1.11842529296875,15.84650707244873,6.435418128967285,-1.1415579319000244
1772533324004247300,1.138247314453125,11.372579574584961,5.031894683837891,0.26214802265167236
1772533324024121300,1.158121337890625,-0.5435876846313477,2.0469112396240234,1.440791368484497
1772533324034054700,1.1680546875,-5.756704807281494,0.6651818752288818,1.0892165899276733
1772533324044028200,1.178028076171875,-8.354978561401367,-2.0034985542297363,0.13426470756530762
1772533324053965600,1.187965576171875,-9.251689910888672,-4.768040657043457,-1.2549687623977661
1772533324063890000,1.197889892578125,-9.368745803833008,-6.910137176513672,-1.6840627193450928
1772533324073826000,1.207825927734375,-8.575559616088867,-7.963327407836914,-1.4054211378097534
1772533324083716000,1.217716064453125,-7.1937408447265625,-8.257607460021973,-1.4725083112716675
1772533324093647600,1.227647705078125,-7.359712600708008,-9.002586364746094,-2.305508613586426
1772533324103613200,1.23761328125,-9.436546325683594,-9.548530578613281,-2.5512654781341553
1772533324113548000,1.247548095703125,-11.722404479980469,-8.928410530090332,-1.6913334131240845
1772533324123443700,1.257443603515625,-14.39844036102295,-8.250968933105469,-0.6658211946487427
1772533324133374700,1.267374755859375,-17.61745834350586,-7.84657621383667,0.017014972865581512
1772533324143303400,1.277303466796875,-20.667387008666992,-7.825672626495361,0.9104216694831848
1772533324153234000,1.28723388671875,-23.633159637451172,-7.309717655181885,0.7618891000747681
1772533324163178000,1.297177978515625,-25.745601654052734,-6.22329044342041,0.5935406684875488
1772533324173110000,1.307110107421875,-24.103713989257812,-5.245474815368652,0.46603289246559143
1772533324183061000,1.31706103515625,-19.97557830810547,-4.6898322105407715,-0.14745363593101501
1772533324192994800,1.326994873046875,-14.950721740722656,-4.375627517700195,-1.0578471422195435
1772533324202932200,1.33693212890625,-9.80124568939209,-3.77711820602417,-1.6499449014663696
1772533324212866600,1.346866455078125,-7.217607021331787,-3.2780137062072754,-0.4879680871963501
1772533324222794800,1.356794677734375,-5.406773567199707,-2.6845502853393555,1.9397603273391724
1772533324232728600,1.366728515625,-3.7316479682922363,-0.974542498588562,4.338415622711182
1772533324242654700,1.37665478515625,-2.3447675704956055,0.8298869132995605,6.218346118927002
1772533324252587500,1.38658740234375,-1.7253036499023438,1.5295301675796509,6.39697265625
1772533324262516000,1.396515869140625,-1.2933483123779297,1.2428789138793945,4.682511329650879
1772533324272448500,1.406448486328125,-0.42612457275390625,0.452792763710022,2.452244281768799
1772533324282365400,1.416365478515625,0.7576112747192383,-0.18934857845306396,0.9317840337753296
1772533324292296400,1.42629638671875,0.7063522338867188,-0.04741013050079346,0.4372100532054901
1772533324302240000,1.436239990234375,-1.3588895797729492,0.7355353832244873,1.4264360666275024
1772533324312172300,1.44617236328125,-3.196293354034424,2.339385986328125,2.804689884185791
1772533324322107100,1.456107177734375,-2.9279003143310547,3.3809518814086914,2.305760383605957
1772533324332039700,1.466039794921875,-1.6855831146240234,3.216080904006958,0.47493281960487366
1772533324341976800,1.475976806640625,0.07662296295166016,3.136474370956421,-1.9403339624404907
1772533324351909600,1.48590966796875,3.18631649017334,2.7117714881896973,-4.561403274536133
1772533324361833200,1.495833251953125,7.169038772583008,0.6203042268753052,-6.669565200805664
1772533324371765200,1.50576513671875,8.935733795166016,-1.2896349430084229,-6.26913595199585
1772533324381702700,1.51570263671875,6.560721397399902,-1.6167571544647217,-1.7239357233047485
1772533324391635000,1.525635009765625,1.7645044326782227,-1.1354199647903442,4.730347633361816
1772533324401558800,1.535558837890625,-1.063483715057373,-0.8092249631881714,6.5784478187561035
1772533324411490600,1.545490478515625,-1.540304183959961,-2.307276725769043,1.903206706047058
1772533324421424400,1.55542431640625,1.035740852355957,-4.9553985595703125,-6.0508317947387695
1772533324431356200,1.565356201171875,7.046483993530273,-6.630115985870361,-11.220025062561035
1772533324441279500,1.575279541015625,7.781126022338867,-2.7888035774230957,-9.88561725616455
1772533324451210800,1.585210693359375,1.8518075942993164,3.761420249938965,-1.3214746713638306
1772533324461158000,1.595157958984375,-5.806456565856934,3.4443368911743164,7.342007637023926
1772533324471090700,1.605090576171875,-7.9380412101745605,2.6372435092926025,7.081305027008057
1772533324481019100,1.61501904296875,-6.004848480224609,5.135472774505615,3.8212735652923584
1772533324490951400,1.624951416015625,-4.492122650146484,7.146127223968506,2.674903392791748
1772533324500880400,1.63488037109375,0.19671916961669922,8.570425033569336,2.237318992614746
1772533324510812400,1.6448125,8.857505798339844,7.908294677734375,2.7099924087524414
1772533324520747500,1.65474755859375,19.447723388671875,5.080052375793457,4.014195442199707
1772533324530679800,1.6646796875,28.38458251953125,2.316913366317749,5.0363664627075195
1772533324540614100,1.6746142578125,34.50418472290039,1.43926203250885,5.052196025848389
1772533324550546700,1.684546630859375,37.3769645690918,1.9016255140304565,5.383928298950195
1772533324560454400,1.694454345703125,36.32203674316406,3.030280828475952,6.860270977020264
1772533324570384400,1.70438427734375,29.81835174560547,3.7234928607940674,8.283292770385742
1772533324580338400,1.71433837890625,20.5889835357666,3.377016067504883,7.629526138305664
1772533324590271000,1.72427099609375,12.230587005615234,2.5051913261413574,5.700690269470215
1772533324600205800,1.734205810546875,5.798242568969727,1.7562850713729858,2.933338165283203
1772533324610138600,1.744138671875,1.2787761688232422,0.5229696035385132,-0.3763151168823242
1772533324620072000,1.754072021484375,-0.9993972778320312,-1.414818525314331,-3.0540459156036377
1772533324630004700,1.764004638671875,-0.34891700744628906,-3.386103630065918,-4.38942289352417
1772533324639933200,1.77393310546875,0.27008628845214844,-4.740884304046631,-4.435103416442871
1772533324649865500,1.783865478515625,-1.1596240997314453,-5.317427158355713,-4.290370941162109
1772533324659775500,1.793775390625,-4.265420913696289,-5.71498966217041,-3.5969009399414062
1772533324669705500,1.80370556640625,-7.800455093383789,-5.648712635040283,-2.574226140975952
1772533324679659500,1.813659423828125,-11.262691497802734,-5.126589298248291,-1.7966572046279907
1772533324689591800,1.823591796875,-15.039327621459961,-4.530778408050537,-1.1853773593902588
1772533324699508000,1.833508056640625,-19.132171630859375,-4.250751495361328,-0.7974599599838257
1772533324709438700,1.843438720703125,-21.868915557861328,-4.056201457977295,-0.6671867370605469
1772533324719387400,1.853387451171875,-21.794734954833984,-3.660120964050293,-0.48475730419158936
1772533324729320200,1.8633203125,-19.213668823242188,-3.4151620864868164,0.026147961616516113
1772533324739219700,1.8732197265625,-16.861249923706055,-2.9264116287231445,0.8124109506607056
1772533324749149200,1.883149169921875,-15.967981338500977,-2.0682694911956787,2.570474863052368
1772533324759094500,1.893094482421875,-14.815019607543945,-1.3384584188461304,4.4067463874816895
1772533324769025300,1.903025390625,-12.678789138793945,-0.8406715989112854,5.121057033538818
1772533324778980000,1.91297998046875,-10.19290542602539,-0.6470030546188354,4.96367883682251
1772533324788913400,1.922913330078125,-7.881350040435791,-0.5215132236480713,4.437126159667969
1772533324798846500,1.932846435546875,-6.117471694946289,-0.7412998080253601,3.8689539432525635
1772533324808780000,1.942780029296875,-5.354238033294678,-0.8698135614395142,3.467282295227051
1772533324818707500,1.95270751953125,-6.09114933013916,-0.7358188629150391,3.6206464767456055
1772533324828640300,1.96264013671875,-7.559707164764404,-0.3817002773284912,4.909968376159668
1772533324838586400,1.97258642578125,-8.653204917907715,0.14050757884979248,6.234675407409668
1772533324848520700,1.982520751953125,-8.199562072753906,0.03405630588531494,5.144932746887207
1772533324858439700,1.992439697265625,-6.554698944091797,-1.057347059249878,2.4527902603149414
1772533324868372200,2.002372314453125,-5.418047904968262,-1.9234988689422607,0.5318129062652588
1772533324878302000,2.012302001953125,-5.1663360595703125,-2.374368190765381,-0.8495504856109619
1772533324888234200,2.022234130859375,-5.709087371826172,-2.6230945587158203,-2.0274243354797363
1772533324898178600,2.032178466796875,-6.671870231628418,-1.9871950149536133,-1.9023020267486572
1772533324908112100,2.042112060546875,-7.283496379852295,-0.8652396202087402,-1.3224023580551147
1772533324918032100,2.0520322265625,-6.2866411209106445,-0.09217917919158936,-1.5596776008605957
1772533324927964200,2.061964111328125,-4.008969783782959,1.2928173542022705,-2.2223033905029297
1772533324937899000,2.07189892578125,-1.7545394897460938,3.028243064880371,-1.600348949432373
1772533324947831300,2.081831298828125,0.5226907730102539,4.651409149169922,1.2562628984451294
1772533324957773600,2.091773681640625,3.0688304901123047,6.79286003112793,6.3063130378723145
1772533324967707000,2.101706787109375,4.530006408691406,8.602779388427734,12.671436309814453
1772533324977623800,2.111623779296875,3.67746639251709,7.34383487701416,14.197139739990234
1772533324987555600,2.1215556640625,2.5678176879882812,3.6047379970550537,7.84368896484375
1772533324997496000,2.13149609375,5.922272682189941,2.409761667251587,-1.8808605670928955
1772533325007428600,2.1414287109375,11.2046537399292,2.729841470718384,-6.304256916046143
1772533325017349400,2.151349365234375,9.614018440246582,1.308675765991211,-5.106444358825684
1772533325027280600,2.16128076171875,3.7358646392822266,1.2139713764190674,-4.260551452636719
1772533325037217300,2.17121728515625,1.9174861907958984,2.543113946914673,-0.15676376223564148
1772533325047149000,2.181149169921875,8.273859024047852,1.2496864795684814,4.3947434425354
1772533325057080800,2.191080810546875,16.579450607299805,-2.998228073120117,1.738131046295166
1772533325067012900,2.201012939453125,24.611289978027344,-7.752588272094727,-6.447645664215088
1772533325076943600,2.210943603515625,32.979530334472656,-10.4352445602417,-11.742145538330078
1772533325086875400,2.22087548828125,38.30082702636719,-10.453128814697266,-11.452386856079102
1772533325096808700,2.23080859375,36.719505310058594,-7.36768913269043,-8.939067840576172
1772533325106740700,2.24074072265625,28.557891845703125,-3.6909823417663574,-5.952185153961182
1772533325116672500,2.250672607421875,19.189266204833984,-0.9128055572509766,-3.9353463649749756
1772533325126604500,2.2606044921875,11.570267677307129,1.0410964488983154,-2.2139980792999268
1772533325136537000,2.270537109375,5.090183258056641,2.5134079456329346,-0.606595516204834
1772533325146469000,2.28046923828125,1.682765007019043,2.938026189804077,-0.7852548360824585
1772533325156408600,2.29040869140625,2.5164852142333984,1.7250089645385742,-2.217646837234497
1772533325166341400,2.30034130859375,4.609859466552734,0.5523980855941772,-3.002810001373291
1772533325176263000,2.310262939453125,5.522574424743652,0.006285488605499268,-3.681196689605713
1772533325186194700,2.320194580078125,4.096331596374512,-0.8450227975845337,-3.848177909851074
1772533325196142300,2.330142333984375,1.267674446105957,-1.710702657699585,-3.391481399536133
1772533325206075400,2.340075439453125,-2.5134053230285645,-1.6854629516601562,-2.38519024848938
1772533325215976400,2.3499765625,-7.0251970291137695,-1.2397196292877197,-0.7503003478050232
1772533325225906400,2.359906494140625,-11.103506088256836,-0.9037359952926636,0.3154650926589966
1772533325235873500,2.36987353515625,-13.888508796691895,-0.7384205460548401,0.24121642112731934
1772533325245807400,2.379807373046875,-15.543489456176758,-1.2657452821731567,-0.10502743721008301
1772533325255701200,2.389701171875,-15.586706161499023,-2.2223310470581055,-0.7015426158905029
1772533325265631000,2.399630859375,-14.800175666809082,-2.7118895053863525,-1.5859991312026978
1772533325275599400,2.409599365234375,-14.252045631408691,-3.0298500061035156,-2.0525805950164795
1772533325285533000,2.419532958984375,-13.361990928649902,-3.3757197856903076,-2.174839735031128
1772533325295435000,2.42943505859375,-11.63338851928711,-3.0440192222595215,-0.6124265193939209
1772533325305365500,2.439365478515625,-10.17614459991455,-2.0160655975341797,2.2643699645996094
1772533325315297000,2.449297119140625,-10.544357299804688,-0.7611619234085083,4.540123462677002
1772533325325227500,2.4592275390625,-11.593982696533203,0.4577520489692688,5.139346599578857
1772533325335163600,2.46916357421875,-12.025157928466797,1.3031508922576904,4.705402851104736
1772533325345094700,2.4790947265625,-12.242351531982422,1.616594910621643,4.354840278625488
1772533325355022800,2.48902294921875,-11.345857620239258,1.3430160284042358,5.479893207550049
1772533325364953600,2.49895361328125,-8.63135051727295,0.5851321220397949,7.781765937805176
1772533325374920700,2.508920654296875,-7.223762512207031,0.7496504783630371,9.400412559509277
1772533325384855300,2.518855224609375,-7.609790325164795,1.0463467836380005,11.915929794311523
1772533325394773000,2.52877294921875,-7.95414400100708,1.036192774772644,14.011687278747559
1772533325404705800,2.538705810546875,-7.795731067657471,0.16722261905670166,13.49209213256836
1772533325414656000,2.548656005859375,-7.321762561798096,-0.665682852268219,10.666040420532227
1772533325424590300,2.55859033203125,-6.546200752258301,-1.2931047677993774,7.429008960723877
1772533325434504700,2.568504638671875,-4.2483811378479,-2.1918675899505615,4.9669189453125
1772533325444437200,2.578437255859375,-1.493969440460205,-2.7614340782165527,3.58644962310791
1772533325454366000,2.588365966796875,1.1625738143920898,-3.124427080154419,2.841588020324707
1772533325464298000,2.598298095703125,3.628354072570801,-2.704172372817993,1.3033194541931152
1772533325474233000,2.608233154296875,3.81789493560791,-2.0341579914093018,-0.2494249939918518
1772533325484165600,2.61816552734375,0.5053262710571289,-0.687385082244873,-0.7421985268592834
1772533325494093800,2.62809375,-3.5837292671203613,2.1788442134857178,-0.13983279466629028
1772533325504025900,2.63802587890625,-4.771610736846924,5.466137409210205,0.428729772567749
1772533325513959400,2.64795947265625,-0.8166284561157227,6.526403427124023,0.2890359163284302
1772533325523891700,2.6578916015625,6.023131370544434,4.37557315826416,-0.7493535280227661
1772533325533835800,2.667835693359375,13.110055923461914,2.1920509338378906,-3.0689139366149902
1772533325543769000,2.67776904296875,20.936912536621094,1.9991569519042969,-6.970223903656006
1772533325553690600,2.687690673828125,23.853952407836914,1.8029956817626953,-9.72370719909668
1772533325563622700,2.69762255859375,18.53271484375,0.7431597709655762,-9.690377235412598
1772533325573551000,2.707551025390625,11.476363182067871,1.9991729259490967,-9.941112518310547
1772533325583483000,2.71748291015625,7.427057266235352,4.47579288482666,-11.223653793334961
1772533325593418000,2.72741796875,7.922037124633789,5.129376411437988,-13.178621292114258
1772533325603350000,2.73735009765625,10.641767501831055,4.105860710144043,-15.22140121459961
1772533325613279700,2.74727978515625,13.667771339416504,2.6927449703216553,-16.26115608215332
1772533325623211500,2.75721142578125,16.538593292236328,1.3191585540771484,-14.655253410339355
1772533325633158100,2.767158203125,17.752784729003906,0.6191225051879883,-10.02806568145752
1772533325643091500,2.777091552734375,17.164140701293945,0.7606387138366699,-4.0241379737854
1772533325653006300,2.78700634765625,15.29125690460205,0.8190958499908447,0.1784902811050415
1772533325662937900,2.796937744140625,11.017596244812012,0.7256319522857666,2.389932632446289
1772533325672873000,2.806873046875,4.4352312088012695,1.1325194835662842,3.854539155960083
1772533325682804700,2.8168046875,-2.931363105773926,1.507826566696167,4.58519172668457
1772533325692725800,2.826725830078125,-8.964987754821777,0.7830402851104736,3.4658069610595703
1772533325702656500,2.836656494140625,-12.320587158203125,-1.2877476215362549,0.6390100121498108
1772533325712615700,2.84661572265625,-13.08889389038086,-3.794368028640747,-1.593296766281128
1772533325722549200,2.85654931640625,-11.924638748168945,-5.866171836853027,-2.763382911682129
1772533325732465400,2.86646533203125,-9.637887001037598,-6.456197738647461,-2.7190871238708496
1772533325742397400,2.8763974609375,-7.426421165466309,-5.666945934295654,-1.0769481658935547
1772533325752334600,2.88633447265625,-6.806797981262207,-4.49636697769165,0.8207224607467651
1772533325762267100,2.89626708984375,-7.6819047927856445,-3.3450584411621094,2.3394775390625
1772533325772171000,2.9061708984375,-9.798712730407715,-2.536363363265991,3.7949419021606445
1772533325782100500,2.9161005859375,-12.637568473815918,-2.186570405960083,4.633045196533203
1772533325792062500,2.9260625,-15.133445739746094,-2.293869733810425,3.996753692626953
1772533325801995500,2.93599560546875,-16.715030670166016,-2.7402329444885254,2.4121665954589844
1772533325811923700,2.945923828125,-16.27543067932129,-3.6637892723083496,0.5642182230949402
1772533325821856300,2.955856201171875,-13.416605949401855,-4.9259138107299805,-2.0037848949432373
1772533325831791900,2.9657919921875,-10.314143180847168,-5.1584858894348145,-4.32403039932251
1772533325841724700,2.975724609375,-8.679464340209961,-4.409391403198242,-5.055647373199463
1772533325851657000,2.985656982421875,-8.031978607177734,-3.632028818130493,-4.334721088409424
1772533325861589500,2.995589599609375,-7.747434139251709,-2.8667733669281006,-2.7004215717315674
1772533325871516000,3.005515869140625,-7.253852844238281,-1.8097680807113647,-0.4995351731777191
1772533325881448000,3.015447998046875,-4.971949100494385,-0.5357397794723511,1.3862465620040894
1772533325891380700,3.025380615234375,-1.5968775749206543,0.3150625228881836,2.2300262451171875
1772533325901313000,3.03531298828125,1.1570863723754883,0.7422231435775757,2.3897948265075684
1772533325911246600,3.04524658203125,3.1501970291137695,0.9576528072357178,1.9283342361450195
1772533325921179000,3.055178955078125,3.5222578048706055,0.8623899221420288,0.9166247844696045
1772533325931119000,3.065119140625,2.2476863861083984,0.8710688352584839,0.5030568838119507
1772533325941052200,3.07505224609375,0.05938434600830078,0.9765505790710449,0.9757701754570007
1772533325960912100,3.094912109375,-3.9886488914489746,1.6137020587921143,2.305546760559082
1772533325970839300,3.10483935546875,-3.572936534881592,1.757927656173706,1.9360201358795166
1772533325980771000,3.11477099609375,-1.6806435585021973,1.286940097808838,1.087801456451416
1772533325990709200,3.124709228515625,0.10488605499267578,0.5595989227294922,0.21820837259292603
1772533326000641800,3.134641845703125,1.1312026977539062,0.34645020961761475,-0.41481098532676697
1772533326010559500,3.1445595703125,1.2048330307006836,0.7790110111236572,-0.5512269735336304
1772533326020490500,3.154490478515625,0.6644315719604492,1.541395902633667,-0.06420925259590149
1772533326030433000,3.16443310546875,1.5335521697998047,2.5154647827148438,0.4424201250076294
1772533326040365300,3.174365234375,3.561171531677246,3.161842107772827,0.5817204713821411
1772533326050294500,3.18429443359375,5.331747055053711,4.241574764251709,0.43803828954696655
1772533326060226600,3.1942265625,6.5426177978515625,5.346136569976807,-0.12537804245948792
1772533326070158600,3.20415869140625,7.23994255065918,5.800751209259033,-0.8265624642372131
1772533326080090600,3.214090576171875,8.548612594604492,6.135227203369141,-0.5685938596725464
1772533326090009900,3.224009765625,13.286940574645996,7.006468772888184,-1.005017876625061
1772533326099940600,3.233940673828125,17.42256736755371,5.991866111755371,-2.3664774894714355
1772533326109892000,3.24389208984375,16.208984375,2.3422739505767822,-2.208385944366455
1772533326119825000,3.253824951171875,11.302915573120117,1.3639419078826904,0.1000969409942627
1772533326129751600,3.26375146484375,6.234373092651367,3.5319347381591797,1.2472803592681885
1772533326139683600,3.27368359375,4.422783851623535,5.166792869567871,0.08667314052581787
1772533326149628200,3.283628173828125,6.28441047668457,5.371999740600586,-1.808423638343811
1772533326159561500,3.2935615234375,8.450681686401367,4.883393287658691,-3.7110071182250977
1772533326169478100,3.30347802734375,9.118425369262695,4.700672626495361,-4.459399700164795
1772533326179409700,3.31340966796875,10.389036178588867,4.197542190551758,-2.827592372894287
1772533326189346000,3.323345947265625,13.032112121582031,2.701817035675049,-1.078812837600708
1772533326199278000,3.333278076171875,14.481110572814941,1.8669474124908447,0.1852492094039917
1772533326209212200,3.343212158203125,13.519973754882812,1.7705543041229248,1.3672540187835693
1772533326219144400,3.35314453125,10.33715534210205,1.4584949016571045,1.8953126668930054
1772533326229050400,3.36305029296875,6.030404090881348,1.1463127136230469,2.0371127128601074
1772533326238980000,3.37297998046875,1.5607614517211914,0.77695631980896,2.083052396774292
1772533326248940800,3.38294091796875,-2.4197921752929688,-0.06087994575500488,1.8274476528167725
1772533326258873900,3.392873779296875,-3.8346939086914062,-1.4763083457946777,0.4039979875087738
1772533326268803600,3.402803466796875,-2.9916038513183594,-3.393080949783325,-1.6096503734588623
1772533326278736100,3.412736083984375,-3.22292423248291,-4.590317249298096,-2.2508673667907715
1772533326288669000,3.4226689453125,-5.125718593597412,-4.811207294464111,-1.9163137674331665
1772533326298601200,3.432601318359375,-7.225431442260742,-5.197734832763672,-1.4899189472198486
1772533326308546600,3.442546630859375,-8.888185501098633,-5.753335952758789,-0.9098082780838013
1772533326318480100,3.452480224609375,-10.173486709594727,-5.8692626953125,0.08422797918319702
1772533326328396800,3.462396728515625,-11.470681190490723,-5.554729461669922,1.146329641342163
1772533326338328800,3.472328857421875,-12.897481918334961,-5.220462799072266,1.6871424913406372
1772533326348282400,3.482282470703125,-14.024245262145996,-5.1452836990356445,1.6389741897583008
1772533326358216400,3.492216552734375,-14.174489974975586,-5.28774356842041,1.5790799856185913
1772533326368124400,3.50212451171875,-13.400506973266602,-5.29683780670166,1.5313023328781128
1772533326378056000,3.512055908203125,-12.504645347595215,-4.799874782562256,1.1974788904190063
1772533326387992800,3.521992919921875,-11.996020317077637,-4.291925430297852,0.7726781368255615
1772533326397924900,3.5319248046875,-11.864019393920898,-3.9351744651794434,0.3480648398399353
1772533326407835000,3.5418349609375,-11.612504959106445,-3.3568387031555176,0.128885418176651
1772533326417764900,3.551764892578125,-11.301477432250977,-2.571038246154785,0.5074495673179626
1772533326427701000,3.561700927734375,-10.84896183013916,-1.8381439447402954,1.4557561874389648
1772533326437631500,3.571631591796875,-9.815421104431152,-1.5076152086257935,1.9330106973648071
1772533326447564000,3.58156396484375,-7.906674861907959,-1.5959395170211792,1.7111036777496338
1772533326457494800,3.591494873046875,-5.731016159057617,-1.7737786769866943,1.3590114116668701
1772533326467457500,3.60145751953125,-3.9846863746643066,-1.8507936000823975,1.1250147819519043
1772533326477391400,3.611391357421875,-2.356114387512207,-1.8444092273712158,0.7493149042129517
1772533326487292200,3.621292236328125,-1.0611319541931152,-1.7939938306808472,0.2121327519416809
1772533326497223000,3.631222900390625,-0.3267822265625,-1.4950971603393555,-0.0473918616771698
1772533326507187500,3.6411875,-0.21392059326171875,-0.8254035711288452,0.3481665551662445
1772533326517121500,3.65112158203125,-1.1987261772155762,-0.32384157180786133,1.0598419904708862
1772533326527051500,3.661051513671875,-2.6568737030029297,0.37126827239990234,2.023714780807495
1772533326536985300,3.6709853515625,-3.501070499420166,1.819782018661499,2.7721142768859863
1772533326546882300,3.68088232421875,-2.473116874694824,3.6970601081848145,2.6460819244384766
1772533326556812300,3.690812255859375,1.172337532043457,4.868696212768555,0.9243052005767822
1772533326566787300,3.700787353515625,5.366613388061523,5.210235595703125,0.38984203338623047
1772533326576722000,3.710721923828125,9.422709465026855,6.268720626831055,2.571424722671509
1772533326586612500,3.720612548828125,13.141406059265137,8.030353546142578,5.238043785095215
1772533326596542700,3.730542724609375,14.935473442077637,9.49854564666748,7.4758453369140625
1772533326606476300,3.740476318359375,13.882601737976074,9.333507537841797,10.014143943786621
1772533326616406800,3.75040673828125,12.356117248535156,6.620233058929443,10.319740295410156
1772533326626372600,3.76037255859375,14.71545696258545,2.481114625930786,6.411014556884766
1772533326636306400,3.770306396484375,21.793258666992188,0.9450111389160156,3.169243335723877
1772533326646229500,3.7802294921875,24.018539428710938,4.749091625213623,0.9910780787467957
1772533326656162300,3.790162353515625,15.28890323638916,4.915796279907227,0.42691659927368164
1772533326666086000,3.8000859375,-0.5764799118041992,-0.31409597396850586,-2.4238381385803223
1772533326676018000,3.810017822265625,-11.85773754119873,-0.8368995189666748,-12.27389144897461
1772533326685959400,3.81995947265625,-8.466878890991211,-0.5718019008636475,-20.145112991333008
1772533326695892200,3.829892333984375,1.3504600524902344,-3.613612413406372,-20.156368255615234
1772533326705822500,3.839822509765625,9.253849983215332,-5.791492462158203,-18.03513526916504
1772533326715755300,3.84975537109375,16.08047866821289,-6.643215179443359,-15.805120468139648
1772533326725685000,3.85968505859375,20.796043395996094,-6.244464874267578,-11.442574501037598
1772533326735617300,3.8696171875,20.29652976989746,-3.881714105606079,-5.31965970993042
1772533326745549300,3.87954931640625,15.3064546585083,-0.04528331756591797,0.8265787959098816
1772533326755481600,3.889481689453125,8.086091995239258,3.4995458126068115,4.7501983642578125
1772533326765433000,3.89943310546875,1.4417390823364258,4.328960418701172,5.134593963623047
1772533326775367400,3.909367431640625,-3.8966684341430664,2.816720485687256,2.7754549980163574
1772533326785276200,3.919276123046875,-8.041715621948242,1.4480533599853516,1.1141483783721924
1772533326795208000,3.9292080078125,-9.134532928466797,0.6419169902801514,0.29552727937698364
1772533326805143000,3.93914306640625,-4.778426647186279,-1.34237539768219,-0.8741959929466248
1772533326815075000,3.949074951171875,0.43645763397216797,-3.602992534637451,-0.39055362343788147
1772533326824979200,3.958979248046875,3.126667022705078,-3.1295061111450195,0.8001377582550049
1772533326834908400,3.968908447265625,3.473637580871582,-2.246479034423828,0.8866793513298035
1772533326844880100,3.978880126953125,0.7117319107055664,-2.235931873321533,1.4345297813415527
1772533326854813400,3.9888134765625,-4.411739826202393,-1.7695984840393066,2.685961961746216
1772533326864733700,3.998733642578125,-9.71800708770752,-1.3250545263290405,3.133270025253296
1772533326874665700,4.008665771484375,-14.387616157531738,-1.804100751876831,2.3087663650512695
1772533326884595200,4.01859521484375,-18.080062866210938,-2.898947238922119,0.9640317559242249
1772533326894527000,4.02852685546875,-20.04568862915039,-4.110273838043213,-0.4110400080680847
1772533326904461800,4.0384619140625,-19.481843948364258,-4.785184860229492,-1.6936028003692627
1772533326914393900,4.048393798828125,-16.45024871826172,-4.721194744110107,-2.1691958904266357
1772533326924328000,4.058327880859375,-12.595367431640625,-4.376027584075928,-2.1583778858184814
1772533326934260200,4.06826025390625,-10.761302947998047,-4.341745853424072,-1.9306215047836304
1772533326944190000,4.07818994140625,-11.114864349365234,-4.275262355804443,-0.5747669339179993
1772533326954122000,4.0881220703125,-11.824520111083984,-3.314687728881836,1.4009175300598145
1772533326964055000,4.098054931640625,-11.761188507080078,-2.0719473361968994,2.9709010124206543
1772533326973987000,4.107987060546875,-10.89261531829834,-1.458938717842102,3.412407398223877
1772533326983928000,4.117927978515625,-9.182063102722168,-1.876983404159546,2.078911066055298
1772533326993861000,4.127861083984375,-7.084504127502441,-2.6037774085998535,0.06368835270404816
1772533327013674200,4.14767431640625,-3.075620651245117,-2.85221266746521,-0.3529209494590759
1772533327023607300,4.157607177734375,-2.874800682067871,-1.7478504180908203,2.613156318664551
1772533327033581000,4.1675810546875,-3.8014750480651855,0.26966381072998047,5.942261219024658
1772533327043517700,4.177517578125,-4.858534336090088,2.2992172241210938,8.287631034851074
1772533327053446700,4.18744677734375,-4.347843647003174,2.6650097370147705,8.799442291259766
1772533327063382500,4.197382568359375,-1.5608315467834473,1.8898265361785889,7.5900726318359375
1772533327073310000,4.20731005859375,2.6021013259887695,0.9959111213684082,5.157366752624512
1772533327083244800,4.217244873046875,6.273202896118164,-0.12739062309265137,2.401656150817871
1772533327093168400,4.22716845703125,6.002886772155762,-0.5928503274917603,1.3434056043624878
1772533327103102200,4.237102294921875,2.7335615158081055,0.2452991008758545,0.8747367262840271
1772533327113036800,4.247036865234375,-0.5301628112792969,1.6488399505615234,-0.8380737900733948
1772533327122970600,4.256970703125,-2.2738914489746094,3.150308132171631,-3.743351936340332
1772533327132908800,4.26690869140625,-2.094332695007324,4.799399375915527,-6.469186305999756
1772533327142843100,4.276843017578125,0.15945911407470703,5.336431503295898,-7.6673502922058105
1772533327152766200,4.28676611328125,6.963349342346191,4.5903472900390625,-6.832860946655273
1772533327162699300,4.29669921875,18.58283233642578,5.304399490356445,-6.793399333953857
1772533327172606000,4.30660595703125,24.12407112121582,3.933213949203491,-5.724881172180176
1772533327182536400,4.316536376953125,21.940723419189453,0.826361894607544,-6.125934600830078
1772533327192493800,4.326493896484375,19.778425216674805,0.45134735107421875,-6.476818084716797
1772533327202427000,4.336427001953125,21.80525016784668,0.921790361404419,-5.192027568817139
1772533327212370400,4.346370361328125,24.064592361450195,0.5556802749633789,-4.942339897155762
1772533327222304800,4.3563046875,23.6705322265625,0.6833333969116211,-6.260862827301025
1772533327232224000,4.36622412109375,22.40715980529785,1.6055870056152344,-8.269658088684082
1772533327242156800,4.37615673828125,20.488279342651367,2.389432907104492,-7.734055995941162
1772533327252085500,4.38608544921875,17.830047607421875,3.6689467430114746,-4.330981254577637
1772533327262017800,4.396017822265625,14.390965461730957,4.976096153259277,-0.4222872257232666
1772533327271957000,4.40595703125,9.921323776245117,5.925045013427734,2.7354183197021484
1772533327281890000,4.41589013671875,6.044000625610352,6.123325824737549,5.068478584289551
1772533327291818800,4.42581884765625,4.614973068237305,5.297365188598633,6.279977798461914
1772533327301751300,4.435751220703125,3.4039306640625,3.490233898162842,5.889352321624756
1772533327311679500,4.445679443359375,1.3354816436767578,1.4348399639129639,4.121848106384277
1772533327321611500,4.455611572265625,0.06778526306152344,-1.0007522106170654,1.51627779006958
1772533327331543000,4.46554296875,-1.2723560333251953,-3.372835159301758,-0.2481757402420044
1772533327341475000,4.47547509765625,-3.804121971130371,-4.847682952880859,-1.2545802593231201
1772533327351407000,4.485406982421875,-7.414270401000977,-5.521235942840576,-1.1107299327850342
1772533327361339100,4.495339111328125,-11.03161907196045,-5.788599967956543,-0.14129197597503662
1772533327371273000,4.50527294921875,-14.50951099395752,-6.166919708251953,0.5576645135879517
1772533327381205200,4.515205322265625,-17.55007553100586,-6.425490379333496,0.5790773630142212
1772533327391137000,4.525136962890625,-19.636791229248047,-6.200037956237793,0.8387476801872253
1772533327401069300,4.5350693359375,-19.830398559570312,-5.927661418914795,0.9236429929733276
1772533327411000800,4.545000732421875,-18.468536376953125,-5.887528419494629,0.8923622369766235
1772533327420932900,4.554932861328125,-17.195262908935547,-5.752566814422607,1.0224604606628418
1772533327430865700,4.56486572265625,-16.597620010375977,-5.617134094238281,1.2990074157714844
1772533327440798000,4.5747978515625,-16.601736068725586,-5.183076858520508,1.297056794166565
1772533327450734600,4.584734619140625,-16.534839630126953,-4.285933494567871,0.6424828171730042
1772533327460667400,4.59466748046875,-15.889015197753906,-3.511293888092041,-0.2273622751235962
1772533327470594600,4.604594482421875,-14.356975555419922,-3.277557849884033,-0.9315069913864136
1772533327480526600,4.614526611328125,-11.987201690673828,-3.1853344440460205,-1.3277901411056519
1772533327490467000,4.624467041015625,-9.273824691772461,-3.1821160316467285,-1.412294626235962
1772533327500400000,4.634400146484375,-6.9047346115112305,-3.1413183212280273,-1.1249730587005615
1772533327510332400,4.64433251953125,-5.1042914390563965,-2.6358680725097656,-0.20842266082763672
1772533327520265500,4.654265380859375,-4.298328876495361,-2.004380226135254,0.9794363379478455
1772533327530184400,4.664184326171875,-4.349576473236084,-1.711879014968872,2.0643222332000732
1772533327540116000,4.674115966796875,-4.817399501800537,-1.2100688219070435,2.6746773719787598
1772533327550065000,4.68406494140625,-5.139328479766846,-0.8275473117828369,1.7872395515441895
1772533327559998200,4.693998291015625,-4.998253345489502,-0.8877183198928833,0.3223170340061188
1772533327569923800,4.703923828125,-4.6697869300842285,-0.8409584760665894,-0.08665198087692261
1772533327579856400,4.7138564453125,-4.246654033660889,-0.5231228470802307,0.005862534046173096
1772533327589768400,4.7237685546875,-3.6575303077697754,-0.026530742645263672,0.4362904131412506
1772533327599699000,4.733698974609375,-2.8254852294921875,0.5999897718429565,1.1319653987884521
1772533327609621200,4.743621337890625,-1.9982490539550781,1.2371853590011597,1.7302794456481934
1772533327619551000,4.753551025390625,-1.1845340728759766,1.7498891353607178,1.2593618631362915
1772533327629489400,4.763489501953125,-0.8084497451782227,2.3157758712768555,0.25953227281570435
1772533327639420200,4.773420166015625,-1.899322509765625,3.2335782051086426,0.14096421003341675
1772533327649359400,4.783359375,-3.8763251304626465,4.751016616821289,1.481307029724121
1772533327659290600,4.79329052734375,-5.117691516876221,7.249200344085693,3.6044094562530518
1772533327669252000,4.803252197265625,-3.8862061500549316,9.251961708068848,4.806177139282227
1772533327679186400,4.8131865234375,3.681882858276367,8.948914527893066,2.0371837615966797
1772533327689084200,4.823084228515625,17.40886688232422,6.018186569213867,-4.6183013916015625
1772533327699014700,4.8330146484375,33.117855072021484,4.6440510749816895,-12.608893394470215
1772533327708950800,4.84295068359375,42.08015441894531,4.890753269195557,-13.862068176269531
1772533327718882000,4.852882080078125,38.30781936645508,0.2958367168903351,-8.885091781616211
1772533327728842200,4.86284228515625,30.460237503051758,-2.6383330821990967,-8.641519546508789
1772533327738776300,4.8727763671875,24.952789306640625,-3.8093204498291016,-7.9299421310424805
1772533327748675800,4.88267578125,23.726421356201172,-5.822145938873291,-8.023316383361816
1772533327758606600,4.892606689453125,24.351417541503906,-7.805688381195068,-9.70208740234375
1772533327768574500,4.902574462890625,22.323486328125,-7.7925920486450195,-9.40676212310791
1772533327778509000,4.912509033203125,16.981138229370117,-6.523322105407715,-6.352921962738037
1772533327788426800,4.9224267578125,13.213547706604004,-5.803741455078125,-3.8926002979278564
1772533327798359600,4.932359619140625,12.103362083435059,-5.840478420257568,-3.861276865005493
1772533327808268000,4.94226806640625,9.542237281799316,-5.408810615539551,-3.3843250274658203
1772533327818198500,4.952198486328125,5.862262725830078,-4.480518341064453,-1.1653501987457275
1772533327828158500,4.962158447265625,2.5359392166137695,-3.116722822189331,1.2895759344100952
1772533327838091800,4.972091796875,0.0021390914916992188,-1.9270453453063965,2.844456672668457
1772533327848020700,4.982020751953125,-2.5964603424072266,-1.6302570104599,3.49550724029541
1772533327857953800,4.991953857421875,-5.300962924957275,-1.3473739624023438,2.9649620056152344
1772533327867882200,5.00188232421875,-6.638252258300781,-1.3772132396697998,1.604901909828186
1772533327877814500,5.011814453125,-6.918203353881836,-1.8843402862548828,0.6470177173614502
1772533327887745000,5.0217451171875,-8.06375789642334,-1.8758435249328613,0.9664914608001709
1772533327897677300,5.03167724609375,-9.985782623291016,-1.7170836925506592,1.469659447669983
1772533327907614200,5.0416142578125,-12.940052032470703,-1.4188047647476196,2.320413827896118
1772533327917547000,5.051547119140625,-16.973590850830078,-0.9188923239707947,3.5872466564178467
1772533327927480300,5.061480224609375,-20.84958267211914,-0.7401614189147949,4.022426605224609
1772533327937413400,5.071413330078125,-24.003469467163086,-0.8258931040763855,3.516177177429199
1772533327947343600,5.081343505859375,-25.70452117919922,-0.9190121293067932,3.7979557514190674
1772533327957276200,5.091276123046875,-24.751354217529297,-0.8247895240783691,4.283852577209473
1772533327967203000,5.101203125,-21.88652801513672,-0.6004361510276794,3.728053092956543
1772533327977135000,5.111135009765625,-19.257808685302734,-0.627739429473877,3.471876621246338
1772533327987048200,5.121048095703125,-16.996822357177734,-1.1478501558303833,3.5275089740753174
1772533327996978400,5.130978515625,-13.447493553161621,-1.7517896890640259,2.751737356185913
1772533328006942200,5.140942138671875,-9.379094123840332,-2.251659393310547,1.805166244506836
1772533328016875800,5.150875732421875,-5.907096862792969,-2.2135112285614014,1.9768898487091064
1772533328026774500,5.1607744140625,-3.258591651916504,-2.0699191093444824,1.9440785646438599
1772533328036704500,5.17070458984375,-1.3845100402832031,-2.4078152179718018,0.9235382080078125
1772533328046666000,5.180666015625,-0.9997949600219727,-2.5777699947357178,0.2342619001865387
1772533328056599300,5.190599365234375,-2.354397773742676,-1.956660270690918,0.9946467876434326
1772533328066527500,5.200527587890625,-4.135003566741943,-1.1599795818328857,1.9096646308898926
1772533328076460300,5.210460205078125,-5.878228187561035,-0.6170672178268433,2.0642247200012207
1772533328086396000,5.22039599609375,-8.545429229736328,0.17422935366630554,2.701915740966797
1772533328096328700,5.23032861328125,-10.32513427734375,1.0964465141296387,3.0558509826660156
1772533328106252800,5.240252685546875,-10.719210624694824,1.734508752822876,3.7098793983459473
1772533328116184800,5.250184814453125,-10.210870742797852,1.7842565774917603,4.558627605438232
1772533328126122200,5.260122314453125,-8.631819725036621,1.528403639793396,3.312955617904663
1772533328136054800,5.2700546875,-6.9400763511657715,1.2290953397750854,0.5257151126861572
1772533328145983200,5.279983154296875,-6.960641384124756,1.1095247268676758,-1.616509199142456
1772533328155915500,5.28991552734375,-7.134921550750732,1.445504069328308,-2.591801881790161
1772533328165823200,5.2998232421875,-4.178882122039795,1.9277844429016113,-3.603182077407837
1772533328175753000,5.3097529296875,0.9002933502197266,2.0095863342285156,-4.414454460144043
1772533328185717200,5.31971728515625,4.610511779785156,2.523301601409912,-3.433692455291748
1772533328195650300,5.329650390625,5.8303117752075195,4.128503799438477,-2.971111297607422
1772533328205586200,5.339586181640625,5.8595380783081055,5.450726509094238,-4.4255900382995605
1772533328215519500,5.34951953125,6.408799171447754,6.967844009399414,-4.724214553833008
1772533328225452800,5.359452880859375,9.923318862915039,8.852046012878418,-4.439647674560547
1772533328235386000,5.36938623046875,16.487884521484375,9.420259475708008,-4.703132152557373
1772533328245280300,5.3792802734375,27.260051727294922,7.4732465744018555,-5.955726623535156
1772533328255209700,5.389209716796875,33.88169860839844,2.276158094406128,-5.053942680358887
1772533328265151500,5.3991513671875,30.424659729003906,-3.0636050701141357,-4.309384346008301
1772533328275082200,5.409082275390625,30.826496124267578,-4.543224811553955,-11.412553787231445
1772533328285033700,5.41903369140625,36.335784912109375,-6.806163311004639,-16.040952682495117
1772533328294966500,5.428966552734375,39.36611557006836,-7.873020172119141,-14.093301773071289
1772533328304898300,5.438898193359375,35.8570671081543,-8.224835395812988,-11.295013427734375
1772533328314831000,5.4488310546875,27.049274444580078,-8.483088493347168,-10.479813575744629
1772533328324761900,5.458761962890625,17.088905334472656,-6.270586967468262,-8.68126106262207
1772533328334694100,5.468694091796875,8.747483253479004,-2.489549160003662,-4.8304595947265625
1772533328344628700,5.478628662109375,1.8409557342529297,1.1167919635772705,0.5919709205627441
1772533328354561300,5.488561279296875,-1.2987327575683594,4.20127010345459,6.672965049743652
1772533328364506400,5.49850634765625,-2.281783103942871,5.525528907775879,9.010845184326172
1772533328374440200,5.508440185546875,-1.5017995834350586,3.651089668273926,6.841949939727783
1772533328384358700,5.518358642578125,3.196077346801758,0.14844009280204773,2.4067156314849854
1772533328394291000,5.528291015625,6.0153703689575195,-2.1023504734039307,-0.8639025688171387
1772533328404229600,5.538229736328125,4.422935485839844,-3.236600399017334,-2.721540689468384
1772533328414162400,5.548162353515625,0.4572782516479492,-4.292454719543457,-2.852267026901245
1772533328424095500,5.558095458984375,-5.811291694641113,-4.776653289794922,-1.596928596496582
1772533328434028300,5.5680283203125,-12.44107437133789,-5.5759429931640625,-0.4922373294830322
1772533328443948500,5.577948486328125,-17.390056610107422,-5.83902645111084,0.6339960098266602
1772533328453880300,5.58788037109375,-21.3797607421875,-4.81962776184082,2.769233226776123
1772533328463817500,5.5978173828125,-24.654468536376953,-3.679348945617676,4.941112518310547
1772533328473749500,5.60774951171875,-26.83353042602539,-3.116654634475708,6.905372142791748
1772533328483688700,5.617688720703125,-27.25835418701172,-2.7772388458251953,8.942655563354492
1772533328493621500,5.62762158203125,-25.506467819213867,-2.224426031112671,10.023240089416504
1772533328503542500,5.63754248046875,-21.864093780517578,-2.2977652549743652,9.328286170959473
1772533328513474300,5.647474365234375,-18.418954849243164,-2.836066722869873,7.722437381744385
1772533328523414000,5.6574140625,-15.613058090209961,-3.240896463394165,5.998111724853516
1772533328533346600,5.6673466796875,-12.042118072509766,-3.8522348403930664,3.6376936435699463
1772533328543282700,5.67728271484375,-8.013448715209961,-4.514096260070801,0.9401390552520752
1772533328553215500,5.687215576171875,-4.854732990264893,-4.832990646362305,-0.9939064979553223
1772533328563143400,5.697143310546875,-2.96396541595459,-4.841071128845215,-1.8968653678894043
1772533328573076000,5.707075927734375,-1.8663063049316406,-4.280922889709473,-1.681692361831665
1772533328583001900,5.717001953125,-1.279411792755127,-3.13316011428833,-0.38178086280822754
1772533328592933400,5.726933349609375,-1.347978115081787,-2.3702731132507324,1.0531973838806152
1772533328602853000,5.73685302734375,-2.3322181701660156,-1.723352313041687,2.4793057441711426
1772533328612783600,5.74678369140625,-4.272380352020264,-0.9848732948303223,3.9212188720703125
1772533328622729200,5.756729248046875,-6.902915000915527,-0.5818910598754883,4.8728790283203125
1772533328632661200,5.7666611328125,-9.580063819885254,-0.23301394283771515,5.202479362487793
1772533328642593500,5.776593505859375,-12.100008010864258,0.5618737936019897,5.0960869789123535
1772533328652525600,5.786525634765625,-13.702261924743652,1.117485523223877,4.270458698272705
1772533328662456800,5.796456787109375,-12.994826316833496,0.6937826871871948,2.7016401290893555
1772533328672388900,5.806388916015625,-10.570505142211914,0.11836111545562744,2.216116189956665
1772533328682297900,5.8162978515625,-7.977348804473877,0.5180124044418335,2.446906328201294
1772533328692227300,5.826227294921875,-5.056649684906006,1.3550376892089844,1.9822527170181274
1772533328702188000,5.83618798828125,-2.1890077590942383,1.9477903842926025,1.1886272430419922
1772533328712120800,5.846120849609375,-1.0366792678833008,2.5565271377563477,0.9194492101669312
1772533328722052900,5.856052978515625,-2.1024532318115234,3.4872100353240967,0.664770245552063
1772533328731985400,5.8659853515625,-3.2473249435424805,4.457488536834717,-0.8341666460037231
1772533328741918700,5.875918701171875,-1.5536599159240723,5.139610290527344,-2.7461695671081543
1772533328751851300,5.885851318359375,2.39754581451416,5.54907751083374,-3.399178981781006
1772533328761755100,5.895755126953125,5.491451263427734,6.404726982116699,-3.218712329864502
1772533328771684900,5.905684814453125,5.466439247131348,7.810466766357422,-2.3451640605926514
1772533328781620200,5.9156201171875,4.465765953063965,9.307945251464844,-1.3186262845993042
1772533328791550700,5.92555078125,7.56678581237793,8.680463790893555,-0.15374886989593506
1772533328801485000,5.935485107421875,21.034618377685547,5.791934013366699,0.7191517353057861
1772533328811415800,5.945415771484375,41.18142318725586,4.657165050506592,-0.9974119663238525
1772533328821347600,5.95534765625,49.01845932006836,-2.4584109783172607,-1.3502050638198853
1772533328831278600,5.965278564453125,47.133060455322266,-8.59384822845459,-6.363285541534424
1772533328841218000,5.975218017578125,45.658905029296875,-8.33555793762207,-10.610418319702148
1772533328851149600,5.985149658203125,38.566986083984375,-7.456827640533447,-7.302132606506348
1772533328861083400,5.99508349609375,26.214942932128906,-5.096960544586182,-4.105060577392578
1772533328871015400,6.005015380859375,15.05199146270752,-3.1609044075012207,-4.004304885864258
1772533328880942000,6.014942138671875,8.277366638183594,-1.6078715324401855,-3.393836259841919
1772533328890873600,6.02487353515625,5.60166072845459,0.8642940521240234,-0.3313925266265869
1772533328900812500,6.0348125,5.754870414733887,3.1442513465881348,3.111682653427124
1772533328910744600,6.04474462890625,6.996487617492676,4.2850341796875,5.736942291259766
1772533328920675300,6.05467529296875,8.005505561828613,4.125760078430176,7.132568836212158
1772533328930607400,6.064607421875,7.308525085449219,2.8473150730133057,6.794469356536865
1772533328940578600,6.07457861328125,4.728338241577148,1.222684383392334,5.124311447143555
1772533328950514400,6.084514404296875,2.039470672607422,-0.4438142776489258,2.6221160888671875
1772533328960403500,6.094403564453125,-0.5560855865478516,-2.2615714073181152,0.5255025625228882
1772533328970334700,6.104334716796875,-3.664914131164551,-3.711925983428955,-0.5407568216323853
1772533328980267300,6.114267333984375,-6.90855598449707,-4.546331882476807,-0.9042971134185791
1772533328990198800,6.12419873046875,-10.328407287597656,-5.132210731506348,-0.9451568126678467
1772533329000152600,6.134152587890625,-13.240984916687012,-5.927849769592285,-1.203141212463379
1772533329019992300,6.153992431640625,-17.227067947387695,-6.029510974884033,-0.7621018886566162
1772533329039891200,6.17389111328125,-21.45111083984375,-3.8999319076538086,1.8957048654556274
1772533329049827600,6.18382763671875,-22.740230560302734,-3.4494922161102295,2.8373050689697266
1772533329059743500,6.193743408203125,-23.000667572021484,-2.9395546913146973,4.000735282897949
1772533329069677800,6.203677734375,-21.826522827148438,-2.526669502258301,4.847618103027344
1772533329079608600,6.213608642578125,-19.11339569091797,-2.1215622425079346,4.842669486999512
1772533329089542700,6.223542724609375,-15.380752563476562,-1.9320590496063232,4.207553863525391
1772533329099470600,6.233470703125,-11.495210647583008,-2.3748176097869873,2.9242565631866455
1772533329109404000,6.24340380859375,-8.107210159301758,-3.147616386413574,1.2051444053649902
1772533329119312400,6.2533125,-5.57773494720459,-4.175532817840576,-0.7001860737800598
1772533329129243100,6.2632431640625,-4.60392427444458,-4.697864532470703,-2.3583645820617676
1772533329139200800,6.27320068359375,-5.316108703613281,-4.428965091705322,-2.173348903656006
1772533329149134300,6.28313427734375,-6.592803955078125,-3.7300381660461426,-0.30274009704589844
1772533329159079700,6.29307958984375,-7.4770426750183105,-2.9280245304107666,1.529660701751709
1772533329169014500,6.3030146484375,-7.555055141448975,-2.379966974258423,2.821634292602539
1772533329178936300,6.312936279296875,-7.046769142150879,-1.990213394165039,3.441877603530884
1772533329188870000,6.322869873046875,-7.284502029418945,-1.6587531566619873,3.512145757675171
1772533329198794000,6.3327939453125,-8.06797981262207,-1.4591277837753296,3.1101572513580322
1772533329208726300,6.342726318359375,-8.387493133544922,-1.5937007665634155,2.0960044860839844
1772533329218659600,6.35265966796875,-7.277001857757568,-2.2364044189453125,0.5621160268783569
1772533329228592400,6.36259228515625,-6.175849914550781,-2.725687026977539,-0.5930664539337158
1772533329238523100,6.372523193359375,-5.521572113037109,-2.3871891498565674,-0.8465472459793091
1772533329248455700,6.38245556640625,-4.558172702789307,-1.4722849130630493,-0.443183571100235
1772533329258390500,6.392390625,-2.72139835357666,-0.81784987449646,0.2632408142089844
1772533329268323300,6.4023232421875,0.06667804718017578,-0.4363657236099243,0.382163405418396
1772533329278257200,6.412257080078125,2.276247024536133,0.04587697982788086,-0.0159604549407959
1772533329288190200,6.422190185546875,2.667337417602539,0.7277498245239258,-0.14307087659835815
1772533329298135800,6.4321357421875,1.4883804321289062,1.7802424430847168,-1.3554961681365967
1772533329308070000,6.44206982421875,-0.21527099609375,3.2479543685913086,-3.1268157958984375
1772533329317980000,6.45197998046875,-0.7694931030273438,4.898350715637207,-3.7449193000793457
1772533329327911700,6.46191162109375,1.7469110488891602,6.552154541015625,-3.121182441711426
1772533329337847600,6.47184765625,5.461756706237793,7.961236476898193,-0.9185280203819275
1772533329347779600,6.481779541015625,8.48285961151123,9.153483390808105,2.2131426334381104
1772533329357722600,6.49172265625,14.030326843261719,10.41865348815918,3.953460693359375
1772533329367656000,6.501656005859375,22.647247314453125,11.849254608154297,2.4318246841430664
1772533329377576700,6.51157666015625,25.597299575805664,8.378500938415527,1.5902159214019775
1772533329387508700,6.5215087890625,22.699363708496094,2.904946804046631,-0.48099660873413086
1772533329397442800,6.53144287109375,20.49612808227539,2.7148144245147705,-2.77694034576416
1772533329407374800,6.541374755859375,19.307437896728516,2.5994701385498047,-1.414791226387024
1772533329417303600,6.551303466796875,17.983951568603516,2.942138195037842,0.8194711208343506
1772533329427235300,6.5612353515625,15.948280334472656,2.969449758529663,0.6055841445922852
1772533329437168000,6.571168212890625,13.812394142150879,2.1917455196380615,-0.7725963592529297
1772533329447100200,6.58110009765625,12.063308715820312,2.4026412963867188,-0.6221731305122375
1772533329457007400,6.59100732421875,10.360941886901855,3.33229660987854,1.6713889837265015
1772533329466936800,6.600936767578125,9.80950927734375,3.473454236984253,3.7934377193450928
1772533329476913400,6.610913330078125,10.2344388961792,2.5662710666656494,4.59147834777832
1772533329486847500,6.620847412109375,10.634185791015625,1.2513539791107178,4.049459457397461
1772533329496781300,6.63078125,9.530850410461426,-0.05482602119445801,3.322115182876587
1772533329506715400,6.64071533203125,6.806977272033691,-0.4580448865890503,3.101024866104126
1772533329516627000,6.650626953125,3.6486167907714844,-0.7234911918640137,2.9953298568725586
1772533329526559000,6.66055908203125,0.6464147567749023,-1.0465079545974731,2.5382792949676514
1772533329536487700,6.67048779296875,-2.5916595458984375,-1.021081805229187,1.9013848304748535
1772533329546419200,6.680419189453125,-6.170522689819336,-1.2858439683914185,1.0211896896362305
1772533329556365300,6.690365234375,-9.73978328704834,-1.9018588066101074,0.35834378004074097
1772533329566298400,6.70029833984375,-12.585826873779297,-2.6005468368530273,-0.13277697563171387
1772533329576219000,6.710218994140625,-13.843653678894043,-2.9940035343170166,-0.8928875923156738
1772533329586150700,6.720150634765625,-13.590116500854492,-3.1147427558898926,-1.8097641468048096
1772533329596084500,6.73008447265625,-12.616515159606934,-3.462724208831787,-2.5521371364593506
1772533329606016500,6.7400166015625,-12.163675308227539,-3.8357436656951904,-2.9714324474334717
1772533329615967200,6.74996728515625,-12.545976638793945,-4.131657123565674,-3.2908709049224854
1772533329625901000,6.759901123046875,-13.618088722229004,-4.430715560913086,-3.511017084121704
1772533329635808800,6.769808837890625,-15.45250129699707,-4.168283462524414,-2.8800442218780518
1772533329645740000,6.779739990234375,-16.877761840820312,-3.3940258026123047,-1.5144394636154175
1772533329655679200,6.78967919921875,-16.82119369506836,-2.7137491703033447,-0.3867177367210388
1772533329665611300,6.799611328125,-15.30820083618164,-2.513688564300537,0.22423763573169708
1772533329675539200,6.809539306640625,-12.518881797790527,-2.494567394256592,0.11299177259206772
1772533329685471000,6.819470947265625,-9.777265548706055,-2.8555264472961426,-0.531317949295044
1772533329695410700,6.82941064453125,-7.826066493988037,-3.2528042793273926,-1.205552577972412
1772533329705343200,6.83934326171875,-6.560041427612305,-3.348003387451172,-1.1627132892608643
1772533329715272000,6.84927197265625,-5.57830810546875,-3.030029773712158,-0.6057479381561279
1772533329725204200,6.859204345703125,-4.7591423988342285,-2.728665828704834,0.03414684906601906
1772533329735145200,6.869145263671875,-3.0214357376098633,-2.752413511276245,-0.2222948670387268
1772533329745078300,6.879078369140625,-1.2011613845825195,-2.7682011127471924,-0.6840042471885681
1772533329754996500,6.88899658203125,-0.5291862487792969,-2.524716377258301,-0.6165357828140259
1772533329764928300,6.89892822265625,-0.9306888580322266,-1.8786495923995972,-0.5995848178863525
1772533329774859800,6.90885986328125,-2.0027647018432617,-1.3723552227020264,-0.3731687664985657
1772533329784791300,6.918791259765625,-3.096867561340332,-0.8771035075187683,0.39585089683532715
1772533329794731500,6.9287314453125,-3.776136875152588,0.2431570291519165,1.161311149597168
1772533329804663800,6.938663818359375,-4.0284810066223145,1.3633900880813599,1.3181161880493164
1772533329814591200,6.94859130859375,-3.9023280143737793,2.1401147842407227,1.0181820392608643
1772533329824523300,6.958523193359375,-2.939215660095215,2.4064345359802246,0.40357306599617004
1772533329834458400,6.968458251953125,-1.07891845703125,2.284186601638794,-0.4876500368118286
1772533329844390700,6.978390625,1.5285587310791016,2.6305387020111084,-1.6341772079467773
1772533329854317600,6.988317626953125,3.4387311935424805,3.7326500415802,-2.278247833251953
1772533329864249300,6.998249267578125,4.676155090332031,5.014035224914551,-1.9384644031524658
1772533329874183000,7.008182861328125,6.207066535949707,6.499228477478027,-1.541722059249878
1772533329884115000,7.018114990234375,8.742321968078613,7.764734745025635,-1.1770014762878418
1772533329894057500,7.028057373046875,12.406651496887207,7.603349685668945,-0.46698763966560364
1772533329903990500,7.037990478515625,17.908794403076172,6.76200532913208,0.5762386918067932
1772533329913932300,7.047932373046875,24.953296661376953,7.382206916809082,0.2767767608165741
1772533329923866000,7.0578662109375,29.293264389038086,8.442733764648438,-1.4838764667510986
1772533329933776000,7.06777587890625,25.961383819580078,5.160561561584473,-3.051501989364624
1772533329943707400,7.077707275390625,19.351726531982422,0.09067344665527344,-2.811776638031006
1772533329953655600,7.087655517578125,13.789468765258789,0.7687733173370361,-2.095705032348633
1772533329963588600,7.097588623046875,12.149738311767578,3.5573182106018066,0.4713074564933777
1772533329973511200,7.10751123046875,13.004755973815918,4.787084579467773,1.5668226480484009
1772533329983443200,7.117443115234375,14.065074920654297,4.848442077636719,0.7270340919494629
1772533329993373200,7.127373291015625,14.788203239440918,4.365450382232666,0.11801958084106445
1772533330003305200,7.13730517578125,13.792535781860352,3.695108413696289,0.4834938645362854
1772533330013213700,7.147213623046875,12.31398868560791,2.9933271408081055,1.8060896396636963
1772533330023143200,7.15714306640625,11.28233528137207,2.4379167556762695,3.745847463607788
1772533330033083600,7.167083740234375,9.598599433898926,2.06461238861084,4.687256336212158
1772533330043014400,7.177014404296875,6.5022430419921875,1.3398828506469727,4.8170013427734375
1772533330052939500,7.186939453125,2.231783866882324,0.5725283622741699,4.6666717529296875
1772533330062869800,7.196869873046875,-2.3521032333374023,-0.2952861785888672,4.3189263343811035
1772533330072806000,7.206805908203125,-6.243722915649414,-1.515117883682251,3.2600488662719727
1772533330082736600,7.216736572265625,-8.951520919799805,-2.946721315383911,1.810028314590454
1772533330092706000,7.2267060546875,-10.319705963134766,-4.475141525268555,0.6452614068984985
1772533330102641000,7.236640869140625,-10.621379852294922,-6.182345390319824,-0.07539832592010498
1772533330112535000,7.24653515625,-9.506307601928711,-7.59242582321167,-0.900628387928009
1772533330122465500,7.256465576171875,-7.5629353523254395,-8.045862197875977,-2.3367862701416016
1772533330132404000,7.266404052734375,-6.470184326171875,-8.215692520141602,-2.842721939086914
1772533330142335500,7.27633544921875,-7.741459369659424,-7.977072238922119,-1.9616961479187012
1772533330152300300,7.28630029296875,-10.632495880126953,-7.215999126434326,-0.32529503107070923
1772533330162235000,7.29623486328125,-13.967044830322266,-6.151941299438477,1.6767525672912598
1772533330172105000,7.30610498046875,-16.333179473876953,-5.524366855621338,3.5881121158599854
1772533330182033200,7.316033203125,-17.52417755126953,-5.56217098236084,4.419517517089844
1772533330191994000,7.325994140625,-17.462142944335938,-5.993700981140137,3.4526872634887695
1772533330201925600,7.335925537109375,-16.137027740478516,-6.54141092300415,0.8787429332733154
1772533330211894300,7.345894287109375,-13.954490661621094,-6.875598907470703,-1.420371413230896
1772533330221829400,7.355829345703125,-10.71577262878418,-6.845309257507324,-2.885873317718506
1772533330231730700,7.365730712890625,-8.22252368927002,-7.235101699829102,-4.231708526611328
1772533330241662500,7.375662353515625,-8.144214630126953,-7.722259044647217,-4.466269493103027
1772533330251606000,7.38560595703125,-8.692319869995117,-7.094939231872559,-3.0480666160583496
1772533330261538800,7.395538818359375,-8.277515411376953,-5.392436981201172,-0.6821202635765076
1772533330271478500,7.405478515625,-7.221399784088135,-4.36937141418457,1.2833871841430664
1772533330281412400,7.415412353515625,-6.1516008377075195,-4.2373576164245605,1.8702213764190674
1772533330291350000,7.42535009765625,-5.610171318054199,-4.181772708892822,1.6716846227645874
1772533330301284000,7.4352841796875,-5.449810981750488,-3.9578769207000732,1.7790648937225342
1772533330311199000,7.445198974609375,-5.230761528015137,-3.713803291320801,2.00160813331604
1772533330321131000,7.455131103515625,-5.283055305480957,-3.5162875652313232,1.941297173500061
1772533330331065900,7.46506591796875,-5.254504203796387,-3.3261399269104004,1.7308175563812256
1772533330340998100,7.474998046875,-5.457609176635742,-3.0091776847839355,2.018113136291504
1772533330350930200,7.48493017578125,-5.984081268310547,-2.25669527053833,2.9497909545898438
1772533330360862700,7.49486279296875,-5.9524335861206055,-1.1291286945343018,4.277132034301758
1772533330370796300,7.50479638671875,-4.735414505004883,-0.07791614532470703,5.3272175788879395
1772533330380728800,7.514728759765625,-3.274684429168701,1.1839642524719238,5.635008335113525
1772533330390655700,7.52465576171875,-1.6635417938232422,3.005190849304199,4.76072883605957
1772533330400587800,7.534587890625,-0.7011075019836426,4.550745010375977,2.5232112407684326
1772533330410525400,7.544525390625,-0.44374513626098633,5.672637462615967,-0.21797782182693481
1772533330420458000,7.5544580078125,0.27678680419921875,7.268919467926025,-1.9187296628952026
1772533330430389500,7.564389404296875,1.9920654296875,9.668846130371094,-0.7495830059051514
1772533330440322000,7.574322021484375,6.355770111083984,11.529563903808594,2.5561981201171875
1772533330450253600,7.584253662109375,15.151117324829102,13.422104835510254,4.369354248046875
1772533330460185900,7.594185791015625,25.19936752319336,15.65991497039795,1.6923123598098755
1772533330470122200,7.604122314453125,28.058422088623047,14.07051944732666,-2.6464967727661133
1772533330480055000,7.614054931640625,26.167156219482422,10.333789825439453,-6.9714789390563965
1772533330489993700,7.62399365234375,21.52349090576172,6.867278099060059,-8.545722007751465
1772533330499927000,7.633927001953125,11.63554573059082,9.264245986938477,-5.757128715515137
1772533330509859600,7.643859619140625,10.231047630310059,11.917296409606934,-3.6815438270568848
1772533330519793000,7.65379296875,18.80594825744629,8.883171081542969,-4.811554908752441
1772533330529717000,7.663717041015625,24.97614288330078,5.385133743286133,-7.510605812072754
1772533330539649500,7.6736494140625,26.433162689208984,3.8389639854431152,-8.818572044372559
1772533330549576200,7.683576171875,23.22123908996582,3.261165142059326,-8.352241516113281
1772533330559508000,7.693508056640625,15.062416076660156,3.5749716758728027,-6.338022232055664
1772533330569437200,7.703437255859375,8.097809791564941,3.7402052879333496,-1.7423310279846191
1772533330579368700,7.71336865234375,5.464207649230957,4.0377326011657715,4.617572784423828
1772533330589371000,7.723370849609375,3.0738401412963867,3.655776023864746,8.297195434570312
1772533330599309300,7.733309326171875,-1.353625774383545,2.2777795791625977,8.946028709411621
1772533330609144300,7.743144287109375,-4.847457408905029,0.533689022064209,8.15654468536377
1772533330619072500,7.753072509765625,-5.404245376586914,-1.5893974304199219,6.831471920013428
1772533330629043200,7.763043212890625,-3.361530303955078,-4.436322212219238,3.596511125564575
1772533330638975700,7.772975830078125,-3.3704166412353516,-7.302053928375244,-0.47951561212539673
1772533330648915700,7.782915771484375,-6.5878143310546875,-8.541064262390137,-2.672363758087158
1772533330658848800,7.792848876953125,-10.264389991760254,-8.384471893310547,-2.6222951412200928
1772533330668760600,7.802760498046875,-12.818592071533203,-7.514903545379639,-1.3710978031158447
1772533330678691600,7.812691650390625,-14.850149154663086,-6.6817426681518555,-0.01199871301651001
1772533330688632300,7.82263232421875,-17.296958923339844,-6.375197410583496,1.5981106758117676
1772533330698564400,7.832564453125,-19.98674774169922,-6.0255208015441895,2.953935146331787
1772533330708487400,7.8424873046875,-21.628211975097656,-5.431818962097168,3.648174285888672
1772533330718418400,7.85241845703125,-21.32776641845703,-5.060412883758545,4.068618297576904
1772533330728359000,7.86235888671875,-18.432632446289062,-4.814888000488281,3.443016290664673
1772533330738291000,7.872291015625,-15.08163833618164,-4.801825523376465,1.9159471988677979
1772533330748223200,7.88222314453125,-13.299027442932129,-4.677338600158691,0.702526330947876
1772533330758155300,7.8921552734375,-12.32816219329834,-4.637627601623535,-0.4865334630012512
1772533330768087300,7.90208740234375,-11.369527816772461,-4.8211894035339355,-1.1106524467468262
1772533330778019300,7.912019287109375,-10.182662963867188,-4.725319862365723,-0.674406111240387
1772533330787951600,7.92195166015625,-8.440138816833496,-4.4243597984313965,-0.1310800313949585
1772533330797883600,7.931883544921875,-6.253507614135742,-4.471874713897705,0.1531977355480194
1772533330807816000,7.94181591796875,-4.68532133102417,-4.649383068084717,0.14799609780311584
1772533330817748000,7.951748046875,-4.625948429107666,-4.583837509155273,0.09465590119361877
1772533330827655200,7.9616552734375,-4.539107799530029,-4.360687255859375,0.28741997480392456
1772533330837584600,7.971584716796875,-4.119338512420654,-4.324132442474365,-0.24855181574821472
1772533330847545900,7.9815458984375,-4.292699337005615,-4.4139556884765625,-1.3914469480514526
1772533330857478700,7.991478759765625,-5.592913627624512,-3.8327441215515137,-0.8662614822387695
1772533330867410400,8.001410400390625,-7.02277946472168,-2.8421709537506104,0.9365558624267578
1772533330877343000,8.011343017578126,-7.598562717437744,-2.1069514751434326,2.1275253295898438
1772533330887275000,8.02127490234375,-7.579798221588135,-1.5680255889892578,2.5104832649230957
1772533330897207600,8.03120751953125,-6.373775482177734,-1.134900450706482,1.8966256380081177
1772533330907133400,8.041133544921875,-3.7774205207824707,-1.0485326051712036,0.5332664251327515
1772533330917065200,8.051065185546875,-1.365267276763916,-0.7757517099380493,-0.33514514565467834
1772533330927005700,8.061005615234375,0.4970388412475586,0.07141733169555664,-0.39860329031944275
1772533330936938500,8.0709384765625,1.8539190292358398,1.3633065223693848,-0.2010030746459961
1772533330946861600,8.080861572265626,2.59810733795166,2.892585515975952,0.17212113738059998
1772533330956793300,8.09079345703125,2.179684638977051,4.930198669433594,0.664696455001831
1772533330966731500,8.1007314453125,0.9787445068359375,7.263903617858887,0.4765441417694092
1772533330976664000,8.1106640625,0.7190093994140625,8.952580451965332,-0.33389079570770264
1772533330986592500,8.120592529296875,3.4772205352783203,9.471360206604004,-0.39897915720939636
1772533330996524500,8.130524658203125,10.669349670410156,10.09782886505127,-0.024590030312538147
1772533331006454000,8.1404541015625,19.653013229370117,10.724308013916016,-1.3375964164733887
1772533331016348200,8.15034814453125,23.983203887939453,6.933786392211914,-2.235069990158081
1772533331036251100,8.170251220703125,26.089139938354492,2.840810775756836,-0.40050527453422546
1772533331046186200,8.180186279296874,28.987876892089844,2.2420732975006104,1.0177831649780273
1772533331056117000,8.190116943359374,30.278648376464844,1.0377655029296875,0.08281596004962921
1772533331066051800,8.2000517578125,29.2265682220459,0.571923017501831,-2.961606979370117
1772533331075979800,8.209979736328124,27.184871673583984,0.5853512287139893,-5.084900379180908
1772533331085913900,8.219913818359375,24.083538055419922,1.0794663429260254,-4.639518737792969
1772533331095857000,8.22985693359375,19.374664306640625,2.379154920578003,-2.2931904792785645
1772533331105792000,8.2397919921875,13.784335136413574,3.66264271736145,0.08666807413101196
1772533331115728600,8.249728759765626,8.011543273925781,4.509173393249512,1.9175214767456055
1772533331125663700,8.259663818359375,2.8632192611694336,5.230910301208496,3.8454999923706055
1772533331135583200,8.269583251953126,-0.4587593078613281,5.123989105224609,5.569940567016602
1772533331145516800,8.279516845703125,-1.1350173950195312,3.7192509174346924,5.752089977264404
1772533331155455000,8.289455078125,-0.9636735916137695,1.6173009872436523,3.587275505065918
1772533331165388800,8.299388916015625,-1.3467340469360352,-0.3825787305831909,0.743941605091095
1772533331175299800,8.3092998046875,-2.0314106941223145,-1.8853152990341187,-0.8750396966934204
1772533331185231400,8.3192314453125,-2.9093379974365234,-2.952474594116211,-1.439827799797058
1772533331195170800,8.3291708984375,-4.845249652862549,-3.7501025199890137,-1.4029202461242676
1772533331205103400,8.339103271484374,-7.74686336517334,-4.169816493988037,-1.251561164855957
1772533331215009800,8.349009765625,-11.071316719055176,-4.340490818023682,-1.566680669784546
1772533331224939500,8.358939453125,-14.151176452636719,-4.656514644622803,-1.8554112911224365
1772533331234908700,8.36890869140625,-16.237529754638672,-4.868623733520508,-1.528234839439392
1772533331244842200,8.37884228515625,-17.597990036010742,-4.796792984008789,-1.390113115310669
1772533331254739700,8.38873974609375,-18.573688507080078,-4.570478439331055,-1.895666480064392
1772533331264669700,8.398669677734375,-18.221275329589844,-4.954501152038574,-2.5379326343536377
1772533331274606000,8.408606201171875,-16.925899505615234,-5.626765251159668,-2.5319228172302246
1772533331284536800,8.418536865234374,-16.251710891723633,-5.419386863708496,-1.3950072526931763
1772533331294469000,8.42846923828125,-15.98432731628418,-4.40810489654541,0.1683192253112793
1772533331304400100,8.438400146484375,-14.752094268798828,-3.5652217864990234,0.9265260100364685
1772533331314343000,8.448343017578125,-12.910420417785645,-3.348508834838867,0.40270328521728516
1772533331324275000,8.45827490234375,-11.04796028137207,-3.3662467002868652,-0.5673543214797974
1772533331334195200,8.4681953125,-9.070151329040527,-3.3827285766601562,-1.2497503757476807
1772533331344126200,8.478126220703125,-7.141901969909668,-3.41640043258667,-1.8402066230773926
1772533331354064100,8.488064208984374,-5.02556848526001,-3.449794292449951,-2.5073013305664062
1772533331363995600,8.49799560546875,-2.777035713195801,-3.2923264503479004,-2.581819772720337
1772533331373926000,8.50792578125,-1.3234362602233887,-2.881704092025757,-2.041966438293457
1772533331383857400,8.517857421875,-1.4782795906066895,-2.4719560146331787,-1.195421576499939
1772533331393832200,8.527832275390624,-2.8791561126708984,-2.1116628646850586,-0.35265302658081055
1772533331403768000,8.53776806640625,-4.346672534942627,-1.2863996028900146,0.6817895174026489
1772533331413662200,8.547662109375,-5.624658584594727,-0.43503129482269287,1.47959303855896
1772533331423594000,8.557593994140625,-6.044245719909668,-0.2417062520980835,1.4097161293029785
1772533331433538600,8.56753857421875,-5.37944221496582,-0.052550554275512695,0.8817111253738403
1772533331443471600,8.5774716796875,-3.8063435554504395,0.21947741508483887,0.5044103860855103
1772533331453408300,8.587408203125,-1.3258357048034668,0.018227338790893555,0.2967228889465332
1772533331463341600,8.597341552734376,2.1552915573120117,-0.06487727165222168,-0.02306818962097168
1772533331473269800,8.607269775390625,4.6139631271362305,1.0782824754714966,-0.26225775480270386
1772533331483202600,8.61720263671875,4.616399765014648,2.5813112258911133,-0.22720718383789062
1772533331493134000,8.627134033203125,3.9454212188720703,3.5770318508148193,-0.37661072611808777
1772533331503067000,8.63706689453125,2.5667009353637695,4.905115127563477,0.1348995566368103
1772533331512996000,8.64699609375,2.5743608474731445,6.426942348480225,1.9116418361663818
1772533331522928600,8.6569287109375,5.79196834564209,6.925522804260254,2.942197799682617
1772533331532863000,8.666863037109374,10.908872604370117,6.652441024780273,2.189821243286133
1772533331542795500,8.67679541015625,17.22678565979004,7.130523204803467,0.5247493386268616
1772533331552726000,8.68672607421875,20.797203063964844,5.600276470184326,-0.25473523139953613
1772533331562658300,8.696658203125,18.705257415771484,3.3874363899230957,-0.10714906454086304
1772533331572578000,8.706578125,12.901209831237793,4.4184370040893555,-0.14998891949653625
1772533331582509000,8.716509033203126,5.897523880004883,5.848457336425781,-0.1541881412267685
1772533331592461300,8.72646142578125,2.3219165802001953,6.360957622528076,-1.7529125213623047
1772533331602394600,8.73639453125,4.70939826965332,5.65114688873291,-4.037195205688477
1772533331612321500,8.746321533203124,9.087931632995605,4.55574369430542,-4.191643714904785
1772533331622254000,8.756254150390625,14.904143333435059,4.1873979568481445,-1.4896976947784424
1772533331632173000,8.766173095703126,21.38520050048828,3.820258855819702,1.744957685470581
1772533331642104300,8.776104248046876,25.03626251220703,3.737046003341675,5.069005966186523
1772533331652049700,8.786049560546875,24.80782699584961,4.6073198318481445,8.059989929199219
1772533331661982200,8.795982177734375,21.32520294189453,5.320302486419678,8.184468269348145
1772533331671909400,8.805909423828124,16.026206970214844,4.832245826721191,6.094253063201904
1772533331681841400,8.81584130859375,9.909269332885742,3.5104403495788574,3.473647356033325
1772533331691791400,8.825791259765625,3.4392528533935547,2.4312660694122314,0.6739131212234497
1772533331701725200,8.83572509765625,-1.9858508110046387,1.5017037391662598,-2.3028037548065186
1772533331711628000,8.8456279296875,-6.462569236755371,0.0824747085571289,-4.67197847366333
1772533331721559000,8.85555908203125,-8.375080108642578,-1.1715128421783447,-4.513947486877441
1772533331731503400,8.86550341796875,-5.328860759735107,-2.054290771484375,-3.3668909072875977
1772533331741435600,8.875435546875,-1.8835358619689941,-3.3178648948669434,-3.593151092529297
1772533331751374800,8.885374755859376,-1.6976313591003418,-4.749087333679199,-4.069875717163086
1772533331761307600,8.8953076171875,-3.8821206092834473,-5.2733869552612305,-4.087924003601074
1772533331771237600,8.905237548828126,-8.109831809997559,-5.205119609832764,-3.182097911834717
1772533331781170200,8.915170166015624,-13.037469863891602,-4.991971015930176,-2.4035871028900146
1772533331791089700,8.925089599609375,-16.822566986083984,-5.075505256652832,-3.509416103363037
1772533331801021000,8.93502099609375,-19.06655502319336,-5.439963340759277,-5.677440643310547
1772533331810971000,8.944970947265626,-19.595184326171875,-5.663749694824219,-7.273190498352051
1772533331820904000,8.954904052734374,-19.18429946899414,-5.655457496643066,-7.599304676055908
1772533331830831000,8.9648310546875,-18.28277587890625,-5.516608238220215,-7.456608772277832
1772533331840763600,8.974763671875,-16.294979095458984,-5.1020917892456055,-7.495487213134766
1772533331850696400,8.984696533203126,-13.268417358398438,-4.784090995788574,-6.63462495803833
1772533331860629000,8.99462890625,-9.93410587310791,-4.611651420593262,-4.3103556632995605
1772533331870557400,9.004557373046875,-6.557294845581055,-3.8824098110198975,-2.1031432151794434
1772533331880489500,9.014489501953125,-3.1046223640441895,-2.9792144298553467,-0.4690423011779785
1772533331890399000,9.02439892578125,-0.6994867324829102,-2.8493316173553467,0.22095179557800293
1772533331900328700,9.03432861328125,-0.9170522689819336,-3.0432658195495605,0.6893706321716309
1772533331910292700,9.044292724609376,0.9314994812011719,-1.7787269353866577,0.9352078437805176
1772533331920226000,9.05422607421875,1.0098276138305664,-0.28632867336273193,-0.4821668863296509
1772533331930150400,9.064150390625,-0.9336338043212891,-2.0034496784210205,-0.38491010665893555
1772533331940083000,9.0740830078125,-1.116551399230957,-3.6784462928771973,-0.4106532335281372
1772533331950017800,9.084017822265626,0.8504219055175781,-3.256892442703247,-0.44351643323898315
1772533331959950600,9.09395068359375,2.6428747177124023,-1.547822117805481,0.14664602279663086
1772533331969879600,9.103879638671875,2.2475948333740234,-0.5371531844139099,1.2942007780075073
1772533331979811800,9.113811767578126,0.9772377014160156,-0.2570561170578003,2.5699758529663086
1772533331989745000,9.123744873046874,-0.13384723663330078,-0.48548972606658936,2.9811086654663086
1772533331999677200,9.13367724609375,-1.2602148056030273,-0.8592863082885742,2.513251781463623
1772533332009584600,9.143584716796875,-2.5601882934570312,-0.645198404788971,2.7298858165740967
1772533332019514600,9.1535146484375,-1.9831466674804688,0.04909861087799072,2.74452543258667
1772533332029483300,9.163483154296875,0.18040084838867188,0.2138892412185669,3.104355812072754
1772533332039417000,9.1734169921875,1.1983909606933594,-0.506996750831604,4.336395263671875
1772533332049338400,9.18333837890625,2.1984758377075195,-1.4814263582229614,5.804548740386963
1772533332059271000,9.19327099609375,3.1841115951538086,-2.346011161804199,6.149877071380615
1772533332069212400,9.20321240234375,4.446846961975098,-2.521540403366089,4.686066150665283
1772533332079146000,9.21314599609375,4.996186256408691,-1.6968318223953247,3.184602737426758
1772533332089096700,9.2230966796875,0.7659578323364258,-0.2890360355377197,2.015324354171753
1772533332099032000,9.233031982421876,0.9864568710327148,2.226400852203369,0.10525894165039062
1772533332108930600,9.2429306640625,7.314022064208984,3.6852259635925293,-1.1228678226470947
1772533332118862000,9.252862060546875,7.100264549255371,2.6406021118164062,-1.0981800556182861
1772533332128796400,9.26279638671875,2.443203926086426,1.8462328910827637,-0.38936442136764526
1772533332138728200,9.272728271484375,-1.5072746276855469,3.14241361618042,-0.4206286370754242
1772533332148658400,9.282658447265625,-2.404897689819336,4.054111957550049,-0.46530741453170776
1772533332158590000,9.29258984375,-0.23695659637451172,4.466272354125977,-1.3052985668182373
1772533332168524300,9.302524169921876,2.740476608276367,4.16266393661499,-1.616459608078003
1772533332178456000,9.3124560546875,6.640505790710449,3.120950222015381,0.8029359579086304
1772533332188393500,9.3223935546875,10.065235137939453,2.2824792861938477,3.1804637908935547
1772533332198325800,9.33232568359375,12.75770378112793,2.313199043273926,3.9081525802612305
1772533332208258600,9.342258544921876,14.629660606384277,2.3451075553894043,3.720283031463623
1772533332218191000,9.352191162109374,13.869487762451172,1.5121150016784668,2.9365041255950928
1772533332228130600,9.362130615234374,11.077515602111816,1.0811576843261719,1.258306860923767
1772533332247982300,9.381982421875,3.1224966049194336,1.0680811405181885,-0.7217129468917847
1772533332257914000,9.3919140625,-0.7550878524780273,0.572721004486084,-0.6523911356925964
1772533332267845000,9.40184521484375,-3.8466296195983887,0.152801513671875,-0.36928483843803406
1772533332277776600,9.411776611328126,-5.601025581359863,-0.24020099639892578,-0.3624768555164337
1772533332287709000,9.421708984375,-6.161084175109863,-0.8755214214324951,-0.7422115802764893
1772533332297640400,9.431640380859376,-6.277401924133301,-1.5604743957519531,-0.9937787652015686
1772533332307588600,9.441588623046876,-5.838396072387695,-1.707880973815918,-1.0216220617294312
1772533332317522000,9.45152197265625,-4.151835918426514,-1.6275923252105713,-1.4312069416046143
1772533332327439600,9.461439697265625,-1.9433212280273438,-2.8112215995788574,-2.213956594467163
1772533332337371400,9.471371337890625,-1.089472770690918,-4.473178386688232,-2.879462242126465
1772533332347301400,9.48130126953125,-1.65045166015625,-4.886157512664795,-3.091731309890747
1772533332357233200,9.491233154296875,-2.921571731567383,-3.8923134803771973,-1.9475109577178955
1772533332367166000,9.501166015625,-3.6933140754699707,-2.1513023376464844,0.09628675878047943
1772533332377097700,9.51109765625,-3.9522719383239746,-0.5317184925079346,1.9600999355316162
1772533332387045400,9.52104541015625,-3.514608860015869,0.7295181751251221,3.265575885772705
1772533332396978700,9.530978759765626,-2.427638053894043,1.1068873405456543,3.172708511352539
1772533332406907100,9.5409072265625,-1.423783302307129,0.2768216133117676,1.235939621925354
1772533332416840000,9.55083984375,-1.0331416130065918,-1.2725045680999756,-1.4961717128753662
1772533332426740000,9.560739990234374,-0.9285950660705566,-2.873568296432495,-3.6789679527282715
1772533332436669400,9.57066943359375,-1.021888256072998,-4.030546188354492,-4.706188201904297
1772533332446608600,9.580608642578126,-1.7166080474853516,-4.532415866851807,-4.547708988189697
