time,seconds_elapsed,z,y,x
1772533322980966400,0.11496630859375,-0.11131685227155685,-0.21650861203670502,0.1412765234708786
1772533323040866000,0.174865966796875,-0.15073047578334808,-0.17709499597549438,0.1508636325597763
1772533323070663000,0.204662841796875,-0.2114487588405609,0.14780108630657196,0.2477998286485672
1772533323080596000,0.214595947265625,-0.25831902027130127,0.15206201374530792,0.30745288729667664
1772533323090524200,0.224524169921875,-0.30518925189971924,0.07749570161104202,0.36910325288772583
1772533323100455200,0.234455078125,-0.3414071798324585,-0.08655018359422684,0.4255605936050415
1772533323110391600,0.2443916015625,-0.3711005449295044,-0.2612484097480774,0.46071329712867737
1772533323120324900,0.254324951171875,-0.39666613936424255,-0.362312376499176,0.42129966616630554
1772533323130253800,0.26425390625,-0.3721657991409302,-0.3942693769931793,0.3213009238243103
1772533323140185300,0.274185302734375,-0.30412402749061584,-0.33674678206443787,0.2616478502750397
1772533323150117400,0.284117431640625,-0.22423155605793,-0.16218173503875732,0.31810522079467773
1772533323160049200,0.294049072265625,-0.15179570019245148,0.1424749195575714,0.4340824484825134
1772533323169982700,0.303982666015625,-0.10812114924192429,0.4906729757785797,0.5278229713439941
1772533323179915300,0.313915283203125,-0.08894696086645126,0.7431331872940063,0.5938674211502075
1772533323189848000,0.32384814453125,-0.048468101769685745,0.8635045289993286,0.605584979057312
1772533323199780600,0.333780517578125,-0.054859500378370285,0.8560478687286377,0.5523233413696289
1772533323209713400,0.34371337890625,-0.10066451877355576,0.7697640061378479,0.4660394489765167
1772533323219646000,0.35364599609375,-0.12516488134860992,0.5481955409049988,0.4031907021999359
1772533323229588700,0.363588623046875,-0.09853405505418777,0.24367205798625946,0.4031907021999359
1772533323239525400,0.373525390625,0.018641578033566475,-0.0908111184835434,0.42023444175720215
1772533323249438700,0.383438720703125,0.19333979487419128,-0.6648385524749756,0.3818860352039337
1772533323259366000,0.393365966796875,0.3689700961112976,-1.8373937606811523,0.289343923330307
1772533323269303800,0.4033037109375,0.4137098789215088,-2.6574900150299072,0.4703003764152527
1772533323279235300,0.4132353515625,0.29120808839797974,-1.883198857307434,0.7611089944839478
1772533323289181400,0.423181396484375,0.23168818652629852,-0.5146406888961792,0.7078473567962646
1772533323299118800,0.433118896484375,0.3199693560600281,0.1659100502729416,0.750456690788269
1772533323309045200,0.443045166015625,0.29227331280708313,0.29693371057510376,0.7270215153694153
1772533323318978300,0.452978271484375,0.26670771837234497,0.021038351580500603,0.6577813625335693
1772533323328896500,0.462896484375,0.5181027054786682,0.1957365721464157,0.6577813625335693
1772533323338823400,0.472823486328125,1.0143681764602661,1.0306129455566406,0.7461957335472107
1772533323348772900,0.48277294921875,1.2977200746536255,2.2031681537628174,0.8292838931083679
1772533323358709000,0.492708984375,1.0260857343673706,3.1212658882141113,0.6737598776817322
1772533323368621800,0.502621826171875,0.30931705236434937,2.9976987838745117,0.29680055379867554
1772533323378555600,0.5125556640625,-0.32755914330482483,1.93699312210083,0.09973244369029999
1772533323388487700,0.52248779296875,-0.3913399875164032,0.5588479042053223,0.13275466859340668
1772533323398421200,0.532421142578125,0.006924014538526535,-0.6520557403564453,0.34566810727119446
1772533323408352800,0.542352783203125,0.5244941115379333,-1.4678910970687866,0.5885412693023682
1772533323418286000,0.5522861328125,0.9749545454978943,-1.883198857307434,0.6354115009307861
1772533323428227300,0.562227294921875,1.3019810914993286,-1.9385910034179688,0.4362129271030426
1772533323438161700,0.57216162109375,1.6597661972045898,-1.771349310874939,0.04647079110145569
1772533323448081700,0.58208154296875,1.8887913227081299,-0.9001219272613525,-0.386945903301239
1772533323458014500,0.592014404296875,1.9196830987930298,0.45658549666404724,-0.8119738698005676
1772533323467944400,0.6019443359375,1.6640270948410034,1.8507091999053955,-1.2784128189086914
1772533323477877000,0.611876953125,1.1826750040054321,2.579195499420166,-1.8822667598724365
1772533323487810000,0.62181005859375,0.8588441014289856,2.3011696338653564,-2.6373836994171143
1772533323497742600,0.63174267578125,0.6587134599685669,1.5397943258285522,-3.2401726245880127
1772533323507673900,0.641673828125,0.36257869005203247,0.5940005779266357,-3.417933225631714
1772533323517606100,0.651606201171875,0.050598569214344025,-0.218639075756073,-3.0217998027801514
1772533323527531300,0.66153125,-0.23594911396503448,-1.0013190507888794,-2.227269172668457
1772533323537463000,0.671463134765625,-0.4211665093898773,-1.6818697452545166,-1.259238600730896
1772533323547400400,0.681400390625,-0.5149070024490356,-1.9524389505386353,-0.29746630787849426
1772533323557332700,0.691332763671875,-0.8142374753952026,-2.0792016983032227,0.49480074644088745
1772533323567265300,0.701265380859375,-1.2519150972366333,-2.1068978309631348,0.9623048901557922
1772533323577197600,0.711197509765625,-1.4553745985031128,-1.792654037475586,1.2360697984695435
1772533323587130600,0.721130615234375,-1.3733516931533813,-1.2569749355316162,1.4001156091690063
1772533323597063000,0.73106298828125,-1.1794792413711548,-0.684012770652771,1.422485589981079
1772533323607007700,0.7410078125,-0.9951939582824707,-0.2719007432460785,1.369223952293396
1772533323616941600,0.750941650390625,-0.8153027296066284,-0.0908111184835434,1.392659068107605
1772533323626870800,0.760870849609375,-0.7375407218933105,-0.26763978600502014,1.4597686529159546
1772533323636803800,0.770803955078125,-0.7652367949485779,-1.0247541666030884,1.3042446374893188
1772533323646720300,0.78072021484375,-0.6789528727531433,-1.9034382104873657,0.8804150819778442
1772533323656651800,0.79065185546875,-0.454188734292984,-2.1099603176116943,0.35632044076919556
1772533323666584800,0.800584716796875,-0.32649391889572144,-1.7883931398391724,-0.17190198600292206
1772533323676516600,0.8105166015625,-0.36803799867630005,-1.30491042137146,-0.5744268894195557
1772533323686463000,0.820462890625,-0.435014545917511,-0.7234264016151428,-0.8460613489151001
1772533323696396000,0.83039599609375,-0.435014545917511,0.08601756393909454,-1.0685619115829468
1772533323706313000,0.84031298828125,-0.34673336148262024,1.1030488014221191,-1.188933253288269
1772533323716244700,0.85024462890625,-0.245536208152771,2.0062332153320312,-1.1101059913635254
1772533323726184400,0.860184326171875,-0.3711005449295044,2.4353890419006348,-0.8981245756149292
1772533323736116700,0.87011669921875,-0.5383421182632446,2.0041027069091797,-0.7406032681465149
1772533323746047500,0.880047607421875,-0.5308855175971985,1.0242215394973755,-0.6372756361961365
1772533323755979500,0.8899794921875,-0.5074504017829895,0.3351489305496216,-0.45725128054618835
1772533323765927700,0.899927734375,-0.49040666222572327,0.11690932512283325,-0.20385897159576416
1772533323775861500,0.909861572265625,-0.4872109591960907,0.16058388352394104,0.01770949922502041
1772533323785782500,0.919782470703125,-0.5181027054786682,0.4097152650356293,0.13808083534240723
1772533323795715000,0.929715087890625,-0.44992780685424805,0.6525883674621582,0.1423417627811432
1772533323805618700,0.93961865234375,-0.2785584330558777,0.6174356937408447,0.09973244369029999
1772533323815548400,0.94954833984375,-0.1603175699710846,0.0370168462395668,0.16045072674751282
1772533323825514800,0.9595146484375,-0.10172975063323975,-0.9374050498008728,0.4074516296386719
1772533323835448000,0.969447998046875,-0.09107742458581924,-1.8938511610031128,0.8367405533790588
1772533323845365000,0.979364990234375,-0.24873191118240356,-2.4327259063720703,1.318092703819275
1772533323855296500,0.989296630859375,-0.5362116694450378,-2.1280691623687744,1.659899353981018
1772533323865230800,0.99923095703125,-0.7790848016738892,-1.671217441558838,1.55350923538208
1772533323875162600,1.00916259765625,-0.8387378454208374,-1.3006495237350464,0.7675004005432129
1772533323885091000,1.019091064453125,-0.7300840616226196,-0.8129059672355652,-0.4316856861114502
1772533323895022800,1.02902294921875,-0.5362116694450378,0.1541924774646759,-1.6638939380645752
1772533323904958500,1.03895849609375,-0.28388461470603943,1.449249505996704,-2.5372519493103027
1772533323914890500,1.048890380859375,-0.056989967823028564,2.729393243789673,-2.4499027729034424
1772533323924825300,1.058825439453125,0.15073047578334808,3.4811816215515137,-1.2294120788574219
1772533323934757600,1.068757568359375,0.10386022180318832,2.733654260635376,0.27656111121177673
1772533323944710000,1.0787099609375,0.2656424939632416,0.9922645688056946,1.3905285596847534
1772533323954644000,1.08864404296875,0.5010589957237244,-0.45498764514923096,2.3127541542053223
1772533323964553700,1.0985537109375,0.39347043633461,-1.7894582748413086,2.518343925476074
1772533323974485500,1.108485595703125,0.3061213493347168,-2.181330919265747,1.7962491512298584
1772533323984425200,1.11842529296875,0.5298202633857727,-1.3070409297943115,0.7099778056144714
1772533324004247300,1.138247314453125,0.9866721034049988,0.3511274456977844,0.05286218971014023
1772533324014180000,1.14818017578125,1.0207595825195312,0.44380271434783936,0.36590754985809326
1772533324024121300,1.158121337890625,0.9866721034049988,0.3862801194190979,0.5938674211502075
1772533324034054700,1.1680546875,0.9270190596580505,0.05086487531661987,0.47562655806541443
1772533324044028200,1.178028076171875,0.8238245844841003,-0.5476629137992859,0.19986434280872345
1772533324053965600,1.187965576171875,0.7865414619445801,-1.1259512901306152,0.03049229457974434
1772533324063890000,1.197889892578125,0.8705616593360901,-1.3965204954147339,0.02516612969338894
1772533324073826000,1.207825927734375,0.9493889212608337,-1.1451255083084106,0.03049229457974434
1772533324083716000,1.217716064453125,0.9078448414802551,-0.2909417748451233,-0.012117025442421436
1772533324093647600,1.227647705078125,0.7737586498260498,0.9922645688056946,0.04114462435245514
1772533324103613200,1.23761328125,0.68747478723526,2.109560966491699,0.2669740319252014
1772533324113548000,1.247548095703125,0.673626720905304,2.5728039741516113,0.6226286888122559
1772533324123443700,1.257443603515625,0.6139736771583557,2.579195499420166,1.058175802230835
1772533324133374700,1.267374755859375,0.5276898145675659,2.294778347015381,1.4874647855758667
1772533324143303400,1.277303466796875,0.454188734292984,1.778273344039917,1.700378179550171
1772533324153234000,1.28723388671875,0.3711005449295044,1.1552451848983765,1.5140955448150635
1772533324163178000,1.297177978515625,0.33488261699676514,0.7410027384757996,0.7664351463317871
1772533324173110000,1.307110107421875,0.3039908707141876,0.5524564981460571,-0.49027350544929504
1772533324183061000,1.31706103515625,0.3284912407398224,0.6387403607368469,-1.7320688962936401
1772533324192994800,1.326994873046875,0.47975432872772217,0.8166342377662659,-2.648036241531372
1772533324202932200,1.33693212890625,0.7087793946266174,0.9549813866615295,-3.145366907119751
1772533324212866600,1.346866455078125,0.9802806973457336,1.3097039461135864,-3.239107370376587
1772533324222794800,1.356794677734375,1.1539136171340942,1.5280767679214478,-3.145366907119751
1772533324232728600,1.366728515625,1.0868040323257446,1.1616365909576416,-2.836449146270752
1772533324242654700,1.37665478515625,0.7609758377075195,0.3043903410434723,-2.209160089492798
1772533324252587500,1.38658740234375,0.29120808839797974,-0.7244915962219238,-1.429675817489624
1772533324262516000,1.396515869140625,-0.14540430903434753,-1.4817391633987427,-0.8279523849487305
1772533324272448500,1.406448486328125,-0.348863810300827,-1.6605651378631592,-0.5211652517318726
1772533324282365400,1.416365478515625,-0.26257994771003723,-1.2899972200393677,-0.35285845398902893
1772533324292296400,1.42629638671875,-0.01438064593821764,-0.5199668407440186,-0.13887976109981537
1772533324302240000,1.436239990234375,0.18481792509555817,0.19360610842704773,0.1199718713760376
1772533324312172300,1.44617236328125,0.1272953450679779,0.2703028917312622,0.27549588680267334
1772533324322107100,1.456107177734375,-0.26897132396698,-0.2804225981235504,0.3712337017059326
1772533324332039700,1.466039794921875,-0.7556496858596802,-0.8746894598007202,0.49373549222946167
1772533324341976800,1.475976806640625,-1.1006519794464111,-1.2239527702331543,0.558714747428894
1772533324351909600,1.48590966796875,-1.2891982793807983,-1.5061063766479492,0.5896064639091492
1772533324361833200,1.495833251953125,-1.2338061332702637,-1.465760588645935,0.7195649147033691
1772533324371765200,1.50576513671875,-0.7780195474624634,-0.5199668407440186,1.0656324625015259
1772533324381702700,1.51570263671875,-0.19760072231292725,0.7420679330825806,1.6748126745224
1772533324391635000,1.525635009765625,-0.056989967823028564,1.096657395362854,2.350037097930908
1772533324401558800,1.535558837890625,-0.672561526298523,0.3852148950099945,2.6248674392700195
1772533324411490600,1.545490478515625,-1.5373975038528442,-0.3633776009082794,2.429929733276367
1772533324421424400,1.55542431640625,-1.8216816186904907,-0.4379439353942871,1.8495107889175415
1772533324431356200,1.565356201171875,-1.0974563360214233,0.0370168462395668,1.3873329162597656
1772533324441279500,1.575279541015625,0.39773139357566833,0.9997211694717407,1.835662841796875
1772533324451210800,1.585210693359375,1.742854356765747,1.7132941484451294,2.5833232402801514
1772533324461158000,1.595157958984375,1.7780070304870605,0.8283518552780151,2.6248674392700195
1772533324471090700,1.605090576171875,0.9611064791679382,-1.2942581176757812,1.945381760597229
1772533324481019100,1.61501904296875,0.5969299674034119,-2.744706153869629,0.8452624082565308
1772533324490951400,1.624951416015625,0.7588453888893127,-2.5861194133758545,-0.6958634853363037
1772533324500880400,1.63488037109375,1.0271509885787964,-1.8714812994003296,-2.715012550354004
1772533324510812400,1.6448125,1.2732198238372803,-1.4465864896774292,-4.7545342445373535
1772533324520747500,1.65474755859375,1.4106348752975464,-1.0609720945358276,-6.337204456329346
1772533324530679800,1.6646796875,1.4138305187225342,-0.4411396384239197,-7.150775909423828
1772533324540614100,1.6746142578125,1.3094377517700195,0.27456381916999817,-7.119884490966797
1772533324550546700,1.684546630859375,1.1656312942504883,0.6813496947288513,-6.114570617675781
1772533324560454400,1.694454345703125,0.9717588424682617,0.6419360637664795,-4.303009033203125
1772533324570384400,1.70438427734375,0.5969299674034119,0.43208515644073486,-2.1963772773742676
1772533324580338400,1.71433837890625,0.08362079411745071,0.23621542751789093,-0.5595136284828186
1772533324590271000,1.72427099609375,-0.31477636098861694,0.3161078989505768,0.2669740319252014
1772533324600205800,1.734205810546875,-0.5532553791999817,0.668566882610321,0.3925383687019348
1772533324610138600,1.744138671875,-0.6789528727531433,0.9837427139282227,0.10612384229898453
1772533324620072000,1.754072021484375,-0.626756489276886,0.9986559748649597,-0.2528596818447113
1772533324630004700,1.764004638671875,-0.4147751033306122,0.8070471882820129,-0.42529428005218506
1772533324639933200,1.77393310546875,-0.11557777971029282,0.8741568326950073,-0.17509767413139343
1772533324649865500,1.783865478515625,0.13262151181697845,1.1019835472106934,0.4766917824745178
1772533324659775500,1.793775390625,0.29014283418655396,1.089200735092163,1.3415278196334839
1772533324669705500,1.80370556640625,0.36470916867256165,0.6525883674621582,2.2413835525512695
1772533324679659500,1.813659423828125,0.36257869005203247,-0.06631075590848923,3.063610076904297
1772533324689591800,1.823591796875,0.3242303133010864,-0.6041202545166016,3.6376376152038574
1772533324699508000,1.833508056640625,0.29014283418655396,-0.6126421689987183,3.671725034713745
1772533324709438700,1.843438720703125,0.2848166823387146,-0.21970431506633759,3.001826763153076
1772533324719387400,1.853387451171875,0.3306216895580292,0.4193023443222046,1.8260756731033325
1772533324729320200,1.8633203125,0.43821024894714355,1.143527626991272,0.605584979057312
1772533324739219700,1.8732197265625,0.589473307132721,1.8560353517532349,-0.3038577139377594
1772533324749149200,1.883149169921875,0.7055837512016296,2.289452075958252,-0.8748226165771484
1772533324759094500,1.893094482421875,0.641669750213623,2.0648210048675537,-1.198520302772522
1772533324769025300,1.903025390625,0.4019923210144043,1.2543119192123413,-1.268825650215149
1772533324778980000,1.91297998046875,0.12516488134860992,0.3862801194190979,-1.1505848169326782
1772533324788913400,1.922913330078125,-0.09001219272613525,-0.1430075317621231,-0.9428643584251404
1772533324798846500,1.932846435546875,-0.22636201977729797,-0.33674678206443787,-0.6681674122810364
1772533324808780000,1.942780029296875,-0.2572537660598755,-0.22503048181533813,-0.3581846058368683
1772533324818707500,1.95270751953125,-0.23914481699466705,0.14140968024730682,-0.10266183316707611
1772533324828640300,1.96264013671875,-0.2796236574649811,0.43315038084983826,0.03262276202440262
1772533324838586400,1.97258642578125,-0.47975432872772217,0.45552027225494385,0.05286218971014023
1772533324848520700,1.982520751953125,-0.8760210275650024,0.2191716879606247,-0.0185084231197834
1772533324858439700,1.992439697265625,-1.2125015258789062,-0.025831900537014008,-0.06431344151496887
1772533324868372200,2.002372314453125,-1.286002516746521,-0.09826774895191193,0.04007939249277115
1772533324878302000,2.012302001953125,-1.232740879058838,-0.08655018359422684,0.23927797377109528
1772533324888234200,2.022234130859375,-1.0836082696914673,0.04553871229290962,0.39999499917030334
1772533324898178600,2.032178466796875,-0.833411693572998,0.2521939277648926,0.4244953691959381
1772533324908112100,2.042112060546875,-0.6427350044250488,0.3139774203300476,0.27443066239356995
1772533324918032100,2.0520322265625,-0.5372769236564636,0.2276935577392578,-0.04940018057823181
1772533324927964200,2.061964111328125,-0.3796224296092987,0.22130216658115387,-0.3975982367992401
1772533324937899000,2.07189892578125,-0.16564373672008514,0.1978670358657837,-0.5222305059432983
1772533324947831300,2.081831298828125,0.0015978495357558131,-0.00133154122158885,-0.3336842358112335
1772533324957773600,2.091773681640625,-0.026098208501935005,-0.18455162644386292,0.12210233509540558
1772533324967707000,2.101706787109375,-0.4680367708206177,-0.21544337272644043,0.858045220375061
1772533324977623800,2.111623779296875,-1.5905261039733887,-0.6275554299354553,1.774944543838501
1772533324987555600,2.1215556640625,-2.9441709518432617,-1.869350790977478,2.4799957275390625
1772533324997496000,2.13149609375,-3.534176826477051,-3.305018663406372,2.4150164127349854
1772533325007428600,2.1414287109375,-3.0613465309143066,-3.536041021347046,1.8718807697296143
1772533325017349400,2.151349365234375,-2.278533458709717,-2.2910499572753906,1.4810733795166016
1772533325027280600,2.16128076171875,-1.6938536167144775,-1.3219541311264038,0.7909355163574219
1772533325037217300,2.17121728515625,-1.1869359016418457,-1.3059756755828857,-0.8492570519447327
1772533325047149000,2.181149169921875,-1.1347395181655884,-1.356041669845581,-3.10701847076416
1772533325057080800,2.191080810546875,-1.6618967056274414,-1.042863130569458,-4.903666973114014
1772533325067012900,2.201012939453125,-2.024075984954834,-1.058841586112976,-5.917502403259277
1772533325076943600,2.210943603515625,-1.5661588907241821,-1.113168478012085,-6.223224639892578
1772533325086875400,2.22087548828125,-0.603321373462677,-0.5402063131332397,-5.637479305267334
1772533325096808700,2.23080859375,0.24433782696723938,0.3649754524230957,-4.190093994140625
1772533325106740700,2.24074072265625,0.6949313879013062,0.8059819340705872,-2.4115543365478516
1772533325116672500,2.250672607421875,0.7631062865257263,0.32556185126304626,-0.9151683449745178
1772533325126604500,2.2606044921875,0.71197509765625,-0.47629231214523315,-0.007856093347072601
1772533325136537000,2.270537109375,0.6448654532432556,-0.9437964558601379,0.2776263654232025
1772533325146469000,2.28046923828125,0.5042546987533569,-1.265496850013733,0.009187635034322739
1772533325156408600,2.29040869140625,0.4552539587020874,-1.4614996910095215,-0.44659894704818726
1772533325166341400,2.30034130859375,0.5969299674034119,-1.22501802444458,-0.5797531008720398
1772533325176263000,2.310262939453125,0.7918676137924194,-0.6531209945678711,-0.28574874997138977
1772533325186194700,2.320194580078125,1.0207595825195312,0.05938674136996269,0.3298227787017822
1772533325196142300,2.330142333984375,1.2338061332702637,0.6845453977584839,1.0358059406280518
1772533325206075400,2.340075439453125,1.4117000102996826,1.1861369609832764,1.683334469795227
1772533325215976400,2.3499765625,1.4946551322937012,1.3895964622497559,2.2190134525299072
1772533325225906400,2.359906494140625,1.407439112663269,1.059374213218689,2.589714527130127
1772533325235873500,2.36987353515625,1.2007839679718018,0.29906415939331055,2.77706241607666
1772533325245807400,2.379807373046875,1.021824836730957,-0.427291601896286,2.7548258304595947
1772533325255701200,2.389701171875,0.9259538054466248,-0.7362091541290283,2.434190511703491
1772533325265631000,2.399630859375,0.9557803273200989,-0.47842279076576233,1.9251424074172974
1772533325275599400,2.409599365234375,1.1336742639541626,0.16377957165241241,1.3937242031097412
1772533325285533000,2.419532958984375,1.398917317390442,0.8677654266357422,0.8452624082565308
1772533325295435000,2.42943505859375,1.7162235975265503,1.3640308380126953,0.3744294047355652
1772533325305365500,2.439365478515625,1.918617844581604,1.5907924175262451,0.14660269021987915
1772533325315297000,2.449297119140625,1.8365949392318726,1.470554232597351,0.1412765234708786
1772533325325227500,2.4592275390625,1.5606995820999146,0.7814815640449524,0.2382127344608307
1772533325335163600,2.46916357421875,1.2987853288650513,-0.33887726068496704,0.34460288286209106
1772533325345094700,2.4790947265625,1.1539136171340942,-1.69891357421875,0.4990616738796234
1772533325355022800,2.48902294921875,1.108108639717102,-3.165472984313965,0.7259563207626343
1772533325364953600,2.49895361328125,1.0303466320037842,-4.119655609130859,0.964435338973999
1772533325374920700,2.508920654296875,0.863105058670044,-3.606346368789673,1.0539149045944214
1772533325384855300,2.518855224609375,0.650191605091095,-1.775610327720642,0.8026530742645264
1772533325394773000,2.52877294921875,0.1603175699710846,0.19467133283615112,0.25206077098846436
1772533325404705800,2.538705810546875,-0.6608439087867737,1.6110317707061768,-0.2719007432460785
1772533325414656000,2.548656005859375,-1.4702879190444946,2.264951705932617,-0.5573831796646118
1772533325424590300,2.55859033203125,-2.0176844596862793,2.312887191772461,-0.5840139985084534
1772533325434504700,2.568504638671875,-2.287055253982544,1.7942519187927246,-0.34966275095939636
1772533325444437200,2.578437255859375,-2.3072948455810547,1.03593909740448,0.19027724862098694
1772533325454366000,2.588365966796875,-2.230597972869873,0.3564535975456238,0.9591091871261597
1772533325464298000,2.598298095703125,-2.211423873901367,-0.19946488738059998,1.8601632118225098
1772533325474233000,2.608233154296875,-2.1487081050872803,-0.4198349714279175,2.8281936645507812
1772533325484165600,2.61816552734375,-2.0038363933563232,-0.36018192768096924,3.5726583003997803
1772533325494093800,2.62809375,-1.918617844581604,-0.4603138267993927,3.682377338409424
1772533325504025900,2.63802587890625,-2.010227918624878,-1.02688467502594,2.969869613647461
1772533325513959400,2.64795947265625,-2.263620138168335,-1.7266095876693726,1.659899353981018
1772533325523891700,2.6578916015625,-2.530993700027466,-1.8448504209518433,0.42982152104377747
1772533325533835800,2.667835693359375,-2.6407127380371094,-1.2143656015396118,-0.33048853278160095
1772533325543769000,2.67776904296875,-2.5182108879089355,-0.05459319427609444,-0.602122962474823
1772533325553690600,2.687690673828125,-2.127403497695923,1.7196855545043945,-0.13142313063144684
1772533325563622700,2.69762255859375,-1.6363310813903809,3.3460299968719482,0.6918688416481018
1772533325573551000,2.707551025390625,-1.2945244312286377,3.9296445846557617,1.0038490295410156
1772533325583483000,2.71748291015625,-1.1006519794464111,3.423658847808838,0.5885412693023682
1772533325593418000,2.72741796875,-1.0303466320037842,2.1266045570373535,-0.25605538487434387
1772533325603350000,2.73735009765625,-0.9079779982566833,0.653653621673584,-1.0163654088974
1772533325613279700,2.74727978515625,-0.5244941115379333,-0.6744256615638733,-1.4658937454223633
1772533325623211500,2.75721142578125,0.13581721484661102,-1.6744132041931152,-1.655372142791748
1772533325633158100,2.767158203125,0.8503222465515137,-2.1472434997558594,-1.571218729019165
1772533325643091500,2.777091552734375,1.3254162073135376,-2.0749406814575195,-1.296521782875061
1772533325653006300,2.78700634765625,1.3925259113311768,-1.5966511964797974,-0.9481905698776245
1772533325662937900,2.796937744140625,1.2039796113967896,-0.9097089767456055,-0.4870778024196625
1772533325672873000,2.806873046875,0.9131709933280945,-0.29413747787475586,-0.03022598661482334
1772533325682804700,2.8168046875,0.5266245603561401,0.00719032296910882,0.22436471283435822
1772533325692725800,2.826725830078125,0.06870753318071365,-0.12809427082538605,0.13488513231277466
1772533325702656500,2.836656494140625,-0.2679060995578766,-0.45498764514923096,-0.3251623809337616
1772533325712615700,2.84661572265625,-0.2774932086467743,-0.6328815817832947,-0.9620385766029358
1772533325722549200,2.85654931640625,0.016511112451553345,-0.6115769147872925,-1.5062395334243774
1772533325732465400,2.86646533203125,0.48401525616645813,-0.5220973491668701,-1.786395788192749
1772533325742397400,2.8763974609375,0.8844097256660461,-0.3974650800228119,-1.6979814767837524
1772533325752334600,2.88633447265625,1.023955225944519,-0.14726845920085907,-1.2720214128494263
1772533325762267100,2.89626708984375,0.9451280236244202,0.17230144143104553,-0.6798849701881409
1772533325772171000,2.9061708984375,0.6917356848716736,0.41397619247436523,-0.05898727849125862
1772533325782100500,2.9161005859375,0.2517944574356079,0.37136685848236084,0.4894745647907257
1772533325792062500,2.9260625,-0.2977326214313507,0.002929390873759985,0.8367405533790588
1772533325801995500,2.93599560546875,-0.781215250492096,-0.4581833481788635,0.8761541843414307
1772533325811923700,2.945923828125,-1.0793473720550537,-0.9033176302909851,0.5757584571838379
1772533325821856300,2.955856201171875,-1.1560441255569458,-1.0982552766799927,0.09014534205198288
1772533325831791900,2.9657919921875,-0.9239565134048462,-0.9001219272613525,-0.3017272651195526
1772533325841724700,2.975724609375,-0.47123244404792786,-0.5380758047103882,-0.5062519907951355
1772533325851657000,2.985656982421875,0.020772043615579605,-0.2898765504360199,-0.5967968106269836
1772533325861589500,2.995589599609375,0.4328840672969818,-0.16218173503875732,-0.7214290499687195
1772533325871516000,3.005515869140625,0.7130403518676758,-0.06631075590848923,-0.9950608015060425
1772533325881448000,3.015447998046875,0.7684324979782104,-0.13874660432338715,-1.3657618761062622
1772533325891380700,3.025380615234375,0.6086475253105164,-0.17389929294586182,-1.5967843532562256
1772533325901313000,3.03531298828125,0.37429624795913696,0.05725627392530441,-1.5030437707901
1772533325911246600,3.04524658203125,0.14753477275371552,0.4842815697193146,-1.104779839515686
1772533325921179000,3.055178955078125,0.046337638050317764,1.0018516778945923,-0.4966649115085602
1772533325931119000,3.065119140625,0.13155627250671387,1.3981183767318726,0.19134248793125153
1772533325941052200,3.07505224609375,0.27736005187034607,1.5907924175262451,0.797326922416687
1772533325960912100,3.094912109375,0.3380783200263977,0.9826774597167969,1.418224573135376
1772533325970839300,3.10483935546875,0.19440503418445587,0.1446053832769394,1.4288769960403442
1772533325980771000,3.11477099609375,0.010119713842868805,-0.4826837182044983,1.4192898273468018
1772533325990709200,3.124709228515625,-0.0846860259771347,-0.661642849445343,1.5268783569335938
1772533326000641800,3.134641845703125,-0.047402869910001755,-0.4517919421195984,1.730204701423645
1772533326010559500,3.1445595703125,0.12090394645929337,0.08601756393909454,1.9475122690200806
1772533326020490500,3.154490478515625,0.36577439308166504,0.8592435717582703,1.9922521114349365
1772533326030433000,3.16443310546875,0.5372769236564636,1.6216840744018555,1.6886606216430664
1772533326040365300,3.174365234375,0.5841471552848816,2.1978421211242676,1.210504174232483
1772533326050294500,3.18429443359375,0.5745600461959839,2.3011696338653564,0.9230244159698486
1772533326060226600,3.1942265625,0.47016721963882446,1.691989541053772,0.9718919992446899
1772533326070158600,3.20415869140625,0.3082517981529236,0.6270228028297424,1.2094389200210571
1772533326080090600,3.214090576171875,0.19333979487419128,-0.44220486283302307,1.3681586980819702
1772533326090009900,3.224009765625,0.09853405505418777,-1.1824086904525757,1.2861356735229492
1772533326099940600,3.233940673828125,0.018641578033566475,-0.7884055972099304,1.3159621953964233
1772533326109892000,3.24389208984375,0.13475197553634644,0.8208951950073242,1.7238132953643799
1772533326119825000,3.253824951171875,0.45205825567245483,2.213820457458496,2.079601287841797
1772533326129751600,3.26375146484375,0.5063851475715637,2.48545503616333,1.7813359498977661
1772533326139683600,3.27368359375,0.27736005187034607,1.9327322244644165,0.8420667052268982
1772533326149628200,3.283628173828125,0.0857512578368187,1.2212896347045898,-0.24966399371623993
1772533326159561500,3.2935615234375,0.0964035913348198,0.8549826741218567,-1.0419310331344604
1772533326169478100,3.30347802734375,0.26670771837234497,0.630218505859375,-1.4680242538452148
1772533326179409700,3.31340966796875,0.44140592217445374,0.015712186694145203,-1.7746782302856445
1772533326189346000,3.323345947265625,0.4893414080142975,-0.722361147403717,-2.001572847366333
1772533326199278000,3.333278076171875,0.5447335243225098,-0.876819908618927,-2.0005075931549072
1772533326209212200,3.343212158203125,0.48295003175735474,-0.5082492828369141,-1.770417332649231
1772533326219144400,3.35314453125,0.29120808839797974,-0.030092833563685417,-1.3710880279541016
1772533326229050400,3.36305029296875,0.10172975063323975,0.2298240214586258,-0.937538206577301
1772533326238980000,3.37297998046875,-0.062316130846738815,0.17869283258914948,-0.6106448173522949
1772533326248940800,3.38294091796875,-0.23275341093540192,-0.027962366119027138,-0.475360244512558
1772533326258873900,3.392873779296875,-0.4243622124195099,-0.37083426117897034,-0.5829487442970276
1772533326268803600,3.402803466796875,-0.4765586256980896,-0.6584471464157104,-0.6820154190063477
1772533326278736100,3.412736083984375,-0.24340574443340302,-0.7287525534629822,-0.42742475867271423
1772533326288669000,3.4226689453125,0.061250898987054825,-0.7937317490577698,0.05818835273385048
1772533326298601200,3.432601318359375,0.28055575489997864,-1.009840965270996,0.5342143774032593
1772533326308546600,3.442546630859375,0.47123244404792786,-1.281475305557251,0.9113068580627441
1772533326318480100,3.452480224609375,0.6363435983657837,-1.433803677558899,1.1817429065704346
1772533326328396800,3.462396728515625,0.7130403518676758,-1.3709548711776733,1.3468539714813232
1772533326338328800,3.472328857421875,0.665104866027832,-1.1078423261642456,1.3990504741668701
1772533326348282400,3.482282470703125,0.5585815906524658,-0.7862751483917236,1.314897060394287
1772533326358216400,3.492216552734375,0.454188734292984,-0.5924026966094971,1.1007851362228394
1772533326368124400,3.50212451171875,0.37536147236824036,-0.4933360517024994,0.8601756691932678
1772533326378056000,3.512055908203125,0.3167736828327179,-0.4070521593093872,0.7067821025848389
1772533326387992800,3.521992919921875,0.262446790933609,-0.33674678206443787,0.6247591972351074
1772533326397924900,3.5319248046875,0.23062294721603394,-0.3090507388114929,0.5406057834625244
1772533326407835000,3.5418349609375,0.23062294721603394,-0.3772256374359131,0.4042559266090393
1772533326417764900,3.551764892578125,0.22423155605793,-0.4304873049259186,0.20092958211898804
1772533326427701000,3.561700927734375,0.16351327300071716,-0.37083426117897034,-0.0930747389793396
1772533326437631500,3.571631591796875,0.013315413147211075,-0.218639075756073,-0.49133872985839844
1772533326447564000,3.58156396484375,-0.16777420043945312,-0.0790935531258583,-0.9087769389152527
1772533326457494800,3.591494873046875,-0.30518925189971924,0.012516488321125507,-1.198520302772522
1772533326467457500,3.60145751953125,-0.3902747631072998,0.12117026001214981,-1.3050435781478882
1772533326477391400,3.611391357421875,-0.4339492917060852,0.2287587970495224,-1.275217056274414
1772533326487292200,3.621292236328125,-0.4264926612377167,0.3415403366088867,-1.123953938484192
1772533326497223000,3.631222900390625,-0.33395054936408997,0.523695170879364,-0.9002550840377808
1772533326507187500,3.6411875,-0.20825305581092834,0.8294170498847961,-0.6660369634628296
1772533326517121500,3.65112158203125,-0.13368675112724304,1.196789264678955,-0.45938172936439514
1772533326527051500,3.661051513671875,-0.09107742458581924,1.540859580039978,-0.44766417145729065
1772533326536985300,3.6709853515625,-0.042076703161001205,1.8421874046325684,-0.7746906876564026
1772533326546882300,3.68088232421875,-0.010119713842868805,2.030733585357666,-1.3955883979797363
1772533326556812300,3.690812255859375,0.0026630824431777,2.163754463195801,-2.089987277984619
1772533326566787300,3.700787353515625,0.22849248349666595,2.3863883018493652,-2.4925122261047363
1772533326576722000,3.710721923828125,0.6054518222808838,2.4843897819519043,-2.437119960784912
1772533326586612500,3.720612548828125,0.7204970121383667,2.3299310207366943,-1.8790709972381592
1772533326596542700,3.730542724609375,0.4456668794155121,1.9827980995178223,-0.839669942855835
1772533326606476300,3.740476318359375,-0.14433906972408295,1.1073096990585327,0.42982152104377747
1772533326616406800,3.75040673828125,-1.0718907117843628,-0.4209001958370209,1.4661600589752197
1772533326626372600,3.76037255859375,-1.988923192024231,-2.08772349357605,1.974143147468567
1772533326636306400,3.770306396484375,-2.215684652328491,-3.338972806930542,2.4246034622192383
1772533326646229500,3.7802294921875,-1.9154220819473267,-3.329385757446289,3.9039459228515625
1772533326656162300,3.790162353515625,-2.069880962371826,-2.0568318367004395,5.710181713104248
1772533326666086000,3.8000859375,-2.7855844497680664,-0.45711812376976013,6.083945274353027
1772533326676018000,3.810017822265625,-3.147630453109741,0.009320789016783237,4.084902286529541
1772533326685959400,3.81995947265625,-2.521406650543213,-0.43261775374412537,0.32769230008125305
1772533326695892200,3.829892333984375,-1.321155309677124,-0.3207682967185974,-2.734186887741089
1772533326705822500,3.839822509765625,-0.29453691840171814,-0.6179683208465576,-4.263595104217529
1772533326715755300,3.84975537109375,0.6075822710990906,-1.523150086402893,-4.634162902832031
1772533326725685000,3.85968505859375,1.4553745985031128,-2.1930484771728516,-3.9386990070343018
1772533326735617300,3.8696171875,1.972944736480713,-2.3144850730895996,-2.3785321712493896
1772533326745549300,3.87954931640625,2.0592286586761475,-2.233527421951294,-0.662841260433197
1772533326755481600,3.889481689453125,1.6618967056274414,-2.1195473670959473,0.5661713480949402
1772533326765433000,3.89943310546875,0.916366696357727,-2.035527229309082,1.0464582443237305
1772533326775367400,3.909367431640625,0.29014283418655396,-1.5678898096084595,0.7248910665512085
1772533326785276200,3.919276123046875,0.2231663167476654,-0.6552514433860779,-0.2304897904396057
1772533326795208000,3.9292080078125,0.41690558195114136,0.21597599983215332,-1.557370662689209
1772533326805143000,3.93914306640625,0.4850804805755615,0.5705654621124268,-2.779991865158081
1772533326815075000,3.949074951171875,0.6256912350654602,0.5588479042053223,-3.153888702392578
1772533326824979200,3.958979248046875,0.8089113235473633,0.5354127287864685,-2.507425308227539
1772533326834908400,3.968908447265625,0.7833457589149475,0.6323489546775818,-1.2262163162231445
1772533326844880100,3.978880126953125,0.6842790842056274,0.883743941783905,0.2371474951505661
1772533326854813400,3.9888134765625,0.5979951620101929,1.0561785697937012,1.5226174592971802
1772533326864733700,3.998733642578125,0.35512205958366394,0.9975907206535339,2.411820650100708
1772533326874665700,4.008665771484375,-0.0015978495357558131,0.7420679330825806,2.861215829849243
1772533326884595200,4.01859521484375,-0.2529928386211395,0.3745625615119934,2.8921077251434326
1772533326894527000,4.02852685546875,-0.2987978756427765,0.00399462366476655,2.4693431854248047
1772533326904461800,4.0384619140625,-0.17523083090782166,-0.18987779319286346,1.6513774394989014
1772533326914393900,4.048393798828125,0.06870753318071365,-0.05672365799546242,0.7312824726104736
1772533326924328000,4.058327880859375,0.3402087986469269,0.3639102280139923,0.07629731297492981
1772533326934260200,4.06826025390625,0.5830819010734558,0.9762860536575317,-0.23581595718860626
1772533326944190000,4.07818994140625,0.7876066565513611,1.6227493286132812,-0.43594661355018616
1772533326954122000,4.0881220703125,0.8513875007629395,1.8720139265060425,-0.6692326664924622
1772533326964055000,4.098054931640625,0.6597787141799927,1.5599006414413452,-0.8663007616996765
1772533326973987000,4.107987060546875,0.2720338702201843,0.9082443118095398,-0.9577776193618774
1772533326983928000,4.117927978515625,-0.13155627250671387,0.2074541300535202,-0.9694951772689819
1772533326993861000,4.127861083984375,-0.31584158539772034,-0.17283405363559723,-0.9716256856918335
1772533327013674200,4.14767431640625,0.11877348273992538,-0.017310036346316338,-0.8098434209823608
1772533327023607300,4.157607177734375,0.45951488614082336,0.29906415939331055,-0.41570720076560974
1772533327033581000,4.1675810546875,0.5724295973777771,0.3511274456977844,0.06031882017850876
1772533327043517700,4.177517578125,0.34446972608566284,-0.020505735650658607,0.4031907021999359
1772533327053446700,4.18744677734375,-0.14220860600471497,-0.5295539498329163,0.3808208107948303
1772533327063382500,4.197382568359375,-0.5916038155555725,-0.7426005601882935,0.11038476973772049
1772533327073310000,4.20731005859375,-0.8706948161125183,-0.4805532395839691,-0.03342168778181076
1772533327083244800,4.217244873046875,-0.9441959261894226,0.2404763549566269,0.20199480652809143
1772533327093168400,4.22716845703125,-0.7705629467964172,1.2170287370681763,0.9326115250587463
1772533327103102200,4.237102294921875,-0.6523220539093018,1.5982489585876465,1.7973144054412842
1772533327113036800,4.247036865234375,-0.7418016195297241,1.002916932106018,2.3585591316223145
1772533327122970600,4.256970703125,-0.8728253245353699,0.021038351580500603,2.429929733276367
1772533327132908800,4.26690869140625,-0.9218260049819946,-0.8139711618423462,2.0380570888519287
1772533327142843100,4.276843017578125,-0.8696296215057373,-1.440195083618164,1.2861356735229492
1772533327152766200,4.28676611328125,-0.7407364249229431,-2.0578970909118652,0.3223661482334137
1772533327162699300,4.29669921875,-0.5958647131919861,-2.3762686252593994,-0.410381019115448
1772533327172606000,4.30660595703125,-0.5031894445419312,-1.4508473873138428,-0.3017272651195526
1772533327182536400,4.316536376953125,-0.5383421182632446,-0.18348638713359833,0.23395180702209473
1772533327192493800,4.326493896484375,-0.34566810727119446,0.10838746279478073,0.2691044807434082
1772533327202427000,4.336427001953125,0.0015978495357558131,0.03169068321585655,-0.35285845398902893
1772533327212370400,4.346370361328125,0.17416560649871826,0.3990629315376282,-0.8769530653953552
1772533327222304800,4.3563046875,0.31038227677345276,0.7889382243156433,-0.9854736924171448
1772533327232224000,4.36622412109375,0.5617772936820984,0.7963948249816895,-0.9066464304924011
1772533327242156800,4.37615673828125,0.9760197401046753,0.5876091718673706,-0.7384728193283081
1772533327252085500,4.38608544921875,1.3957215547561646,0.2298240214586258,-0.5083824396133423
1772533327262017800,4.396017822265625,1.5830694437026978,-0.08868064731359482,-0.2804225981235504
1772533327271957000,4.40595703125,1.4925246238708496,-0.12383333593606949,-0.20279373228549957
1772533327281890000,4.41589013671875,1.1933273077011108,0.08708280324935913,-0.4529903531074524
1772533327291818800,4.42581884765625,0.7769543528556824,0.4299546778202057,-0.9194292426109314
1772533327301751300,4.435751220703125,0.3189041316509247,0.9975907206535339,-1.2102378606796265
1772533327311679500,4.445679443359375,-0.08681648969650269,1.4524452686309814,-1.1995855569839478
1772533327321611500,4.455611572265625,-0.3520595133304596,1.365096092224121,-1.0025174617767334
1772533327331543000,4.46554296875,-0.38601380586624146,0.9539161920547485,-0.556317925453186
1772533327341475000,4.47547509765625,-0.25086238980293274,0.4384765326976776,0.1412765234708786
1772533327351407000,4.485406982421875,-0.042076703161001205,-0.18348638713359833,0.9123721122741699
1772533327361339100,4.495339111328125,0.10812114924192429,-0.8896027207374573,1.561897873878479
1772533327371273000,4.50527294921875,0.1390129029750824,-1.2878667116165161,1.9368599653244019
1772533327381205200,4.515205322265625,0.15073047578334808,-1.0673635005950928,1.861228346824646
1772533327391137000,4.525136962890625,0.21570968627929688,-0.45498764514923096,1.3628325462341309
1772533327401069300,4.5350693359375,0.26031631231307983,0.09347419440746307,0.6641727685928345
1772533327411000800,4.545000732421875,0.2933385372161865,0.3979976773262024,0.0773625448346138
1772533327420932900,4.554932861328125,0.3157084286212921,0.44593316316604614,-0.22622886300086975
1772533327430865700,4.56486572265625,0.2965342402458191,0.2713681161403656,-0.33901041746139526
1772533327440798000,4.5747978515625,0.22742724418640137,-0.018375270068645477,-0.4199681282043457
1772533327450734600,4.584734619140625,0.1272953450679779,-0.343138188123703,-0.5818835496902466
1772533327460667400,4.59466748046875,0.047402869910001755,-0.5987941026687622,-0.8832113146781921
1772533327470594600,4.604594482421875,0.028228675946593285,-0.6978607773780823,-1.3093045949935913
1772533327480526600,4.614526611328125,0.0857512578368187,-0.6776213645935059,-1.7512431144714355
1772533327490467000,4.624467041015625,0.17949175834655762,-0.5465977191925049,-2.080399990081787
1772533327500400000,4.634400146484375,0.29014283418655396,-0.32715970277786255,-2.2251386642456055
1772533327510332400,4.64433251953125,0.39453569054603577,-0.0588541254401207,-2.1825292110443115
1772533327520265500,4.654265380859375,0.4019923210144043,0.1552577167749405,-1.9525721073150635
1772533327530184400,4.664184326171875,0.27736005187034607,0.13075734674930573,-1.557370662689209
1772533327540116000,4.674115966796875,0.09107742458581924,-0.14726845920085907,-1.0888012647628784
1772533327550065000,4.68406494140625,-0.12409964948892593,-0.49972742795944214,-0.6905373334884644
1772533327559998200,4.693998291015625,-0.20931829512119293,-0.685077965259552,-0.4625774323940277
1772533327569923800,4.703923828125,-0.09214265644550323,-0.5508586168289185,-0.3784240186214447
1772533327579856400,4.7138564453125,0.08894696086645126,-0.17816022038459778,-0.3645760118961334
1772533327589768400,4.7237685546875,0.2348838746547699,0.19041040539741516,-0.34220612049102783
1772533327599699000,4.733698974609375,0.2848166823387146,0.38947582244873047,-0.262446790933609
1772533327609621200,4.743621337890625,0.23062294721603394,0.48534679412841797,-0.08668334037065506
1772533327619551000,4.753551025390625,0.10492545366287231,0.5971962809562683,0.15618979930877686
1772533327629489400,4.763489501953125,0.00905448105186224,0.8965267539024353,0.4447347819805145
1772533327639420200,4.773420166015625,-0.0005326165119186044,1.4652280807495117,0.7057169079780579
1772533327649359400,4.783359375,-0.0015978495357558131,2.1594936847686768,0.6535204648971558
1772533327659290600,4.79329052734375,-0.15605664253234863,2.8506968021392822,-0.01744319126009941
1772533327669252000,4.803252197265625,-0.6011908650398254,3.4758553504943848,-1.406240701675415
1772533327679186400,4.8131865234375,-1.286002516746521,3.75494647026062,-3.35721492767334
1772533327689084200,4.823084228515625,-1.871747612953186,3.8785133361816406,-5.046408176422119
1772533327699014700,4.8330146484375,-1.8493776321411133,4.12338399887085,-5.6023268699646
1772533327708950800,4.84295068359375,-1.201849102973938,4.376909255981445,-4.460663318634033
1772533327718882000,4.852882080078125,-0.8323464393615723,3.863600254058838,-1.9813333749771118
1772533327728842200,4.86284228515625,-1.0058462619781494,2.1319308280944824,0.1828206181526184
1772533327738776300,4.8727763671875,-1.1443265676498413,0.21384553611278534,1.042197346687317
1772533327748675800,4.88267578125,-1.2433933019638062,-0.7266221046447754,0.7483261823654175
1772533327758606600,4.892606689453125,-1.121956706047058,-0.10892007499933243,0.02623136341571808
1772533327768574500,4.902574462890625,-0.6778876781463623,1.157375693321228,-0.3667064607143402
1772533327778509000,4.912509033203125,-0.22103585302829742,1.5684224367141724,-0.262446790933609
1772533327788426800,4.9224267578125,-0.07616416364908218,0.7090457081794739,-0.03555215150117874
1772533327798359600,4.932359619140625,-0.055924732238054276,-0.32396399974823,0.10825430601835251
1772533327808268000,4.94226806640625,0.1177082508802414,-0.6264901757240295,0.24566936492919922
1772533327818198500,4.952198486328125,0.3487306535243988,-0.6935998797416687,0.35418999195098877
1772533327828158500,4.962158447265625,0.4201012849807739,-0.9640358686447144,0.4458000063896179
1772533327838091800,4.972091796875,0.30079516768455505,-1.4061075448989868,0.5757584571838379
1772533327848020700,4.982020751953125,0.1262301206588745,-1.6041077375411987,0.6971949934959412
1772533327857953800,4.991953857421875,0.015445878729224205,-1.295323371887207,0.667368471622467
1772533327867882200,5.00188232421875,0.025032976642251015,-0.89692622423172,0.5320838689804077
1772533327877814500,5.011814453125,0.18481792509555817,-0.6339467763900757,0.5342143774032593
1772533327887745000,5.0217451171875,0.44140592217445374,-0.49972742795944214,0.8260881900787354
1772533327897677300,5.03167724609375,0.6544525623321533,-0.5199668407440186,1.2903966903686523
1772533327907614200,5.0416142578125,0.8302159905433655,-0.6083812117576599,1.8250104188919067
1772533327917547000,5.051547119140625,0.9334104657173157,-0.9075785279273987,2.332993507385254
1772533327927480300,5.061480224609375,0.8652355074882507,-1.501845359802246,2.6610851287841797
1772533327937413400,5.071413330078125,0.7226274609565735,-2.177069902420044,2.6802594661712646
1772533327947343600,5.081343505859375,0.6342130899429321,-2.7830543518066406,2.3074278831481934
1772533327957276200,5.091276123046875,0.5468640327453613,-3.1431031227111816,1.5428569316864014
1772533327967203000,5.101203125,0.4243622124195099,-2.855490207672119,0.567236602306366
1772533327977135000,5.111135009765625,0.35405683517456055,-1.9460475444793701,-0.386945903301239
1772533327987048200,5.121048095703125,0.26670771837234497,-1.003449559211731,-1.2720214128494263
1772533327996978400,5.130978515625,0.08149032294750214,-0.5242277979850769,-2.019681930541992
1772533328006942200,5.140942138671875,-0.09001219272613525,-0.3953346014022827,-2.427532911300659
1772533328016875800,5.150875732421875,-0.18694838881492615,-0.36763855814933777,-2.4488375186920166
1772533328026774500,5.1607744140625,-0.31584158539772034,-0.3037245571613312,-2.2017035484313965
1772533328036704500,5.17070458984375,-0.4158403277397156,-0.08548495173454285,-1.7991786003112793
1772533328046666000,5.180666015625,-0.32542869448661804,0.41504141688346863,-1.2954565286636353
1772533328056599300,5.190599365234375,-0.1070559173822403,1.0295476913452148,-0.7853430509567261
1772533328066527500,5.200527587890625,-0.00585878174751997,1.5758790969848633,-0.39333727955818176
1772533328076460300,5.210460205078125,-0.0047935484908521175,2.2542994022369385,-0.15485824644565582
1772533328086396000,5.22039599609375,-0.015445878729224205,3.1958322525024414,-0.11757509410381317
1772533328096328700,5.23032861328125,-0.11344731599092484,4.096753120422363,-0.4007939398288727
1772533328106252800,5.240252685546875,-0.25192761421203613,4.6761064529418945,-0.839669942855835
1772533328116184800,5.250184814453125,-0.42862313985824585,4.546281337738037,-1.0653661489486694
1772533328126122200,5.260122314453125,-0.6778876781463623,3.8284475803375244,-0.9886693954467773
1772533328136054800,5.2700546875,-0.7663019895553589,3.225658655166626,-0.7746906876564026
1772533328145983200,5.279983154296875,-0.5447335243225098,2.7931740283966064,-0.48814302682876587
1772533328155915500,5.28991552734375,-0.18268746137619019,1.96788489818573,-0.25605538487434387
1772533328165823200,5.2998232421875,0.1486000120639801,0.6568493247032166,-0.10479229688644409
1772533328175753000,5.3097529296875,0.48188477754592896,-0.5924026966094971,0.17962491512298584
1772533328185717200,5.31971728515625,0.833411693572998,-1.2974538803100586,0.6780208349227905
1772533328195650300,5.329650390625,0.9717588424682617,-1.3443241119384766,1.142329216003418
1772533328205586200,5.339586181640625,0.8908011317253113,-1.2090394496917725,1.363897681236267
1772533328215519500,5.34951953125,0.8035851716995239,-1.3336716890335083,1.2605701684951782
1772533328225452800,5.359452880859375,0.5830819010734558,-1.745783805847168,0.8165011405944824
1772533328235386000,5.36938623046875,0.17416560649871826,-2.1291344165802,0.23182134330272675
1772533328245280300,5.3792802734375,-0.2551233172416687,-2.228201150894165,-0.25712060928344727
1772533328255209700,5.389209716796875,-0.5383421182632446,-1.3272804021835327,-0.20172850787639618
1772533328265151500,5.3991513671875,-0.9271522164344788,0.17762760818004608,0.09653674066066742
1772533328275082200,5.409082275390625,-1.3392642736434937,0.8784177899360657,-0.3134448230266571
1772533328285033700,5.41903369140625,-1.0527164936065674,1.3619004487991333,-0.9556471705436707
1772533328294966500,5.428966552734375,-0.24979715049266815,1.8709486722946167,-0.8460613489151001
1772533328304898300,5.438898193359375,0.37642672657966614,1.792121410369873,0.16471165418624878
1772533328314831000,5.4488310546875,0.8163679838180542,0.8208951950073242,1.5013128519058228
1772533328324761900,5.458761962890625,1.3499165773391724,-0.7702966332435608,2.497039318084717
1772533328334694100,5.468694091796875,1.8323339223861694,-2.0802669525146484,2.7452385425567627
1772533328344628700,5.478628662109375,2.0581634044647217,-2.387986183166504,2.174273729324341
1772533328354561300,5.488561279296875,1.9143569469451904,-1.9588303565979004,0.9921314120292664
1772533328364506400,5.49850634765625,1.2987853288650513,-0.8789504170417786,-0.33048853278160095
1772533328374440200,5.508440185546875,0.5063851475715637,0.41078048944473267,-1.4786765575408936
1772533328384358700,5.518358642578125,-0.045272402465343475,1.274551272392273,-2.1740074157714844
1772533328394291000,5.528291015625,-0.15286093950271606,1.8869271278381348,-1.9120932817459106
1772533328404229600,5.538229736328125,0.01438064593821764,2.0520381927490234,-0.8141043186187744
1772533328414162400,5.548162353515625,0.3572525382041931,1.4535104036331177,0.6609770655632019
1772533328424095500,5.558095458984375,0.7407364249229431,0.48854249715805054,2.111558198928833
1772533328434028300,5.5680283203125,1.0228899717330933,-0.41344356536865234,3.077458143234253
1772533328443948500,5.577948486328125,1.2828068733215332,-0.9011871218681335,3.3703973293304443
1772533328453880300,5.58788037109375,1.5361992120742798,-0.8832113146781921,3.194633722305298
1772533328463817500,5.5978173828125,1.6182221174240112,-0.5817503929138184,2.7079555988311768
1772533328473749500,5.60774951171875,1.5021116733551025,-0.27616167068481445,1.9837301969528198
1772533328483688700,5.617688720703125,1.232740879058838,-0.2920069992542267,1.1391335725784302
1772533328493621500,5.62762158203125,0.7758890986442566,-0.6595124006271362,0.31917044520378113
1772533328503542500,5.63754248046875,0.17842653393745422,-1.0705591440200806,-0.39227205514907837
1772533328513474300,5.647474365234375,-0.3595161437988281,-1.0907986164093018,-1.0025174617767334
1772533328523414000,5.6574140625,-0.771628201007843,-0.7330134510993958,-1.6063714027404785
1772533328533346600,5.6673466796875,-1.1006519794464111,-0.362312376499176,-2.1782684326171875
1772533328543282700,5.67728271484375,-1.262567400932312,-0.03435376659035683,-2.555360794067383
1772533328553215500,5.687215576171875,-1.2039796113967896,0.2948032319545746,-2.6416447162628174
1772533328563143400,5.697143310546875,-0.9888025522232056,0.5524564981460571,-2.480794668197632
1772533328573076000,5.707075927734375,-0.6704310178756714,0.5812177658081055,-2.1441810131073
1772533328583001900,5.717001953125,-0.33501577377319336,0.2585853040218353,-1.6298065185546875
1772533328592933400,5.726933349609375,-0.0750989317893982,-0.2516613006591797,-0.9737561345100403
1772533328602853000,5.73685302734375,0.10066451877355576,-0.6690995097160339,-0.29959678649902344
1772533328612783600,5.74678369140625,0.18268746137619019,-0.8704285621643066,0.2776263654232025
1772533328622729200,5.756729248046875,0.13368675112724304,-0.8629719018936157,0.6471290588378906
1772533328632661200,5.7666611328125,-0.006924014538526535,-0.7511224150657654,0.7430000305175781
1772533328642593500,5.776593505859375,-0.18588316440582275,-0.661642849445343,0.6023892760276794
1772533328652525600,5.786525634765625,-0.3806876540184021,-0.6541862487792969,0.2147776037454605
1772533328662456800,5.796456787109375,-0.4893414080142975,-0.6094464659690857,-0.40292438864707947
1772533328672388900,5.806388916015625,-0.4126446545124054,-0.343138188123703,-1.0003869533538818
1772533328682297900,5.8162978515625,-0.2977326214313507,0.016777420416474342,-1.3391311168670654
1772533328692227300,5.826227294921875,-0.2657756507396698,0.1541924774646759,-1.3870666027069092
1772533328702188000,5.83618798828125,-0.2679060995578766,-0.0588541254401207,-1.0845403671264648
1772533328712120800,5.846120849609375,-0.2348838746547699,-0.4581833481788635,-0.39333727955818176
1772533328722052900,5.856052978515625,-0.20825305581092834,-0.8842765688896179,0.4031907021999359
1772533328731985400,5.8659853515625,-0.2135792225599289,-1.2324745655059814,0.8857412338256836
1772533328741918700,5.875918701171875,-0.1262301206588745,-1.4551082849502563,0.9601744413375854
1772533328751851300,5.885851318359375,0.11025162041187286,-1.4700216054916382,0.9527177810668945
1772533328761755100,5.895755126953125,0.3263607621192932,-1.1919957399368286,1.1476554870605469
1772533328771684900,5.905684814453125,0.3828181326389313,-0.9075785279273987,1.416094183921814
1772533328781620200,5.9156201171875,0.2125139832496643,-1.1962566375732422,1.3393974304199219
1772533328791550700,5.92555078125,-0.12409964948892593,-2.1749396324157715,0.6109111309051514
1772533328801485000,5.935485107421875,-0.435014545917511,-3.3474948406219482,-0.6159709692001343
1772533328811415800,5.945415771484375,-0.6565830111503601,-3.109015703201294,-1.460567593574524
1772533328821347600,5.95534765625,-0.8909342885017395,-0.5732285380363464,-1.0025174617767334
1772533328831278600,5.965278564453125,-0.8877385854721069,1.6855981349945068,0.08694964647293091
1772533328841218000,5.975218017578125,-0.19440503418445587,2.4748027324676514,1.116763710975647
1772533328851149600,5.985149658203125,0.7279536128044128,2.692110061645508,2.4331254959106445
1772533328861083400,5.99508349609375,1.199718713760376,2.1361916065216064,3.7271173000335693
1772533328871015400,6.005015380859375,1.3083724975585938,0.761242151260376,4.352275848388672
1772533328880942000,6.014942138671875,1.511698842048645,-0.6169030666351318,4.104076385498047
1772533328890873600,6.02487353515625,1.8259425163269043,-1.2409964799880981,3.2020905017852783
1772533328900812500,6.0348125,1.9388573169708252,-1.1483211517333984,2.0955796241760254
1772533328910744600,6.04474462890625,1.7385934591293335,-0.7468615174293518,1.1806776523590088
1772533328920675300,6.05467529296875,1.2902635335922241,-0.2175738513469696,0.5789541602134705
1772533328930607400,6.064607421875,0.7471278309822083,0.6057181358337402,0.2062557488679886
1772533328940578600,6.07457861328125,0.24540305137634277,1.6323364973068237,-0.08881380409002304
1772533328950514400,6.084514404296875,-0.15179570019245148,2.5525646209716797,-0.4114462435245514
1772533328960403500,6.094403564453125,-0.38494858145713806,3.2267239093780518,-0.6468627452850342
1772533328970334700,6.104334716796875,-0.4637758135795593,3.483311891555786,-0.6671021580696106
1772533328980267300,6.114267333984375,-0.4360797703266144,3.094635009765625,-0.4220985770225525
1772533328990198800,6.12419873046875,-0.35418999195098877,2.0573644638061523,0.0880148783326149
1772533329000152600,6.134152587890625,-0.22955772280693054,0.5663045048713684,0.7270215153694153
1772533329019992300,6.153992431640625,0.3167736828327179,-1.8448504209518433,1.6854649782180786
1772533329039891200,6.17389111328125,0.6853442788124084,-2.3986384868621826,1.7866621017456055
1772533329049827600,6.18382763671875,0.6789528727531433,-2.191983222961426,1.371354341506958
1772533329059743500,6.193743408203125,0.5798861980438232,-1.930069088935852,0.750456690788269
1772533329069677800,6.203677734375,0.3487306535243988,-1.5295414924621582,-0.04194355010986328
1772533329079608600,6.213608642578125,0.034620072692632675,-1.0141018629074097,-0.8726921677589417
1772533329089542700,6.223542724609375,-0.306254506111145,-0.6051855087280273,-1.5222179889678955
1772533329099470600,6.233470703125,-0.627821683883667,-0.3932041525840759,-1.840722680091858
1772533329109404000,6.24340380859375,-0.8408682942390442,-0.44220486283302307,-1.795982837677002
1772533329119312400,6.2533125,-0.8451292514801025,-0.6307511329650879,-1.4923914670944214
1772533329129243100,6.2632431640625,-0.6054518222808838,-0.7181001901626587,-1.0589747428894043
1772533329139200800,6.27320068359375,-0.2029268890619278,-0.6509905457496643,-0.6468627452850342
1772533329149134300,6.28313427734375,0.16138280928134918,-0.7106435894966125,-0.3773587942123413
1772533329159079700,6.29307958984375,0.305056095123291,-0.9853405356407166,-0.22835932672023773
1772533329169014500,6.3030146484375,0.24433782696723938,-1.3251498937606812,-0.13035789132118225
1772533329178936300,6.312936279296875,0.08681648969650269,-1.5753464698791504,-0.02276935614645481
1772533329188870000,6.322869873046875,-0.11344731599092484,-1.5135629177093506,0.08908011019229889
1772533329198794000,6.3327939453125,-0.3211677670478821,-1.2495183944702148,0.11358047276735306
1772533329208726300,6.342726318359375,-0.5170374512672424,-1.0077104568481445,-0.0003994623839389533
1772533329218659600,6.35265966796875,-0.6555177569389343,-0.9054480791091919,-0.19107617437839508
1772533329228592400,6.36259228515625,-0.6182346343994141,-0.7649704813957214,-0.28894445300102234
1772533329238523100,6.372523193359375,-0.4243622124195099,-0.5476629137992859,-0.2921401560306549
1772533329248455700,6.38245556640625,-0.22103585302829742,-0.42303067445755005,-0.2825530469417572
1772533329258390500,6.392390625,-0.1294258087873459,-0.5231625437736511,-0.22622886300086975
1772533329268323300,6.4023232421875,-0.1720351278781891,-0.7777532339096069,-0.02809552103281021
1772533329278257200,6.412257080078125,-0.245536208152771,-0.911839485168457,0.4266258180141449
1772533329288190200,6.422190185546875,-0.29453691840171814,-0.8469933867454529,1.1071765422821045
1772533329298135800,6.4321357421875,-0.37536147236824036,-0.6786866188049316,1.7408571243286133
1772533329308070000,6.44206982421875,-0.37429624795913696,-0.5647066831588745,2.097710132598877
1772533329317980000,6.45197998046875,-0.1912093311548233,-0.599859356880188,2.0721445083618164
1772533329327911700,6.46191162109375,0.06764229387044907,-0.6989260315895081,1.6886606216430664
1772533329337847600,6.47184765625,0.31144750118255615,-0.6200987696647644,1.1923952102661133
1772533329347779600,6.481779541015625,0.3806876540184021,-0.4485962688922882,0.6950645446777344
1772533329357722600,6.49172265625,0.13475197553634644,-0.5732285380363464,0.13808083534240723
1772533329367656000,6.501656005859375,-0.25831902027130127,-0.6115769147872925,-0.23901166021823883
1772533329377576700,6.51157666015625,-0.5756253004074097,0.32662707567214966,-0.13781452178955078
1772533329387508700,6.5215087890625,-0.7332797646522522,1.6568368673324585,0.02410089783370495
1772533329397442800,6.53144287109375,-0.454188734292984,2.3746707439422607,-0.11757509410381317
1772533329407374800,6.541374755859375,0.00585878174751997,2.456693649291992,-0.38268497586250305
1772533329417303600,6.551303466796875,0.21890538930892944,2.062690496444702,-0.5254262089729309
1772533329427235300,6.5612353515625,0.13155627250671387,1.426879644393921,-0.5840139985084534
1772533329437168000,6.571168212890625,0.09427312016487122,0.7931991219520569,-0.7597774267196655
1772533329447100200,6.58110009765625,0.26883819699287415,0.4523245692253113,-1.0951926708221436
1772533329457007400,6.59100732421875,0.44886255264282227,0.4416722357273102,-1.481872320175171
1772533329466936800,6.600936767578125,0.4201012849807739,0.5375432372093201,-1.8907886743545532
1772533329476913400,6.610913330078125,0.2517944574356079,0.6706973314285278,-2.189985990524292
1772533329486847500,6.620847412109375,0.033554840832948685,0.7974600791931152,-2.231529951095581
1772533329496781300,6.63078125,-0.1390129029750824,0.7953296303749084,-1.9195499420166016
1772533329506715400,6.64071533203125,-0.23807957768440247,0.6057181358337402,-1.3338048458099365
1772533329516627000,6.650626953125,-0.37429624795913696,0.1424749195575714,-0.671363115310669
1772533329526559000,6.66055908203125,-0.5532553791999817,-0.5061188340187073,-0.0185084231197834
1772533329536487700,6.67048779296875,-0.71197509765625,-1.0694940090179443,0.5789541602134705
1772533329546419200,6.680419189453125,-0.8600425124168396,-1.3645634651184082,1.0027837753295898
1772533329556365300,6.690365234375,-0.9441959261894226,-1.295323371887207,1.1274160146713257
1772533329566298400,6.70029833984375,-0.9537830352783203,-0.8917331695556641,0.9113068580627441
1772533329576219000,6.710218994140625,-0.9207608103752136,-0.3303554058074951,0.44153907895088196
1772533329586150700,6.720150634765625,-0.8515206575393677,0.2181064635515213,-0.04620448127388954
1772533329596084500,6.73008447265625,-0.7460625767707825,0.547130286693573,-0.30918389558792114
1772533329606016500,6.7400166015625,-0.6118432283401489,0.5961310267448425,-0.23688119649887085
1772533329615967200,6.74996728515625,-0.44779732823371887,0.42143282294273376,0.06351451575756073
1772533329625901000,6.759901123046875,-0.2572537660598755,0.09880036115646362,0.39999499917030334
1772533329635808800,6.769808837890625,-0.037815771996974945,-0.24846559762954712,0.6268896460533142
1772533329645740000,6.779739990234375,0.1283605843782425,-0.6573819518089294,0.6077154278755188
1772533329655679200,6.78967919921875,0.15392617881298065,-1.0652329921722412,0.31917044520378113
1772533329665611300,6.799611328125,0.054859500378370285,-1.2804100513458252,-0.12716218829154968
1772533329675539200,6.809539306640625,-0.0953383520245552,-1.265496850013733,-0.5999925136566162
1772533329685471000,6.819470947265625,-0.1912093311548233,-0.8608414530754089,-0.9844084978103638
1772533329695410700,6.82941064453125,-0.1709699034690857,-0.21650861203670502,-1.251781940460205
1772533329705343200,6.83934326171875,-0.06764229387044907,0.3617797791957855,-1.406240701675415
1772533329715272000,6.84927197265625,0.028228675946593285,0.7750901579856873,-1.4786765575408936
1772533329725204200,6.859204345703125,0.044207170605659485,0.9635032415390015,-1.5115656852722168
1772533329735145200,6.869145263671875,-0.00585878174751997,0.7825468182563782,-1.4616328477859497
1772533329745078300,6.879078369140625,-0.0037283156998455524,0.4193023443222046,-1.1878679990768433
1772533329754996500,6.88899658203125,0.058055199682712555,0.09880036115646362,-0.6926677823066711
1772533329764928300,6.89892822265625,0.1177082508802414,-0.12489857524633408,-0.10159660130739212
1772533329774859800,6.90885986328125,0.1581871062517166,-0.17709499597549438,0.4042559266090393
1772533329784791300,6.918791259765625,0.20825305581092834,-0.08122401684522629,0.6620423197746277
1772533329794731500,6.9287314453125,0.22955772280693054,0.05938674136996269,0.7078473567962646
1772533329804663800,6.938663818359375,0.16777420043945312,0.1009308323264122,0.6812165379524231
1772533329814591200,6.94859130859375,0.038881003856658936,-0.05033225938677788,0.7025212049484253
1772533329824523300,6.958523193359375,-0.11877348273992538,-0.33781203627586365,0.7813484072685242
1772533329834458400,6.968458251953125,-0.23914481699466705,-0.5806851387023926,0.8463276624679565
1772533329844390700,6.978390625,-0.2146444469690323,-0.5231625437736511,0.8963935971260071
1772533329854317600,6.988317626953125,-0.0026630824431777,0.11903978884220123,0.927285373210907
1772533329864249300,6.998249267578125,0.30186042189598083,1.0487219095230103,0.866567075252533
1772533329874183000,7.008182861328125,0.5095808506011963,1.5716181993484497,0.736608624458313
1772533329884115000,7.018114990234375,0.5319507122039795,1.2447247505187988,0.6886731386184692
1772533329894057500,7.028057373046875,0.4094489514827728,0.25752007961273193,0.7451304793357849
1772533329903990500,7.037990478515625,0.25605538487434387,-0.8075798153877258,0.8271534442901611
1772533329913932300,7.047932373046875,0.13368675112724304,-1.1728215217590332,0.9569787383079529
1772533329923866000,7.0578662109375,0.0037283156998455524,-0.2804225981235504,1.4469859600067139
1772533329933776000,7.06777587890625,-0.043141938745975494,1.4311405420303345,2.4086251258850098
1772533329943707400,7.077707275390625,0.2507292330265045,2.3810620307922363,3.2201993465423584
1772533329953655600,7.087655517578125,0.771628201007843,2.0147550106048584,3.260678291320801
1772533329963588600,7.097588623046875,1.215697169303894,0.9720251560211182,2.556692361831665
1772533329973511200,7.10751123046875,1.1752183437347412,0.31823837757110596,1.728074312210083
1772533329983443200,7.117443115234375,1.0207595825195312,-0.025831900537014008,1.0603063106536865
1772533329993373200,7.127373291015625,1.0537817478179932,-0.1653774231672287,0.5853455662727356
1772533330003305200,7.13730517578125,1.1816097497940063,-0.11531147360801697,0.3967992961406708
1772533330013213700,7.147213623046875,1.286002516746521,-0.29520270228385925,0.34353765845298767
1772533330023143200,7.15714306640625,1.2817416191101074,-0.6083812117576599,0.3414071798324585
1772533330033083600,7.167083740234375,1.121956706047058,-0.5700328350067139,0.42343011498451233
1772533330043014400,7.177014404296875,0.9057143926620483,-0.11424624174833298,0.5331491231918335
1772533330052939500,7.186939453125,0.7045184969902039,0.49812960624694824,0.5576494932174683
1772533330062869800,7.196869873046875,0.47123244404792786,0.9975907206535339,0.4276910722255707
1772533330072806000,7.206805908203125,0.1816222369670868,1.2234201431274414,0.12742850184440613
1772533330082736600,7.216736572265625,-0.07722939550876617,1.1286144256591797,-0.2326202541589737
1772533330092706000,7.2267060546875,-0.22742724418640137,0.7878729701042175,-0.5371437668800354
1772533330102641000,7.236640869140625,-0.2870802879333496,0.46723783016204834,-0.7853430509567261
1772533330112535000,7.24653515625,-0.2966673970222473,0.2948032319545746,-0.96097332239151
1772533330122465500,7.256465576171875,-0.2231663167476654,0.3118469715118408,-0.9886693954467773
1772533330132404000,7.266404052734375,-0.030359141528606415,0.4512593448162079,-0.6926677823066711
1772533330142335500,7.27633544921875,0.2029268890619278,0.5599130988121033,-0.05153064802289009
1772533330152300300,7.28630029296875,0.3487306535243988,0.49919483065605164,0.6971949934959412
1772533330162235000,7.29623486328125,0.350861132144928,0.15738818049430847,1.2978532314300537
1772533330172105000,7.30610498046875,0.13475197553634644,-0.36763855814933777,1.6013115644454956
1772533330182033200,7.316033203125,-0.28388461470603943,-0.7958621978759766,1.590659260749817
1772533330191994000,7.325994140625,-0.7535192370414734,-1.1025161743164062,1.3330060243606567
1772533330201925600,7.335925537109375,-1.039933681488037,-1.326215147972107,0.949522078037262
1772533330211894300,7.345894287109375,-1.037803292274475,-1.4380645751953125,0.5310186743736267
1772533330221829400,7.355829345703125,-0.9228912591934204,-1.4817391633987427,0.11890663951635361
1772533330231730700,7.365730712890625,-0.7705629467964172,-1.1621692180633545,-0.18148908019065857
1772533330241662500,7.375662353515625,-0.477623850107193,-0.3836170434951782,-0.3880111277103424
1772533330251606000,7.38560595703125,-0.07935985922813416,0.4416722357273102,-0.6894720792770386
1772533330261538800,7.395538818359375,0.22742724418640137,1.0018516778945923,-1.0664314031600952
1772533330271478500,7.405478515625,0.2752295732498169,1.3224867582321167,-1.3284786939620972
1772533330281412400,7.415412353515625,0.14433906972408295,1.4417928457260132,-1.3732185363769531
1772533330291350000,7.42535009765625,0.025032976642251015,1.3171606063842773,-1.1963897943496704
1772533330301284000,7.4352841796875,-0.00585878174751997,0.9635032415390015,-0.8726921677589417
1772533330311199000,7.445198974609375,-0.01118494663387537,0.5258256793022156,-0.5019910335540771
1772533330321131000,7.455131103515625,0.0047935484908521175,0.19254086911678314,-0.1346188187599182
1772533330331065900,7.46506591796875,0.11877348273992538,-0.006657706573605537,0.15618979930877686
1772533330340998100,7.474998046875,0.31038227677345276,-0.13981182873249054,0.37975558638572693
1772533330350930200,7.48493017578125,0.4786891043186188,-0.34100770950317383,0.5704323053359985
1772533330360862700,7.49486279296875,0.5766905546188354,-0.614772617816925,0.6844122409820557
1772533330370796300,7.50479638671875,0.5457987785339355,-0.8171668648719788,0.7184996604919434
1772533330380728800,7.514728759765625,0.4019923210144043,-0.7628399729728699,0.7579132914543152
1772533330390655700,7.52465576171875,0.18588316440582275,-0.5434020161628723,0.8495233654975891
1772533330400587800,7.534587890625,-0.034620072692632675,-0.24420467019081116,1.025153636932373
1772533330410525400,7.544525390625,-0.14540430903434753,-0.1653774231672287,1.203047513961792
1772533330420458000,7.5544580078125,-0.055924732238054276,-0.44646579027175903,1.2115694284439087
1772533330430389500,7.564389404296875,0.19653549790382385,-0.9565792679786682,0.9676310420036316
1772533330440322000,7.574322021484375,0.2752295732498169,-1.677608847618103,0.4809527099132538
1772533330450253600,7.584253662109375,0.013315413147211075,-2.040853261947632,-0.19107617437839508
1772533330460185900,7.594185791015625,-0.4360797703266144,-1.18134343624115,-0.671363115310669
1772533330470122200,7.604122314453125,-0.8216941356658936,0.7250242233276367,-0.5446003675460815
1772533330480055000,7.614054931640625,-1.047390341758728,2.163754463195801,-0.09840089827775955
1772533330489993700,7.62399365234375,-0.7481930255889893,2.456693649291992,0.5619103908538818
1772533330499927000,7.633927001953125,-0.13475197553634644,1.7505773305892944,1.0006532669067383
1772533330509859600,7.643859619140625,-0.016511112451553345,0.416106641292572,0.04114462435245514
1772533330519793000,7.65379296875,-0.22103585302829742,-0.3750951886177063,-1.494521975517273
1772533330529717000,7.663717041015625,-0.15392617881298065,-0.05991935729980469,-2.212355852127075
1772533330539649500,7.6736494140625,0.2869471311569214,0.5886744260787964,-2.1452462673187256
1772533330549576200,7.683576171875,0.9344756603240967,0.8720263838768005,-1.585066795349121
1772533330559508000,7.693508056640625,1.5969175100326538,0.5950657725334167,-0.8098434209823608
1772533330569437200,7.703437255859375,2.086791515350342,-0.2633788585662842,-0.32090145349502563
1772533330579368700,7.71336865234375,2.202901840209961,-1.1078423261642456,-0.1793586164712906
1772533330589371000,7.723370849609375,1.7993117570877075,-1.2101047039031982,-0.15485824644565582
1772533330599309300,7.733309326171875,1.1145000457763672,-0.6797518134117126,-0.21557652950286865
1772533330609144300,7.743144287109375,0.40518802404403687,-0.0588541254401207,-0.4838820993900299
1772533330619072500,7.753072509765625,-0.2231663167476654,0.5673697590827942,-0.8641703128814697
1772533330629043200,7.763043212890625,-0.7535192370414734,1.1318100690841675,-1.0621705055236816
1772533330638975700,7.772975830078125,-0.9569787383079529,1.6355321407318115,-0.7619079351425171
1772533330648915700,7.782915771484375,-0.7173013091087341,1.7463164329528809,-0.0930747389793396
1772533330658848800,7.792848876953125,-0.27323228120803833,1.288399338722229,0.5768237113952637
1772533330668760600,7.802760498046875,0.11344731599092484,0.49599912762641907,1.102915644645691
1772533330678691600,7.812691650390625,0.3391435742378235,-0.12383333593606949,1.4650949239730835
1772533330688632300,7.82263232421875,0.42755791544914246,-0.27829211950302124,1.5682892799377441
1772533330698564400,7.832564453125,0.38814428448677063,-0.1547250896692276,1.3681586980819702
1772533330708487400,7.8424873046875,0.2252967804670334,-0.11318100988864899,0.8963935971260071
1772533330718418400,7.85241845703125,-0.015445878729224205,-0.28561559319496155,0.2254299372434616
1772533330728359000,7.86235888671875,-0.31690680980682373,-0.5902722477912903,-0.4551208019256592
1772533330738291000,7.872291015625,-0.5564510822296143,-0.7095783352851868,-0.9055812358856201
1772533330748223200,7.88222314453125,-0.6352783441543579,-0.5817503929138184,-1.1399325132369995
1772533330758155300,7.8921552734375,-0.6235607862472534,-0.4304873049259186,-1.322087287902832
1772533330768087300,7.90208740234375,-0.5127765536308289,-0.3889431953430176,-1.5062395334243774
1772533330778019300,7.912019287109375,-0.35845091938972473,-0.4944012761116028,-1.6436545848846436
1772533330787951600,7.92195166015625,-0.26151469349861145,-0.6829475164413452,-1.6979814767837524
1772533330797883600,7.931883544921875,-0.2348838746547699,-0.7702966332435608,-1.6500459909439087
1772533330807816000,7.94181591796875,-0.23275341093540192,-0.5710980296134949,-1.5232832431793213
1772533330817748000,7.951748046875,-0.21997061371803284,-0.24313943088054657,-1.3465876579284668
1772533330827655200,7.9616552734375,-0.19014409184455872,-0.14939893782138824,-1.1346063613891602
1772533330837584600,7.971584716796875,-0.17629607021808624,-0.2740311920642853,-0.8663007616996765
1772533330847545900,7.9815458984375,-0.0857512578368187,-0.4209001958370209,-0.5243609547615051
1772533330857478700,7.991478759765625,0.15499140322208405,-0.5263582468032837,-0.18575000762939453
1772533330867410400,8.001410400390625,0.3487306535243988,-0.6935998797416687,0.02197043038904667
1772533330877343000,8.011343017578126,0.346600204706192,-0.8107754588127136,0.02197043038904667
1772533330887275000,8.02127490234375,0.23701435327529907,-0.7149044871330261,-0.14953207969665527
1772533330897207600,8.03120751953125,0.0857512578368187,-0.5210320949554443,-0.4220985770225525
1772533330907133400,8.041133544921875,-0.026098208501935005,-0.24633513391017914,-0.6702978610992432
1772533330917065200,8.051065185546875,-0.0047935484908521175,0.13075734674930573,-0.7267552018165588
1772533330927005700,8.061005615234375,0.10279498994350433,0.37882348895072937,-0.532882809638977
1772533330936938500,8.0709384765625,0.19866596162319183,0.3852148950099945,-0.1356840580701828
1772533330946861600,8.080861572265626,0.2528596818447113,0.28628137707710266,0.3244965970516205
1772533330956793300,8.09079345703125,0.2338186502456665,0.1861494779586792,0.6865426898002625
1772533330966731500,8.1007314453125,0.10918638855218887,-0.07696308940649033,0.8463276624679565
1772533330976664000,8.1106640625,-0.059120431542396545,-0.6318163275718689,0.7334129214286804
1772533330986592500,8.120592529296875,-0.2114487588405609,-1.3475197553634644,0.30638766288757324
1772533330996524500,8.130524658203125,-0.38388335704803467,-1.8863945007324219,-0.3347494900226593
1772533331006454000,8.1404541015625,-0.6299521923065186,-1.799045443534851,-0.793864905834198
1772533331016348200,8.15034814453125,-0.7897371053695679,-0.8619066476821899,-0.8354089856147766
1772533331036251100,8.170251220703125,-0.4232969582080841,1.1286144256591797,-1.0483224391937256
1772533331046186200,8.180186279296874,-0.3499290347099304,1.4354015588760376,-1.3018479347229004
1772533331056117000,8.190116943359374,-0.4648410677909851,1.6014447212219238,-1.2773475646972656
1772533331066051800,8.2000517578125,-0.5010589957237244,1.623814582824707,-1.0014522075653076
1772533331075979800,8.209979736328124,-0.2753627300262451,1.4300752878189087,-0.6468627452850342
1772533331085913900,8.219913818359375,0.13368675112724304,1.149919033050537,-0.2422073632478714
1772533331095857000,8.22985693359375,0.5074504017829895,0.7953296303749084,0.1849510818719864
1772533331105792000,8.2397919921875,0.6629744172096252,0.3033251166343689,0.5022573471069336
1772533331115728600,8.249728759765626,0.6235607862472534,-0.22609570622444153,0.5928021669387817
1772533331125663700,8.259663818359375,0.454188734292984,-0.5913375020027161,0.3936035931110382
1772533331135583200,8.269583251953126,0.14433906972408295,-0.6967955231666565,-0.07283531129360199
1772533331145516800,8.279516845703125,-0.3073197305202484,-0.41450878977775574,-0.7011896371841431
1772533331155455000,8.289455078125,-0.7290188670158386,0.3054555654525757,-1.2347382307052612
1772533331165388800,8.299388916015625,-0.917565107345581,1.0902659893035889,-1.47441565990448
1772533331175299800,8.3092998046875,-0.8344769477844238,1.4545756578445435,-1.3710880279541016
1772533331185231400,8.3192314453125,-0.6374087929725647,1.1520495414733887,-0.9034507870674133
1772533331195170800,8.3291708984375,-0.44034069776535034,0.40119338035583496,-0.13142313063144684
1772533331205103400,8.339103271484374,-0.2764279842376709,-0.5402063131332397,0.7440652847290039
1772533331215009800,8.349009765625,-0.17842653393745422,-1.532737135887146,1.5247479677200317
1772533331224939500,8.358939453125,-0.09427312016487122,-2.3379201889038086,2.036991834640503
1772533331234908700,8.36890869140625,-0.00585878174751997,-2.6319243907928467,2.157363176345825
1772533331244842200,8.37884228515625,0.045272402465343475,-2.3230068683624268,1.9176857471466064
1772533331254739700,8.38873974609375,0.07190322875976562,-1.6733479499816895,1.4704210758209229
1772533331264669700,8.398669677734375,0.11344731599092484,-1.1057119369506836,0.9559134840965271
1772533331274606000,8.408606201171875,0.23807957768440247,-0.7489919662475586,0.5363448262214661
1772533331284536800,8.418536865234374,0.39453569054603577,-0.614772617816925,0.3010614812374115
1772533331294469000,8.42846923828125,0.4264926612377167,-0.7181001901626587,0.1306242048740387
1772533331304400100,8.438400146484375,0.26670771837234497,-1.0172975063323975,-0.09627043455839157
1772533331314343000,8.448343017578125,0.013315413147211075,-1.3070409297943115,-0.3379451632499695
1772533331324275000,8.45827490234375,-0.1720351278781891,-1.457238793373108,-0.5659050345420837
1772533331334195200,8.4681953125,-0.25086238980293274,-1.4465864896774292,-0.8013215661048889
1772533331344126200,8.478126220703125,-0.2657756507396698,-1.1919957399368286,-1.036604881286621
1772533331354064100,8.488064208984374,-0.22742724418640137,-0.7766880393028259,-1.24539053440094
1772533331363995600,8.49799560546875,-0.11238208413124084,-0.28668084740638733,-1.3327397108078003
1772533331373926000,8.50792578125,0.033554840832948685,0.19999749958515167,-1.2113031148910522
1772533331383857400,8.517857421875,0.1294258087873459,0.507716715335846,-0.8853418231010437
1772533331393832200,8.527832275390624,0.1699046641588211,0.4949339032173157,-0.4540555775165558
1772533331403768000,8.53776806640625,0.15605664253234863,0.21064983308315277,-0.06963960826396942
1772533331413662200,8.547662109375,0.039946239441633224,-0.18029068410396576,0.183885857462883
1772533331423594000,8.557593994140625,-0.12303441762924194,-0.5423367619514465,0.23395180702209473
1772533331433538600,8.56753857421875,-0.23701435327529907,-0.6712299585342407,0.10292813926935196
1772533331443471600,8.5774716796875,-0.2774932086467743,-0.4581833481788635,-0.1367492824792862
1772533331453408300,8.587408203125,-0.2785584330558777,-0.021570969372987747,-0.40292438864707947
1772533331463341600,8.597341552734376,-0.23914481699466705,0.5876091718673706,-0.5872097015380859
1772533331473269800,8.607269775390625,-0.14753477275371552,1.3768136501312256,-0.5041215419769287
1772533331483202600,8.61720263671875,-0.08042509108781815,1.869883418083191,-0.1250317245721817
1772533331493134000,8.627134033203125,-0.06551183015108109,1.6291407346725464,0.36803799867630005
1772533331503067000,8.63706689453125,-0.041011471301317215,0.8166342377662659,0.8324795961380005
1772533331512996000,8.64699609375,-0.07616416364908218,-0.32715970277786255,1.0262188911437988
1772533331522928600,8.6569287109375,-0.2796236574649811,-1.3315412998199463,0.8782846331596375
1772533331532863000,8.666863037109374,-0.4999937415122986,-1.5338023900985718,0.5576494932174683
1772533331542795500,8.67679541015625,-0.5308855175971985,-0.6818822622299194,0.22969086468219757
1772533331552726000,8.68672607421875,-0.3627118468284607,0.9485899806022644,0.2573869228363037
1772533331562658300,8.696658203125,-0.08894696086645126,2.546173334121704,0.7334129214286804
1772533331572578000,8.706578125,0.14540430903434753,3.230984926223755,1.2616353034973145
1772533331582509000,8.716509033203126,0.20825305581092834,2.6835882663726807,1.50983464717865
1772533331592461300,8.72646142578125,0.11025162041187286,0.9178314208984375,1.2669615745544434
1772533331602394600,8.73639453125,0.137947678565979,-1.41036856174469,0.6343462467193604
1772533331612321500,8.746321533203124,0.5106461048126221,-3.009948968887329,-0.06963960826396942
1772533331622254000,8.756254150390625,1.0676298141479492,-3.549889087677002,-0.7714950442314148
1772533331632173000,8.766173095703126,1.5308730602264404,-3.0514931678771973,-1.3551095724105835
1772533331642104300,8.776104248046876,1.820616364479065,-1.570020318031311,-1.631937026977539
1772533331652049700,8.786049560546875,1.8387253284454346,0.1328878253698349,-1.5648273229599
1772533331661982200,8.795982177734375,1.5063726902008057,1.188267469406128,-1.1740199327468872
1772533331671909400,8.805909423828124,1.0367380380630493,1.3182258605957031,-0.5893401503562927
1772533331681841400,8.81584130859375,0.6587134599685669,0.9167661666870117,-0.009986559860408306
1772533331691791400,8.825791259765625,0.44034069776535034,0.23408496379852295,0.4458000063896179
1772533331701725200,8.83572509765625,0.37642672657966614,-0.6360772848129272,0.6971949934959412
1772533331711628000,8.8456279296875,0.520233154296875,-1.2601706981658936,0.674825131893158
1772533331721559000,8.85555908203125,0.8567136526107788,-1.5263457298278809,0.34460288286209106
1772533331731503400,8.86550341796875,1.092130184173584,-1.5135629177093506,-0.10053136944770813
1772533331741435600,8.875435546875,1.125152349472046,-0.9651011228561401,-0.16977150738239288
1772533331751374800,8.885374755859376,1.1613702774047852,-0.14087706804275513,0.2818872928619385
1772533331761307600,8.8953076171875,1.2242190837860107,0.416106641292572,1.0368711948394775
1772533331771237600,8.905237548828126,1.2029143571853638,0.546065092086792,1.8463151454925537
1772533331781170200,8.915170166015624,1.047390341758728,0.06364767253398895,2.518343925476074
1772533331791089700,8.925089599609375,0.7407364249229431,-0.9342093467712402,2.961347818374634
1772533331801021000,8.93502099609375,0.47229769825935364,-1.9566999673843384,3.0614798069000244
1772533331810971000,8.944970947265626,0.40838369727134705,-2.6052937507629395,2.7313907146453857
1772533331820904000,8.954904052734374,0.5298202633857727,-2.662816286087036,2.0540356636047363
1772533331830831000,8.9648310546875,0.7215622067451477,-2.072810411453247,1.0943937301635742
1772533331840763600,8.974763671875,0.947258472442627,-1.0982552766799927,-0.08348763734102249
1772533331850696400,8.984696533203126,1.2125015258789062,-0.2495308369398117,-1.2251511812210083
1772533331860629000,8.99462890625,1.4063738584518433,0.29799893498420715,-2.0889220237731934
1772533331870557400,9.004557373046875,1.424482822418213,0.7452636361122131,-2.661884069442749
1772533331880489500,9.014489501953125,1.3041114807128906,1.2628337144851685,-2.996234178543091
1772533331890399000,9.02439892578125,1.0761516094207764,1.852839708328247,-3.079322338104248
1772533331900328700,9.03432861328125,0.8599093556404114,2.158428430557251,-3.0164735317230225
1772533331910292700,9.044292724609376,0.7407364249229431,2.0520381927490234,-2.9227330684661865
1772533331920226000,9.05422607421875,0.7087793946266174,2.3672142028808594,-2.5756003856658936
1772533331930150400,9.064150390625,0.8089113235473633,2.981720447540283,-2.3327271938323975
1772533331940083000,9.0740830078125,0.8652355074882507,3.0584170818328857,-2.3188791275024414
1772533331950017800,9.084017822265626,1.0516513586044312,2.8059568405151367,-2.0983757972717285
1772533331959950600,9.09395068359375,1.323285698890686,2.865609884262085,-1.3636313676834106
1772533331969879600,9.103879638671875,1.393591046333313,3.197962760925293,-0.3656412363052368
1772533331979811800,9.113811767578126,1.2348713874816895,2.996633768081665,0.559779942035675
1772533331989745000,9.123744873046874,0.9099752902984619,2.0562992095947266,1.3862676620483398
1772533331999677200,9.13367724609375,0.48295003175735474,0.8336780071258545,2.1467108726501465
1772533332009584600,9.143584716796875,0.041011471301317215,-0.4166392683982849,2.7090206146240234
1772533332019514600,9.1535146484375,-0.4456668794155121,-1.8704160451889038,2.9198036193847656
1772533332029483300,9.163483154296875,-0.8504554033279419,-3.0696020126342773,3.0199356079101562
1772533332039417000,9.1734169921875,-1.1507179737091064,-3.5711936950683594,3.174394369125366
1772533332049338400,9.18333837890625,-1.4415265321731567,-3.2038214206695557,3.268134832382202
1772533332059271000,9.19327099609375,-1.787594199180603,-1.6179558038711548,3.352288246154785
1772533332069212400,9.20321240234375,-1.8642909526824951,0.47789016366004944,3.3799843788146973
1772533332079146000,9.21314599609375,-1.5246148109436035,2.495042085647583,3.3693320751190186
1772533332089096700,9.2230966796875,-0.9015865921974182,3.564269781112671,3.0987627506256104
1772533332099032000,9.233031982421876,-0.3520595133304596,2.196776866912842,1.9091638326644897
1772533332108930600,9.2429306640625,-0.14007814228534698,0.5364779829978943,1.0592410564422607
1772533332118862000,9.252862060546875,-0.2252967804670334,0.5300865769386292,1.4608339071273804
1772533332128796400,9.26279638671875,-0.3796224296092987,0.46617260575294495,1.9144901037216187
1772533332138728200,9.272728271484375,-0.46164536476135254,-0.11318100988864899,1.6353989839553833
1772533332148658400,9.282658447265625,-0.5362116694450378,-0.5423367619514465,0.6226286888122559
1772533332158590000,9.29258984375,-0.5532553791999817,-0.5263582468032837,-0.6085143685340881
1772533332168524300,9.302524169921876,-0.26044946908950806,-0.4059869349002838,-1.618088960647583
1772533332178456000,9.3124560546875,0.15286093950271606,-0.32929015159606934,-2.37320613861084
1772533332188393500,9.3223935546875,0.23701435327529907,-0.2612484097480774,-2.661884069442749
1772533332198325800,9.33232568359375,0.052729032933712006,-0.19094301760196686,-2.5020992755889893
1772533332208258600,9.342258544921876,-0.16564373672008514,-0.08228924870491028,-2.0186166763305664
1772533332218191000,9.352191162109374,-0.37323102355003357,0.11051792651414871,-1.2709561586380005
1772533332228130600,9.362130615234374,-0.5479292273521423,0.22023692727088928,-0.4220985770225525
1772533332247982300,9.381982421875,-0.4882761836051941,0.15845340490341187,1.2360697984695435
1772533332257914000,9.3919140625,-0.4211665093898773,-0.005592473316937685,1.6630951166152954
1772533332267845000,9.40184521484375,-0.370035320520401,-0.16005125641822815,1.6492470502853394
1772533332277776600,9.411776611328126,-0.3721657991409302,-0.20479105412960052,1.2680267095565796
1772533332287709000,9.421708984375,-0.4041227698326111,-0.006657706573605537,0.6844122409820557
1772533332297640400,9.431640380859376,-0.37749195098876953,0.46617260575294495,0.08588441461324692
1772533332307588600,9.441588623046876,-0.29453691840171814,1.0231562852859497,-0.4529903531074524
1772533332317522000,9.45152197265625,-0.26257994771003723,1.417292594909668,-0.9077116847038269
1772533332327439600,9.461439697265625,-0.3201025128364563,1.4279448986053467,-1.0845403671264648
1772533332337371400,9.471371337890625,-0.28068891167640686,1.0231562852859497,-0.8226261734962463
1772533332347301400,9.48130126953125,-0.016511112451553345,0.3139774203300476,-0.27509641647338867
1772533332357233200,9.491233154296875,0.3242303133010864,-0.4517919421195984,0.28295251727104187
1772533332367166000,9.501166015625,0.5521901845932007,-1.050319790840149,0.6577813625335693
1772533332377097700,9.51109765625,0.5447335243225098,-1.3539111614227295,0.8559147119522095
1772533332387045400,9.52104541015625,0.28162097930908203,-1.4114338159561157,0.8729584813117981
1772533332396978700,9.530978759765626,-0.14327384531497955,-1.1824086904525757,0.7291520237922668
1772533332406907100,9.5409072265625,-0.5362116694450378,-0.5615109801292419,0.5320838689804077
1772533332416840000,9.55083984375,-0.6959966421127319,0.14567062258720398,0.36590754985809326
1772533332426740000,9.560739990234374,-0.5436683297157288,0.46617260575294495,0.3031919598579407
1772533332436669400,9.57066943359375,-0.1688394397497177,0.24793298542499542,0.4713656008243561
1772533332446608600,9.580608642578126,0.1709699034690857,-0.4794880151748657,0.8878717422485352
