time,seconds_elapsed,z,y,x
1772533243930487600,0.210487548828125,0,0,0
1772533243940429600,0.2204296875,0.2877531051635742,-0.18780088424682617,0.14069664478302002
1772533243950351600,0.2303515625,0.12932872772216797,-0.5396066904067993,0.23428010940551758
1772533243960285700,0.24028564453125,-0.1682300567626953,-0.21519172191619873,0.2547004818916321
1772533243970219500,0.250219482421875,-0.5125150680541992,0.22167229652404785,0.28853994607925415
1772533243980153300,0.2601533203125,-0.9075007438659668,0.17166709899902344,0.3259935975074768
1772533243990094800,0.2700947265625,-1.210902214050293,-0.23069941997528076,-0.15778136253356934
1772533244000031700,0.28003173828125,-0.9587335586547852,-0.32324373722076416,-0.3598438501358032
1772533244009923800,0.289923828125,-0.4026317596435547,-0.13235735893249512,-0.2902095913887024
1772533244019842800,0.2998427734375,-0.14156246185302734,-0.03129470348358154,-0.44043588638305664
1772533244029823200,0.3098232421875,0.13183879852294922,-0.10115528106689453,-0.4698113203048706
1772533244039767000,0.31976708984375,0.35909080505371094,-0.4226127862930298,-0.38938915729522705
1772533244049674500,0.329674560546875,-0.0008211135864257812,-0.6776056289672852,-0.13904699683189392
1772533244059603700,0.339603759765625,0.16799163818359375,-0.5951946973800659,0.033236321061849594
1772533244069537500,0.34953759765625,1.0939702987670898,-0.18094336986541748,-0.14551717042922974
1772533244079468800,0.35946875,2.4904918670654297,0.28167927265167236,-0.4922753870487213
1772533244089402400,0.36940234375,4.329375267028809,0.7255089282989502,-1.0964303016662598
1772533244099334400,0.37933447265625,3.8676815032958984,0.7706902027130127,-1.6173702478408813
1772533244109275400,0.389275390625,4.279819488525391,0.937692403793335,-1.3520740270614624
1772533244119211000,0.3992109375,4.246413230895996,1.3480539321899414,-1.3104126453399658
1772533244129129500,0.40912939453125,3.797597885131836,1.7468318939208984,-1.3738605976104736
1772533244139058200,0.41905810546875,3.228158950805664,2.1802937984466553,-1.3086122274398804
1772533244148997000,0.4289970703125,3.3702573776245117,2.713496208190918,-1.8066527843475342
1772533244158930200,0.43893017578125,4.844593048095703,2.8407998085021973,-2.5733537673950195
1772533244168875000,0.448875,7.202596664428711,2.257683038711548,-3.5956408977508545
1772533244178812700,0.458812744140625,9.168111801147461,1.2304661273956299,-3.8858327865600586
1772533244188739000,0.468739013671875,10.142805099487305,-0.03347611427307129,-2.803175926208496
1772533244198672100,0.478672119140625,9.872215270996094,-0.9229733943939209,-1.207062840461731
1772533244208595200,0.48859521484375,8.542569160461426,-0.5809605121612549,-0.1007237434387207
1772533244218524200,0.498524169921875,6.8173017501831055,0.2534019947052002,0.5321504473686218
1772533244228465400,0.50846533203125,4.6603803634643555,0.08766293525695801,0.8668975234031677
1772533244238399500,0.5183994140625,2.381545066833496,-0.3117823600769043,0.2477836012840271
1772533244248320000,0.528320068359375,0.38722705841064453,-0.0053386688232421875,-1.0316028594970703
1772533244258252800,0.538252685546875,-0.7070398330688477,1.1059718132019043,-2.311717987060547
1772533244268181000,0.548180908203125,-0.6183509826660156,1.733621597290039,-2.116023302078247
1772533244278113300,0.55811328125,-0.08503246307373047,0.8346471786499023,-0.8891437649726868
1772533244288052500,0.568052490234375,-0.33592987060546875,-0.10381603240966797,-0.8609526753425598
1772533244297985500,0.577985595703125,-1.6483850479125977,0.10127067565917969,-1.3215217590332031
1772533244307892500,0.587892578125,-3.755439281463623,1.282456398010254,-1.4688966274261475
1772533244317823000,0.597822998046875,-6.646661281585693,3.078092098236084,-1.0812209844589233
1772533244327759400,0.60775927734375,-10.46671199798584,2.5623579025268555,1.0705689191818237
1772533244337690400,0.6176904296875,-11.568732261657715,0.3988499641418457,3.038620948791504
1772533244347620900,0.627620849609375,-8.374018669128418,-1.0664868354797363,2.50602126121521
1772533244357551600,0.637551513671875,-4.482196807861328,-3.2504751682281494,0.7059676647186279
1772533244367512000,0.647511962890625,-2.2674856185913086,-5.386557579040527,-0.7896647453308105
1772533244377446000,0.65744580078125,0.6295394897460938,-5.755060195922852,-1.1392135620117188
1772533244387350300,0.667350341796875,1.0684995651245117,-5.321771621704102,-1.161919355392456
1772533244397281000,0.677281005859375,-2.085397720336914,-4.691727638244629,-1.4836915731430054
1772533244407215000,0.687215087890625,-3.3551669120788574,-4.186841011047363,-1.2531969547271729
1772533244417146400,0.697146484375,-5.127161979675293,-3.9626176357269287,-0.14163899421691895
1772533244427078700,0.70707861328125,-6.2663397789001465,-3.257472276687622,1.5857316255569458
1772533244437010000,0.717010009765625,-7.597002029418945,-3.3191275596618652,-0.07964742183685303
1772533244446943500,0.726943603515625,-9.355672836303711,-3.2880167961120605,-1.5683345794677734
1772533244456875000,0.736875,-10.637728691101074,-2.5891740322113037,-1.5100927352905273
1772533244466802400,0.746802490234375,-11.252493858337402,-2.1120569705963135,-0.6519021987915039
1772533244476733700,0.756733642578125,-11.524079322814941,-1.4877337217330933,0.11704230308532715
1772533244486669800,0.766669921875,-11.320170402526855,-0.5063393115997314,0.9024555683135986
1772533244496601300,0.776601318359375,-10.754987716674805,-0.38240373134613037,1.6322689056396484
1772533244506560300,0.786560302734375,-9.785037994384766,-0.4563254117965698,2.0817623138427734
1772533244516494600,0.79649462890625,-8.169828414916992,0.0983591079711914,1.145960807800293
1772533244526420000,0.806419921875,-6.558030128479004,0.6378962993621826,0.13430339097976685
1772533244536353300,0.816353271484375,-5.911960601806641,0.4022892713546753,-0.3020687997341156
1772533244546282200,0.8262822265625,-6.1094465255737305,-0.2972753047943115,-0.6921224594116211
1772533244556215300,0.83621533203125,-6.180683135986328,-1.0800325870513916,-1.3886563777923584
1772533244566188500,0.8461884765625,-4.656273365020752,-0.43237364292144775,-2.2573986053466797
1772533244586014500,0.866014404296875,-3.1870174407958984,0.04576641321182251,0.525830864906311
1772533244595946800,0.87594677734375,-3.3697924613952637,0.4544457197189331,2.2917754650115967
1772533244615784000,0.895783935546875,-3.697359561920166,1.830914855003357,5.8150153160095215
1772533244625753900,0.90575390625,-3.87608003616333,1.3865435123443604,5.650681495666504
1772533244635687700,0.915687744140625,-4.207015514373779,0.17444154620170593,4.870354175567627
1772533244645606000,0.92560595703125,-3.9029431343078613,-1.0451066493988037,3.8607192039489746
1772533244655538000,0.935537841796875,-2.7061147689819336,-1.2405954599380493,2.404216766357422
1772533244665469400,0.945469482421875,-1.5147762298583984,-0.5608268976211548,1.2980812788009644
1772533244675401700,0.955401611328125,-0.985527515411377,0.8990478515625,1.0529614686965942
1772533244685301800,0.9653017578125,-1.059290885925293,3.6701207160949707,-0.3940249979496002
1772533244705198300,0.9851982421875,0.4826192855834961,5.527259826660156,-1.1666163206100464
1772533244715133400,0.995133544921875,1.5949888229370117,4.143424034118652,0.8566370010375977
1772533244725067800,1.00506787109375,3.726559638977051,2.3869218826293945,1.7110943794250488
1772533244735003000,1.0150029296875,7.965126991271973,0.16108179092407227,0.3274625539779663
1772533244744926500,1.024926513671875,13.735108375549316,0.7326850891113281,-4.544559001922607
1772533244754860300,1.0348603515625,17.82145881652832,2.230311870574951,-8.905574798583984
1772533244764796000,1.0447958984375,17.911043167114258,1.0031567811965942,-9.134354591369629
1772533244774730000,1.05472998046875,14.441864013671875,-1.5853097438812256,-6.92620325088501
1772533244784684300,1.064684326171875,10.487424850463867,-1.4652419090270996,-4.485279083251953
1772533244794620400,1.074620361328125,8.062901496887207,0.10933518409729004,-1.4806294441223145
1772533244804512000,1.084511962890625,7.507742881774902,0.27696657180786133,0.7584326267242432
1772533244814443500,1.094443603515625,9.113727569580078,-0.8195518255233765,1.340040922164917
1772533244824395000,1.10439501953125,12.946178436279297,-1.8319979906082153,0.6362791061401367
1772533244834328800,1.114328857421875,16.89003562927246,-2.2199134826660156,0.3655640482902527
1772533244844247600,1.12424755859375,18.851436614990234,-2.114499092102051,0.11129164695739746
1772533244854179600,1.1341796875,17.181354522705078,-1.945587158203125,-0.5532958507537842
1772533244864116700,1.14411669921875,12.980668067932129,-1.0625202655792236,-0.8566697835922241
1772533244874049300,1.15404931640625,8.225767135620117,1.0997865200042725,-0.28049951791763306
1772533244883988500,1.163988525390625,3.031365394592285,3.3427624702453613,1.3264944553375244
1772533244893921800,1.173921875,-2.308100700378418,4.511053562164307,2.6748604774475098
1772533244903842800,1.1838427734375,-6.913327217102051,4.490713596343994,3.151707410812378
1772533244913774800,1.19377490234375,-9.843094825744629,3.4732282161712646,3.332073450088501
1772533244923705300,1.203705322265625,-10.41025161743164,1.6862232685089111,4.424779891967773
1772533244933637400,1.213637451171875,-7.6169233322143555,-0.24895766377449036,5.161900997161865
1772533244943569200,1.223569091796875,-4.379666328430176,-1.319476842880249,3.438166618347168
1772533244953501200,1.233501220703125,-2.804104804992676,-1.7635986804962158,0.5323584079742432
1772533244963446500,1.243446533203125,-2.5253958702087402,-1.9410767555236816,-1.6723921298980713
1772533244973379800,1.2533798828125,-2.940196990966797,-1.5084166526794434,-2.4997808933258057
1772533244983297000,1.263297119140625,-4.9093098640441895,-0.7496026754379272,-2.791584014892578
1772533244993228800,1.273228759765625,-8.192551612854004,0.04600071907043457,-2.616159677505493
1772533245003178800,1.2831787109375,-11.364765167236328,0.7012366652488708,-2.1042823791503906
1772533245013112000,1.293112060546875,-13.788459777832031,1.1368812322616577,-1.756554126739502
1772533245023026200,1.303026123046875,-15.182445526123047,1.189450740814209,-1.4787451028823853
1772533245032957700,1.312957763671875,-15.826408386230469,0.9495406150817871,-1.2195112705230713
1772533245042892000,1.32289208984375,-15.778352737426758,0.2964576482772827,-1.2488703727722168
1772533245052824000,1.332823974609375,-15.06679916381836,-0.5171290636062622,-1.6267813444137573
1772533245062769000,1.342768798828125,-13.627448081970215,-1.3321871757507324,-2.446208953857422
1772533245072702200,1.3527021484375,-11.234989166259766,-1.9464439153671265,-3.643101215362549
1772533245082598700,1.3625986328125,-8.175970077514648,-1.9512869119644165,-4.300772666931152
1772533245092528000,1.372528076171875,-6.077143669128418,-1.5872132778167725,-4.105136871337891
1772533245102491100,1.3824912109375,-5.093034744262695,-1.325952410697937,-3.362215518951416
1772533245112424000,1.392423828125,-5.17652702331543,-1.3054487705230713,-2.6002893447875977
1772533245122349000,1.40234912109375,-5.446802139282227,-1.3576414585113525,-1.825551986694336
1772533245132281000,1.412281005859375,-5.642322540283203,-1.568845272064209,-1.1923749446868896
1772533245142217500,1.422217529296875,-5.592232704162598,-2.093212842941284,-1.2286458015441895
1772533245152149800,1.432149658203125,-4.417043209075928,-3.0567843914031982,-2.669632911682129
1772533245162077000,1.442076904296875,-2.7979650497436523,-4.5937180519104,-4.836465835571289
1772533245172009000,1.452009033203125,-1.1628570556640625,-5.574994087219238,-5.888631343841553
1772533245181944300,1.4619443359375,0.592041015625,-4.932585716247559,-3.6788549423217773
1772533245191876900,1.471876953125,2.562619209289551,-3.313899040222168,0.7578892707824707
1772533245201809400,1.481809326171875,4.239035606384277,-1.7024345397949219,4.074588775634766
1772533245211742000,1.491741943359375,5.512203216552734,-0.9378200769424438,3.941586494445801
1772533245221671400,1.50167138671875,7.258542060852051,-0.05048775672912598,1.1196625232696533
1772533245231603500,1.511603515625,8.95074462890625,2.228472948074341,-1.406535267829895
1772533245241599500,1.521599609375,8.957168579101562,5.174551963806152,-0.5632749795913696
1772533245251538000,1.531537841796875,7.552962303161621,8.397743225097656,3.6104938983917236
1772533245261403100,1.541403076171875,5.005417823791504,10.862984657287598,8.877321243286133
1772533245271334100,1.551334228515625,4.069685935974121,10.694608688354492,12.568657875061035
1772533245281271300,1.561271240234375,8.30521297454834,7.339183330535889,13.19487476348877
1772533245291203000,1.571203125,17.140857696533203,4.565253734588623,10.513052940368652
1772533245301130500,1.581130615234375,21.39633560180664,5.017549514770508,5.546807765960693
1772533245311061800,1.591061767578125,18.23654556274414,5.4970703125,1.251678466796875
1772533245321007000,1.601007080078125,9.566737174987793,3.9391121864318848,0.26633429527282715
1772533245330940000,1.61093994140625,2.0401954650878906,3.2601284980773926,-0.3914860486984253
1772533245340878800,1.62087890625,0.2655487060546875,1.8578070402145386,-2.2637522220611572
1772533245350812400,1.6308125,4.786033630371094,-1.2363733053207397,-3.816779136657715
1772533245360699600,1.64069970703125,12.565640449523926,-4.656620025634766,-5.125691890716553
1772533245370628400,1.65062841796875,19.787757873535156,-8.02877426147461,-7.14661169052124
1772533245380585700,1.660585693359375,23.869678497314453,-9.946035385131836,-8.452016830444336
1772533245390517200,1.670517333984375,24.136425018310547,-9.705827713012695,-7.882429122924805
1772533245400454700,1.68045458984375,20.948665618896484,-7.98367977142334,-5.626452445983887
1772533245410386700,1.69038671875,15.726164817810059,-5.603632926940918,-2.795377492904663
1772533245420318700,1.700318603515625,9.44970989227295,-2.8988189697265625,0.05123341083526611
1772533245430251000,1.7102509765625,3.123419761657715,-0.6212595105171204,2.878962993621826
1772533245440182800,1.720182861328125,-1.7791919708251953,0.6237956881523132,4.062032222747803
1772533245450114800,1.73011474609375,-5.263748645782471,0.551999568939209,3.3592166900634766
1772533245460056800,1.740056884765625,-7.932716369628906,-0.5239809155464172,1.8790897130966187
1772533245469990000,1.749989990234375,-9.220478057861328,-2.1651105880737305,0.579129695892334
1772533245479918600,1.759918701171875,-8.317219734191895,-3.4546968936920166,-0.304401159286499
1772533245489851100,1.76985107421875,-5.58585786819458,-3.782315254211426,-0.3322939872741699
1772533245499778600,1.779778564453125,-3.2949399948120117,-3.4449596405029297,-0.15376102924346924
1772533245509710800,1.7897109375,-2.6944456100463867,-2.9582901000976562,-0.14253532886505127
1772533245519618600,1.79961865234375,-4.002176284790039,-2.144164562225342,-0.1506514549255371
1772533245529548300,1.80954833984375,-6.60770320892334,-1.075937271118164,-0.3163130283355713
1772533245539475200,1.81947509765625,-9.5343017578125,-0.1665898561477661,-0.6249174475669861
1772533245549404400,1.829404296875,-12.069486618041992,0.4081895053386688,-1.007463812828064
1772533245559348500,1.839348388671875,-14.205970764160156,0.20649905502796173,-1.342569351196289
1772533245569279500,1.849279541015625,-15.12408447265625,-0.6812349557876587,-1.6806402206420898
1772533245579216100,1.859216064453125,-15.571186065673828,-1.323128581047058,-2.75826358795166
1772533245589147600,1.869147705078125,-15.084589004516602,-1.6334285736083984,-3.868572235107422
1772533245599074300,1.87907421875,-13.340604782104492,-1.474179744720459,-4.604108810424805
1772533245609005300,1.88900537109375,-11.06550407409668,-0.8702377080917358,-4.888971328735352
1772533245618936800,1.898936767578125,-9.373146057128906,-0.31638675928115845,-4.5403642654418945
1772533245628867800,1.908867919921875,-8.880627632141113,-0.1242833137512207,-3.7473092079162598
1772533245638803500,1.918803466796875,-8.42367172241211,0.11825662851333618,-1.9594452381134033
1772533245648735000,1.92873486328125,-7.547317028045654,1.0114293098449707,0.12310671806335449
1772533245658669800,1.938669921875,-6.5667572021484375,1.7978696823120117,1.611739158630371
1772533245668601600,1.9486015625,-5.174467086791992,1.7657818794250488,2.1479387283325195
1772533245678568700,1.958568603515625,-3.3025074005126953,1.305342435836792,1.8113387823104858
1772533245688504000,1.968504150390625,-1.8915395736694336,0.8796534538269043,0.7940216064453125
1772533245698426400,1.97842626953125,-1.2192320823669434,0.3129510283470154,-0.7096754312515259
1772533245708360400,1.9883603515625,-1.3278717994689941,-0.30971431732177734,-1.5989688634872437
1772533245718290700,1.998290771484375,-1.9617958068847656,-0.7472333908081055,-1.2446874380111694
1772533245728224300,2.008224365234375,-3.1210269927978516,-0.7796639800071716,-0.18651032447814941
1772533245738149000,2.018149169921875,-4.475794315338135,-0.5276436805725098,0.8151695728302002
1772533245748082000,2.02808203125,-5.449350357055664,-0.5095593929290771,1.5890374183654785
1772533245757992700,2.03799267578125,-5.601351737976074,-0.8680236339569092,1.7556946277618408
1772533245767923500,2.04792333984375,-5.0089521408081055,-1.289068579673767,1.228928804397583
1772533245777875500,2.05787548828125,-3.629852771759033,-1.0172209739685059,0.3888322114944458
1772533245787808000,2.06780810546875,-1.2609062194824219,0.18810319900512695,-0.6856943964958191
1772533245797750500,2.07775048828125,1.2947282791137695,1.8025596141815186,-1.862025499343872
1772533245807684400,2.087684326171875,3.351771354675293,3.383845806121826,-2.246509552001953
1772533245817605600,2.097605712890625,4.334534645080566,5.070107460021973,-1.3848955631256104
1772533245827538000,2.107537841796875,4.341464042663574,6.777735233306885,0.7451647520065308
1772533245837492000,2.117491943359375,3.8596315383911133,8.209647178649902,3.965888738632202
1772533245847426600,2.127426513671875,4.186514854431152,8.279346466064453,6.830127716064453
1772533245857333200,2.137333251953125,8.16566276550293,8.195596694946289,6.921863555908203
1772533245867265000,2.14726513671875,15.23096752166748,10.03877067565918,2.3869357109069824
1772533245877202700,2.15720263671875,19.244800567626953,10.202234268188477,-3.4336302280426025
1772533245887135200,2.16713525390625,16.08753204345703,6.238664150238037,-4.460468292236328
1772533245897067800,2.17706787109375,10.465641021728516,5.453869819641113,-2.892324209213257
1772533245907000000,2.187,7.554715156555176,7.951671600341797,-0.8695119023323059
1772533245916936000,2.19693603515625,7.293688774108887,8.860575675964355,0.9706354141235352
1772533245926868700,2.20686865234375,8.892457008361816,7.804950714111328,0.29841625690460205
1772533245936800300,2.21680029296875,11.26798152923584,5.3195343017578125,-1.1174085140228271
1772533245946732800,2.22673291015625,13.26198959350586,2.568854570388794,-1.079791784286499
1772533245956653600,2.236653564453125,15.046867370605469,0.2784595489501953,-0.39698612689971924
1772533245966585000,2.246585205078125,16.415748596191406,-1.3859020471572876,0.23976409435272217
1772533245976516400,2.256516357421875,16.389698028564453,-1.7578531503677368,0.7023346424102783
1772533245986448000,2.26644775390625,14.283792495727539,-1.5065690279006958,1.7195935249328613
1772533245996383000,2.276383056640625,10.256203651428223,-0.8678684234619141,2.88252329826355
1772533246006314800,2.286314697265625,4.866133689880371,0.04070091247558594,3.5454795360565186
1772533246016259000,2.296259033203125,-0.8977174758911133,0.3685035705566406,3.923943281173706
1772533246026192000,2.30619189453125,-6.114591598510742,-0.2362825870513916,3.686872720718384
1772533246036110800,2.31611083984375,-9.34898853302002,-1.4289203882217407,3.1454522609710693
1772533246046042400,2.32604248046875,-10.396116256713867,-2.9219515323638916,1.94569993019104
1772533246055987500,2.335987548828125,-9.940598487854004,-4.489536762237549,-0.11366963386535645
1772533246065920300,2.345920166015625,-8.293411254882812,-5.877439022064209,-2.046621084213257
1772533246075849200,2.35584912109375,-6.21628475189209,-6.429115295410156,-3.4434046745300293
1772533246085781800,2.36578173828125,-5.643293380737305,-5.84703254699707,-4.155166149139404
1772533246095721200,2.37572119140625,-6.568678855895996,-4.34356689453125,-3.4971187114715576
1772533246105654500,2.385654541015625,-8.718929290771484,-2.876223087310791,-1.8358397483825684
1772533246115568000,2.395568115234375,-11.228066444396973,-1.7932236194610596,-0.2181692123413086
1772533246135441000,2.41544091796875,-15.940277099609375,-1.4584804773330688,0.30657386779785156
1772533246145373200,2.425373291015625,-16.827960968017578,-2.1069326400756836,-1.3747233152389526
1772533246155300400,2.43530029296875,-16.257970809936523,-2.3921456336975098,-4.3426923751831055
1772533246165232000,2.445232177734375,-14.46933364868164,-3.9707350730895996,-5.531625270843506
1772533246175162000,2.455162109375,-12.879958152770996,-4.6330060958862305,-6.534706115722656
1772533246185094000,2.465093994140625,-10.456820487976074,-3.239873170852661,-7.3838372230529785
1772533246195035100,2.47503515625,-8.383824348449707,-2.4308319091796875,-6.490222930908203
1772533246204967700,2.4849677734375,-6.953175067901611,-2.573000192642212,-5.035949230194092
1772533246214889500,2.494889404296875,-5.95711612701416,-2.3524019718170166,-3.313652515411377
1772533246224821000,2.504821044921875,-5.379149436950684,-1.4303126335144043,-0.8426930904388428
1772533246234735000,2.514735107421875,-4.6786980628967285,-0.6640601754188538,1.2132186889648438
1772533246244664800,2.524664794921875,-3.2196860313415527,-0.6267697811126709,1.4699440002441406
1772533246254624300,2.534624267578125,-1.103853702545166,-1.175783634185791,-0.059975624084472656
1772533246264557000,2.54455712890625,0.38071537017822266,-1.6986476182937622,-2.2050459384918213
1772533246274489300,2.5544892578125,0.7262678146362305,-1.8805944919586182,-3.359117269515991
1772533246284422000,2.564421875,-0.07993602752685547,-1.623151183128357,-2.813336133956909
1772533246294349000,2.57434912109375,-1.789259910583496,-1.0888028144836426,-1.150545358657837
1772533246304281000,2.584281005859375,-3.2534680366516113,-0.6256281733512878,0.9518589973449707
1772533246314220500,2.594220458984375,-3.9142746925354004,-0.269606351852417,2.4902336597442627
1772533246324153300,2.6041533203125,-3.7332186698913574,-0.11066102981567383,2.8156936168670654
1772533246334080800,2.614080810546875,-2.5064163208007812,-0.17352616786956787,1.638177752494812
1772533246344013000,2.624012939453125,-0.5615882873535156,0.31527578830718994,-0.24045145511627197
1772533246353942300,2.6339423828125,0.6991043090820312,1.3974969387054443,-1.0519578456878662
1772533246363874300,2.643874267578125,0.7868385314941406,2.35427188873291,-0.9498373866081238
1772533246373808400,2.653808349609375,0.5351972579956055,3.0261940956115723,-0.5429553985595703
1772533246383740700,2.66374072265625,0.6979093551635742,3.3654823303222656,0.419360876083374
1772533246393694700,2.67369482421875,1.536752700805664,3.5657310485839844,1.7183723449707031
1772533246403629300,2.68362939453125,3.40664005279541,3.547433853149414,2.9466891288757324
1772533246413540000,2.6935400390625,7.70487117767334,4.1404194831848145,2.7580618858337402
1772533246423472000,2.70347216796875,13.404601097106934,5.919508934020996,1.306229591369629
1772533246433386000,2.713385986328125,14.573211669921875,6.969635486602783,1.6286125183105469
1772533246443316200,2.723316162109375,9.80833625793457,5.292727470397949,0.8487529754638672
1772533246453266400,2.733266357421875,4.956737518310547,4.4676289558410645,0.6316421031951904
1772533246463198700,2.74319873046875,2.8788318634033203,3.602285146713257,1.2258262634277344
1772533246473131000,2.753131103515625,4.133459091186523,3.2210946083068848,2.7424166202545166
1772533246483063000,2.76306298828125,7.996127128601074,3.683230400085449,5.137717247009277
1772533246493004800,2.7730048828125,12.477554321289062,2.571361541748047,5.702651023864746
1772533246502937900,2.782937744140625,16.549190521240234,-1.0191240310668945,3.955329179763794
1772533246512863500,2.792863525390625,20.024185180664062,-3.3120551109313965,1.2716176509857178
1772533246522796000,2.802796142578125,21.741886138916016,-3.064967393875122,0.3539097309112549
1772533246532724500,2.812724365234375,21.491107940673828,-2.3023476600646973,1.4546327590942383
1772533246542656500,2.822656494140625,18.602846145629883,-1.5682799816131592,2.5504729747772217
1772533246552590600,2.832590576171875,13.887869834899902,-0.6550332307815552,3.2997214794158936
1772533246562523000,2.84252294921875,9.364766120910645,0.14833945035934448,4.737818241119385
1772533246572434000,2.852433837890625,5.584017753601074,0.6501513123512268,6.266615867614746
1772533246582364000,2.862364013671875,2.555349349975586,0.7389864921569824,7.051228046417236
1772533246592319200,2.8723193359375,1.0811519622802734,0.3220403790473938,6.279207229614258
1772533246602252000,2.882251953125,0.9525394439697266,-0.5208512544631958,4.285578727722168
1772533246612182500,2.8921826171875,1.173975944519043,-1.1189569234848022,2.5798566341400146
1772533246622115000,2.902114990234375,1.0810718536376953,-1.272202491760254,1.4267868995666504
1772533246632060400,2.912060302734375,0.31508541107177734,-1.3760720491409302,0.48850226402282715
1772533246641994000,2.921993896484375,-1.083420753479004,-1.5214611291885376,-0.1858510971069336
1772533246651910100,2.93191015625,-3.1567630767822266,-1.3546417951583862,-0.7592098712921143
1772533246661842200,2.94184228515625,-5.787417888641357,-0.9775067567825317,-1.4181991815567017
1772533246671778600,2.951778564453125,-8.677709579467773,-0.877653181552887,-2.326294422149658
1772533246681711000,2.961711181640625,-11.719359397888184,-1.4117704629898071,-3.173926830291748
1772533246691652400,2.97165234375,-14.548269271850586,-2.1400887966156006,-3.7976722717285156
1772533246701585700,2.981585693359375,-16.624879837036133,-2.7065517902374268,-4.35003662109375
1772533246711482000,2.991482177734375,-17.29745101928711,-2.329563617706299,-5.9028778076171875
1772533246721411800,3.001411865234375,-17.309932708740234,-3.3875627517700195,-6.253870010375977
1772533246731385000,3.011385009765625,-17.839736938476562,-4.709433555603027,-7.111457824707031
1772533246741319200,3.021319091796875,-17.19852066040039,-4.134226322174072,-8.97681713104248
1772533246751213600,3.031213623046875,-14.982231140136719,-2.7091140747070312,-9.616670608520508
1772533246761143600,3.0411435546875,-12.58401107788086,-1.9476933479309082,-8.480027198791504
1772533246771076600,3.05107666015625,-10.826485633850098,-1.6887584924697876,-6.840734958648682
1772533246781007000,3.061007080078125,-9.57347583770752,-1.3909047842025757,-5.208676338195801
1772533246790945300,3.0709453125,-8.599172592163086,-0.8536636233329773,-3.6516692638397217
1772533246800876300,3.080876220703125,-7.614929676055908,-0.28721046447753906,-2.515305280685425
1772533246810812200,3.090812255859375,-6.556635856628418,-0.3370431661605835,-2.154327869415283
1772533246820743700,3.10074365234375,-5.632427215576172,-0.589684247970581,-2.0394845008850098
1772533246830675700,3.11067578125,-4.9225993156433105,-0.43320417404174805,-0.8464486598968506
1772533246840607200,3.120607177734375,-4.041445255279541,-0.16199874877929688,1.5921854972839355
1772533246850572500,3.130572509765625,-3.374241352081299,-0.1946868896484375,3.9404308795928955
1772533246860507400,3.14050732421875,-3.7053980827331543,-0.9029062986373901,4.4899468421936035
1772533246870403000,3.150403076171875,-5.516129493713379,-2.2923285961151123,2.447701930999756
1772533246880334000,3.160333984375,-7.435692310333252,-3.411829948425293,-0.5755401849746704
1772533246890300000,3.1702998046875,-7.875486850738525,-3.8336594104766846,-3.645944833755493
1772533246900234500,3.180234375,-5.2836761474609375,-3.518893241882324,-5.807422637939453
1772533246910150100,3.190150146484375,-1.8317155838012695,-3.0915615558624268,-3.816027879714966
1772533246920082700,3.200082763671875,0.5219087600708008,-2.0409014225006104,0.8168379068374634
1772533246930014200,3.21001416015625,2.0738468170166016,0.14321589469909668,2.509612560272217
1772533246939946800,3.21994677734375,3.722187042236328,1.3072855472564697,0.4353489875793457
1772533246949879600,3.229879638671875,5.762608528137207,1.9582409858703613,-2.257859706878662
1772533246959812000,3.23981201171875,7.719071388244629,3.6435885429382324,-3.3808481693267822
1772533246969746200,3.24974609375,9.901594161987305,5.4981184005737305,-1.5716490745544434
1772533246979679000,3.259678955078125,12.503868103027344,6.99998664855957,2.1607260704040527
1772533246989607000,3.26960693359375,12.47705364227295,7.88875150680542,6.020563125610352
1772533246999539200,3.279539306640625,9.396571159362793,7.5724968910217285,7.75340461730957
1772533247009474300,3.289474365234375,5.826077461242676,6.984250068664551,6.593802452087402
1772533247019406800,3.29940673828125,3.8623619079589844,6.322101593017578,4.592051029205322
1772533247029347600,3.30934765625,5.41136360168457,4.771755218505859,2.7541098594665527
1772533247039281200,3.31928125,10.82386302947998,2.2526473999023438,0.6029866933822632
1772533247049203000,3.329202880859375,17.495262145996094,-0.21741724014282227,-1.698056936264038
1772533247059135000,3.339135009765625,23.190616607666016,-1.5655572414398193,-2.4762063026428223
1772533247069072400,3.349072265625,26.18927764892578,-1.5643562078475952,-1.5218263864517212
1772533247079005200,3.359005126953125,25.739273071289062,-0.8000179529190063,0.45213061571121216
1772533247088933000,3.36893310546875,21.916234970092773,0.5548748970031738,3.0690746307373047
1772533247098865400,3.378865478515625,16.05736541748047,1.9338088035583496,4.292284965515137
1772533247108807000,3.388806884765625,11.237178802490234,2.4696145057678223,3.4324121475219727
1772533247118740200,3.398740234375,8.952451705932617,1.8860523700714111,0.9132524728775024
1772533247128667400,3.40866748046875,7.556238174438477,0.7476084232330322,-1.344895362854004
1772533247138600000,3.418599853515625,6.169191360473633,0.13074564933776855,-2.5939202308654785
1772533247148532700,3.42853271484375,5.409889221191406,-0.6459503173828125,-3.4231045246124268
1772533247158465500,3.438465576171875,4.753716468811035,-1.7129838466644287,-3.777472972869873
1772533247168391000,3.448390869140625,3.371337890625,-2.4017162322998047,-2.803093910217285
1772533247178323000,3.458322998046875,0.9489631652832031,-2.3136489391326904,-0.7108795642852783
1772533247188254500,3.46825439453125,-2.0826425552368164,-1.9024717807769775,0.8475525975227356
1772533247198186200,3.478186279296875,-5.067908763885498,-2.011286973953247,1.5280617475509644
1772533247208126700,3.488126708984375,-7.549562454223633,-2.38956356048584,1.5036557912826538
1772533247218059500,3.4980595703125,-9.492945671081543,-2.7919986248016357,0.8776504397392273
1772533247227994600,3.50799462890625,-11.15556812286377,-3.0674936771392822,0.00493379682302475
1772533247237927700,3.517927734375,-12.790067672729492,-3.391723155975342,-0.6528593301773071
1772533247247826700,3.52782666015625,-14.48189640045166,-3.686540365219116,-0.8726227283477783
1772533247257756400,3.53775634765625,-15.911441802978516,-3.689771890640259,-0.832072913646698
1772533247267711700,3.547711669921875,-17.044048309326172,-3.735076904296875,-0.7539515495300293
1772533247277644000,3.55764404296875,-17.70956039428711,-3.8887882232666016,-0.3610679507255554
1772533247287580400,3.567580322265625,-17.351823806762695,-3.208836317062378,0.25946033000946045
1772533247297513200,3.57751318359375,-15.80931282043457,-2.6586577892303467,1.7228385210037231
1772533247307441000,3.58744091796875,-14.190812110900879,-2.365427017211914,2.1281211376190186
1772533247317373200,3.597373291015625,-12.033899307250977,-1.2816462516784668,0.400204062461853
1772533247327304000,3.607303955078125,-11.18581485748291,-1.4703470468521118,-0.6140483021736145
1772533247337236000,3.617236083984375,-11.103344917297363,-2.4047322273254395,-0.7001522779464722
1772533247347171300,3.62717138671875,-10.450603485107422,-2.625481128692627,-0.6782552599906921
1772533247357103600,3.637103515625,-9.203783988952637,-2.4338603019714355,-0.7095208764076233
1772533247367049200,3.64704931640625,-7.761419773101807,-2.11922287940979,-0.5524561405181885
1772533247376982800,3.656982666015625,-6.626070976257324,-1.634730339050293,-0.275076299905777
1772533247386908400,3.666908447265625,-5.918500900268555,-1.1934351921081543,-0.3725508749485016
1772533247396841200,3.67684130859375,-5.629457473754883,-1.0070743560791016,-0.820189356803894
1772533247406769200,3.68676904296875,-6.2581071853637695,-0.808262050151825,-1.1453278064727783
1772533247416701400,3.696701416015625,-8.283973693847656,-0.26323843002319336,-1.3066726922988892
1772533247426638000,3.70663818359375,-11.789913177490234,0.48546302318573,-0.38739487528800964
1772533247436571000,3.71657080078125,-14.139388084411621,1.373613953590393,0.9563592076301575
1772533247446490400,3.726490478515625,-16.74899673461914,1.3934237957000732,1.5621123313903809
1772533247456422000,3.736421875,-18.324390411376953,1.083450198173523,2.098707675933838
1772533247466358500,3.746358642578125,-14.56509780883789,2.0425431728363037,4.021722316741943
1772533247476290600,3.75629052734375,-7.21608304977417,1.318322777748108,3.2213401794433594
1772533247486222300,3.766222412109375,1.9932126998901367,-0.7452857494354248,3.5019872188568115
1772533247496154000,3.776154052734375,12.065693855285645,-1.1083506345748901,3.931663990020752
1772533247506087000,3.7860869140625,19.630157470703125,-0.0805923342704773,3.6568472385406494
1772533247516019000,3.79601904296875,23.390254974365234,1.4762520790100098,3.856098175048828
1772533247525950000,3.805949951171875,24.580413818359375,4.372897148132324,1.6724932193756104
1772533247535881700,3.8158818359375,24.32938003540039,5.829422950744629,-0.8961358070373535
1772533247545824800,3.82582470703125,24.19776153564453,4.732300281524658,-0.6154180765151978
1772533247555757800,3.8357578125,23.465599060058594,3.4574906826019287,2.5989551544189453
1772533247565691000,3.84569091796875,21.463834762573242,2.9163320064544678,4.199585437774658
1772533247575624000,3.8556240234375,21.100799560546875,1.3208383321762085,2.2180259227752686
1772533247585544700,3.865544677734375,23.382308959960938,-1.5157378911972046,0.015723049640655518
1772533247595476700,3.875476806640625,25.764806747436523,-3.623321771621704,-1.3122146129608154
1772533247605409000,3.885408935546875,26.694433212280273,-5.159482955932617,-2.3647513389587402
1772533247615341000,3.895341064453125,26.21285057067871,-5.810735702514648,-3.39202618598938
1772533247625284400,3.905284423828125,23.234630584716797,-5.1677350997924805,-4.173152923583984
1772533247635217400,3.915217529296875,17.404438018798828,-3.8556578159332275,-4.185414791107178
1772533247645142300,3.925142333984375,11.46273136138916,-2.4152917861938477,-2.8503763675689697
1772533247655074300,3.93507421875,7.086672782897949,-1.0493316650390625,-0.8488051891326904
1772533247665004800,3.9450048828125,3.374629020690918,-0.23207056522369385,0.13300880789756775
1772533247684879000,3.964879150390625,-1.5490598678588867,-0.07416939735412598,-0.8703786730766296
1772533247694812000,3.97481201171875,-3.3618392944335938,-0.40243756771087646,-0.9164800047874451
1772533247704694300,3.9846943359375,-4.33474588394165,-0.48992156982421875,-0.7246615886688232
1772533247714627300,3.99462744140625,-4.441709041595459,-1.038705587387085,-1.4727630615234375
1772533247724595000,4.004594970703125,-4.551655292510986,-1.9543579816818237,-2.456329584121704
1772533247734531000,4.014531005859375,-5.584658145904541,-2.565558910369873,-2.3767194747924805
1772533247744460000,4.0244599609375,-7.82036018371582,-2.3960824012756348,-1.445519208908081
1772533247754395100,4.03439501953125,-10.72036075592041,-1.7040743827819824,-0.042186081409454346
1772533247764326000,4.044325927734375,-13.518193244934082,-1.2200348377227783,1.4167602062225342
1772533247774260700,4.0542607421875,-15.866525650024414,-0.8784129619598389,2.340132713317871
1772533247784200000,4.064199951171875,-18.123538970947266,-0.7120728492736816,2.513458728790283
1772533247794135300,4.07413525390625,-19.880094528198242,-0.9953203201293945,1.9754395484924316
1772533247804053800,4.0840537109375,-20.185741424560547,-1.4073779582977295,1.2176765203475952
1772533247813987300,4.0939873046875,-18.383438110351562,-1.4953863620758057,0.8745771050453186
1772533247823919900,4.103919921875,-15.644634246826172,-1.3092472553253174,0.613460123538971
1772533247833853400,4.113853515625,-13.662664413452148,-1.1474541425704956,0.46097877621650696
1772533247843783200,4.123783203125,-12.327280044555664,-0.8062524199485779,0.38264018297195435
1772533247853716200,4.13371630859375,-11.108262062072754,-0.5089917778968811,0.7852234840393066
1772533247863652400,4.14365234375,-9.613490104675293,-0.25835752487182617,1.7338666915893555
1772533247873586000,4.1535859375,-7.660186767578125,0.08016344904899597,1.9849439859390259
1772533247883516700,4.1635166015625,-5.496067523956299,-0.02266937494277954,0.8177567720413208
1772533247893450000,4.173449951171875,-3.846806049346924,-0.3600810766220093,-0.6289852857589722
1772533247903388700,4.183388671875,-3.1217403411865234,-0.329379141330719,-1.3266288042068481
1772533247913322500,4.193322509765625,-2.850759506225586,0.29132604598999023,-1.517299771308899
1772533247923216400,4.20321630859375,-2.9945592880249023,1.15692937374115,-1.52047598361969
1772533247933146400,4.213146484375,-4.181746006011963,1.7403991222381592,-0.4761474132537842
1772533247943115000,4.223114990234375,-6.522684097290039,2.4456565380096436,1.8646955490112305
1772533247953048600,4.233048583984375,-9.358322143554688,3.31351375579834,3.5889930725097656
1772533247962950000,4.242949951171875,-11.84144401550293,3.3768436908721924,3.303391456604004
1772533247972880400,4.25288037109375,-13.435174942016602,2.189931869506836,1.2666878700256348
1772533247982810400,4.262810302734375,-13.596968650817871,0.6375671625137329,-1.202833890914917
1772533247992740900,4.272740966796875,-12.687748908996582,-0.5097116231918335,-2.256835460662842
1772533248002681600,4.282681640625,-10.454732894897461,-0.9390478730201721,-1.398252010345459
1772533248012612900,4.29261279296875,-6.963895797729492,-0.3574957847595215,-0.045200228691101074
1772533248022540800,4.302540771484375,-2.8668127059936523,0.8345726728439331,0.7965841293334961
1772533248032471800,4.312471923828125,2.484198570251465,1.8822616338729858,0.5291908383369446
1772533248042410800,4.32241064453125,8.85319995880127,2.585641384124756,-1.015694260597229
1772533248052342800,4.3323427734375,14.155633926391602,2.4220712184906006,-2.1292526721954346
1772533248062270000,4.34227001953125,17.37576675415039,2.3949952125549316,-0.9286515116691589
1772533248072201200,4.352201171875,21.214706420898438,3.7430930137634277,2.0359504222869873
1772533248082135300,4.36213525390625,29.440200805664062,4.031307220458984,2.889451265335083
1772533248092067000,4.372067138671875,33.24527359008789,1.621961236000061,0.8558257818222046
1772533248102026000,4.38202587890625,25.05028533935547,0.7662863731384277,2.002682685852051
1772533248111960600,4.391960693359375,18.813045501708984,2.4219775199890137,3.084742784500122
1772533248121862000,4.40186181640625,19.32984161376953,3.2067935466766357,2.926854133605957
1772533248131793200,4.411793212890625,20.19409942626953,2.6005563735961914,2.7678215503692627
1772533248141751800,4.421751708984375,19.99637222290039,1.5835250616073608,0.3616980016231537
1772533248151685600,4.431685546875,18.734066009521484,0.14186131954193115,-2.8216211795806885
1772533248161625900,4.4416259765625,16.631816864013672,-0.08231794834136963,-3.863499879837036
1772533248171560400,4.451560546875,14.38386058807373,0.6069589853286743,-3.1471869945526123
1772533248181482200,4.461482177734375,12.056184768676758,0.5716014504432678,-2.661092519760132
1772533248191415600,4.47141552734375,9.758216857910156,0.6101646423339844,-1.8592242002487183
1772533248201353700,4.481353759765625,7.638035774230957,0.8832265138626099,-0.07992962002754211
1772533248211287300,4.491287353515625,5.543225288391113,0.7163569331169128,1.3032430410385132
1772533248221205200,4.501205322265625,3.9137229919433594,0.0952444076538086,1.2318989038467407
1772533248231137500,4.511137451171875,3.340975761413574,-0.680058479309082,0.16202719509601593
1772533248241083400,4.52108349609375,2.175675392150879,-1.142329216003418,-0.4707740545272827
1772533248251017000,4.531016845703125,-0.9027614593505859,-1.039686918258667,-0.21030020713806152
1772533248260941300,4.54094140625,-5.111135005950928,-1.3347351551055908,0.5962551832199097
1772533248270874000,4.5508740234375,-9.019636154174805,-1.7439379692077637,0.9104382395744324
1772533248280806400,4.560806396484375,-11.961474418640137,-1.7013368606567383,0.46461617946624756
1772533248290739200,4.5707392578125,-14.326138496398926,-1.7831275463104248,-0.11486440896987915
1772533248300673300,4.58067333984375,-16.325176239013672,-2.0778279304504395,-0.20937210321426392
1772533248310606000,4.590606201171875,-17.91702651977539,-2.235004186630249,0.13788536190986633
1772533248320534500,4.600534423828125,-19.27553939819336,-2.2952587604522705,0.4224506914615631
1772533248330466800,4.610466796875,-20.283435821533203,-2.5814590454101562,0.4731602072715759
1772533248340401000,4.62040087890625,-20.886693954467773,-2.9675827026367188,0.5574367642402649
1772533248350333400,4.63033349609375,-20.8313045501709,-3.2298123836517334,0.9419472813606262
1772533248360238600,4.640238525390625,-19.724437713623047,-3.334555149078369,0.8314708471298218
1772533248370168300,4.650168212890625,-16.90887451171875,-3.0112500190734863,-0.23187172412872314
1772533248380121300,4.660121337890625,-13.774045944213867,-2.917830467224121,-0.7788246273994446
1772533248390053400,4.670053466796875,-11.509218215942383,-3.1103053092956543,-0.16903407871723175
1772533248400006000,4.680005859375,-10.377535820007324,-2.6890368461608887,0.7072917222976685
1772533248409940200,4.689940185546875,-10.085991859436035,-2.091472625732422,2.1536481380462646
1772533248419855000,4.699855224609375,-9.7357759475708,-1.4102299213409424,3.8753232955932617
1772533248429787400,4.709787353515625,-9.149502754211426,-0.44043585658073425,5.455486297607422
1772533248439720700,4.719720703125,-8.545422554016113,-0.007213294506072998,6.540565490722656
1772533248449653000,4.729653076171875,-7.046477317810059,-0.5940814018249512,6.206713676452637
1772533248459595500,4.739595458984375,-5.369276523590088,-1.7658240795135498,4.707522869110107
1772533248469528800,4.74952880859375,-4.332089900970459,-3.1929421424865723,3.6228079795837402
1772533248479425300,4.75942529296875,-3.8155293464660645,-3.770730972290039,3.7866427898406982
1772533248489354800,4.769354736328125,-4.3279547691345215,-3.0703368186950684,4.328649520874023
1772533248499312400,4.7793125,-5.809234619140625,-1.8828613758087158,5.1748456954956055
1772533248509244700,4.78924462890625,-6.602294921875,-0.783261775970459,5.63853120803833
1772533248519177700,4.799177734375,-6.719415664672852,-0.39169883728027344,4.728704929351807
1772533248529110300,4.8091103515625,-6.61136531829834,-0.14737308025360107,2.7733712196350098
1772533248539079000,4.819078857421875,-6.18699836730957,-0.03367578238248825,-0.06305313110351562
1772533248549015000,4.82901513671875,-5.1625285148620605,-0.4073581099510193,-2.417184352874756
1772533248558880800,4.838880859375,-3.424102783203125,-0.540682315826416,-3.62241792678833
1772533248568810000,4.84881005859375,-1.208998680114746,0.014506995677947998,-4.45465087890625
1772533248578770000,4.85877001953125,0.8511800765991211,1.2917962074279785,-4.975884914398193
1772533248588702200,4.8687021484375,2.3973541259765625,3.3353524208068848,-4.719899654388428
1772533248598637800,4.878637939453125,3.01406192779541,6.401893138885498,-3.0969038009643555
1772533248608570000,4.888570068359375,3.780050277709961,9.715557098388672,-1.0255106687545776
1772533248618498600,4.89849853515625,6.55240535736084,11.067468643188477,0.27917909622192383
1772533248628430600,4.9084306640625,13.024115562438965,9.643083572387695,-0.21714138984680176
1772533248638365400,4.918365478515625,20.022029876708984,6.220367908477783,-0.938453197479248
1772533248648297700,4.928297607421875,25.366073608398438,0.018895626068115234,-1.9631497859954834
1772533248658232000,4.938232177734375,31.432968139648438,-4.7257585525512695,-4.474586486816406
1772533248668164600,4.94816455078125,37.63456726074219,-5.334334373474121,-3.5881104469299316
1772533248678092500,4.958092529296875,39.93665313720703,-4.164844989776611,0.3171907663345337
1772533248688024800,4.96802490234375,35.64817810058594,-3.849113941192627,1.5586934089660645
1772533248697963300,4.97796337890625,28.43413543701172,-3.8701016902923584,-0.3196815848350525
1772533248707896000,4.98789599609375,22.061134338378906,-3.3762080669403076,-2.158412456512451
1772533248717824800,4.99782470703125,16.43393325805664,-2.534417152404785,-2.286536693572998
1772533248727757300,5.00775732421875,11.935617446899414,-1.2201083898544312,-0.6760566234588623
1772533248737699800,5.017699951171875,8.536277770996094,0.3105337619781494,1.6276859045028687
1772533248747633200,5.027633056640625,6.229958534240723,1.3030678033828735,2.57029390335083
1772533248757526500,5.037526611328125,4.5297136306762695,1.26775062084198,2.116241693496704
1772533248767455700,5.047455810546875,3.381898880004883,0.8172149062156677,1.626012921333313
1772533248777415200,5.057415283203125,3.2696733474731445,-0.21438220143318176,0.3865894675254822
1772533248787347700,5.06734765625,2.7158374786376953,-1.427545428276062,-1.044994831085205
1772533248797282300,5.0772822265625,0.9196243286132812,-2.194838523864746,-1.2502573728561401
1772533248807214800,5.08721484375,-1.6840944290161133,-2.2194883823394775,-0.6376138925552368
1772533248817147600,5.097147705078125,-4.723486423492432,-2.124417543411255,-0.30715757608413696
1772533248827080200,5.107080078125,-8.231688499450684,-2.4935436248779297,-0.6585760116577148
1772533248837021200,5.117021240234375,-11.477412223815918,-3.1517200469970703,-1.512305736541748
1772533248846954800,5.126954833984375,-13.939309120178223,-3.5935983657836914,-2.4450931549072266
1772533248856878600,5.136878662109375,-15.089376449584961,-3.716858148574829,-2.8776893615722656
1772533248866811100,5.14681103515625,-15.173830032348633,-3.593475341796875,-3.2771859169006348
1772533248876742700,5.15674267578125,-15.226417541503906,-3.310554027557373,-3.6176705360412598
1772533248886675000,5.166675048828125,-16.08984375,-3.0755653381347656,-3.346449851989746
1772533248896607200,5.176607177734375,-17.38388442993164,-2.7090518474578857,-2.1990714073181152
1772533248906539500,5.18653955078125,-18.198869705200195,-1.7804594039916992,-0.6474528312683105
1772533248916482300,5.196482421875,-17.989543914794922,-0.5762811899185181,0.17594242095947266
1772533248926416000,5.206415771484375,-17.00162124633789,0.12152564525604248,-0.02685248851776123
1772533248936331800,5.216331787109375,-15.603593826293945,0.010559141635894775,-0.6098822355270386
1772533248946263600,5.226263671875,-13.530291557312012,-0.4420918822288513,-0.8435816168785095
1772533248956210000,5.2362099609375,-10.77346134185791,-0.6742318868637085,-0.4136708378791809
1772533248966143000,5.24614306640625,-7.850046634674072,-0.6611878871917725,0.3733900785446167
1772533248976061400,5.2560615234375,-5.37644624710083,-0.8195927739143372,0.7543309926986694
1772533248985993000,5.265992919921875,-3.608428955078125,-1.0218098163604736,1.1723209619522095
1772533248995933200,5.27593310546875,-2.6283483505249023,-0.7778593897819519,2.040471315383911
1772533249005865700,5.28586572265625,-2.5907154083251953,-0.19263416528701782,2.3381876945495605
1772533249015789600,5.29578955078125,-3.1007909774780273,0.5147947669029236,1.6667125225067139
1772533249025721000,5.30572119140625,-3.951591968536377,1.4695332050323486,0.7878047823905945
1772533249035652600,5.315652587890625,-5.07584810256958,2.2029097080230713,0.19156867265701294
1772533249045584100,5.325584228515625,-6.215309143066406,2.2443158626556396,-0.11342394351959229
1772533249055517000,5.335516845703125,-6.997627258300781,1.818311095237732,-0.7080391049385071
1772533249065448700,5.34544873046875,-6.635706901550293,1.52219557762146,-1.55185866355896
1772533249075379200,5.355379150390625,-5.017940044403076,1.3364317417144775,-1.8867743015289307
1772533249085310700,5.365310791015625,-2.8357439041137695,0.8065396547317505,-1.8522603511810303
1772533249095250200,5.375250244140625,-0.8304777145385742,-0.22125592827796936,-0.8153654336929321
1772533249105182700,5.3851826171875,1.3013648986816406,-0.8573960661888123,-0.03222935274243355
1772533249115089400,5.39508935546875,3.145214080810547,-0.6312293410301208,-0.04453381896018982
1772533249125019100,5.40501904296875,4.285219192504883,-0.00905105471611023,0.9528075456619263
1772533249134956300,5.414956298828125,5.045139312744141,1.2451636791229248,2.481806755065918
1772533249144886800,5.42488671875,5.30009651184082,2.7831547260284424,2.206024408340454
1772533249154832000,5.434831787109375,4.460638999938965,3.8669724464416504,0.7095831632614136
1772533249164764000,5.444763916015625,3.5617971420288086,4.780542850494385,-1.42185640335083
1772533249174684000,5.454683837890625,4.947798728942871,5.912111282348633,-1.6001380681991577
1772533249184615000,5.464614990234375,10.866218566894531,6.9691290855407715,-0.6653680801391602
1772533249194551800,5.4745517578125,16.232624053955078,7.516138553619385,1.461815357208252
1772533249204483300,5.4844833984375,17.2761173248291,4.048363208770752,5.48119592666626
1772533249214434000,5.49443408203125,20.229738235473633,0.5094350576400757,7.895514965057373
1772533249224367600,5.50436767578125,25.65930938720703,-0.00319671630859375,9.989107131958008
1772533249234313700,5.514313720703125,28.66986846923828,-0.7872146368026733,8.812602996826172
1772533249244248600,5.52424853515625,26.637226104736328,-2.796463966369629,3.576026678085327
1772533249254144500,5.53414453125,22.22652816772461,-3.2990732192993164,-1.9096429347991943
1772533249264075500,5.544075439453125,18.12100601196289,-2.651670455932617,-5.266275405883789
1772533249274006000,5.554006103515625,14.64565372467041,-1.9514563083648682,-5.812690734863281
1772533249283936800,5.563936767578125,11.244926452636719,-0.831506609916687,-4.90626335144043
1772533249293873700,5.573873779296875,7.314409255981445,0.6797495484352112,-4.267462253570557
1772533249303805200,5.58380517578125,3.6193809509277344,1.4955265522003174,-2.7094693183898926
1772533249313757700,5.5937578125,2.4064760208129883,1.4626959562301636,0.08531010150909424
1772533249323691300,5.603691162109375,2.7203369140625,1.3358839750289917,2.275841474533081
1772533249333623300,5.613623291015625,1.9253044128417969,0.8820100426673889,2.5835986137390137
1772533249343556600,5.623556640625,0.5217409133911133,-0.22782501578330994,1.4432480335235596
1772533249353462000,5.6334619140625,-0.5325260162353516,-0.7841449975967407,0.2457866072654724
1772533249363392500,5.643392578125,-2.5486698150634766,-0.3440954089164734,0.6186747550964355
1772533249373332000,5.65333203125,-5.694397449493408,0.05616624653339386,1.453769564628601
1772533249383263500,5.663263427734375,-8.702239990234375,0.3310260772705078,1.1405266523361206
1772533249393216300,5.67321630859375,-11.631257057189941,0.5023924708366394,0.6147370338439941
1772533249403149800,5.68314990234375,-14.338811874389648,0.6296300292015076,0.5775455236434937
1772533249413080600,5.69308056640625,-16.730266571044922,0.41760778427124023,0.22214660048484802
1772533249423014000,5.703013916015625,-18.31063461303711,-0.42621245980262756,-0.6077895164489746
1772533249432916500,5.71291650390625,-18.74492835998535,-1.2925723791122437,-1.040050983428955
1772533249442846500,5.722846435546875,-18.778942108154297,-1.825359582901001,-1.104602336883545
1772533249452807400,5.732807373046875,-18.429641723632812,-2.0011608600616455,-1.0895845890045166
1772533249462740700,5.74274072265625,-16.69993782043457,-1.7593035697937012,-0.4736817479133606
1772533249472677000,5.752677001953125,-13.994255065917969,-1.7006163597106934,0.1887989640235901
1772533249482610700,5.762610595703125,-11.269789695739746,-1.9998844861984253,0.2560405433177948
1772533249492552200,5.77255224609375,-9.145883560180664,-2.269202709197998,-0.27375248074531555
1772533249502486500,5.782486572265625,-8.1248140335083,-2.547122001647949,-0.8458945751190186
1772533249512416500,5.79241650390625,-8.288177490234375,-2.757917642593384,-0.9591203331947327
1772533249522350600,5.8023505859375,-8.630002975463867,-2.372349977493286,-0.8511462211608887
1772533249532264000,5.812263916015625,-8.692034721374512,-2.06488037109375,-0.05016395449638367
1772533249542195700,5.82219580078125,-8.657310485839844,-2.298924446105957,0.4991120994091034
1772533249552130300,5.83213037109375,-8.54195499420166,-2.410959243774414,0.8429737687110901
1772533249562062300,5.842062255859375,-8.300117492675781,-2.1144347190856934,0.7644408345222473
1772533249572049700,5.852049560546875,-8.223888397216797,-1.6717455387115479,0.5159457325935364
1772533249581987300,5.8619873046875,-8.321426391601562,-1.1212974786758423,1.069779396057129
1772533249591858200,5.871858154296875,-8.161165237426758,-0.3920227885246277,2.3475289344787598
1772533249601789200,5.8817890625,-7.676064968109131,0.05276995897293091,2.1730449199676514
1772533249611729700,5.891729736328125,-7.611373424530029,-0.2830536961555481,0.4722496569156647
1772533249621661400,5.901661376953125,-7.044402122497559,-0.6301201581954956,-0.6392121315002441
1772533249631589600,5.911589599609375,-5.380115509033203,-0.8730273842811584,-1.771024227142334
1772533249641521200,5.921521240234375,-3.92960786819458,-0.8113445043563843,-2.19779896736145
1772533249651456000,5.9314560546875,-2.701467514038086,0.1376590132713318,-2.2132344245910645
1772533249661387800,5.9413876953125,-1.7521934509277344,1.521227240562439,-1.9379942417144775
1772533249671314200,5.951314208984375,-1.1806631088256836,3.412814140319824,-0.17016533017158508
1772533249681245700,5.96124560546875,0.09516620635986328,5.466579914093018,0.9816040396690369
1772533249691182600,5.9711826171875,1.813187599182129,6.995240688323975,0.4612571597099304
1772533249701114600,5.981114501953125,4.003426551818848,8.14405632019043,-0.44629421830177307
1772533249711046000,5.9910458984375,7.591144561767578,8.836036682128906,-0.29752904176712036
1772533249720977700,6.000977783203125,15.710675239562988,8.24599838256836,0.4779372811317444
1772533249730922200,6.010922119140625,26.97208023071289,6.12891960144043,-0.12081050872802734
1772533249740855300,6.020855224609375,31.78801155090332,1.5949656963348389,-0.690308690071106
1772533249750774500,6.0307744140625,31.640689849853516,-3.050240993499756,-0.7359996438026428
1772533249760706300,6.040706298828125,33.258609771728516,-4.1864094734191895,-1.8536185026168823
1772533249770642000,6.050641845703125,34.06915283203125,-4.820399761199951,-2.180891513824463
1772533249780574000,6.060573974609375,30.697017669677734,-5.416346549987793,-1.608672857284546
1772533249790506200,6.07050634765625,25.40378761291504,-5.211122512817383,-2.669138193130493
1772533249800438300,6.080438232421875,20.171337127685547,-4.6327619552612305,-4.018341541290283
1772533249810346500,6.090346435546875,16.14409637451172,-3.0235040187835693,-3.4873135089874268
1772533249820276200,6.100276123046875,12.653838157653809,-0.9766256809234619,-1.44729483127594
1772533249830211000,6.110211181640625,9.798338890075684,0.545993447303772,0.6367772221565247
1772533249840141300,6.120141357421875,7.6032915115356445,1.662988543510437,1.9366490840911865
1772533249850100000,6.130099853515625,5.520561218261719,2.2233338356018066,2.35588002204895
1772533249860033000,6.140032958984375,3.7046947479248047,1.8541624546051025,2.5456838607788086
1772533249869961000,6.1499609375,2.563845634460449,0.95390784740448,2.297484874725342
1772533249879893500,6.1598935546875,2.1071395874023438,-0.4864266514778137,1.0464529991149902
1772533249889827600,6.16982763671875,0.9484043121337891,-1.738828420639038,0.2885372042655945
1772533249899760000,6.179760009765625,-0.6084489822387695,-1.825394868850708,0.576223611831665
1772533249909711600,6.189711669921875,-2.5116848945617676,-1.9011579751968384,0.9242345094680786
1772533249919646200,6.199646240234375,-5.069305896759033,-2.0448999404907227,0.8187960386276245
1772533249929556500,6.209556396484375,-7.982302665710449,-2.3130135536193848,0.40704289078712463
1772533249939488500,6.219488525390625,-10.601908683776855,-2.7286531925201416,-0.13620981574058533
1772533249949419300,6.229419189453125,-12.872964859008789,-3.011202096939087,-0.22158083319664001
1772533249959351300,6.239351318359375,-15.18426513671875,-2.9555304050445557,0.01418215036392212
1772533249969284400,6.249284423828125,-17.350446701049805,-2.724602222442627,0.056886911392211914
1772533249979216400,6.25921630859375,-19.021480560302734,-2.761251926422119,-0.09779170155525208
1772533249989153300,6.2691533203125,-19.909860610961914,-3.303778648376465,-0.25701990723609924
1772533249999085800,6.2790859375,-19.284622192382812,-3.9904417991638184,-0.5682609677314758
1772533250009014800,6.289014892578125,-16.817642211914062,-4.2887349128723145,-1.7045238018035889
1772533250018947000,6.298947021484375,-13.74073600769043,-4.372815132141113,-2.698237419128418
1772533250028890400,6.308890380859375,-10.583834648132324,-4.051599502563477,-3.218153953552246
1772533250038823700,6.31882373046875,-8.399779319763184,-3.709588050842285,-3.1663341522216797
1772533250048722000,6.328721923828125,-7.945077419281006,-3.4441111087799072,-2.654561996459961
1772533250058652000,6.33865185546875,-8.971656799316406,-3.0905380249023438,-2.247124671936035
1772533250068605000,6.34860498046875,-10.978515625,-3.053992748260498,-1.2308247089385986
1772533250078537000,6.358536865234375,-12.152912139892578,-2.6059210300445557,0.42383837699890137
1772533250088474600,6.368474609375,-11.759321212768555,-2.062305450439453,1.552201271057129
1772533250098407200,6.3784072265625,-10.18196964263916,-2.209054946899414,1.5378825664520264
1772533250108343000,6.388343017578125,-8.496386528015137,-2.7957022190093994,1.3313064575195312
1772533250118276000,6.398276123046875,-7.7167277336120605,-3.3813836574554443,1.212003469467163
1772533250128199700,6.40819970703125,-7.304906368255615,-3.6747405529022217,0.8480124473571777
1772533250138131700,6.418131591796875,-6.887138843536377,-3.622720718383789,0.30931639671325684
1772533250148062000,6.42806201171875,-6.567150115966797,-3.3757598400115967,0.28576743602752686
1772533250157993700,6.43799365234375,-6.691389083862305,-2.8226938247680664,0.8599438667297363
1772533250167932000,6.447931884765625,-7.396064281463623,-2.2867515087127686,1.5920755863189697
1772533250177864400,6.457864501953125,-8.00256061553955,-1.851487636566162,1.9638744592666626
1772533250187798500,6.467798583984375,-8.14028263092041,-1.7526189088821411,1.0835988521575928
1772533250197731000,6.47773095703125,-7.439404010772705,-1.7172843217849731,-0.5092502236366272
1772533250207636500,6.487636474609375,-6.0871171951293945,-1.2745797634124756,-1.8778023719787598
1772533250217566200,6.497566162109375,-5.087800025939941,0.15271925926208496,-2.002772808074951
1772533250227536100,6.5075361328125,-4.478196620941162,2.4381816387176514,-1.5649343729019165
1772533250237470200,6.51747021484375,-3.3423047065734863,4.579773902893066,-0.8076211810112
1772533250247391500,6.5273916015625,-1.2692298889160156,6.656171798706055,0.2709083557128906
1772533250257324300,6.53732421875,2.119471549987793,8.173510551452637,1.7462537288665771
1772533250267256800,6.5472568359375,8.5513916015625,9.292510032653809,4.608597278594971
1772533250277189600,6.557189697265625,18.285213470458984,10.443767547607422,8.222124099731445
1772533250287126300,6.567126220703125,27.582233428955078,12.16946029663086,9.67726993560791
1772533250297059300,6.577059326171875,30.86383819580078,9.351325988769531,8.524928092956543
1772533250306986800,6.58698681640625,31.684738159179688,5.149381637573242,4.791054725646973
1772533250316919000,6.5969189453125,32.885833740234375,4.323343753814697,0.9806081056594849
1772533250326826200,6.606826171875,32.00899124145508,3.3428544998168945,-1.500942349433899
1772533250336756200,6.616756103515625,29.845149993896484,0.8942971229553223,-4.005151748657227
1772533250346689000,6.62668896484375,28.526575088500977,-1.8221148252487183,-7.103781223297119
1772533250356619300,6.636619384765625,27.580890655517578,-2.8481762409210205,-8.464170455932617
1772533250366639600,6.6466396484375,24.805065155029297,-1.848068118095398,-6.552483081817627
1772533250376579000,6.6565791015625,19.962169647216797,0.09615850448608398,-3.9064817428588867
1772533250386418400,6.66641845703125,14.718955993652344,1.4489963054656982,-2.0220017433166504
1772533250396348000,6.676347900390625,10.422576904296875,2.1684396266937256,-0.26598063111305237
1772533250406317300,6.6863173828125,7.0050153732299805,2.338134765625,1.1484217643737793
1772533250416250600,6.696250732421875,3.459893226623535,1.993743896484375,2.6506521701812744
1772533250426151200,6.706151123046875,-0.6054344177246094,1.4253339767456055,3.5666823387145996
1772533250436081200,6.7160810546875,-4.579883098602295,0.20635390281677246,3.185290813446045
1772533250446012000,6.726011962890625,-7.0403242111206055,-1.7091481685638428,1.3228533267974854
1772533250455942100,6.735942138671875,-7.815932273864746,-3.5627503395080566,-0.7324328422546387
1772533250465877500,6.74587744140625,-8.496070861816406,-4.871938705444336,-1.5715019702911377
1772533250475808000,6.75580810546875,-9.8408842086792,-5.560943126678467,-1.522552490234375
1772533250485747700,6.765747802734375,-11.09753704071045,-5.638829231262207,-1.338880181312561
1772533250495679200,6.77567919921875,-12.585689544677734,-5.279295921325684,-0.6965177655220032
1772533250505628200,6.785628173828125,-14.905338287353516,-4.56847620010376,0.297959566116333
1772533250515561500,6.7955615234375,-17.9410457611084,-3.7428178787231445,0.9146585464477539
1772533250525493000,6.805492919921875,-20.42586898803711,-3.3075499534606934,0.9912891387939453
1772533250535426000,6.815426025390625,-21.552122116088867,-3.6044983863830566,0.7476677894592285
1772533250545356000,6.82535595703125,-21.205827713012695,-4.079485893249512,0.3992452025413513
1772533250555288800,6.835288818359375,-20.081619262695312,-4.331602096557617,0.05436955392360687
1772533250565216000,6.845216064453125,-18.29267120361328,-4.244557857513428,-0.5859763026237488
1772533250575148300,6.855148193359375,-16.11198616027832,-3.794565200805664,-1.1823667287826538
1772533250585086700,6.865086669921875,-13.752084732055664,-3.6798958778381348,-1.3035507202148438
1772533250595019500,6.87501953125,-11.389520645141602,-3.96189284324646,-0.8735570907592773
1772533250604928300,6.88492822265625,-9.25344467163086,-4.023075103759766,-0.4348810911178589
1772533250614858800,6.894858642578125,-7.388683795928955,-3.992072105407715,-0.04045289754867554
1772533250624796000,6.9047958984375,-5.768976211547852,-4.006532192230225,0.6088599562644958
1772533250634727200,6.91472705078125,-4.616357326507568,-3.824141025543213,1.789874792098999
1772533250644682200,6.92468212890625,-4.1343512535095215,-3.4551093578338623,2.7736220359802246
1772533250654615800,6.93461572265625,-4.117527484893799,-3.295227289199829,2.462381362915039
1772533250664549400,6.94454931640625,-4.371821880340576,-3.467022657394409,0.9372284412384033
1772533250674483000,6.95448291015625,-4.6055827140808105,-3.5728816986083984,-0.3899192810058594
1772533250684411600,6.96441162109375,-5.170655727386475,-2.998152494430542,-0.6696092486381531
1772533250694344700,6.9743447265625,-6.207852363586426,-1.9663383960723877,0.29689908027648926
1772533250704272100,6.984272216796875,-6.992749214172363,-0.8606213927268982,2.0038387775421143
1772533250714204700,6.99420458984375,-6.913153648376465,0.18165886402130127,2.8594326972961426
1772533250724141600,7.0041416015625,-6.258576393127441,0.6509237289428711,2.719494342803955
1772533250734074400,7.014074462890625,-5.73292350769043,0.5558054447174072,2.415297269821167
1772533250744003300,7.02400341796875,-5.0703959465026855,0.5748966932296753,2.0111348628997803
1772533250753936000,7.033935791015625,-3.8111767768859863,1.0252361297607422,0.967302680015564
1772533250763865600,7.043865478515625,-2.7030086517333984,1.561568260192871,0.16138708591461182
1772533250773798000,7.0537978515625,-2.3540163040161133,2.1900691986083984,0.0898209810256958
1772533250783707600,7.063707763671875,-1.9654865264892578,3.6466569900512695,0.2519954442977905
1772533250793637600,7.0736376953125,-0.6739969253540039,5.952958583831787,0.3915853500366211
1772533250803591000,7.0835908203125,1.4199695587158203,8.723628997802734,0.7364799976348877
1772533250813523200,7.093523193359375,3.5860595703125,11.178189277648926,2.5048751831054688
1772533250823464400,7.10346435546875,8.227883338928223,12.497970581054688,5.228829860687256
1772533250833397800,7.113397705078125,17.48649787902832,11.72941780090332,6.183527946472168
1772533250843326700,7.12332666015625,24.700788497924805,6.505149841308594,6.38072395324707
1772533250853259500,7.133259521484375,27.53016471862793,0.8100917339324951,6.154450416564941
1772533250863197000,7.143197021484375,29.963375091552734,-1.0463898181915283,5.315275192260742
1772533250873130200,7.153130126953125,33.41183090209961,-2.622314929962158,3.8851876258850098
1772533250883058400,7.163058349609375,35.0919075012207,-5.344509124755859,2.1454262733459473
1772533250892991200,7.1729912109375,32.203895568847656,-6.9137725830078125,-0.6775909662246704
1772533250902921200,7.182921142578125,26.79591178894043,-6.466324806213379,-3.4163432121276855
1772533250912853500,7.192853515625,21.796045303344727,-4.670905113220215,-4.561173915863037
1772533250922775300,7.202775390625,16.57532501220703,-2.1958303451538086,-3.6706037521362305
1772533250932706800,7.212706787109375,10.67626667022705,0.09879046678543091,-2.0901260375976562
1772533250942649300,7.2226494140625,5.675832748413086,1.700047492980957,-1.23758864402771
1772533250952581600,7.23258154296875,1.9750556945800781,2.2418808937072754,-1.085554599761963
1772533250962489300,7.2424892578125,-0.6241617202758789,1.8181819915771484,-1.050721287727356
1772533250972419300,7.25241943359375,-1.8935317993164062,0.9624795913696289,-0.9252234101295471
1772533250982384600,7.262384521484375,-1.9565916061401367,-0.24207574129104614,-1.1188561916351318
1772533250992318000,7.27231787109375,-1.5171260833740234,-1.480775237083435,-1.561373233795166
1772533251002257200,7.282257080078125,-1.7102775573730469,-2.1117568016052246,-1.4769914150238037
1772533251012191200,7.292191162109375,-2.559981346130371,-2.3537604808807373,-1.0100362300872803
1772533251022109200,7.302109130859375,-3.517756462097168,-2.461057662963867,-0.45944744348526
1772533251032041700,7.312041748046875,-4.868539333343506,-2.2966063022613525,-0.13916578888893127
1772533251041975300,7.321975341796875,-7.297931671142578,-2.092254638671875,-0.6006585955619812
1772533251051907800,7.331907958984375,-10.734889030456543,-2.0508341789245605,-1.4441654682159424
1772533251061847300,7.341847412109375,-14.331265449523926,-2.2298123836517334,-2.1437830924987793
1772533251071780600,7.351780517578125,-17.319713592529297,-2.348029136657715,-2.6286184787750244
1772533251081714400,7.36171435546875,-19.004159927368164,-2.6403095722198486,-3.1324572563171387
1772533251091647700,7.371647705078125,-19.58884048461914,-3.1576099395751953,-3.4993157386779785
1772533251101569000,7.381569091796875,-19.242345809936523,-3.3718557357788086,-3.5560226440429688
1772533251111501000,7.3915009765625,-17.834651947021484,-2.8876895904541016,-3.358443260192871
1772533251121430300,7.40143017578125,-15.960485458374023,-2.3156304359436035,-2.8090381622314453
1772533251131362000,7.411362060546875,-13.910418510437012,-2.032700777053833,-1.801132082939148
1772533251141297200,7.421297119140625,-12.101741790771484,-1.86536705493927,-0.723943293094635
1772533251151229200,7.431229248046875,-10.507575988769531,-1.8069730997085571,-0.08613777160644531
1772533251161137400,7.441137451171875,-9.245787620544434,-1.9167470932006836,0.05893850326538086
1772533251171067100,7.451067138671875,-8.425982475280762,-2.2348616123199463,-0.22840118408203125
1772533251181028600,7.461028564453125,-7.8635478019714355,-2.7234268188476562,-0.8107763528823853
1772533251190961700,7.470961669921875,-7.8043341636657715,-3.1569056510925293,-1.1039245128631592
1772533251200887800,7.4808876953125,-8.123931884765625,-3.0055012702941895,-1.0025982856750488
1772533251210820000,7.490820068359375,-8.510102272033691,-2.329798460006714,-0.18492496013641357
1772533251220759800,7.500759765625,-8.310312271118164,-1.6812772750854492,1.0895142555236816
1772533251230692600,7.510692626953125,-7.3946614265441895,-1.4060323238372803,1.1500862836837769
1772533251240618000,7.520617919921875,-6.3559064865112305,-1.4138144254684448,0.5405576229095459
1772533251250550300,7.53055029296875,-5.477500915527344,-1.4266259670257568,0.08983981609344482
1772533251260486100,7.540486083984375,-4.442262172698975,-1.222348690032959,0.1609814167022705
1772533251270418700,7.550418701171875,-3.228549003601074,-0.5212513208389282,0.11753690242767334
1772533251280351200,7.560351318359375,-2.125640869140625,0.17055189609527588,-0.07158088684082031
1772533251290284000,7.570283935546875,-0.9386482238769531,0.34533631801605225,-0.21922659873962402
1772533251300207600,7.58020751953125,0.3835735321044922,0.4371638298034668,0.4277493953704834
1772533251310139400,7.590139404296875,0.9060707092285156,0.7439122200012207,0.6189923286437988
1772533251320074000,7.600073974609375,1.7043886184692383,1.2968095541000366,0.3731513023376465
1772533251330006000,7.610006103515625,1.747903823852539,2.8496224880218506,-0.8954349756240845
1772533251339942100,7.619942138671875,1.3354454040527344,5.175145626068115,-1.9255564212799072
1772533251349874700,7.629874755859375,1.541214942932129,7.163104057312012,-1.6609492301940918
1772533251359788800,7.639788818359375,2.6712732315063477,8.773502349853516,0.21433228254318237
1772533251369719300,7.64971923828125,11.222332954406738,11.213001251220703,2.79988169670105
1772533251379671800,7.659671875,25.130138397216797,12.550077438354492,3.9526515007019043
1772533251389604900,7.66960498046875,29.543670654296875,8.453392028808594,6.825565338134766
1772533251399533600,7.679533447265625,27.190811157226562,5.2840471267700195,7.793354511260986
1772533251409466000,7.689466064453125,23.851421356201172,5.432750701904297,5.4522809982299805
1772533251419396900,7.69939697265625,20.589000701904297,5.398010730743408,3.778865098953247
1772533251429329200,7.7093291015625,20.482067108154297,3.9090466499328613,2.3167357444763184
1772533251439261700,7.71926171875,21.786922454833984,1.426950454711914,-0.20157982409000397
1772533251449194000,7.729194091796875,21.366409301757812,-0.3551933765411377,-2.2596800327301025
1772533251459137800,7.7391376953125,19.391895294189453,0.31990694999694824,-2.6016969680786133
1772533251469071400,7.7490712890625,17.113616943359375,1.6829183101654053,-1.7194093465805054
1772533251478992600,7.75899267578125,13.973417282104492,2.3289573192596436,-0.5768381357192993
1772533251488925000,7.768925048828125,9.693235397338867,2.880873680114746,-0.2821308970451355
1772533251498894800,7.778894775390625,5.337257385253906,2.9148690700531006,-0.37350642681121826
1772533251508830700,7.788830810546875,1.8055238723754883,2.3711352348327637,0.09020036458969116
1772533251518696200,7.7986962890625,0.3842201232910156,1.7993085384368896,1.5938130617141724
1772533251528625200,7.808625244140625,1.258443832397461,0.5892646312713623,2.4070537090301514
1772533251538560500,7.818560546875,1.8405723571777344,-1.6856582164764404,1.3385868072509766
1772533251548490000,7.828489990234375,1.236673355102539,-3.6025774478912354,-0.07747447490692139
1772533251558430500,7.838430419921875,-0.3783998489379883,-4.091649532318115,-0.37339985370635986
1772533251568361000,7.84836083984375,-3.485363006591797,-3.8912806510925293,0.004825472831726074
1772533251578290000,7.8582900390625,-7.138246536254883,-4.343926906585693,-0.12585264444351196
1772533251588220400,7.868220458984375,-10.521946907043457,-4.856661319732666,-0.8443171977996826
1772533251598193200,7.878193115234375,-14.11124038696289,-5.2889862060546875,-1.7904021739959717
1772533251608127700,7.888127685546875,-17.323131561279297,-5.5349531173706055,-2.249079465866089
1772533251618021000,7.898021240234375,-19.49795150756836,-5.656665802001953,-1.9870671033859253
1772533251627951600,7.90795166015625,-20.648189544677734,-5.936935901641846,-1.78623366355896
1772533251637884700,7.917884765625,-20.457378387451172,-6.364307403564453,-2.0149261951446533
1772533251647815400,7.9278154296875,-18.839496612548828,-6.643654823303223,-2.3589987754821777
1772533251657756000,7.937755859375,-16.460262298583984,-6.412471294403076,-2.2590479850769043
1772533251667687400,7.9476875,-14.322633743286133,-5.8868021965026855,-1.6504876613616943
1772533251677619500,7.957619384765625,-12.742965698242188,-5.272497177124023,-0.5853840112686157
1772533251687551200,7.96755126953125,-11.62584114074707,-4.562729835510254,0.7621645927429199
1772533251697482500,7.977482421875,-10.558850288391113,-4.088454723358154,1.4795482158660889
1772533251707414300,7.987414306640625,-9.626897811889648,-3.9752845764160156,1.1152998208999634
1772533251717371600,7.99737158203125,-8.627503395080566,-4.16570520401001,0.31482261419296265
1772533251727305700,8.0073056640625,-7.125451564788818,-4.496413230895996,-0.422687292098999
1772533251737237800,8.01723779296875,-5.468396186828613,-4.696267604827881,-0.9756925106048584
1772533251747171800,8.027171875,-4.034168720245361,-4.581918716430664,-1.3586814403533936
1772533251757071000,8.037071044921875,-3.2305660247802734,-4.110130310058594,-1.1685878038406372
1772533251767001600,8.047001708984375,-3.062673568725586,-3.559384822845459,-0.7120054364204407
1772533251776965000,8.056965087890624,-3.551743984222412,-3.0781407356262207,-0.27864521741867065
1772533251786899000,8.06689892578125,-4.480835437774658,-2.6946306228637695,-0.05001640319824219
1772533251796832500,8.07683251953125,-5.686535835266113,-2.3346073627471924,-0.19309228658676147
1772533251806766300,8.086766357421874,-7.145046710968018,-1.7923568487167358,-0.12963682413101196
1772533251816698400,8.096698486328124,-8.24069595336914,-1.0272481441497803,-0.15902432799339294
1772533251826632200,8.106632080078125,-8.047298431396484,-0.5442875623703003,-0.3748825192451477
1772533251836558300,8.116558349609376,-6.790759086608887,-0.15861868858337402,-0.22254261374473572
1772533251846491400,8.126491455078124,-5.14482307434082,0.5440618991851807,0.13688957691192627
1772533251856430000,8.13643017578125,-3.71458101272583,1.0643489360809326,0.027891546487808228
1772533251866363600,8.14636376953125,-3.9363045692443848,1.8425872325897217,-0.15240263938903809
1772533251876289300,8.156289306640625,-4.677100658416748,3.5233027935028076,-0.47298604249954224
1772533251886222000,8.16622216796875,-4.565379619598389,5.816647529602051,-1.7542765140533447
1772533251896146200,8.176146240234376,-2.6073970794677734,8.13992977142334,-2.5131280422210693
1772533251906078000,8.186077880859376,1.7089643478393555,10.423629760742188,-0.9219589233398438
1772533251916022000,8.19602197265625,8.99981689453125,12.843280792236328,1.5629031658172607
1772533251925955300,8.205955322265625,20.237133026123047,14.898838996887207,2.5415666103363037
1772533251935885800,8.2158857421875,28.399215698242188,12.597676277160645,4.521099090576172
1772533251945818600,8.225818603515625,30.259857177734375,7.260910511016846,7.662969589233398
1772533251955749600,8.23574951171875,31.942790985107422,5.340049743652344,7.437231540679932
1772533251965682400,8.245682373046876,34.573707580566406,4.651233673095703,6.7140984535217285
1772533251975607300,8.255607177734374,36.97180938720703,2.9359798431396484,6.505369186401367
1772533251985539300,8.265539306640624,36.5206184387207,0.6898884773254395,3.834536075592041
1772533251995478800,8.275478759765624,31.668201446533203,-0.593804121017456,0.06316065788269043
1772533252005411300,8.285411376953125,24.474483489990234,0.029039621353149414,-1.846051573753357
1772533252015340800,8.2953408203125,16.931657791137695,1.62992525100708,-2.0065207481384277
1772533252025273000,8.305273193359374,9.846895217895508,3.0964837074279785,-0.701106607913971
1772533252035201800,8.315201904296876,4.39337158203125,4.106401443481445,1.1471201181411743
1772533252045133600,8.325133544921876,1.0256376266479492,4.499093055725098,2.6181225776672363
1772533252055042800,8.335042724609375,-0.814030647277832,3.946290969848633,3.0004734992980957
1772533252064972500,8.34497265625,-1.6556339263916016,2.3683969974517822,1.8051977157592773
1772533252074928600,8.3549287109375,-1.3630456924438477,0.31904077529907227,0.43103867769241333
1772533252084861200,8.364861083984374,-0.7255954742431641,-1.408189058303833,-0.38586658239364624
1772533252094769000,8.374768798828125,-0.9572210311889648,-2.83905291557312,-1.0682157278060913
1772533252104699000,8.384698974609375,-2.543471336364746,-3.814258575439453,-1.3336567878723145
1772533252114659300,8.394659423828125,-4.9642815589904785,-4.501328468322754,-1.4455211162567139
1772533252124592400,8.40459228515625,-7.466116905212402,-5.275576591491699,-2.1547024250030518
1772533252134534000,8.414533935546874,-10.19697380065918,-6.033817291259766,-2.5565268993377686
1772533252144467700,8.4244677734375,-13.307252883911133,-6.170278549194336,-2.335547924041748
1772533252154371600,8.43437158203125,-16.415346145629883,-6.181482315063477,-2.1634418964385986
1772533252164302300,8.44430224609375,-19.265487670898438,-6.101720809936523,-1.8651586771011353
1772533252174251800,8.454251708984375,-21.751407623291016,-6.024774074554443,-1.756436824798584
1772533252184184300,8.464184326171875,-22.960512161254883,-6.093501091003418,-2.0599887371063232
1772533252194124800,8.474124755859375,-22.09550666809082,-6.074372291564941,-2.463298797607422
1772533252204058400,8.484058349609375,-19.19215965270996,-5.75701379776001,-3.3543450832366943
1772533252214025500,8.494025390625,-16.194236755371094,-5.34469747543335,-4.291394233703613
1772533252223962400,8.50396240234375,-13.60196304321289,-5.340580463409424,-4.2375569343566895
1772533252233828400,8.513828369140626,-10.969901084899902,-5.316054344177246,-2.9731016159057617
1772533252243758000,8.523758056640625,-8.365015029907227,-4.901528358459473,-0.846753716468811
1772533252253715500,8.533715576171875,-6.088645935058594,-4.455984115600586,0.8324331641197205
1772533252263648000,8.54364794921875,-4.6296305656433105,-4.252528667449951,1.278201937675476
1772533252273575400,8.553575439453125,-4.472423076629639,-4.170291900634766,1.2559188604354858
1772533252283507500,8.563507568359375,-5.02719259262085,-4.019131660461426,1.1846662759780884
1772533252293449000,8.573448974609375,-5.369260787963867,-3.9034881591796875,0.5024842023849487
1772533252303381800,8.5833818359375,-5.789819717407227,-4.049069404602051,-0.38504505157470703
1772533252313306400,8.593306396484374,-6.548859596252441,-4.101012706756592,-0.7685774564743042
1772533252323238400,8.60323828125,-7.392262935638428,-3.8799519538879395,-0.5720388293266296
1772533252333172000,8.613171875,-7.796672344207764,-3.555427074432373,0.022523880004882812
1772533252343104300,8.623104248046875,-7.6689581871032715,-3.3015737533569336,0.3985644578933716
1772533252353040100,8.6330400390625,-7.647246837615967,-3.1085433959960938,0.10229527950286865
1772533252362972700,8.64297265625,-7.891587734222412,-2.9298958778381348,-0.2653992772102356
1772533252372907800,8.65290771484375,-7.222589015960693,-2.634066343307495,-0.7302083373069763
1772533252382840600,8.662840576171876,-6.103793144226074,-2.1045522689819336,-0.9173819422721863
1772533252392770300,8.672770263671875,-5.769608497619629,-0.8067142963409424,-0.3646872937679291
1772533252402702800,8.682702880859376,-6.560439109802246,1.074190616607666,0.19209718704223633
1772533252412639700,8.6926396484375,-8.348297119140625,2.603469133377075,0.08645904064178467
1772533252422572800,8.70257275390625,-10.30062198638916,4.072920799255371,-0.5901238322257996
1772533252432530000,8.712530029296875,-11.71725082397461,6.313225746154785,-1.2639538049697876
1772533252442465300,8.72246533203125,-9.036410331726074,7.814785003662109,-1.7497947216033936
1772533252452358400,8.7323583984375,0.19385242462158203,7.533883571624756,0.17302590608596802
1772533252462289700,8.74228955078125,15.236181259155273,7.396411895751953,3.4452672004699707
1772533252472219600,8.7522197265625,30.706640243530273,8.243009567260742,5.83804988861084
1772533252482151000,8.76215087890625,39.64146423339844,5.207391262054443,9.812501907348633
1772533252492093200,8.77209326171875,43.13641357421875,2.1870861053466797,12.987743377685547
1772533252502025500,8.782025390625,42.69584274291992,2.09940242767334,10.529151916503906
1772533252511958000,8.7919580078125,38.84933090209961,1.7436001300811768,6.373170375823975
1772533252521890300,8.801890380859374,35.29999923706055,-0.351767897605896,2.745380401611328
1772533252531814100,8.811814208984375,31.978801727294922,-1.6346629858016968,-0.8552708029747009
1772533252541745700,8.82174560546875,26.716920852661133,-1.1431273221969604,-2.2301807403564453
1772533252551684900,8.831684814453125,20.279338836669922,0.280414342880249,-1.4416301250457764
1772533252561617000,8.841616943359375,14.103004455566406,2.164591073989868,0.2399500012397766
1772533252571543000,8.85154296875,8.79116153717041,4.139307975769043,2.510014295578003
1772533252581474600,8.861474609375,4.054335594177246,5.740767002105713,3.7454445362091064
1772533252591400700,8.871400634765624,0.3211326599121094,6.473317623138428,4.315884590148926
1772533252601331700,8.881331787109374,-1.9165043830871582,6.057007789611816,4.598417282104492
1772533252611282200,8.8912822265625,-2.950608253479004,4.801501274108887,3.8730568885803223
1772533252621215200,8.90121533203125,-3.16866397857666,3.000667095184326,1.9062708616256714
1772533252631136500,8.911136474609375,-2.288417339324951,0.7250545024871826,-0.7749695181846619
1772533252641068300,8.921068359375,-1.3409490585327148,-1.532278060913086,-3.1822361946105957
1772533252651007700,8.9310078125,-1.6942329406738281,-2.557796001434326,-4.092473983764648
1772533252660940300,8.940940185546875,-2.822293281555176,-2.6395087242126465,-3.7212960720062256
1772533252670879500,8.95087939453125,-4.85802698135376,-2.4800806045532227,-2.7491674423217773
1772533252680812500,8.9608125,-7.807499885559082,-2.000539541244507,-2.4075944423675537
1772533252690745000,8.9707451171875,-11.373336791992188,-1.7016055583953857,-3.064236640930176
1772533252700678100,8.98067822265625,-14.91108512878418,-1.9243464469909668,-3.6245737075805664
1772533252710600400,8.990600341796876,-17.378639221191406,-2.3880374431610107,-4.0700578689575195
1772533252720532500,9.000532470703124,-18.169445037841797,-2.7757062911987305,-4.272443771362305
1772533252730434000,9.01043408203125,-17.20451545715332,-3.043825626373291,-3.6194207668304443
1772533252740363000,9.020363037109375,-15.21885871887207,-3.050262451171875,-3.0176234245300293
1772533252750305000,9.030304931640625,-14.23332405090332,-2.4186854362487793,-1.9137061834335327
1772533252760235300,9.0402353515625,-12.890741348266602,-1.4022568464279175,-1.4689857959747314
1772533252770163700,9.050163818359374,-11.102254867553711,-0.9273440837860107,-1.737636923789978
1772533252780094000,9.060093994140624,-9.349196434020996,-1.0293169021606445,-2.2226436138153076
1772533252790063900,9.07006396484375,-7.536015033721924,-1.1142817735671997,-2.5109965801239014
1772533252799998000,9.079998046875,-5.242888927459717,-0.8123221397399902,-1.4504234790802002
1772533252809901300,9.0899013671875,-0.9294567108154297,-0.6179978847503662,0.17030668258666992
1772533252819832300,9.099832275390625,0.9531183242797852,-0.13366222381591797,0.8977338075637817
1772533252829764900,9.109764892578125,-0.5921382904052734,0.4608931541442871,1.0866587162017822
1772533252839696000,9.11969580078125,0.09265422821044922,1.1424072980880737,1.1233642101287842
1772533252849631200,9.12963134765625,-0.8546562194824219,1.6136935949325562,0.2010490894317627
1772533252859562800,9.139562744140624,-1.8458819389343262,1.4734281301498413,-0.8387683629989624
1772533252869485800,9.14948583984375,-2.6827173233032227,0.7649180889129639,-1.2287371158599854
1772533252879416600,9.15941650390625,-2.9227352142333984,-0.586704671382904,-1.2267520427703857
1772533252889352200,9.169352294921875,-2.555525779724121,-1.9050043821334839,-1.4803991317749023
1772533252899283500,9.179283447265625,-1.8270840644836426,-2.5609054565429688,-1.101309061050415
1772533252909240600,9.189240478515625,-0.9873151779174805,-2.8660929203033447,-0.13440734148025513
1772533252919174400,9.19917431640625,1.308614730834961,-2.9101009368896484,2.3454320430755615
1772533252929102800,9.209102783203125,1.2960758209228516,-2.223381519317627,2.5333499908447266
1772533252939036200,9.2190361328125,-0.41736507415771484,-0.4922821521759033,0.8110547661781311
1772533252948971300,9.22897119140625,-0.3974933624267578,0.5371040105819702,0.9226056337356567
1772533252958904600,9.238904541015625,0.7246885299682617,0.5048092603683472,0.48100781440734863
1772533252968835300,9.24883544921875,1.8608675003051758,-0.4783327579498291,0.28627485036849976
1772533252978768400,9.258768310546875,3.7732315063476562,-1.2403448820114136,0.7681580781936646
1772533252988696000,9.268696044921874,6.22752571105957,-0.9765543937683105,1.5808773040771484
1772533252998628600,9.278628662109375,7.577474594116211,-0.02318263053894043,1.880247950553894
1772533253008567600,9.288567626953125,6.933328628540039,0.1896195411682129,2.0698885917663574
1772533253018500600,9.29850048828125,5.557120323181152,0.062340736389160156,1.6071950197219849
1772533253028433000,9.308432861328125,4.088422775268555,0.18813300132751465,1.0513710975646973
1772533253038366200,9.3183662109375,0.30196666717529297,-0.8686513900756836,1.6030927896499634
1772533253048292000,9.3282919921875,-3.061870574951172,-1.463590145111084,0.970890998840332
1772533253058224600,9.338224609375,-3.7267727851867676,-1.0335896015167236,-0.24817678332328796
1772533253068157000,9.348156982421875,-1.703390121459961,-0.1664748191833496,-1.736189842224121
1772533253078089500,9.35808935546875,1.5970993041992188,-0.0005118846893310547,-1.453977346420288
1772533253088020200,9.368020263671875,4.752102851867676,-0.7485089302062988,0.15559720993041992
1772533253097952300,9.3779521484375,7.002631187438965,-1.2186732292175293,0.7752747535705566
1772533253107893200,9.387893310546875,7.975354194641113,-0.7477450370788574,0.6653040647506714
1772533253117826300,9.397826416015626,8.282512664794922,-0.23905301094055176,0.5089110136032104
1772533253127748900,9.407748779296876,7.724888801574707,-0.21964550018310547,0.11650526523590088
1772533253137681000,9.417680908203126,6.632524490356445,-0.10878396034240723,-0.12738598883152008
1772533253147616500,9.427616455078125,4.663288116455078,0.3056173324584961,0.36827734112739563
1772533253157548800,9.437548828125,1.9035491943359375,0.8379015922546387,1.0106884241104126
1772533253167463400,9.44746337890625,-0.6108360290527344,1.565124273300171,1.551798939704895
1772533253177394000,9.457393798828125,-2.5736865997314453,1.9097776412963867,1.5025858879089355
1772533253187355100,9.467355224609374,-3.7608656883239746,1.1383452415466309,1.4949980974197388
1772533253197289000,9.4772890625,-3.8988261222839355,0.7996947765350342,-0.18337906897068024
1772533253207226400,9.487226318359374,-3.2384729385375977,-0.20575666427612305,-1.9654486179351807
1772533253217160400,9.497160400390625,-1.9169559478759766,-1.7318073511123657,-2.60314679145813
1772533253227048700,9.507048583984375,-0.4228248596191406,-2.382168769836426,-2.4302334785461426
1772533253236978200,9.516978271484374,0.6897010803222656,-2.1300394535064697,-1.978224277496338
1772533253246941200,9.526941162109376,1.0736675262451172,-1.7173378467559814,-0.9988405704498291
1772533253256874000,9.5368740234375,0.8901147842407227,-1.5545798540115356,0.2250814586877823
1772533253266806300,9.54680615234375,0.43972301483154297,-1.4848278760910034,1.1607022285461426
1772533253276738800,9.55673876953125,0.07623481750488281,-1.4112318754196167,1.5247869491577148
1772533253286644200,9.566644287109375,-0.6614589691162109,-1.3627678155899048,1.5329879522323608
1772533253296574200,9.57657421875,-1.3453583717346191,-1.061639666557312,1.3533494472503662
1772533253306537000,9.586536865234375,-1.5621743202209473,-0.5858049392700195,1.204336166381836
1772533253316470300,9.59647021484375,-1.2089433670043945,-0.13486647605895996,1.2462282180786133
1772533253326396700,9.606396728515625,-0.45293235778808594,-0.08391880989074707,1.2445452213287354
1772533253336329500,9.61632958984375,0.5781574249267578,-0.08244705200195312,0.8492575287818909
1772533253356188400,9.6361884765625,-1.0184593200683594,0.04936814308166504,0.2631193995475769
1772533253366118700,9.64611865234375,-2.4886302947998047,-0.15637874603271484,0.5784233808517456
1772533253376050400,9.656050537109374,-3.602409839630127,-0.245438814163208,0.367010235786438
1772533253385990000,9.665989990234374,-3.9475293159484863,-0.18138551712036133,-0.26617276668548584
1772533253395922700,9.675922607421874,-3.5893893241882324,-0.1078484058380127,-0.8206274509429932
1772533253405839000,9.685839111328125,-2.7975711822509766,-0.3619382381439209,-1.053405523300171
1772533253415770400,9.695770263671875,-1.8009958267211914,-0.8084673881530762,-1.1684648990631104
1772533253425727700,9.705727783203125,-0.8011255264282227,-1.1327619552612305,-1.4234416484832764
