time,seconds_elapsed,z,y,x
1772533243840813600,0.1208134765625,0.05965305119752884,-0.44832995533943176,0.012782796286046505
1772533243910626000,0.1906259765625,0.0106523297727108,-0.2961347699165344,-0.19387240707874298
1772533243920554800,0.2005546875,-0.02982652559876442,-0.256721168756485,-0.2141118347644806
1772533243930487600,0.210487548828125,-0.04687025398015976,-0.32156720757484436,-0.2226337045431137
1772533243940429600,0.2204296875,-0.07669677585363388,-0.31091487407684326,-0.19706811010837555
1772533243950351600,0.2303515625,-0.13315412402153015,-0.03515268862247467,-0.12250179797410965
1772533243960285700,0.24028564453125,-0.13528458774089813,0.2854824364185333,-0.10119713842868805
1772533243970219500,0.250219482421875,-0.17789392173290253,0.658180832862854,-0.1608501821756363
1772533243980153300,0.2601533203125,-0.23967742919921875,0.9914656281471252,-0.21730753779411316
1772533243990094800,0.2700947265625,-0.29506954550743103,1.0532491207122803,-0.23648172616958618
1772533244000031700,0.28003173828125,-0.25991687178611755,0.7838783264160156,-0.24074266850948334
1772533244009923800,0.289923828125,-0.28441721200942993,0.5612446665763855,-0.20772044360637665
1772533244019842800,0.2998427734375,-0.39932921528816223,0.5047873258590698,-0.09374050796031952
1772533244029823200,0.3098232421875,-0.48028692603111267,0.4632432162761688,0.02769605815410614
1772533244039767000,0.31976708984375,-0.5079829692840576,0.535679042339325,0.11611039936542511
1772533244049674500,0.329674560546875,-0.4643084406852722,0.5165048837661743,0.23009033501148224
1772533244059603700,0.339603759765625,-0.42809051275253296,0.2769605815410614,0.25032976269721985
1772533244069537500,0.34953759765625,-0.4547213613986969,-0.07137060910463333,0.18428531289100647
1772533244079468800,0.35946875,-0.534613847732544,-0.3577851355075836,0.0852186381816864
1772533244089402400,0.36940234375,-0.6038539409637451,-0.10119713842868805,-0.11611039936542511
1772533244099334400,0.37933447265625,-0.5548532605171204,0.43874284625053406,-0.2545906901359558
1772533244109275400,0.389275390625,-0.3886769115924835,0.48028692603111267,-0.13102366030216217
1772533244119211000,0.3992109375,-0.29187384247779846,0.6698983907699585,0.03941362351179123
1772533244129129500,0.40912939453125,-0.23009033501148224,0.8222267627716064,0.23967742919921875
1772533244139058200,0.41905810546875,-0.16830681264400482,0.8275529146194458,0.4461994767189026
1772533244148997000,0.4289970703125,-0.1608501821756363,0.4866783320903778,0.5910711884498596
1772533244158930200,0.43893017578125,-0.1501978635787964,-0.299330472946167,0.6667027473449707
1772533244168875000,0.448875,-0.10439283400774002,-1.2332735061645508,0.8137048482894897
1772533244178812700,0.458812744140625,0.08415340632200241,-1.8009096384048462,1.099054217338562
1772533244188739000,0.468739013671875,0.43661239743232727,-1.6602988243103027,1.4335373640060425
1772533244198672100,0.478672119140625,0.7444647550582886,-0.895727813243866,1.6943862438201904
1772533244208595200,0.48859521484375,0.8829450011253357,0.10758853703737259,1.8094314336776733
1772533244218524200,0.498524169921875,0.9477910995483398,0.8616403341293335,1.7657568454742432
1772533244228465400,0.50846533203125,1.0031832456588745,1.122489333152771,1.612363338470459
1772533244238399500,0.5183994140625,1.075619101524353,0.8137048482894897,1.4931904077529907
1772533244248320000,0.528320068359375,1.1746857166290283,-0.06604444980621338,1.5070384740829468
1772533244258252800,0.538252685546875,1.2258168458938599,-1.2311431169509888,1.551645040512085
1772533244268181000,0.548180908203125,1.2311431169509888,-2.188521146774292,1.4346026182174683
1772533244278113300,0.55811328125,1.2854700088500977,-2.923398971557617,1.2077078819274902
1772533244288052500,0.568052490234375,1.4793423414230347,-3.24190354347229,1.0063788890838623
1772533244297985500,0.577985595703125,1.8243447542190552,-2.957486391067505,0.8350095152854919
1772533244307892500,0.587892578125,2.1108922958374023,-2.2002387046813965,0.618767261505127
1772533244317823000,0.597822998046875,2.0778701305389404,-1.0521838665008545,0.30359140038490295
1772533244327759400,0.60775927734375,1.6389942169189453,-0.04154408723115921,-0.316241055727005
1772533244337690400,0.6176904296875,1.1959903240203857,-0.01917419396340847,-1.2918612957000732
1772533244347620900,0.627620849609375,0.8456618785858154,-0.5218310356140137,-2.2897183895111084
1772533244357551600,0.637551513671875,0.4738955497741699,-0.9222254753112793,-2.8573544025421143
1772533244367512000,0.647511962890625,0.33221954107284546,-1.2844047546386719,-2.873332977294922
1772533244377446000,0.65744580078125,0.47069984674453735,-1.4772119522094727,-2.577331304550171
1772533244387350300,0.667350341796875,0.5516575574874878,-0.9232907295227051,-2.1066315174102783
1772533244397281000,0.677281005859375,0.5825493335723877,-0.1278279572725296,-1.572949767112732
1772533244407215000,0.687215087890625,0.6134410500526428,0.4536561071872711,-1.1107717752456665
1772533244417146400,0.697146484375,0.5601794123649597,1.0351401567459106,-0.810509204864502
1772533244427078700,0.70707861328125,0.3886769115924835,1.4239501953125,-0.6624417901039124
1772533244437010000,0.717010009765625,0.06710968166589737,1.7348651885986328,-0.5410051941871643
1772533244446943500,0.726943603515625,-0.10332760214805603,2.0682830810546875,-0.47176507115364075
1772533244456875000,0.736875,-0.02236989326775074,2.041652202606201,-0.4866783320903778
1772533244466802400,0.746802490234375,0.05752258375287056,1.6539074182510376,-0.5197005867958069
1772533244476733700,0.756733642578125,0.05432688444852829,1.1821423768997192,-0.5420704483985901
1772533244486669800,0.766669921875,0.0053261648863554,0.6869421601295471,-0.619832456111908
1772533244496601300,0.776601318359375,-0.08415340632200241,0.29506954550743103,-0.7561823129653931
1772533244506560300,0.786560302734375,-0.15339355170726776,0.1384802907705307,-0.9424648880958557
1772533244516494600,0.79649462890625,-0.2247641682624817,0.2439383566379547,-1.230077862739563
1772533244526420000,0.806419921875,-0.35352420806884766,0.7668346166610718,-1.596384882926941
1772533244536353300,0.816353271484375,-0.47283029556274414,1.3568406105041504,-1.9340636730194092
1772533244546282200,0.8262822265625,-0.4792217016220093,1.4974513053894043,-2.133129119873047
1772533244556215300,0.83621533203125,-0.31091487407684326,1.054314374923706,-2.240717649459839
1772533244566188500,0.8461884765625,-0.04580501839518547,0.5804188251495361,-2.2332611083984375
1772533244576125700,0.856125732421875,0.20878566801548004,0.4973306655883789,-1.9979777336120605
1772533244586014500,0.866014404296875,0.4738955497741699,0.47176507115364075,-1.5399274826049805
1772533244595946800,0.87594677734375,0.6837464570999146,0.44300377368927,-0.9872047305107117
1772533244615784000,0.895783935546875,0.40572062134742737,0.5857450366020203,0.08841434121131897
1772533244625753900,0.90575390625,-0.08841434121131897,0.618767261505127,0.5218310356140137
1772533244635687700,0.915687744140625,-0.5995930433273315,0.43022099137306213,0.8946625590324402
1772533244645606000,0.92560595703125,-1.0340749025344849,-0.14487169682979584,1.1672290563583374
1772533244655538000,0.935537841796875,-1.3525795936584473,-0.9307473301887512,1.3525795936584473
1772533244665469400,0.945469482421875,-1.461233377456665,-1.4090369939804077,1.5708192586898804
1772533244675401700,0.955401611328125,-1.445254921913147,-1.3781452178955078,1.8360623121261597
1772533244685301800,0.9653017578125,-1.4622986316680908,-1.0287487506866455,2.033130407333374
1772533244705198300,0.9851982421875,-1.2705566883087158,-1.124619722366333,1.9170199632644653
1772533244715133400,0.995133544921875,-1.4239501953125,-1.4367330074310303,1.3941236734390259
1772533244725067800,1.00506787109375,-1.8594974279403687,-1.7252780199050903,0.6177020072937012
1772533244735003000,1.0150029296875,-2.2598917484283447,-1.8850629329681396,-0.15658925473690033
1772533244744926500,1.024926513671875,-2.3461756706237793,-1.7689526081085205,-0.6283543109893799
1772533244754860300,1.0348603515625,-1.951107382774353,-1.2641652822494507,-0.5207657814025879
1772533244764796000,1.0447958984375,-1.3046441078186035,-0.36311131715774536,0.0852186381816864
1772533244774730000,1.05472998046875,-0.5697665214538574,0.619832456111908,0.803052544593811
1772533244784684300,1.064684326171875,0.23967742919921875,1.2354040145874023,1.1342068910598755
1772533244794620400,1.074620361328125,0.8403357267379761,1.3131660223007202,0.6752246022224426
1772533244804512000,1.084511962890625,0.9371387362480164,0.9445953965187073,-0.42809051275253296
1772533244814443500,1.094443603515625,0.6677679419517517,0.12356702983379364,-1.6624293327331543
1772533244824395000,1.10439501953125,0.3716331720352173,-0.9382039904594421,-2.5975706577301025
1772533244834328800,1.114328857421875,0.24926452338695526,-1.6411246061325073,-2.9265944957733154
1772533244844247600,1.12424755859375,0.3375457227230072,-1.6144938468933105,-2.6827893257141113
1772533244854179600,1.1341796875,0.6262238621711731,-0.8733579516410828,-2.10876202583313
1772533244864116700,1.14411669921875,1.0979889631271362,0.0639139786362648,-1.475081443786621
1772533244874049300,1.15404931640625,1.5740149021148682,0.7455299496650696,-1.0031832456588745
1772533244883988500,1.163988525390625,1.8318012952804565,1.1704248189926147,-0.7476604580879211
1772533244893921800,1.173921875,1.7583003044128418,1.3248835802078247,-0.6816160082817078
1772533244903842800,1.1838427734375,1.4164936542510986,1.1288807392120361,-0.7966611385345459
1772533244913774800,1.19377490234375,0.9722914695739746,0.5953320860862732,-1.0841408967971802
1772533244923705300,1.203705322265625,0.5314181447029114,-0.28441721200942993,-1.505973219871521
1772533244933637400,1.213637451171875,0.012782796286046505,-1.4718856811523438,-2.013956069946289
1772533244943569200,1.223569091796875,-0.5655055642127991,-2.188521146774292,-2.296109676361084
1772533244953501200,1.233501220703125,-0.9074453711509705,-2.263087511062622,-2.001173496246338
1772533244963446500,1.243446533203125,-0.872292697429657,-2.21728253364563,-1.253512978553772
1772533244973379800,1.2533798828125,-0.7061163187026978,-1.8616278171539307,-0.28122150897979736
1772533244983297000,1.263297119140625,-0.5548532605171204,-1.2577738761901855,0.7913349866867065
1772533244993228800,1.273228759765625,-0.4312862157821655,-0.7572475075721741,1.7508436441421509
1772533245003178800,1.2831787109375,-0.40678587555885315,-0.47176507115364075,2.3866546154022217
1772533245013112000,1.293112060546875,-0.5207657814025879,-0.3716331720352173,2.6348538398742676
1772533245023026200,1.303026123046875,-0.7444647550582886,-0.400394469499588,2.5741355419158936
1772533245032957700,1.312957763671875,-1.0138355493545532,-0.5090482234954834,2.3270015716552734
1772533245042892000,1.32289208984375,-1.2801437377929688,-0.5793536305427551,1.9234113693237305
1772533245052824000,1.332823974609375,-1.484668493270874,-0.6603113412857056,1.390928030014038
1772533245062769000,1.342768798828125,-1.572949767112732,-0.8424661755561829,0.7455299496650696
1772533245072702200,1.3527021484375,-1.484668493270874,-1.0670971870422363,0.03621792420744896
1772533245082598700,1.3625986328125,-1.2481868267059326,-1.0820103883743286,-0.5186353325843811
1772533245092528000,1.372528076171875,-0.9275516271591187,-0.6283543109893799,-0.7519213557243347
1772533245102491100,1.3824912109375,-0.6091801524162292,-0.004260932095348835,-0.7220948338508606
1772533245112424000,1.392423828125,-0.3886769115924835,0.48348262906074524,-0.596397340297699
1772533245122349000,1.40234912109375,-0.2641777992248535,0.8350095152854919,-0.5484618544578552
1772533245132281000,1.412281005859375,-0.1821548491716385,0.9872047305107117,-0.6613765358924866
1772533245142217500,1.422217529296875,-0.06071828305721283,0.8435314297676086,-0.9488562941551208
1772533245152149800,1.432149658203125,0.19706811010837555,0.5442008972167969,-1.3738843202590942
1772533245162077000,1.442076904296875,0.7455299496650696,0.44832995533943176,-1.8531060218811035
1772533245172009000,1.452009033203125,1.665624976158142,0.6240934133529663,-2.2460439205169678
1772533245181944300,1.4619443359375,2.684919834136963,1.0596405267715454,-2.463351249694824
1772533245191876900,1.471876953125,3.35042405128479,1.902106761932373,-2.586918354034424
1772533245201809400,1.481809326171875,3.3813159465789795,3.182250499725342,-2.775331497192383
1772533245211742000,1.491741943359375,2.9127466678619385,4.324979305267334,-2.957486391067505
1772533245221671400,1.50167138671875,2.4708080291748047,4.592219352722168,-2.834984540939331
1772533245231603500,1.511603515625,2.421807289123535,4.007539749145508,-2.136324882507324
1772533245241599500,1.521599609375,2.567744255065918,2.9873127937316895,-0.8126396536827087
1772533245251538000,1.531537841796875,2.4729385375976562,1.6794730424880981,0.8445966243743896
1772533245261403100,1.541403076171875,1.7625612020492554,-0.06284874677658081,2.2290000915527344
1772533245271334100,1.551334228515625,0.4643084406852722,-2.2566962242126465,2.6593542098999023
1772533245281271300,1.561271240234375,-1.0862714052200317,-3.903280019760132,2.1672165393829346
1772533245291203000,1.571203125,-2.3206100463867188,-4.419785022735596,1.7540392875671387
1772533245301130500,1.581130615234375,-2.779592514038086,-4.304739952087402,2.5783965587615967
1772533245311061800,1.591061767578125,-2.581592321395874,-3.4090120792388916,4.179042339324951
1772533245321007000,1.601007080078125,-2.2364566326141357,-1.735930323600769,4.888354301452637
1772533245330940000,1.61093994140625,-1.9745426177978516,-0.3822855055332184,3.7786478996276855
1772533245340878800,1.62087890625,-1.6837339401245117,0.4898740351200104,1.2172950506210327
1772533245350812400,1.6308125,-1.208773136138916,1.1352721452713013,-1.7231475114822388
1772533245360699600,1.64069970703125,-0.7465952038764954,1.528209924697876,-3.935237169265747
1772533245370628400,1.65062841796875,-0.447264701128006,1.4793423414230347,-4.952268123626709
1772533245380585700,1.660585693359375,-0.07563154399394989,1.1235545873641968,-4.7626566886901855
1772533245390517200,1.670517333984375,0.40891632437705994,0.6890726089477539,-3.6944944858551025
1772533245400454700,1.68045458984375,0.764704167842865,0.23861220479011536,-2.2982401847839355
1772533245410386700,1.69038671875,0.8999887704849243,-0.34287187457084656,-0.9563129544258118
1772533245420318700,1.700318603515625,0.8286181092262268,-0.8808145523071289,0.07669677585363388
1772533245430251000,1.7102509765625,0.5676360726356506,-1.2172950506210327,0.611310601234436
1772533245440182800,1.720182861328125,0.15339355170726776,-1.306774616241455,0.6624417901039124
1772533245450114800,1.73011474609375,-0.2460688352584839,-1.085206151008606,0.39506828784942627
1772533245460056800,1.740056884765625,-0.4323514401912689,-0.6326152682304382,-0.03515268862247467
1772533245469990000,1.749989990234375,-0.3684374690055847,-0.23222079873085022,-0.5260919332504272
1772533245479918600,1.759918701171875,-0.1501978635787964,-0.16830681264400482,-0.9978570342063904
1772533245489851100,1.76985107421875,0.02982652559876442,-0.34287187457084656,-1.2822742462158203
1772533245499778600,1.779778564453125,0.10013190656900406,-0.38441595435142517,-1.1075760126113892
1772533245509710800,1.7897109375,0.10545806586742401,-0.19493764638900757,-0.4419385492801666
1772533245519618600,1.79961865234375,0.02556559257209301,0.0021304660476744175,0.46963462233543396
1772533245529548300,1.80954833984375,-0.14274121820926666,0.01810896210372448,1.3685581684112549
1772533245539475200,1.81947509765625,-0.36630702018737793,-0.11397993564605713,2.0970444679260254
1772533245549404400,1.829404296875,-0.6219629049301147,-0.24074266850948334,2.5943751335144043
1772533245559348500,1.839348388671875,-0.8904016613960266,-0.36417654156684875,2.868006706237793
1772533245569279500,1.849279541015625,-1.1171631813049316,-0.535679042339325,2.970269203186035
1772533245579216100,1.859216064453125,-1.263100028038025,-0.8094439506530762,2.9404425621032715
1772533245589147600,1.869147705078125,-1.2098383903503418,-1.3579057455062866,2.636984348297119
1772533245599074300,1.87907421875,-0.9904004335403442,-1.8254098892211914,2.0874571800231934
1772533245609005300,1.88900537109375,-0.6880073547363281,-1.7018429040908813,1.4740161895751953
1772533245618936800,1.898936767578125,-0.37589409947395325,-0.9445953965187073,0.978682816028595
1772533245628867800,1.908867919921875,-0.01491326279938221,-0.20558997988700867,0.5687012672424316
1772533245638803500,1.918803466796875,0.3513937294483185,0.2439383566379547,0.14593692123889923
1772533245648735000,1.92873486328125,0.4866783320903778,0.6272891163825989,-0.18748101592063904
1772533245658669800,1.938669921875,0.35352420806884766,0.810509204864502,-0.3588503897190094
1772533245668601600,1.9486015625,0.04687025398015976,0.6624417901039124,-0.37589409947395325
1772533245678568700,1.958568603515625,-0.3503285050392151,0.3780245780944824,-0.24926452338695526
1772533245688504000,1.968504150390625,-0.726355791091919,0.16617634892463684,0.0532616525888443
1772533245698426400,1.97842626953125,-0.9360735416412354,0.01810896210372448,0.5442008972167969
1772533245708360400,1.9883603515625,-0.9127715229988098,-0.07989247888326645,1.1523158550262451
1772533245718290700,1.998290771484375,-0.7487256526947021,-0.01384802907705307,1.764691710472107
1772533245728224300,2.008224365234375,-0.5772231221199036,0.27376487851142883,2.2556309700012207
1772533245738149000,2.018149169921875,-0.4653736650943756,0.619832456111908,2.5240695476531982
1772533245748082000,2.02808203125,-0.4664389193058014,0.8414009213447571,2.5315263271331787
1772533245757992700,2.03799267578125,-0.5601794123649597,0.8360747694969177,2.3270015716552734
1772533245767923500,2.04792333984375,-0.6422023773193359,0.6208977103233337,1.9766730070114136
1772533245777875500,2.05787548828125,-0.6453980803489685,0.316241055727005,1.604906678199768
1772533245787808000,2.06780810546875,-0.5697665214538574,-0.00852186419069767,1.3962541818618774
1772533245797750500,2.07775048828125,-0.43874284625053406,-0.34074142575263977,1.4676247835159302
1772533245807684400,2.087684326171875,-0.2354165017604828,-0.5655055642127991,1.8009096384048462
1772533245817605600,2.097605712890625,-0.007456631399691105,-0.596397340297699,2.2609570026397705
1772533245827538000,2.107537841796875,0.1501978635787964,-0.47069984674453735,2.6263320446014404
1772533245837492000,2.117491943359375,0.16830681264400482,-0.3897421360015869,2.650832414627075
1772533245847426600,2.127426513671875,0.0031956990715116262,-0.7146382331848145,2.098109483718872
1772533245857333200,2.137333251953125,-0.2897433936595917,-1.3195574283599854,0.9616391062736511
1772533245867265000,2.14726513671875,-0.5260919332504272,-1.2652305364608765,-0.16191542148590088
1772533245877202700,2.15720263671875,-0.4525908827781677,0.11397993564605713,-0.45046040415763855
1772533245887135200,2.16713525390625,0.01917419396340847,2.141650915145874,0.012782796286046505
1772533245897067800,2.17706787109375,0.657115638256073,3.391968250274658,0.3003957271575928
1772533245907000000,2.187,1.061771035194397,3.16733717918396,-0.10545806586742401
1772533245916936000,2.19693603515625,0.9914656281471252,2.10876202583313,-0.9021192193031311
1772533245926868700,2.20686865234375,0.5942668914794922,0.8019872903823853,-1.680538296699524
1772533245936800300,2.21680029296875,0.2876129150390625,-0.45046040415763855,-2.267348527908325
1772533245946732800,2.22673291015625,0.3055887222290039,-1.3014484643936157,-2.632723331451416
1772533245956653600,2.236653564453125,0.5303528904914856,-1.8563016653060913,-2.8040928840637207
1772533245966585000,2.246585205078125,0.8051829934120178,-2.1045010089874268,-2.7572224140167236
1772533245976516400,2.256516357421875,1.153381109237671,-1.8403232097625732,-2.4154157638549805
1772533245986448000,2.26644775390625,1.5112993717193604,-1.1629681587219238,-1.820083737373352
1772533245996383000,2.276383056640625,1.7071690559387207,-0.4153077304363251,-1.0830756425857544
1772533246006314800,2.286314697265625,1.6400593519210815,0.05113118514418602,-0.31304535269737244
1772533246016259000,2.296259033203125,1.3131660223007202,0.0639139786362648,0.3492632806301117
1772533246026192000,2.30619189453125,0.8200962543487549,-0.381220281124115,0.7497909069061279
1772533246036110800,2.31611083984375,0.30984964966773987,-1.1001193523406982,0.7860088348388672
1772533246046042400,2.32604248046875,-0.10119713842868805,-1.6911906003952026,0.4536561071872711
1772533246055987500,2.335987548828125,-0.32156720757484436,-1.790257215499878,-0.10013190656900406
1772533246065920300,2.345920166015625,-0.3066539466381073,-1.4228850603103638,-0.6656374931335449
1772533246075849200,2.35584912109375,-0.10865376889705658,-0.7892045378684998,-1.0234225988388062
1772533246085781800,2.36578173828125,0.20985090732574463,-0.13634982705116272,-0.9957265853881836
1772533246095721200,2.37572119140625,0.5378095507621765,0.3258281648159027,-0.5846797823905945
1772533246105654500,2.385654541015625,0.634745717048645,0.6038539409637451,0.05752258375287056
1772533246115568000,2.395568115234375,0.40891632437705994,0.6315500140190125,0.7135729789733887
1772533246135441000,2.41544091796875,-0.6070496439933777,-0.10545806586742401,1.3419272899627686
1772533246145373200,2.425373291015625,-1.1022498607635498,-0.6752246022224426,1.2109036445617676
1772533246155300400,2.43530029296875,-1.3440577983856201,-1.1097065210342407,0.849922776222229
1772533246165232000,2.445232177734375,-1.2439258098602295,-1.4069064855575562,0.32156720757484436
1772533246175162000,2.455162109375,-1.0372706651687622,-1.4250154495239258,-0.31198012828826904
1772533246185094000,2.465093994140625,-0.680550754070282,-1.030879259109497,-0.9445953965187073
1772533246195035100,2.47503515625,-0.21837277710437775,-0.5218310356140137,-1.384536623954773
1772533246204967700,2.4849677734375,0.10013190656900406,0.08734910935163498,-1.6762772798538208
1772533246214889500,2.494889404296875,0.28335198760032654,0.658180832862854,-1.8871934413909912
1772533246224821000,2.504821044921875,0.3567199110984802,1.0276836156845093,-1.9841296672821045
1772533246234735000,2.514735107421875,0.17789392173290253,1.155511498451233,-1.9915863275527954
1772533246244664800,2.524664794921875,-0.2343512624502182,1.0436620712280273,-1.9319332838058472
1772533246254624300,2.534624267578125,-0.6453980803489685,0.8935973644256592,-1.7700178623199463
1772533246264557000,2.54455712890625,-0.8062482476234436,0.9117063283920288,-1.4282112121582031
1772533246274489300,2.5544892578125,-0.6517894268035889,0.9872047305107117,-0.8904016613960266
1772533246284422000,2.564421875,-0.3364804685115814,0.9999874830245972,-0.26311254501342773
1772533246294349000,2.57434912109375,-0.08095771074295044,0.910641074180603,0.2684387266635895
1772533246304281000,2.584281005859375,0.0010652330238372087,0.6880073547363281,0.5793536305427551
1772533246314220500,2.594220458984375,-0.09906667470932007,0.4898740351200104,0.6667027473449707
1772533246324153300,2.6041533203125,-0.31198012828826904,0.4579170346260071,0.5676360726356506
1772533246334080800,2.614080810546875,-0.4983958899974823,0.4877435564994812,0.38761165738105774
1772533246344013000,2.624012939453125,-0.5143743753433228,0.534613847732544,0.299330472946167
1772533246353942300,2.6339423828125,-0.3290238380432129,0.6240934133529663,0.4568518102169037
1772533246363874300,2.643874267578125,-0.10226237028837204,0.5995930433273315,0.7402037978172302
1772533246373808400,2.653808349609375,0.05432688444852829,0.3045234978199005,0.9286168813705444
1772533246383740700,2.66374072265625,0.1587197184562683,-0.11397993564605713,0.9074453711509705
1772533246393694700,2.67369482421875,0.22156846523284912,-0.5069177746772766,0.6997249722480774
1772533246403629300,2.68362939453125,0.22582940757274628,-0.7615084648132324,0.36417654156684875
1772533246413540000,2.6935400390625,0.17682868242263794,-0.7774869799613953,-0.02876129187643528
1772533246423472000,2.70347216796875,0.14380645751953125,-0.6208977103233337,-0.04367455467581749
1772533246433386000,2.713385986328125,0.06817491352558136,-0.9147688746452332,1.0330097675323486
1772533246443316200,2.723316162109375,-0.22050324082374573,-1.8296709060668945,2.6178102493286133
1772533246453266400,2.733266357421875,-0.37589409947395325,-2.5741355419158936,3.1705329418182373
1772533246463198700,2.74319873046875,-0.36524176597595215,-2.8467020988464355,2.4526989459991455
1772533246473131000,2.753131103515625,-0.05219641700387001,-2.683854579925537,0.703985869884491
1772533246483063000,2.76306298828125,0.4664389193058014,-2.0586960315704346,-1.4186240434646606
1772533246493004800,2.7730048828125,0.8211615085601807,-0.7210295796394348,-3.3367092609405518
1772533246502937900,2.782937744140625,1.0372706651687622,0.8733579516410828,-4.859592914581299
1772533246512863500,2.792863525390625,1.3696233034133911,2.0959792137145996,-5.712711334228516
1772533246522796000,2.802796142578125,1.833931803703308,2.638049602508545,-5.683950424194336
1772533246532724500,2.812724365234375,2.0970444679260254,2.306762218475342,-4.933094024658203
1772533246542656500,2.822656494140625,2.0395216941833496,1.4090369939804077,-3.738168954849243
1772533246552590600,2.832590576171875,1.850975513458252,0.39506828784942627,-2.487851619720459
1772533246562523000,2.84252294921875,1.6475160121917725,-0.3822855055332184,-1.5772106647491455
1772533246572434000,2.852433837890625,1.4122326374053955,-0.5846797823905945,-1.1107717752456665
1772533246582364000,2.862364013671875,1.1118369102478027,-0.32156720757484436,-0.9765523672103882
1772533246592319200,2.8723193359375,0.7316819429397583,0.01171756349503994,-1.0298140048980713
1772533246602252000,2.882251953125,0.3577851355075836,0.256721168756485,-1.0585752725601196
1772533246612182500,2.8921826171875,0.10013190656900406,0.32263246178627014,-0.8190310597419739
1772533246622115000,2.902114990234375,-0.08415340632200241,0.2226337045431137,-0.2684387266635895
1772533246632060400,2.912060302734375,-0.27269965410232544,0.10439283400774002,0.4547213613986969
1772533246641994000,2.921993896484375,-0.4579170346260071,0.0053261648863554,1.2279473543167114
1772533246651910100,2.93191015625,-0.6613765358924866,-0.09800143539905548,1.9915863275527954
1772533246661842200,2.94184228515625,-0.910641074180603,-0.2130466103553772,2.6913111209869385
1772533246671778600,2.951778564453125,-1.2055774927139282,-0.2652430236339569,3.237642526626587
1772533246681711000,2.961711181640625,-1.4995818138122559,-0.2119813710451126,3.547492265701294
1772533246691652400,2.97165234375,-1.7444522380828857,-0.11824086308479309,3.5964930057525635
1772533246701585700,2.981585693359375,-1.9393898248672485,-0.1278279572725296,3.4047510623931885
1772533246711482000,2.991482177734375,-2.085326910018921,-0.1704372763633728,2.993704319000244
1772533246721411800,3.001411865234375,-2.061891555786133,-0.0958709716796875,2.4388511180877686
1772533246731385000,3.011385009765625,-2.0448479652404785,0.1384802907705307,1.7529741525650024
1772533246741319200,3.021319091796875,-1.9425855875015259,0.550592303276062,0.8595098853111267
1772533246751213600,3.031213623046875,-1.61981999874115,0.7902697324752808,-0.04154408723115921
1772533246761143600,3.0411435546875,-1.230077862739563,0.8083786964416504,-0.6517894268035889
1772533246771076600,3.05107666015625,-0.9712262153625488,0.7721607685089111,-0.9021192193031311
1772533246781007000,3.061007080078125,-0.8659012913703918,0.6794854998588562,-0.9382039904594421
1772533246790945300,3.0709453125,-0.8605751395225525,0.44939517974853516,-0.8445966243743896
1772533246800876300,3.080876220703125,-0.9435301423072815,0.17789392173290253,-0.6752246022224426
1772533246810812200,3.090812255859375,-1.075619101524353,0.01917419396340847,-0.503722071647644
1772533246820743700,3.10074365234375,-1.1043803691864014,0,-0.32156720757484436
1772533246830675700,3.11067578125,-0.992530882358551,0.02023942768573761,-0.06178351491689682
1772533246840607200,3.120607177734375,-0.9808133244514465,-0.04047885537147522,0.3045234978199005
1772533246850572500,3.130572509765625,-1.2865351438522339,-0.27376487851142883,0.848857581615448
1772533246860507400,3.14050732421875,-1.8520407676696777,-0.6326152682304382,1.5644278526306152
1772533246870403000,3.150403076171875,-2.38452410697937,-0.8350095152854919,2.1194143295288086
1772533246880334000,3.160333984375,-2.563483238220215,-0.5676360726356506,2.1055662631988525
1772533246890300000,3.1702998046875,-2.2929141521453857,0.15126308798789978,1.452711582183838
1772533246900234500,3.180234375,-1.6155589818954468,0.7742912769317627,0.4770912528038025
1772533246910150100,3.190150146484375,-0.6485937833786011,1.1981208324432373,-0.23648172616958618
1772533246920082700,3.200082763671875,0.09480573982000351,1.5612322092056274,-0.41956865787506104
1772533246930014200,3.21001416015625,0.19919857382774353,1.7018429040908813,-0.3055887222290039
1772533246939946800,3.21994677734375,0.04154408723115921,1.5899934768676758,-0.20878566801548004
1772533246949879600,3.229879638671875,0.17576344311237335,1.3440577983856201,-0.15339355170726776
1772533246959812000,3.23981201171875,0.6230281591415405,0.9829437732696533,-0.0053261648863554
1772533246969746200,3.24974609375,1.1544462442398071,0.2972000241279602,0.23222079873085022
1772533246979679000,3.259678955078125,1.5260794162750244,-0.6049191951751709,0.527157187461853
1772533246989607000,3.26960693359375,1.5271446704864502,-1.2215559482574463,0.9467258453369141
1772533246999539200,3.279539306640625,1.0969237089157104,-1.3312749862670898,1.1736204624176025
1772533247009474300,3.289474365234375,0.535679042339325,-0.8935973644256592,0.6315500140190125
1772533247019406800,3.29940673828125,0.20452474057674408,-0.0426093190908432,-0.8158353567123413
1772533247029347600,3.30934765625,0.09480573982000351,0.8754884004592896,-2.812614679336548
1772533247039281200,3.31928125,0.04047885537147522,1.535666584968567,-4.66891622543335
1772533247049203000,3.329202880859375,0.04900071769952774,1.827540397644043,-5.7563862800598145
1772533247059135000,3.339135009765625,0.20558997988700867,1.7870615720748901,-5.907516002655029
1772533247069072400,3.349072265625,0.4121120274066925,1.4867990016937256,-5.24294376373291
1772533247079005200,3.359005126953125,0.5069177746772766,1.2183603048324585,-4.092758655548096
1772533247088933000,3.36893310546875,0.45898228883743286,1.1906641721725464,-2.906355142593384
1772533247098865400,3.378865478515625,0.22050324082374573,1.3600362539291382,-2.0768048763275146
1772533247108807000,3.388806884765625,-0.1704372763633728,1.3408620357513428,-1.71249520778656
1772533247118740200,3.398740234375,-0.5442008972167969,0.9264864325523376,-1.6166242361068726
1772533247128667400,3.40866748046875,-0.6592460870742798,0.5133091807365417,-1.4889295101165771
1772533247138600000,3.418599853515625,-0.5101134777069092,0.31198012828826904,-1.2183603048324585
1772533247148532700,3.42853271484375,-0.2652430236339569,0.15445879101753235,-0.8818798065185547
1772533247158465500,3.438465576171875,0.06284874677658081,0.02023942768573761,-0.42915576696395874
1772533247168391000,3.448390869140625,0.47176507115364075,0.02663082629442215,0.21943800151348114
1772533247178323000,3.458322998046875,0.8083786964416504,0.12463226169347763,0.9712262153625488
1772533247188254500,3.46825439453125,0.910641074180603,0.2439383566379547,1.6464507579803467
1772533247198186200,3.478186279296875,0.8190310597419739,0.36630702018737793,2.146977186203003
1772533247208126700,3.488126708984375,0.6709636449813843,0.42915576696395874,2.497438907623291
1772533247218059500,3.4980595703125,0.5452661514282227,0.44939517974853516,2.750831127166748
1772533247227994600,3.50799462890625,0.488808810710907,0.46217799186706543,2.928725004196167
1772533247237927700,3.517927734375,0.5165048837661743,0.4536561071872711,3.051226854324341
1772533247247826700,3.52782666015625,0.6091801524162292,0.4461994767189026,3.1236627101898193
1772533247257756400,3.53775634765625,0.7231600880622864,0.4461994767189026,3.0863795280456543
1772533247267711700,3.547711669921875,0.8190310597419739,0.5239614844322205,2.844571590423584
1772533247277644000,3.55764404296875,0.8669665455818176,0.6049191951751709,2.3653500080108643
1772533247287580400,3.567580322265625,0.8445966243743896,0.47069984674453735,1.7604306936264038
1772533247297513200,3.57751318359375,0.7508561015129089,-0.08415340632200241,1.2652305364608765
1772533247307441000,3.58744091796875,0.4121120274066925,-0.9328778386116028,1.0095746517181396
1772533247317373200,3.597373291015625,-0.02663082629442215,-1.5559059381484985,0.8861407041549683
1772533247327304000,3.607303955078125,-0.26098209619522095,-1.6933209896087646,0.7806826233863831
1772533247337236000,3.617236083984375,-0.32476291060447693,-1.267361044883728,0.4877435564994812
1772533247347171300,3.62717138671875,-0.2972000241279602,-0.5697665214538574,-0.07243584841489792
1772533247357103600,3.637103515625,-0.191741943359375,0.16724158823490143,-0.7519213557243347
1772533247367049200,3.64704931640625,-0.07137060910463333,0.8328790664672852,-1.3078398704528809
1772533247376982800,3.656982666015625,-0.01810896210372448,1.2716219425201416,-1.5527102947235107
1772533247386908400,3.666908447265625,-0.04793548583984375,1.3525795936584473,-1.4622986316680908
1772533247396841200,3.67684130859375,-0.10545806586742401,1.1682943105697632,-1.0926628112792969
1772533247406769200,3.68676904296875,-0.1278279572725296,0.9296821355819702,-0.5111786723136902
1772533247416701400,3.696701416015625,-0.09267527610063553,0.7359428405761719,0.17789392173290253
1772533247426638000,3.70663818359375,0.01384802907705307,0.6102453470230103,0.7966611385345459
1772533247436571000,3.71657080078125,0.14167599380016327,0.5015916228294373,1.1256849765777588
1772533247446490400,3.726490478515625,0.1395455300807953,0.4664389193058014,1.099054217338562
1772533247456422000,3.736421875,0.03728315606713295,-0.08308817446231842,0.37482887506484985
1772533247466358500,3.746358642578125,-0.05219641700387001,-1.230077862739563,-0.9744219183921814
1772533247476290600,3.75629052734375,-0.13102366030216217,-2.2108912467956543,-2.3025012016296387
1772533247486222300,3.766222412109375,-0.12143656611442566,-2.3642847537994385,-3.1513588428497314
1772533247496154000,3.776154052734375,-0.01810896210372448,-1.89784574508667,-3.5027525424957275
1772533247506087000,3.7860869140625,0.18961147964000702,-0.9957265853881836,-3.2674691677093506
1772533247516019000,3.79601904296875,0.2982652485370636,0.2119813710451126,-2.5315263271331787
1772533247525950000,3.805949951171875,0.14167599380016327,0.9286168813705444,-1.6144938468933105
1772533247535881700,3.8158818359375,-0.05219641700387001,0.5143743753433228,-0.7934654355049133
1772533247545824800,3.82582470703125,-0.11291470378637314,-0.7987915873527527,-0.13208889961242676
1772533247555757800,3.8357578125,-0.11397993564605713,-1.8797367811203003,0.26311254501342773
1772533247565691000,3.84569091796875,-0.28441721200942993,-1.8765411376953125,0.0532616525888443
1772533247575624000,3.8556240234375,-0.5814840793609619,-0.931812584400177,-0.9669652581214905
1772533247585544700,3.865544677734375,-0.6464632749557495,0.35565468668937683,-2.271609306335449
1772533247595476700,3.875476806640625,-0.46004751324653625,1.3919932842254639,-3.0767924785614014
1772533247605409000,3.885408935546875,-0.2652430236339569,1.9692163467407227,-3.208881378173828
1772533247615341000,3.895341064453125,-0.14593692123889923,1.9894558191299438,-2.764679193496704
1772533247625284400,3.905284423828125,-0.02982652559876442,1.5782759189605713,-1.8073009252548218
1772533247635217400,3.915217529296875,0.11397993564605713,1.099054217338562,-0.7625737190246582
1772533247645142300,3.925142333984375,0.2652430236339569,0.695464015007019,-0.11930610239505768
1772533247655074300,3.93507421875,0.34074142575263977,0.5058525204658508,0.05858781561255455
1772533247665004800,3.9450048828125,0.30984964966773987,0.7284862399101257,-0.07989247888326645
1772533247684879000,3.964879150390625,0.27056917548179626,1.4388635158538818,-0.5687012672424316
1772533247694812000,3.97481201171875,0.37589409947395325,1.3280792236328125,-0.5601794123649597
1772533247704694300,3.9846943359375,0.47283029556274414,0.8286181092262268,-0.3460675776004791
1772533247724595000,4.004594970703125,0.5687012672424316,-0.4110468029975891,0.5452661514282227
1772533247734531000,4.014531005859375,0.8275529146194458,-0.7295514941215515,1.1906641721725464
1772533247744460000,4.0244599609375,1.155511498451233,-0.7902697324752808,1.8381927013397217
1772533247754395100,4.03439501953125,1.4250154495239258,-0.7764217257499695,2.376002311706543
1772533247764326000,4.044325927734375,1.5335360765457153,-0.7295514941215515,2.7232682704925537
1772533247774260700,4.0542607421875,1.4804075956344604,-0.6528546810150146,2.8605501651763916
1772533247784200000,4.064199951171875,1.3557753562927246,-0.5868102312088013,2.8104841709136963
1772533247794135300,4.07413525390625,1.2130341529846191,-0.6422023773193359,2.549635171890259
1772533247804053800,4.0840537109375,1.1192935705184937,-0.9275516271591187,2.0501739978790283
1772533247813987300,4.0939873046875,1.1129021644592285,-1.3323402404785156,1.4047760963439941
1772533247823919900,4.103919921875,1.1299458742141724,-1.5239490270614624,0.8211615085601807
1772533247833853400,4.113853515625,1.1597723960876465,-1.2950570583343506,0.39719876646995544
1772533247843783200,4.123783203125,1.1704248189926147,-0.8296833634376526,0.03302222490310669
1772533247853716200,4.13371630859375,1.1235545873641968,-0.2577863931655884,-0.3577851355075836
1772533247863652400,4.14365234375,1.0085093975067139,0.2545906901359558,-0.7295514941215515
1772533247873586000,4.1535859375,0.7913349866867065,0.5591141581535339,-0.9659000635147095
1772533247883516700,4.1635166015625,0.4866783320903778,0.7018554210662842,-1.0159659385681152
1772533247893450000,4.173449951171875,0.2886781394481659,0.7860088348388672,-0.8637708425521851
1772533247903388700,4.183388671875,0.3055887222290039,0.8382052183151245,-0.5101134777069092
1772533247913322500,4.193322509765625,0.40785109996795654,0.8286181092262268,-0.03941362351179123
1772533247923216400,4.20321630859375,0.4952002167701721,0.7924002408981323,0.48028692603111267
1772533247933146400,4.213146484375,0.5772231221199036,0.7615084648132324,1.0575101375579834
1772533247943115000,4.223114990234375,0.57296222448349,0.6667027473449707,1.6634944677352905
1772533247953048600,4.233048583984375,0.3077192008495331,0.5218310356140137,2.165086030960083
1772533247962950000,4.242949951171875,-0.18641577661037445,0.39506828784942627,2.4026331901550293
1772533247972880400,4.25288037109375,-0.6613765358924866,0.30146095156669617,2.3131535053253174
1772533247982810400,4.262810302734375,-0.8659012913703918,0.22795987129211426,1.935128927230835
1772533247992740900,4.272740966796875,-0.7199643850326538,0.18854624032974243,1.4260807037353516
1772533248002681600,4.282681640625,-0.423829585313797,0.06604444980621338,0.9147688746452332
1772533248012612900,4.29261279296875,-0.2354165017604828,-0.11504516750574112,0.47069984674453735
1772533248022540800,4.302540771484375,-0.20878566801548004,-0.1810896098613739,0.09800143539905548
1772533248032471800,4.312471923828125,-0.30252617597579956,-0.2897433936595917,-0.28441721200942993
1772533248042410800,4.32241064453125,-0.3908073604106903,-0.5420704483985901,-0.5655055642127991
1772533248052342800,4.3323427734375,-0.34180665016174316,-0.8690969944000244,-0.5090482234954834
1772533248062270000,4.34227001953125,-0.10119713842868805,-1.1938599348068237,-0.23222079873085022
1772533248072201200,4.352201171875,0.14061075448989868,-1.3589709997177124,-0.23115555942058563
1772533248082135300,4.36213525390625,0.18748101592063904,-1.2119688987731934,-0.5761579275131226
1772533248092067000,4.372067138671875,0.3055887222290039,-0.07030537724494934,-0.335415244102478
1772533248102026000,4.38202587890625,0.7103772759437561,1.283339500427246,0.5676360726356506
1772533248111960600,4.391960693359375,0.7764217257499695,0.895727813243866,0.6912030577659607
1772533248121862000,4.40186181640625,0.5090482234954834,0.0063913981430232525,0.0159784946590662
1772533248131793200,4.411793212890625,0.2673735022544861,-0.04687025398015976,-0.6326152682304382
1772533248141751800,4.421751708984375,-0.01384802907705307,0.2780258059501648,-0.9999874830245972
1772533248151685600,4.431685546875,-0.14061075448989868,0.5548532605171204,-1.1192935705184937
1772533248161625900,4.4416259765625,0.03941362351179123,0.6549851298332214,-1.0734885931015015
1772533248171560400,4.451560546875,0.23648172616958618,0.4579170346260071,-0.9840090274810791
1772533248181482200,4.461482177734375,0.24713405966758728,0.1267627328634262,-0.9168993234634399
1772533248191415600,4.47141552734375,0.23754696547985077,-0.19493764638900757,-0.8861407041549683
1772533248201353700,4.481353759765625,0.2236989289522171,-0.4334166944026947,-0.887205958366394
1772533248211287300,4.491287353515625,0.10332760214805603,-0.44300377368927,-0.8829450011253357
1772533248221205200,4.501205322265625,-0.08415340632200241,-0.20772044360637665,-0.8690969944000244
1772533248231137500,4.511137451171875,-0.18641577661037445,0.11611039936542511,-0.788139283657074
1772533248241083400,4.52108349609375,-0.10332760214805603,0.4973306655883789,-0.46217799186706543
1772533248251017000,4.531016845703125,0.07563154399394989,0.8232919573783875,0.10013190656900406
1772533248260941300,4.54094140625,0.20772044360637665,0.9010539650917053,0.6741593480110168
1772533248270874000,4.5508740234375,0.2876129150390625,0.6869421601295471,1.1001193523406982
1772533248280806400,4.560806396484375,0.33008909225463867,0.316241055727005,1.3685581684112549
1772533248290739200,4.5707392578125,0.3673722445964813,-0.02023942768573761,1.5166255235671997
1772533248300673300,4.58067333984375,0.4557865858078003,-0.2354165017604828,1.5495145320892334
1772533248310606000,4.590606201171875,0.550592303276062,-0.34287187457084656,1.4761466979980469
1772533248320534500,4.600534423828125,0.5857450366020203,-0.3790898025035858,1.330209732055664
1772533248330466800,4.610466796875,0.5708317756652832,-0.41637295484542847,1.1129021644592285
1772533248340401000,4.62040087890625,0.5527228116989136,-0.4632432162761688,0.7817478775978088
1772533248350333400,4.63033349609375,0.5484618544578552,-0.5186353325843811,0.3066539466381073
1772533248360238600,4.640238525390625,0.49200451374053955,-0.6038539409637451,-0.2780258059501648
1772533248370168300,4.650168212890625,0.42809051275253296,-0.7955959439277649,-0.8531184792518616
1772533248380121300,4.660121337890625,0.48135218024253845,-1.1160979270935059,-1.2023817300796509
1772533248390053400,4.670053466796875,0.6283543109893799,-1.3653624057769775,-1.259904384613037
1772533248400006000,4.680005859375,0.7710955739021301,-1.400515079498291,-1.1661638021469116
1772533248409940200,4.689940185546875,0.8424661755561829,-1.2662957906723022,-1.1129021644592285
1772533248419855000,4.699855224609375,0.7870740294456482,-1.1650986671447754,-1.1512506008148193
1772533248429787400,4.709787353515625,0.5761579275131226,-1.2290126085281372,-1.1938599348068237
1772533248439720700,4.719720703125,0.2013290375471115,-1.459102988243103,-1.175750970840454
1772533248449653000,4.729653076171875,-0.2673735022544861,-1.8754758834838867,-1.1022498607635498
1772533248459595500,4.739595458984375,-0.6517894268035889,-2.2620222568511963,-0.9137036204338074
1772533248469528800,4.74952880859375,-0.788139283657074,-2.4292638301849365,-0.6411371231079102
1772533248479425300,4.75942529296875,-0.6624417901039124,-2.1906516551971436,-0.38761165738105774
1772533248489354800,4.769354736328125,-0.48241740465164185,-1.3408620357513428,-0.22689463198184967
1772533248499312400,4.7793125,-0.44939517974853516,-0.19919857382774353,-0.24287313222885132
1772533248509244700,4.78924462890625,-0.6262238621711731,0.7519213557243347,-0.4451342523097992
1772533248519177700,4.799177734375,-0.9754871129989624,1.3014484643936157,-0.6262238621711731
1772533248529110300,4.8091103515625,-1.3557753562927246,1.3824061155319214,-0.6475285291671753
1772533248539079000,4.819078857421875,-1.6432551145553589,1.0926628112792969,-0.5612446665763855
1772533248549015000,4.82901513671875,-1.74338698387146,0.5527228116989136,-0.40891632437705994
1772533248558880800,4.838880859375,-1.6475160121917725,-0.10545806586742401,-0.18748101592063904
1772533248568810000,4.84881005859375,-1.4346026182174683,-0.6539199352264404,0.09693620353937149
1772533248578770000,4.85877001953125,-1.1437939405441284,-0.82648766040802,0.3695026934146881
1772533248588702200,4.8687021484375,-0.8296833634376526,-0.596397340297699,0.5165048837661743
1772533248598637800,4.878637939453125,-0.6315500140190125,-0.3173062801361084,0.534613847732544
1772533248608570000,4.888570068359375,-0.7774869799613953,-0.4994611442089081,0.38548120856285095
1772533248618498600,4.89849853515625,-1.290796160697937,-1.2844047546386719,-0.02769605815410614
1772533248628430600,4.9084306640625,-1.8594974279403687,-2.122609853744507,-0.6560503840446472
1772533248638365400,4.918365478515625,-2.1395206451416016,-1.9404550790786743,-1.2183603048324585
1772533248648297700,4.928297607421875,-2.102370500564575,-0.6049191951751709,-1.7774744033813477
1772533248658232000,4.938232177734375,-1.6144938468933105,1.0596405267715454,-2.4122202396392822
1772533248668164600,4.94816455078125,-0.6709636449813843,2.3653500080108643,-2.5965054035186768
1772533248678092500,4.958092529296875,0.02023942768573761,3.0618791580200195,-1.9660207033157349
1772533248688024800,4.96802490234375,0.06497921794652939,3.082118511199951,-0.7306166887283325
1772533248707896000,4.98789599609375,0,1.4037108421325684,1.1501853466033936
1772533248717824800,4.99782470703125,0.2790910601615906,0.5761579275131226,1.4015803337097168
1772533248727757300,5.00775732421875,0.6070496439933777,-0.05432688444852829,1.3046441078186035
1772533248737699800,5.017699951171875,0.8200962543487549,-0.335415244102478,0.9829437732696533
1772533248747633200,5.027633056640625,0.811574399471283,-0.3183715343475342,0.4994611442089081
1772533248757526500,5.037526611328125,0.7284862399101257,-0.1704372763633728,0.0010652330238372087
1772533248767455700,5.047455810546875,0.6730940937995911,-0.06710968166589737,-0.3386109471321106
1772533248777415200,5.057415283203125,0.5868102312088013,-0.1704372763633728,-0.4440690279006958
1772533248787347700,5.06734765625,0.535679042339325,-0.40572062134742737,-0.23115555942058563
1772533248797282300,5.0772822265625,0.6166367530822754,-0.6922683119773865,0.26950395107269287
1772533248807214800,5.08721484375,0.6848116517066956,-1.0649666786193848,0.8978582620620728
1772533248817147600,5.097147705078125,0.6208977103233337,-1.3834713697433472,1.5187560319900513
1772533248827080200,5.107080078125,0.4898740351200104,-1.4101022481918335,1.9532378911972046
1772533248837021200,5.117021240234375,0.3940030634403229,-1.0425968170166016,2.0352609157562256
1772533248846954800,5.126954833984375,0.40891632437705994,-0.36311131715774536,1.764691710472107
1772533248856878600,5.136878662109375,0.5250267386436462,0.3908073604106903,1.2822742462158203
1772533248866811100,5.14681103515625,0.6549851298332214,1.0276836156845093,0.7849435806274414
1772533248876742700,5.15674267578125,0.7742912769317627,1.4431244134902954,0.4781564772129059
1772533248886675000,5.166675048828125,0.8850755095481873,1.5027774572372437,0.42596006393432617
1772533248896607200,5.176607177734375,0.9754871129989624,1.1043803691864014,0.49093925952911377
1772533248906539500,5.18653955078125,0.9818785190582275,0.3833507299423218,0.49306973814964294
1772533248916482300,5.196482421875,0.8179658055305481,-0.3066539466381073,0.32156720757484436
1772533248926416000,5.206415771484375,0.549527108669281,-0.7071815729141235,-0.02982652559876442
1772533248936331800,5.216331787109375,0.3471328020095825,-0.8211615085601807,-0.5026568174362183
1772533248946263600,5.226263671875,0.2748301327228546,-0.7913349866867065,-1.0340749025344849
1772533248956210000,5.2362099609375,0.29400432109832764,-0.6528546810150146,-1.5324708223342896
1772533248966143000,5.24614306640625,0.3066539466381073,-0.35565468668937683,-1.8999762535095215
1772533248976061400,5.2560615234375,0.2652430236339569,0.11184946447610855,-2.0682830810546875
1772533248985993000,5.265992919921875,0.23115555942058563,0.6102453470230103,-2.0075647830963135
1772533248995933200,5.27593310546875,0.20026381313800812,0.9829437732696533,-1.7220823764801025
1772533249005865700,5.28586572265625,0.06604444980621338,1.185338020324707,-1.3131660223007202
1772533249015789600,5.29578955078125,-0.13208889961242676,1.2013165950775146,-0.8733579516410828
1772533249025721000,5.30572119140625,-0.28015628457069397,1.063901424407959,-0.43661239743232727
1772533249035652600,5.315652587890625,-0.3673722445964813,0.9010539650917053,-0.09480573982000351
1772533249045584100,5.325584228515625,-0.44832995533943176,0.7849435806274414,0.07882724702358246
1772533249055517000,5.335516845703125,-0.5324833393096924,0.7465952038764954,0.06817491352558136
1772533249065448700,5.34544873046875,-0.5697665214538574,0.7742912769317627,-0.08095771074295044
1772533249075379200,5.355379150390625,-0.5239614844322205,0.8818798065185547,-0.2748301327228546
1772533249085310700,5.365310791015625,-0.40678587555885315,1.1949251890182495,-0.40998154878616333
1772533249095250200,5.375250244140625,-0.24074266850948334,1.7444522380828857,-0.423829585313797
1772533249105182700,5.3851826171875,-0.05006595328450203,2.2194130420684814,-0.2886781394481659
1772533249115089400,5.39508935546875,0.17789392173290253,2.414350748062134,0.05539211630821228
1772533249125019100,5.40501904296875,0.4334166944026947,2.2662832736968994,0.6507242321968079
1772533249134956300,5.414956298828125,0.5750926733016968,1.696516752243042,1.3632320165634155
1772533249144886800,5.42488671875,0.47176507115364075,0.8904016613960266,2.0214128494262695
1772533249154832000,5.434831787109375,0.2854824364185333,0.09906667470932007,2.4995691776275635
1772533249164764000,5.444763916015625,0.20026381313800812,-0.8477923274040222,2.6646804809570312
1772533249174684000,5.454683837890625,0.28122150897979736,-2.1682817935943604,2.455894708633423
1772533249184615000,5.464614990234375,0.38548120856285095,-3.5208613872528076,1.9500422477722168
1772533249194551800,5.4745517578125,0.488808810710907,-3.892627716064453,1.567623496055603
1772533249204483300,5.4844833984375,0.3705679476261139,-3.2759909629821777,1.1864032745361328
1772533249214434000,5.49443408203125,0.07350108027458191,-2.7444398403167725,0.45046040415763855
1772533249224367600,5.50436767578125,-0.0532616525888443,-2.048043727874756,-0.30252617597579956
1772533249234313700,5.514313720703125,-0.30252617597579956,-0.3940030634403229,-0.825422465801239
1772533249244248600,5.52424853515625,-0.5793536305427551,1.7263432741165161,-1.099054217338562
1772533249254144500,5.53414453125,-0.4994611442089081,2.868006706237793,-1.0905323028564453
1772533249264075500,5.544075439453125,-0.22689463198184967,2.6156797409057617,-0.8776188492774963
1772533249274006000,5.554006103515625,0.05113118514418602,1.4953209161758423,-0.5378095507621765
1772533249283936800,5.563936767578125,0.23648172616958618,0.05539211630821228,-0.15765449404716492
1772533249293873700,5.573873779296875,0.2769605815410614,-1.2151645421981812,0.10865376889705658
1772533249303805200,5.58380517578125,0.3055887222290039,-2.085326910018921,0.10545806586742401
1772533249313757700,5.5937578125,0.3599156141281128,-2.376002311706543,-0.2556559145450592
1772533249323691300,5.603691162109375,0.3695026934146881,-1.7614959478378296,-0.7902697324752808
1772533249333623300,5.613623291015625,0.27269965410232544,-0.3822855055332184,-1.2492520809173584
1772533249343556600,5.623556640625,0.1597849577665329,0.9957265853881836,-1.5187560319900513
1772533249353462000,5.6334619140625,0.15765449404716492,1.7817354202270508,-1.4889295101165771
1772533249363392500,5.643392578125,0.21517707407474518,1.9713468551635742,-1.0670971870422363
1772533249373332000,5.65333203125,0.13528458774089813,1.7252780199050903,-0.4014596939086914
1772533249383263500,5.663263427734375,-0.07243584841489792,1.1523158550262451,0.3066539466381073
1772533249393216300,5.67321630859375,-0.2439383566379547,0.5431357026100159,0.9477910995483398
1772533249403149800,5.68314990234375,-0.34287187457084656,0.10865376889705658,1.3898627758026123
1772533249413080600,5.69308056640625,-0.43661239743232727,-0.12463226169347763,1.5846673250198364
1772533249423014000,5.703013916015625,-0.5069177746772766,-0.25991687178611755,1.5601669549942017
1772533249432916500,5.71291650390625,-0.47069984674453735,-0.32369768619537354,1.337666392326355
1772533249442846500,5.722846435546875,-0.3364804685115814,-0.23115555942058563,0.9829437732696533
1772533249452807400,5.732807373046875,-0.1928071826696396,-0.1395455300807953,0.574027419090271
1772533249462740700,5.74274072265625,-0.09480573982000351,-0.18961147964000702,0.16830681264400482
1772533249472677000,5.752677001953125,-0.09906667470932007,-0.1374150663614273,-0.16830681264400482
1772533249482610700,5.762610595703125,-0.18961147964000702,0.18854624032974243,-0.37589409947395325
1772533249492552200,5.77255224609375,-0.2556559145450592,0.5846797823905945,-0.4334166944026947
1772533249502486500,5.782486572265625,-0.20985090732574463,0.7849435806274414,-0.33435001969337463
1772533249512416500,5.79241650390625,-0.12569749355316162,0.6837464570999146,-0.1267627328634262
1772533249522350600,5.8023505859375,-0.06071828305721283,0.30146095156669617,0.08841434121131897
1772533249532264000,5.812263916015625,-0.03621792420744896,-0.1928071826696396,0.24819929897785187
1772533249542195700,5.82219580078125,-0.07776200771331787,-0.5143743753433228,0.3087844252586365
1772533249552130300,5.83213037109375,-0.1171756312251091,-0.4547213613986969,0.23648172616958618
1772533249562062300,5.842062255859375,-0.13421936333179474,-0.11504516750574112,0.05965305119752884
1772533249572049700,5.852049560546875,-0.15126308798789978,0.3077192008495331,-0.13102366030216217
1772533249581987300,5.8619873046875,-0.16404588520526886,0.658180832862854,-0.27376487851142883
1772533249591858200,5.871858154296875,-0.24180789291858673,0.8552489876747131,-0.36417654156684875
1772533249601789200,5.8817890625,-0.46004751324653625,0.8648360371589661,-0.4025249183177948
1772533249611729700,5.891729736328125,-0.6443328261375427,0.6645722389221191,-0.3364804685115814
1772533249621661400,5.901661376953125,-0.6326152682304382,0.23222079873085022,-0.20452474057674408
1772533249631589600,5.911589599609375,-0.5005263686180115,-0.10758853703737259,-0.13528458774089813
1772533249641521200,5.921521240234375,-0.24074266850948334,-0.0852186381816864,-0.06924014538526535
1772533249651456000,5.9314560546875,0.09161003679037094,0.03941362351179123,0.03941362351179123
1772533249661387800,5.9413876953125,0.36630702018737793,-0.04900071769952774,0.21730753779411316
1772533249671314200,5.951314208984375,0.488808810710907,-0.57296222448349,0.5228962898254395
1772533249681245700,5.96124560546875,0.3077192008495331,-1.468690037727356,0.8414009213447571
1772533249691182600,5.9711826171875,-0.03515268862247467,-2.19917368888855,0.9893351793289185
1772533249701114600,5.981114501953125,-0.27056917548179626,-2.351501941680908,0.7593780159950256
1772533249711046000,5.9910458984375,-0.335415244102478,-1.8605626821517944,0.02663082629442215
1772533249720977700,6.000977783203125,-0.3833507299423218,-1.0191617012023926,-1.1182283163070679
1772533249730922200,6.010922119140625,-0.4962654411792755,-0.0063913981430232525,-1.9947819709777832
1772533249740855300,6.020855224609375,-0.5399399995803833,1.0596405267715454,-1.820083737373352
1772533249750774500,6.0307744140625,-0.48241740465164185,1.3334054946899414,-1.153381109237671
1772533249760706300,6.040706298828125,-0.3194367587566376,0.9117063283920288,-0.6890726089477539
1772533249770642000,6.050641845703125,-0.03302222490310669,0.8158353567123413,-0.25032976269721985
1772533249780574000,6.060573974609375,0.2673735022544861,1.0287487506866455,0.3673722445964813
1772533249790506200,6.07050634765625,0.43661239743232727,0.9095758199691772,0.977617621421814
1772533249800438300,6.080438232421875,0.6400718688964844,0.4866783320903778,1.347253441810608
1772533249810346500,6.090346435546875,0.9765523672103882,0.03515268862247467,1.4356677532196045
1772533249820276200,6.100276123046875,1.253512978553772,-0.3492632806301117,1.3621667623519897
1772533249830211000,6.110211181640625,1.3195574283599854,-0.7444647550582886,1.1608376502990723
1772533249840141300,6.120141357421875,1.216229796409607,-1.0351401567459106,0.8414009213447571
1772533249850100000,6.130099853515625,1.014900803565979,-0.9850742220878601,0.46111273765563965
1772533249860033000,6.140032958984375,0.7966611385345459,-0.619832456111908,0.04580501839518547
1772533249869961000,6.1499609375,0.6219629049301147,-0.04900071769952774,-0.3716331720352173
1772533249879893500,6.1598935546875,0.5292876362800598,0.5537880063056946,-0.6848116517066956
1772533249889827600,6.16982763671875,0.5697665214538574,0.9147688746452332,-0.7135729789733887
1772533249899760000,6.179760009765625,0.6453980803489685,0.7519213557243347,-0.4014596939086914
1772533249909711600,6.189711669921875,0.634745717048645,0.16724158823490143,0.15658925473690033
1772533249919646200,6.199646240234375,0.5527228116989136,-0.49413496255874634,0.8360747694969177
1772533249929556500,6.209556396484375,0.4653736650943756,-0.9893351793289185,1.4697552919387817
1772533249939488500,6.219488525390625,0.43980807065963745,-1.07135808467865,1.8626930713653564
1772533249949419300,6.229419189453125,0.5239614844322205,-0.6422023773193359,1.948976993560791
1772533249959351300,6.239351318359375,0.6177020072937012,0.06924014538526535,1.8403232097625732
1772533249969284400,6.249284423828125,0.618767261505127,0.6528546810150146,1.6688207387924194
1772533249979216400,6.25921630859375,0.5207657814025879,0.8286181092262268,1.468690037727356
1772533249989153300,6.2691533203125,0.38654643297195435,0.46217799186706543,1.2662957906723022
1772533249999085800,6.2790859375,0.2460688352584839,-0.40891632437705994,1.091597557067871
1772533250009014800,6.289014892578125,0.11824086308479309,-1.445254921913147,0.9456605911254883
1772533250018947000,6.298947021484375,0.1171756312251091,-2.3078272342681885,0.9200950264930725
1772533250028890400,6.308890380859375,0.22156846523284912,-2.928725004196167,1.054314374923706
1772533250038823700,6.31882373046875,0.37695932388305664,-3.1524240970611572,1.3270140886306763
1772533250048722000,6.328721923828125,0.5197005867958069,-2.9255292415618896,1.6379289627075195
1772533250058652000,6.33865185546875,0.5910711884498596,-2.421807289123535,1.8104966878890991
1772533250068605000,6.34860498046875,0.6208977103233337,-1.8009096384048462,1.6986472606658936
1772533250078537000,6.358536865234375,0.5623098611831665,-1.2311431169509888,1.2183603048324585
1772533250088474600,6.368474609375,0.3290238380432129,-0.7902697324752808,0.5026568174362183
1772533250098407200,6.3784072265625,-0.04367455467581749,-0.4675041437149048,-0.18641577661037445
1772533250108343000,6.388343017578125,-0.3620460629463196,-0.15339355170726776,-0.6517894268035889
1772533250118276000,6.398276123046875,-0.5399399995803833,0.29400432109832764,-0.9147688746452332
1772533250128199700,6.40819970703125,-0.6539199352264404,0.8509880304336548,-1.099054217338562
1772533250138131700,6.418131591796875,-0.718899130821228,1.3387316465377808,-1.2194255590438843
1772533250148062000,6.42806201171875,-0.7167686820030212,1.5899934768676758,-1.1917294263839722
1772533250157993700,6.43799365234375,-0.7199643850326538,1.5409927368164062,-0.9680305123329163
1772533250167932000,6.447931884765625,-0.7966611385345459,1.267361044883728,-0.6272891163825989
1772533250177864400,6.457864501953125,-0.9435301423072815,0.8999887704849243,-0.33008909225463867
1772533250187798500,6.467798583984375,-1.1033151149749756,0.6422023773193359,-0.17576344311237335
1772533250197731000,6.47773095703125,-1.1448591947555542,0.5420704483985901,-0.1597849577665329
1772533250207636500,6.487636474609375,-0.9531172513961792,0.6070496439933777,-0.1906767040491104
1772533250217566200,6.497566162109375,-0.5846797823905945,0.7998568415641785,-0.14700216054916382
1772533250227536100,6.5075361328125,-0.26098209619522095,0.7678998708724976,-0.0106523297727108
1772533250237470200,6.51747021484375,-0.13634982705116272,0.16298064589500427,0.16617634892463684
1772533250247391500,6.5273916015625,-0.15445879101753235,-0.9488562941551208,0.35565468668937683
1772533250257324300,6.53732421875,-0.17895914614200592,-2.1236751079559326,0.3481980562210083
1772533250267256800,6.5472568359375,-0.13421936333179474,-2.876528739929199,-0.1065233051776886
1772533250277189600,6.557189697265625,-0.07243584841489792,-2.5453743934631348,-0.9382039904594421
1772533250287126300,6.567126220703125,-0.2119813710451126,-0.8818798065185547,-1.612363338470459
1772533250297059300,6.577059326171875,-0.6858769059181213,1.14592444896698,-1.729538917541504
1772533250306986800,6.58698681640625,-1.1033151149749756,2.084261655807495,-1.6581683158874512
1772533250316919000,6.5969189453125,-1.1938599348068237,2.249239444732666,-1.598515272140503
1772533250326826200,6.606826171875,-1.138467788696289,2.463351249694824,-1.4473854303359985
1772533250336756200,6.616756103515625,-1.0436620712280273,2.552830934524536,-1.2865351438522339
1772533250346689000,6.62668896484375,-0.8062482476234436,2.290783643722534,-1.1033151149749756
1772533250356619300,6.636619384765625,-0.26098209619522095,1.7987791299819946,-0.7167686820030212
1772533250366639600,6.6466396484375,0.41850343346595764,1.3248835802078247,-0.11930610239505768
1772533250376579000,6.6565791015625,0.8616403341293335,0.9085106253623962,0.4643084406852722
1772533250386418400,6.66641845703125,1.0127702951431274,0.503722071647644,0.7977263927459717
1772533250396348000,6.676347900390625,1.0180964469909668,0.17576344311237335,0.8307486176490784
1772533250406317300,6.6863173828125,0.931812584400177,0.04154408723115921,0.7157034277915955
1772533250416250600,6.696250732421875,0.7828131318092346,0.16724158823490143,0.596397340297699
1772533250426151200,6.706151123046875,0.5580489635467529,0.5133091807365417,0.45046040415763855
1772533250436081200,6.7160810546875,0.27163442969322205,0.9275516271591187,0.2236989289522171
1772533250446012000,6.726011962890625,0.0159784946590662,1.1981208324432373,-0.04900071769952774
1772533250455942100,6.735942138671875,-0.05752258375287056,1.3121007680892944,-0.24074266850948334
1772533250465877500,6.74587744140625,0.1171756312251091,1.3291444778442383,-0.19493764638900757
1772533250475808000,6.75580810546875,0.3705679476261139,1.2151645421981812,0.07989247888326645
1772533250485747700,6.765747802734375,0.5825493335723877,0.8861407041549683,0.4781564772129059
1772533250495679200,6.77567919921875,0.7561823129653931,0.4983958899974823,0.9328778386116028
1772533250505628200,6.785628173828125,0.8456618785858154,0.23754696547985077,1.3866671323776245
1772533250515561500,6.7955615234375,0.8073135018348694,-0.03408745676279068,1.7284737825393677
1772533250525493000,6.805492919921875,0.6624417901039124,-0.447264701128006,1.8190184831619263
1772533250535426000,6.815426025390625,0.49093925952911377,-0.8946625590324402,1.598515272140503
1772533250545356000,6.82535595703125,0.3780245780944824,-1.2918612957000732,1.1342068910598755
1772533250555288800,6.835288818359375,0.3194367587566376,-1.4942556619644165,0.5623098611831665
1772533250565216000,6.845216064453125,0.3077192008495331,-1.4580377340316772,-0.04367455467581749
1772533250575148300,6.855148193359375,0.35245898365974426,-1.353644847869873,-0.611310601234436
1772533250585086700,6.865086669921875,0.4248948097229004,-1.2236864566802979,-1.0745538473129272
1772533250595019500,6.87501953125,0.49306973814964294,-1.1416635513305664,-1.3802757263183594
1772533250604928300,6.88492822265625,0.5463314056396484,-1.0830756425857544,-1.5346013307571411
1772533250614858800,6.894858642578125,0.5676360726356506,-0.9808133244514465,-1.5878629684448242
1772533250624796000,6.9047958984375,0.5452661514282227,-0.8605751395225525,-1.5548408031463623
1772533250634727200,6.91472705078125,0.47069984674453735,-0.7476604580879211,-1.4111675024032593
1772533250644682200,6.92468212890625,0.30984964966773987,-0.6134410500526428,-1.169359564781189
1772533250654615800,6.93461572265625,0.06604444980621338,-0.38654643297195435,-0.9063801765441895
1772533250664549400,6.94454931640625,-0.1267627328634262,-0.07669677585363388,-0.7018554210662842
1772533250674483000,6.95448291015625,-0.1171756312251091,0.16724158823490143,-0.5303528904914856
1772533250684411600,6.96441162109375,0.04154408723115921,0.2790910601615906,-0.3279586136341095
1772533250694344700,6.9743447265625,0.191741943359375,0.24074266850948334,-0.10439283400774002
1772533250704272100,6.984272216796875,0.19813334941864014,-0.0426093190908432,0.10332760214805603
1772533250714204700,6.99420458984375,0.0159784946590662,-0.5090482234954834,0.2769605815410614
1772533250724141600,7.0041416015625,-0.24180789291858673,-0.8690969944000244,0.42596006393432617
1772533250734074400,7.014074462890625,-0.41637295484542847,-0.825422465801239,0.503722071647644
1772533250744003300,7.02400341796875,-0.46217799186706543,-0.4227643609046936,0.45152565836906433
1772533250753936000,7.033935791015625,-0.4344819188117981,0.10013190656900406,0.33435001969337463
1772533250763865600,7.043865478515625,-0.3386109471321106,0.5015916228294373,0.3364804685115814
1772533250773798000,7.0537978515625,-0.22156846523284912,0.5942668914794922,0.534613847732544
1772533250783707600,7.063707763671875,-0.17363297939300537,0.33435001969337463,0.718899130821228
1772533250793637600,7.0736376953125,-0.2013290375471115,-0.13208889961242676,0.7338123917579651
1772533250803591000,7.0835908203125,-0.2460688352584839,-0.618767261505127,0.5985277891159058
1772533250813523200,7.093523193359375,-0.29400432109832764,-0.9424648880958557,0.20558997988700867
1772533250823464400,7.10346435546875,-0.44832995533943176,-1.0862714052200317,-0.7082468271255493
1772533250833397800,7.113397705078125,-0.7615084648132324,-0.8318138122558594,-2.0022385120391846
1772533250843326700,7.12332666015625,-1.068162441253662,0.12037133425474167,-2.8083536624908447
1772533250853259500,7.133259521484375,-1.2098383903503418,0.9722914695739746,-2.873332977294922
1772533250863197000,7.143197021484375,-1.292926549911499,0.8531184792518616,-2.6625499725341797
1772533250873130200,7.153130126953125,-1.4431244134902954,0.1395455300807953,-2.3781328201293945
1772533250883058400,7.163058349609375,-1.4601681232452393,-0.11397993564605713,-1.9138243198394775
1772533250892991200,7.1729912109375,-1.2204906940460205,0.43980807065963745,-1.216229796409607
1772533250902921200,7.182921142578125,-0.7774869799613953,1.077749490737915,-0.5772231221199036
1772533250912853500,7.192853515625,-0.2119813710451126,1.2726871967315674,-0.14061075448989868
1772533250922775300,7.202775390625,0.3087844252586365,1.1363372802734375,0.2332860380411148
1772533250932706800,7.212706787109375,0.5804188251495361,0.7625737190246582,0.512243926525116
1772533250942649300,7.2226494140625,0.5793536305427551,0.1608501821756363,0.5537880063056946
1772533250952581600,7.23258154296875,0.48135218024253845,-0.381220281124115,0.35458943247795105
1772533250962489300,7.2424892578125,0.43022099137306213,-0.5995930433273315,-0.03621792420744896
1772533250972419300,7.25241943359375,0.41743817925453186,-0.5047873258590698,-0.5292876362800598
1772533250982384600,7.262384521484375,0.40572062134742737,-0.20878566801548004,-0.9808133244514465
1772533250992318000,7.27231787109375,0.4227643609046936,0.20772044360637665,-1.232208251953125
1772533251002257200,7.282257080078125,0.4994611442089081,0.5921363830566406,-1.1587072610855103
1772533251012191200,7.292191162109375,0.5282224416732788,0.7380733489990234,-0.7828131318092346
1772533251022109200,7.302109130859375,0.4557865858078003,0.5303528904914856,-0.17363297939300537
1772533251032041700,7.312041748046875,0.3077192008495331,0.09800143539905548,0.6368761658668518
1772533251041975300,7.321975341796875,0.11930610239505768,-0.2673735022544861,1.515560269355774
1772533251051907800,7.331907958984375,-0.0106523297727108,-0.42915576696395874,2.2332611083984375
1772533251061847300,7.341847412109375,-0.03728315606713295,-0.400394469499588,2.632723331451416
1772533251071780600,7.351780517578125,-0.0053261648863554,-0.32263246178627014,2.6721370220184326
1772533251081714400,7.36171435546875,0.02663082629442215,-0.28335198760032654,2.3770675659179688
1772533251091647700,7.371647705078125,0.11078423261642456,-0.3003957271575928,1.8733453750610352
1772533251101569000,7.381569091796875,0.28228676319122314,-0.3833507299423218,1.2982527017593384
1772533251111501000,7.3915009765625,0.48241740465164185,-0.535679042339325,0.7178338766098022
1772533251121430300,7.40143017578125,0.6496589779853821,-0.6688331961631775,0.2034595012664795
1772533251131362000,7.411362060546875,0.7359428405761719,-0.7433995008468628,-0.17576344311237335
1772533251141297200,7.421297119140625,0.7114425301551819,-0.803052544593811,-0.37376365065574646
1772533251151229200,7.431229248046875,0.5782883763313293,-0.8563141822814941,-0.45046040415763855
1772533251161137400,7.441137451171875,0.38441595435142517,-0.8904016613960266,-0.4643084406852722
1772533251171067100,7.451067138671875,0.20665520429611206,-0.8445966243743896,-0.45152565836906433
1772533251181028600,7.461028564453125,0.11611039936542511,-0.6507242321968079,-0.47069984674453735
1772533251190961700,7.470961669921875,0.14061075448989868,-0.3279586136341095,-0.534613847732544
1772533251200887800,7.4808876953125,0.24180789291858673,0.01917419396340847,-0.634745717048645
1772533251210820000,7.490820068359375,0.3087844252586365,0.2876129150390625,-0.7721607685089111
1772533251220759800,7.500759765625,0.26098209619522095,0.38441595435142517,-0.9179645776748657
1772533251230692600,7.510692626953125,0.06604444980621338,0.38441595435142517,-1.0106397867202759
1772533251240618000,7.520617919921875,-0.1810896098613739,0.3929378390312195,-0.9904004335403442
1772533251250550300,7.53055029296875,-0.3055887222290039,0.22156846523284912,-0.848857581615448
1772533251260486100,7.540486083984375,-0.31304535269737244,-0.03515268862247467,-0.6134410500526428
1772533251270418700,7.550418701171875,-0.3471328020095825,-0.1384802907705307,-0.31411057710647583
1772533251280351200,7.560351318359375,-0.43874284625053406,-0.07030537724494934,0.01384802907705307
1772533251290284000,7.570283935546875,-0.5218310356140137,0.1065233051776886,0.3599156141281128
1772533251300207600,7.58020751953125,-0.57296222448349,0.4770912528038025,0.7860088348388672
1772533251310139400,7.590139404296875,-0.6027887463569641,0.9829437732696533,1.3557753562927246
1772533251320074000,7.600073974609375,-0.4898740351200104,1.5388622283935547,1.964955449104309
1772533251330006000,7.610006103515625,-0.29400432109832764,2.1204795837402344,2.6401801109313965
1772533251339942100,7.619942138671875,-0.05219641700387001,1.9148895740509033,3.163076400756836
1772533251349874700,7.629874755859375,0.12356702983379364,0.9403344392776489,3.269599676132202
1772533251359788800,7.639788818359375,0.28122150897979736,-0.5772231221199036,2.618875503540039
1772533251369719300,7.64971923828125,0.4579170346260071,-2.1874561309814453,1.0298140048980713
1772533251379671800,7.659671875,0.5388747453689575,-2.188521146774292,-0.30252617597579956
1772533251389604900,7.66960498046875,0.5069177746772766,-0.03941362351179123,-0.35352420806884766
1772533251399533600,7.679533447265625,0.335415244102478,1.880802035331726,0.1501978635787964
1772533251409466000,7.689466064453125,0.02556559257209301,2.4388511180877686,0.4248948097229004
1772533251419396900,7.69939697265625,-0.24819929897785187,2.0640220642089844,0.2141118347644806
1772533251429329200,7.7093291015625,-0.43022099137306213,1.199186086654663,-0.4323514401912689
1772533251439261700,7.71926171875,-0.5292876362800598,0.8158353567123413,-1.001052737236023
1772533251449194000,7.729194091796875,-0.35245898365974426,1.1129021644592285,-1.1448591947555542
1772533251459137800,7.7391376953125,0.12995843589305878,1.3856018781661987,-0.9488562941551208
1772533251469071400,7.7490712890625,0.5676360726356506,1.1427286863327026,-0.5665708184242249
1772533251478992600,7.75899267578125,0.7902697324752808,0.4973306655883789,-0.1065233051776886
1772533251488925000,7.768925048828125,0.7966611385345459,-0.2332860380411148,0.2556559145450592
1772533251498894800,7.778894775390625,0.7316819429397583,-0.910641074180603,0.4131772518157959
1772533251508830700,7.788830810546875,0.6869421601295471,-1.5006470680236816,0.3716331720352173
1772533251518696200,7.7986962890625,0.5942668914794922,-1.9308680295944214,0.19493764638900757
1772533251528625200,7.808625244140625,0.37376365065574646,-1.9617598056793213,-0.0063913981430232525
1772533251538560500,7.818560546875,0.14700216054916382,-1.3089051246643066,-0.08628387749195099
1772533251548490000,7.828489990234375,0.10226237028837204,-0.2577863931655884,0.0213046595454216
1772533251558430500,7.838430419921875,0.2588516175746918,0.7018554210662842,0.33115431666374207
1772533251568361000,7.84836083984375,0.34393709897994995,1.314231276512146,0.8222267627716064
1772533251578290000,7.8582900390625,0.2577863931655884,1.4782770872116089,1.337666392326355
1772533251588220400,7.868220458984375,0.16404588520526886,1.2588391304016113,1.773213505744934
1772533251598193200,7.878193115234375,0.11930610239505768,0.8541837334632874,2.0959792137145996
1772533251608127700,7.888127685546875,0.13315412402153015,0.2961347699165344,2.2364566326141357
1772533251618021000,7.898021240234375,0.16404588520526886,-0.3183715343475342,2.125805616378784
1772533251627951600,7.90795166015625,0.17682868242263794,-0.7093120217323303,1.7455174922943115
1772533251637884700,7.917884765625,0.18641577661037445,-0.8584446907043457,1.1374025344848633
1772533251647815400,7.9278154296875,0.2577863931655884,-0.7987915873527527,0.42809051275253296
1772533251657756000,7.937755859375,0.40998154878616333,-0.5420704483985901,-0.1800243854522705
1772533251667687400,7.9476875,0.5378095507621765,-0.2023942768573761,-0.5836145281791687
1772533251677619500,7.957619384765625,0.5868102312088013,0.07243584841489792,-0.7838783264160156
1772533251687551200,7.96755126953125,0.5292876362800598,0.08202294260263443,-0.8041177988052368
1772533251697482500,7.977482421875,0.3194367587566376,-0.1715025156736374,-0.7157034277915955
1772533251707414300,7.987414306640625,0.04793548583984375,-0.488808810710907,-0.6102453470230103
1772533251717371600,7.99737158203125,-0.14700216054916382,-0.7444647550582886,-0.5985277891159058
1772533251727305700,8.0073056640625,-0.2236989289522171,-0.8382052183151245,-0.6901378631591797
1772533251737237800,8.01723779296875,-0.18854624032974243,-0.7050511240959167,-0.8073135018348694
1772533251747171800,8.027171875,-0.07137060910463333,-0.4344819188117981,-0.8850755095481873
1772533251757071000,8.037071044921875,0.07669677585363388,-0.13208889961242676,-0.8659012913703918
1772533251767001600,8.047001708984375,0.16830681264400482,0.15658925473690033,-0.7338123917579651
1772533251776965000,8.056965087890624,0.18641577661037445,0.4451342523097992,-0.5559184551239014
1772533251786899000,8.06689892578125,0.15232832729816437,0.6667027473449707,-0.3908073604106903
1772533251796832500,8.07683251953125,0.09800143539905548,0.825422465801239,-0.252460241317749
1772533251806766300,8.086766357421874,0.07243584841489792,0.9328778386116028,-0.16724158823490143
1772533251816698400,8.096698486328124,0.05539211630821228,0.9074453711509705,-0.16617634892463684
1772533251826632200,8.106632080078125,0.03941362351179123,0.6880073547363281,-0.18535055220127106
1772533251836558300,8.116558349609376,0.05219641700387001,0.4248948097229004,-0.12569749355316162
1772533251846491400,8.126491455078124,0.06071828305721283,0.23754696547985077,0.05752258375287056
1772533251856430000,8.13643017578125,0.04154408723115921,0.18535055220127106,0.3673722445964813
1772533251866363600,8.14636376953125,0.05539211630821228,0.2982652485370636,0.7295514941215515
1772533251876289300,8.156289306640625,0.0745663121342659,0.33435001969337463,0.9296821355819702
1772533251886222000,8.16622216796875,0.07882724702358246,0.05113118514418602,0.8712274432182312
1772533251896146200,8.176146240234376,0.1800243854522705,-0.4738955497741699,0.5292876362800598
1772533251906078000,8.186077880859376,0.39506828784942627,-0.9137036204338074,-0.10439283400774002
1772533251916022000,8.19602197265625,0.4994611442089081,-1.260969638824463,-0.8861407041549683
1772533251925955300,8.205955322265625,0.39613354206085205,-1.6720163822174072,-1.4250154495239258
1772533251935885800,8.2158857421875,0.26098209619522095,-1.8073009252548218,-1.2567086219787598
1772533251945818600,8.225818603515625,0.11291470378637314,-1.6560379266738892,-0.7945306897163391
1772533251955749600,8.23574951171875,-0.14593692123889923,-1.316361665725708,-0.788139283657074
1772533251965682400,8.245682373046876,-0.299330472946167,-0.5761579275131226,-1.1650986671447754
1772533251975607300,8.255607177734374,-0.335415244102478,0.46963462233543396,-1.5038427114486694
1772533251985539300,8.265539306640624,-0.4153077304363251,1.6336679458618164,-1.4356677532196045
1772533251995478800,8.275478759765624,-0.339676171541214,2.5368523597717285,-0.9137036204338074
1772533252005411300,8.285411376953125,-0.01491326279938221,2.7232682704925537,-0.2013290375471115
1772533252015340800,8.2953408203125,0.31198012828826904,2.1437814235687256,0.5005263686180115
1772533252025273000,8.305273193359374,0.4983958899974823,1.1469897031784058,1.0031832456588745
1772533252035201800,8.315201904296876,0.5111786723136902,0.09906667470932007,1.1395330429077148
1772533252045133600,8.325133544921876,0.3567199110984802,-0.6656374931335449,0.9264864325523376
1772533252055042800,8.335042724609375,0.08947957307100296,-0.9371387362480164,0.4664389193058014
1772533252064972500,8.34497265625,-0.1821548491716385,-0.7167686820030212,-0.09267527610063553
1772533252074928600,8.3549287109375,-0.32050198316574097,-0.2652430236339569,-0.5644403696060181
1772533252084861200,8.364861083984374,-0.339676171541214,0.21837277710437775,-0.779617428779602
1772533252094769000,8.374768798828125,-0.3279586136341095,0.6027887463569641,-0.6379414200782776
1772533252104699000,8.384698974609375,-0.29506954550743103,0.703985869884491,-0.17576344311237335
1772533252114659300,8.394659423828125,-0.28335198760032654,0.46217799186706543,0.4685693681240082
1772533252124592400,8.40459228515625,-0.3055887222290039,0.06071828305721283,1.1374025344848633
1772533252134534000,8.414533935546874,-0.26204732060432434,-0.2769605815410614,1.7369955778121948
1772533252144467700,8.4244677734375,-0.17469821870326996,-0.39932921528816223,2.1629557609558105
1772533252154371600,8.43437158203125,-0.12037133425474167,-0.2972000241279602,2.3365886211395264
1772533252164302300,8.44430224609375,-0.08202294260263443,-0.16298064589500427,2.2556309700012207
1772533252174251800,8.454251708984375,-0.07669677585363388,-0.14061075448989868,1.948976993560791
1772533252184184300,8.464184326171875,-0.10013190656900406,-0.32156720757484436,1.4271459579467773
1772533252194124800,8.474124755859375,-0.10439283400774002,-0.6443328261375427,0.7402037978172302
1772533252204058400,8.484058349609375,-0.08202294260263443,-0.8701622486114502,0.03621792420744896
1772533252214025500,8.494025390625,0.0106523297727108,-0.8935973644256592,-0.4898740351200104
1772533252223962400,8.50396240234375,0.2034595012664795,-0.8275529146194458,-0.8371400237083435
1772533252233828400,8.513828369140626,0.41850343346595764,-0.7316819429397583,-1.0532491207122803
1772533252243758000,8.523758056640625,0.5378095507621765,-0.6294195652008057,-1.1203588247299194
1772533252253715500,8.533715576171875,0.4760259985923767,-0.5218310356140137,-1.0500534772872925
1772533252263648000,8.54364794921875,0.29187384247779846,-0.39506828784942627,-0.8850755095481873
1772533252273575400,8.553575439453125,0.12143656611442566,-0.28015628457069397,-0.6752246022224426
1772533252283507500,8.563507568359375,-0.007456631399691105,-0.22902509570121765,-0.5015916228294373
1772533252293449000,8.573448974609375,-0.1171756312251091,-0.15339355170726776,-0.4419385492801666
1772533252303381800,8.5833818359375,-0.15445879101753235,0.08308817446231842,-0.4664389193058014
1772533252313306400,8.593306396484374,-0.08734910935163498,0.42596006393432617,-0.5399399995803833
1772533252323238400,8.60323828125,0.0021304660476744175,0.7306166887283325,-0.6422023773193359
1772533252333172000,8.613171875,0.04473978653550148,0.8712274432182312,-0.7316819429397583
1772533252343104300,8.623104248046875,0.02769605815410614,0.8424661755561829,-0.7529866099357605
1772533252353040100,8.6330400390625,-0.01171756349503994,0.695464015007019,-0.6709636449813843
1772533252362972700,8.64297265625,-0.007456631399691105,0.42596006393432617,-0.5165048837661743
1772533252372907800,8.65290771484375,0.0639139786362648,0.15126308798789978,-0.38548120856285095
1772533252382840600,8.662840576171876,0.20452474057674408,0.1800243854522705,-0.27376487851142883
1772533252392770300,8.672770263671875,0.36630702018737793,0.5282224416732788,-0.11078423261642456
1772533252402702800,8.682702880859376,0.42915576696395874,0.9243559837341309,0.1171756312251091
1772533252412639700,8.6926396484375,0.38441595435142517,1.1075760126113892,0.3045234978199005
1772533252422572800,8.70257275390625,0.3386109471321106,0.8019872903823853,0.3386109471321106
1772533252432530000,8.712530029296875,0.34180665016174316,-0.2535254657268524,0.1693720519542694
1772533252442465300,8.72246533203125,0.37376365065574646,-1.9148895740509033,-0.3897421360015869
1772533252452358400,8.7323583984375,0.5314181447029114,-3.351489305496216,-1.377079963684082
1772533252462289700,8.74228955078125,0.7519213557243347,-3.64123272895813,-2.4495034217834473
1772533252472219600,8.7522197265625,0.8808145523071289,-2.6167449951171875,-2.9766604900360107
1772533252482151000,8.76215087890625,0.8776188492774963,-1.1075760126113892,-2.642310619354248
1772533252492093200,8.77209326171875,0.703985869884491,-0.0010652330238372087,-1.8754758834838867
1772533252502025500,8.782025390625,0.27376487851142883,0.8137048482894897,-1.07135808467865
1772533252511958000,8.7919580078125,-0.03941362351179123,1.437798261642456,-0.49200451374053955
1772533252521890300,8.801890380859374,-0.06604444980621338,1.7369955778121948,-0.21943800151348114
1772533252531814100,8.811814208984375,0.15552401542663574,1.8829325437545776,0.06071828305721283
1772533252541745700,8.82174560546875,0.6038539409637451,1.8733453750610352,0.5569837093353271
1772533252551684900,8.831684814453125,1.0500534772872925,1.4441896677017212,1.1501853466033936
1772533252561617000,8.841616943359375,1.3291444778442383,0.6858769059181213,1.635798454284668
1772533252571543000,8.85154296875,1.4026455879211426,-0.10013190656900406,1.8850629329681396
1772533252581474600,8.861474609375,1.2194255590438843,-0.6603113412857056,1.8360623121261597
1772533252591400700,8.871400634765624,0.8840102553367615,-0.8808145523071289,1.4356677532196045
1772533252601331700,8.881331787109374,0.46963462233543396,-0.7125077247619629,0.726355791091919
1772533252611282200,8.8912822265625,-0.007456631399691105,-0.316241055727005,-0.06284874677658081
1772533252621215200,8.90121533203125,-0.42702528834342957,0.07030537724494934,-0.7082468271255493
1772533252631136500,8.911136474609375,-0.6624417901039124,0.3386109471321106,-1.108641266822815
1772533252641068300,8.921068359375,-0.634745717048645,0.5420704483985901,-1.1778813600540161
1772533252651007700,8.9310078125,-0.35565468668937683,0.6528546810150146,-0.8840102553367615
1772533252660940300,8.940940185546875,-0.02876129187643528,0.45898228883743286,-0.3183715343475342
1772533252670879500,8.95087939453125,0.19706811010837555,0.06178351491689682,0.40891632437705994
1772533252680812500,8.9608125,0.27376487851142883,-0.38548120856285095,1.1427286863327026
1772533252690745000,8.9707451171875,0.24180789291858673,-0.7721607685089111,1.71249520778656
1772533252700678100,8.98067822265625,0.2343512624502182,-0.931812584400177,1.9266071319580078
1772533252710600400,8.990600341796876,0.28228676319122314,-0.7391385436058044,1.682668685913086
1772533252720532500,9.000532470703124,0.38548120856285095,-0.33115431666374207,1.124619722366333
1772533252730434000,9.01043408203125,0.5335485935211182,0.00852186419069767,0.5058525204658508
1772533252740363000,9.020363037109375,0.6390066742897034,0.1693720519542694,0.03089175745844841
1772533252750305000,9.030304931640625,0.6848116517066956,0.15126308798789978,-0.24713405966758728
1772533252760235300,9.0402353515625,0.6645722389221191,-0.23648172616958618,-0.39826399087905884
1772533252770163700,9.050163818359374,0.574027419090271,-0.7306166887283325,-0.4675041437149048
1772533252780094000,9.060093994140624,0.5090482234954834,-0.9797480702400208,-0.5484618544578552
1772533252790063900,9.07006396484375,0.5484618544578552,-0.9765523672103882,-0.7157034277915955
1772533252799998000,9.079998046875,0.6784203052520752,-0.9445953965187073,-0.8967930674552917
1772533252809901300,9.0899013671875,0.7508561015129089,-0.742334246635437,-1.017031192779541
1772533252819832300,9.099832275390625,0.7167686820030212,0.16511112451553345,-0.954182505607605
1772533252829764900,9.109764892578125,0.6240934133529663,0.8925321102142334,-0.7817478775978088
1772533252839696000,9.11969580078125,0.5228962898254395,1.4420591592788696,-0.6240934133529663
1772533252849631200,9.12963134765625,0.46004751324653625,1.995847225189209,-0.4014596939086914
1772533252859562800,9.139562744140624,0.4461994767189026,2.033130407333374,-0.21837277710437775
1772533252869485800,9.14948583984375,0.400394469499588,2.098109483718872,-0.17895914614200592
1772533252879416600,9.15941650390625,0.39826399087905884,2.084261655807495,-0.2876129150390625
1772533252889352200,9.169352294921875,0.5473966002464294,1.925541877746582,-0.2982652485370636
1772533252899283500,9.179283447265625,0.8286181092262268,1.8328665494918823,-0.29293906688690186
1772533252909240600,9.189240478515625,1.0138355493545532,1.9670859575271606,-0.2535254657268524
1772533252919174400,9.19917431640625,1.0202269554138184,2.4867866039276123,-0.04793548583984375
1772533252929102800,9.209102783203125,0.8935973644256592,2.7955708503723145,0.4866783320903778
1772533252939036200,9.2190361328125,0.8456618785858154,2.8051578998565674,0.9200950264930725
1772533252948971300,9.22897119140625,0.8147701025009155,1.7529741525650024,1.1597723960876465
1772533252958904600,9.238904541015625,0.6070496439933777,0.2673735022544861,1.4622986316680908
1772533252968835300,9.24883544921875,0.40785109996795654,-0.7604432106018066,1.7923877239227295
1772533252978768400,9.258768310546875,0.2897433936595917,-1.827540397644043,2.075739622116089
1772533252988696000,9.268696044921874,0.10332760214805603,-2.8243322372436523,2.333392858505249
1772533252998628600,9.278628662109375,-0.24074266850948334,-3.2387077808380127,2.5752007961273193
1772533253008567600,9.288567626953125,-0.5910711884498596,-2.788114309310913,2.806223154067993
1772533253018500600,9.29850048828125,-0.7465952038764954,-1.8073009252548218,3.0767924785614014
1772533253028433000,9.308432861328125,-0.7615084648132324,-0.3599156141281128,3.157750129699707
1772533253038366200,9.3183662109375,-0.7806826233863831,0.9179645776748657,2.8467020988464355
1772533253048292000,9.3282919921875,-0.9053149223327637,1.3078398704528809,2.010760545730591
1772533253058224600,9.338224609375,-1.0734885931015015,1.216229796409607,0.7157034277915955
1772533253068157000,9.348156982421875,-1.122489333152771,1.0894670486450195,-0.6102453470230103
1772533253078089500,9.35808935546875,-1.0394011735916138,0.6379414200782776,-1.6006457805633545
1772533253088020200,9.368020263671875,-1.0575101375579834,-0.15658925473690033,-2.15549898147583
1772533253097952300,9.3779521484375,-1.1160979270935059,-0.7593780159950256,-2.2279348373413086
1772533253107893200,9.387893310546875,-1.0607057809829712,-1.0468577146530151,-1.8318012952804565
1772533253117826300,9.397826416015626,-0.9147688746452332,-1.1704248189926147,-1.1565767526626587
1772533253127748900,9.407748779296876,-0.7178338766098022,-1.1182283163070679,-0.42063388228416443
1772533253137681000,9.417680908203126,-0.40678587555885315,-0.9648348093032837,0.299330472946167
1772533253147616500,9.427616455078125,-0.08202294260263443,-0.5612446665763855,0.8967930674552917
1772533253157548800,9.437548828125,0.08415340632200241,-0.09054480493068695,1.2737523317337036
1772533253167463400,9.44746337890625,0.05539211630821228,0.11504516750574112,1.3802757263183594
1772533253177394000,9.457393798828125,-0.17789392173290253,0.0106523297727108,1.2045122385025024
1772533253187355100,9.467355224609374,-0.5836145281791687,-0.22050324082374573,0.7977263927459717
1772533253197289000,9.4772890625,-1.038335919380188,-0.44939517974853516,0.24713405966758728
1772533253207226400,9.487226318359374,-1.2513824701309204,-0.7785521745681763,-0.30252617597579956
1772533253217160400,9.497160400390625,-1.108641266822815,-0.8392704725265503,-0.7487256526947021
1772533253227048700,9.507048583984375,-0.7157034277915955,-0.4451342523097992,-1.0298140048980713
1772533253236978200,9.516978271484374,-0.2790910601615906,0.22902509570121765,-1.1405982971191406
1772533253246941200,9.526941162109376,0.07137060910463333,0.9637695550918579,-1.1054456233978271
1772533253256874000,9.5368740234375,0.2972000241279602,1.4942556619644165,-0.9382039904594421
1772533253266806300,9.54680615234375,0.3726983964443207,1.7348651885986328,-0.7114425301551819
1772533253276738800,9.55673876953125,0.31091487407684326,1.6997123956680298,-0.4994611442089081
1772533253286644200,9.566644287109375,0.18535055220127106,1.4878642559051514,-0.33435001969337463
1772533253296574200,9.57657421875,0.08734910935163498,1.2279473543167114,-0.2247641682624817
1772533253306537000,9.586536865234375,0.02236989326775074,0.9616391062736511,-0.15658925473690033
1772533253316470300,9.59647021484375,-0.0319569893181324,0.7348776459693909,-0.10439283400774002
1772533253326396700,9.606396728515625,-0.10971900075674057,0.6539199352264404,-0.0213046595454216
1772533253336329500,9.61632958984375,-0.19706811010837555,0.7604432106018066,0.26204732060432434
1772533253346256400,9.62625634765625,-0.2652430236339569,0.8850755095481873,0.8307486176490784
1772533253356188400,9.6361884765625,-0.24819929897785187,0.811574399471283,1.26949143409729
1772533253366118700,9.64611865234375,-0.22050324082374573,0.7167686820030212,1.390928030014038
1772533253376050400,9.656050537109374,-0.2769605815410614,0.48028692603111267,1.2311431169509888
1772533253385990000,9.665989990234374,-0.35245898365974426,0.11078423261642456,0.9275516271591187
1772533253395922700,9.675922607421874,-0.3790898025035858,-0.2663082480430603,0.6145063042640686
1772533253405839000,9.685839111328125,-0.3620460629463196,-0.5260919332504272,0.26950395107269287
1772533253415770400,9.695770263671875,-0.3055887222290039,-0.5825493335723877,-0.08947957307100296
1772533253425727700,9.705727783203125,-0.21517707407474518,-0.4035901725292206,-0.38441595435142517
1772533253435661300,9.715661376953125,-0.12995843589305878,-0.1171756312251091,-0.5367442965507507
