time,seconds_elapsed,z,y,x
1772538579339684400,0.045684326171875,-0.1619790494441986,-0.42025452852249146,0.011186341755092144
1772538579349700000,0.0557001953125,-0.14880917966365814,-0.4257531762123108,0.110207200050354
1772538579359715300,0.06571533203125,-0.13638900220394135,-0.44208553433418274,0.18990202248096466
1772538579369731000,0.07573095703125,-0.1180877611041069,-0.4461718797683716,0.21853846311569214
1772538579379746300,0.085746337890625,-0.08907075226306915,-0.431125283241272,0.18381217122077942
1772538579389761300,0.09576123046875,-0.0503087118268013,-0.3915752172470093,0.12143374979496002
1772538579399777300,0.10577734375,-0.006973487325012684,-0.33901455998420715,0.05236600339412689
1772538579409792300,0.115792236328125,0.018486598506569862,-0.285603791475296,-0.015153120271861553
1772538579419808500,0.12580859375,0.0341811403632164,-0.2463003247976303,-0.07465692609548569
1772538579429823200,0.1358232421875,0.0400661937892437,-0.19528187811374664,-0.12867595255374908
1772538579439838200,0.145838134765625,0.04886341467499733,-0.12995746731758118,-0.1610778421163559
1772538579449854500,0.1558544921875,0.06776759773492813,-0.07302733510732651,-0.1666845828294754
1772538579459869400,0.165869384765625,0.09084229171276093,-0.01714649610221386,-0.1433020383119583
1772538579469885400,0.175885498046875,0.10702259093523026,0.027120567858219147,-0.09056771546602249
1772538579479900400,0.185900390625,0.11617640405893326,0.033784862607717514,-0.028021514415740967
1772538579489915400,0.195915283203125,0.12251446396112442,0.011508850380778313,0.02497405931353569
1772538579499931400,0.205931396484375,0.12856251001358032,-0.0263019111007452,0.054900266230106354
1772538579509946400,0.2159462890625,0.13818104565143585,-0.059961073100566864,0.05144428089261055
1772538579519962400,0.22596240234375,0.16103069484233856,-0.08422113955020905,0.018866898491978645
1772538579529977000,0.23597705078125,0.18860159814357758,-0.09826558083295822,-0.026608174666762352
1772538579539992000,0.245991943359375,0.21700900793075562,-0.09943124651908875,-0.05694158002734184
1772538579550008000,0.256008056640625,0.2454579621553421,-0.08654634654521942,-0.045527804642915726
1772538579560023000,0.26602294921875,0.2622784972190857,-0.07884527742862701,0.00628985371440649
1772538579570039000,0.2760390625,0.28380775451660156,-0.08865716308355331,0.08206823468208313
1772538579580054000,0.286053955078125,0.31836679577827454,-0.10588355362415314,0.1547618806362152
1772538579590069000,0.296069091796875,0.35327738523483276,-0.14219655096530914,0.19988222420215607
1772538579600085000,0.3060849609375,0.3622532784938812,-0.1941377818584442,0.21434718370437622
1772538579610100000,0.316099853515625,0.3417155146598816,-0.23979873955249786,0.19193774461746216
1772538579620116000,0.326115966796875,0.3089245557785034,-0.2554323077201843,0.1412103921175003
1772538579630131000,0.336130859375,0.27218279242515564,-0.22996050119400024,0.06700167059898376
1772538579640147000,0.34614697265625,0.2471296340227127,-0.1752282679080963,-0.01727539300918579
1772538579650162000,0.356161865234375,0.22724273800849915,-0.111665278673172,-0.08405948430299759
1772538579660177000,0.366177001953125,0.20840567350387573,-0.059782106429338455,-0.11922705918550491
1772538579670193000,0.37619287109375,0.18106192350387573,-0.014693724922835827,-0.12194454669952393
1772538579680208000,0.386207763671875,0.14554068446159363,0.03242558240890503,-0.09575768560171127
1772538579690223900,0.396223876953125,0.12182017415761948,0.07483988255262375,-0.05856291204690933
1772538579700238800,0.40623876953125,0.11757110804319382,0.10252664238214493,-0.034513503313064575
1772538579710254000,0.416254150390625,0.12727274000644684,0.11151374131441116,-0.036011531949043274
1772538579720269800,0.426269775390625,0.1475798636674881,0.08048845082521439,-0.0626753643155098
1772538579730285000,0.43628515625,0.16394765675067902,0.009554356336593628,-0.09387350082397461
1772538579740300800,0.44630078125,0.17164446413516998,-0.05125999078154564,-0.09366364032030106
1772538579750316000,0.45631591796875,0.15409688651561737,-0.09256668388843536,-0.06985124945640564
1772538579760331000,0.4663310546875,0.12320981174707413,-0.12569427490234375,-0.05060325562953949
1772538579770346800,0.4763466796875,0.1010027825832367,-0.12139247357845306,-0.04261989891529083
1772538579780362000,0.486362060546875,0.08677271008491516,-0.10582683235406876,-0.05484221130609512
1772538579790378000,0.4963779296875,0.07740797102451324,-0.08082747459411621,-0.0926620289683342
1772538579800393200,0.506393310546875,0.0703205019235611,-0.030760575085878372,-0.14151105284690857
1772538579810408000,0.516407958984375,0.07475413382053375,0.039860598742961884,-0.18444228172302246
1772538579820424200,0.526424072265625,0.08533274382352829,0.08508399873971939,-0.20331956446170807
1772538579830439200,0.536439208984375,0.08995039761066437,0.09964963048696518,-0.19153720140457153
1772538579840455200,0.546455078125,0.08609466999769211,0.08888725936412811,-0.16624489426612854
1772538579850470100,0.55647021484375,0.0785137191414833,0.06681790947914124,-0.14480432868003845
1772538579860485000,0.566485107421875,0.0722329169511795,0.051123104989528656,-0.11615856736898422
1772538579870501000,0.576501220703125,0.07467184215784073,0.056168995797634125,-0.08052413910627365
1772538579880516000,0.58651611328125,0.07913103699684143,0.07166619598865509,-0.03400643542408943
1772538579890532000,0.596531982421875,0.07085899263620377,0.08682437986135483,0.019827499985694885
1772538579900547000,0.606547119140625,0.05628377944231033,0.09373927861452103,0.06284767389297485
1772538579910562000,0.61656201171875,0.03921531140804291,0.09057251363992691,0.08673755824565887
1772538579920578000,0.626578125,0.025425998494029045,0.07184383273124695,0.08638335764408112
1772538579930593000,0.636593017578125,0.017726533114910126,0.05314631015062332,0.06574119627475739
1772538579940609000,0.646609130859375,0.012959741055965424,0.04457279294729233,0.03532896190881729
1772538579950624000,0.6566240234375,0.015094797126948833,0.04971083253622055,0.009575395844876766
1772538579960639000,0.666638916015625,0.010450510308146477,0.06752072274684906,-0.001912948559038341
1772538579970655000,0.676655029296875,-0.011067298240959644,0.08458518981933594,0.008112520910799503
1772538579980670000,0.686669921875,-0.034092191606760025,0.08663902431726456,0.019231751561164856
1772538579990686000,0.69668603515625,-0.047195207327604294,0.07973983883857727,0.018314559012651443
1772538580000701000,0.706700927734375,-0.036744166165590286,0.06781020760536194,0.007097324356436729
1772538580010716000,0.7167158203125,-0.020144948735833168,0.05060272291302681,-0.009098157286643982
1772538580020732000,0.72673193359375,-0.00914183259010315,0.02913258597254753,-0.032703351229429245
1772538580030747000,0.736746826171875,-0.014636467210948467,0.024350879713892937,-0.05765477567911148
1772538580040763000,0.746762939453125,-0.01709802635014057,0.04055701196193695,-0.08185731619596481
1772538580050777900,0.75677783203125,-0.012407667003571987,0.05414313077926636,-0.10092741250991821
1772538580060792800,0.766792724609375,-0.007211840245872736,0.057244911789894104,-0.1135137751698494
1772538580070808800,0.776808837890625,-0.001856755930930376,0.055811598896980286,-0.11990456283092499
1772538580080823800,0.78682373046875,0.007191333919763565,0.05631307512521744,-0.11363628506660461
1772538580090840000,0.796840087890625,0.016943562775850296,0.05164828151464462,-0.08051108568906784
1772538580100854800,0.806854736328125,0.0224379301071167,0.0511460080742836,-0.026554379612207413
1772538580110871000,0.81687109375,0.014182398095726967,0.042751990258693695,0.030421288684010506
1772538580120886000,0.826885986328125,-0.006184126250445843,0.0267112385481596,0.07139002531766891
1772538580130901000,0.83690087890625,-0.022102372720837593,0.01537842396646738,0.0945534035563469
1772538580140917000,0.8469169921875,-0.03079972416162491,0.010822554118931293,0.10173967480659485
1772538580150932000,0.856931884765625,-0.03079945780336857,0.019882628694176674,0.09348440915346146
1772538580160948000,0.866947998046875,-0.021192902699112892,0.031213579699397087,0.07435598969459534
1772538580170963000,0.876962890625,-0.0019270633347332478,0.03291667252779007,0.05167784169316292
1772538580180978200,0.886978271484375,0.017488179728388786,0.019638681784272194,0.03158961609005928
1772538580190994000,0.896993896484375,0.027451064437627792,0.00851758848875761,0.007851265370845795
1772538580201009200,0.907009033203125,0.02833550050854683,0.020596887916326523,-0.01600479893386364
1772538580211025000,0.91702490234375,0.03021436184644699,0.041977278888225555,-0.030884945765137672
1772538580221040000,0.9270400390625,0.02689260058104992,0.06033790856599808,-0.023120764642953873
1772538580231055000,0.93705517578125,0.02322063408792019,0.060810886323451996,0.0021347899455577135
1772538580241071000,0.947071044921875,0.019046662375330925,0.04271497204899788,0.03309962898492813
1772538580251086000,0.957086181640625,0.012460930272936821,0.010231598280370235,0.06106042489409447
1772538580261102000,0.96710205078125,0.002560895634815097,-0.009301888756453991,0.07758693397045135
1772538580271117000,0.977116943359375,-0.008735966868698597,-0.006302903406322002,0.07618051767349243
1772538580281132000,0.987132080078125,-0.017136642709374428,0.0164231825619936,0.054306115955114365
1772538580291148000,0.99714794921875,-0.021977471187710762,0.052373193204402924,0.030411168932914734
1772538580301163000,1.0071630859375,-0.022347915917634964,0.08654927462339401,0.0031731564085930586
1772538580311179000,1.017178955078125,-0.022468024864792824,0.09631454944610596,-0.02311836928129196
1772538580321194000,1.027194091796875,-0.01883147843182087,0.08624354004859924,-0.043294209986925125
1772538580331209000,1.037208984375,-0.006082660052925348,0.07550940662622452,-0.0456543043255806
1772538580341225000,1.047224853515625,0.011632687412202358,0.06369828432798386,-0.030372286215424538
1772538580351240000,1.057239990234375,0.024411600083112717,0.049616288393735886,0.000595216522924602
1772538580361256000,1.067255859375,0.02918478287756443,0.03813593462109566,0.03326261416077614
1772538580371271000,1.07727099609375,0.0229194313287735,0.029134714975953102,0.06439337134361267
1772538580381286000,1.087285888671875,0.010311227291822433,0.018970228731632233,0.08890270441770554
1772538580391302000,1.097302001953125,-0.006961236707866192,0.015386945568025112,0.09422663599252701
1772538580401316900,1.10731689453125,-0.02347416616976261,0.025361282750964165,0.07465772330760956
1772538580411333000,1.1173330078125,-0.026155704632401466,0.05702466890215874,0.039673641324043274
1772538580421348000,1.12734814453125,-0.01338531356304884,0.08393298089504242,-0.0003304982965346426
1772538580431363000,1.137363037109375,0.006185990758240223,0.09541040658950806,-0.03851889818906784
1772538580441379000,1.147379150390625,0.012477975338697433,0.08333297073841095,-0.05499454215168953
1772538580451394000,1.15739404296875,0.01164467167109251,0.0697236880660057,-0.057132795453071594
1772538580461410000,1.16741015625,-0.0008796420879662037,0.05198969691991806,-0.045813027769327164
1772538580471425000,1.177425048828125,-0.014113422483205795,0.02731178142130375,-0.030794130638241768
1772538580481441000,1.18744091796875,-0.028685441240668297,0.010749316774308681,-0.016330769285559654
1772538580491456000,1.1974560546875,-0.030348850414156914,-0.0018991001415997744,-0.010787134058773518
1772538580501471000,1.207470947265625,-0.015796540305018425,0.00170815153978765,-0.00984224397689104
1772538580511487000,1.217487060546875,-0.00022077605535741895,0.012278770096600056,-0.015556588768959045
1772538580521502000,1.227501953125,0.009505354799330235,0.018847458064556122,-0.02274099923670292
1772538580531517700,1.237517578125,0.01762906089425087,0.019643209874629974,-0.029224731028079987
1772538580541532700,1.24753271484375,0.022495722398161888,0.0017944378778338432,-0.030296120792627335
1772538580551547600,1.257547607421875,0.025063008069992065,-0.021206485107541084,-0.025002822279930115
1772538580561563600,1.267563720703125,0.028115523979067802,-0.013070262037217617,-0.019538015127182007
1772538580571578600,1.27757861328125,0.031382158398628235,0.028913140296936035,-0.01453073974698782
1772538580581594600,1.2875947265625,0.03334330767393112,0.08009883016347885,-0.007455253042280674
1772538580591609600,1.297609619140625,0.02666063979268074,0.10540258884429932,-0.008023837581276894
1772538580601624800,1.307624755859375,0.015796007588505745,0.12453926354646683,-0.012268117628991604
1772538580611640600,1.317640625,0.0014791196445003152,0.12232165038585663,-0.0238837618380785
1772538580621655800,1.32765576171875,-0.012717925943434238,0.1120128184556961,-0.03500112518668175
1772538580631671600,1.337671630859375,-0.02666543237864971,0.10041075944900513,-0.04453311488032341
1772538580641686800,1.347686767578125,-0.032221321016550064,0.08443046361207962,-0.05380091443657875
1772538580651701800,1.35770166015625,-0.029092904180288315,0.0671878233551979,-0.05891577899456024
1772538580661717800,1.3677177734375,-0.021691180765628815,0.05060458928346634,-0.052983589470386505
1772538580671732700,1.377732666015625,-0.01847701147198677,0.022840866819024086,-0.03975407034158707
1772538580681748700,1.387748779296875,-0.013654826208949089,-0.014192784205079079,-0.025599369779229164
1772538580691763700,1.397763671875,-0.000365918327588588,-0.03321467712521553,-0.008273642510175705
1772538580701778700,1.40777880859375,0.0084275733679533,-0.041000962257385254,0.00025832661776803434
1772538580711795000,1.417794921875,0.013257482089102268,-0.032284967601299286,0.003349723992869258
1772538580721809700,1.4278095703125,0.00930082332342863,-0.011530422605574131,0.004463191609829664
1772538580731826000,1.437825927734375,-0.006150037981569767,0.015506788156926632,0.003799531841650605
1772538580741841000,1.4478408203125,-0.02063603699207306,0.04308302327990532,0.005149488337337971
1772538580751857000,1.45785693359375,-0.02695145644247532,0.06363889575004578,0.0021997711155563593
1772538580761872000,1.467871826171875,-0.022595589980483055,0.06676758080720901,0.0016980315558612347
1772538580771886800,1.477886962890625,-0.01762746274471283,0.052981194108724594,0.0054698665626347065
1772538580781902800,1.48790283203125,-0.02021392434835434,0.03975886479020119,0.009988452307879925
1772538580791917800,1.497917724609375,-0.0294918455183506,0.030532609671354294,0.013005280867218971
1772538580801933800,1.507933837890625,-0.039930637925863266,0.01871855929493904,0.012567190453410149
1772538580811948800,1.51794873046875,-0.03849466145038605,0.016145680099725723,0.008250739425420761
1772538580821963800,1.5279638671875,-0.021813685074448586,0.01607297547161579,0.008698416873812675
1772538580831979800,1.537979736328125,-0.005071191117167473,0.011581555008888245,0.016831710934638977
1772538580841994800,1.547994873046875,0.006204099860042334,0.003975300583988428,0.02743987925350666
1772538580852010800,1.5580107421875,0.010572749190032482,-0.004092213232070208,0.02449282631278038
1772538580862025700,1.568025634765625,0.018078070133924484,-0.008411061950027943,0.008384429849684238
1772538580872040700,1.578040771484375,0.02370958961546421,-0.009461944922804832,-0.013206616044044495
1772538580882056700,1.588056640625,0.03189614787697792,-0.00008229167724493891,-0.03777587413787842
1772538580892071700,1.59807177734375,0.037515416741371155,0.0020719394087791443,-0.05892297253012657
1772538580902087700,1.608087646484375,0.033668216317892075,0.0002545981842558831,-0.07414080947637558
1772538580912102700,1.6181025390625,0.020709538832306862,-0.0018927085911855102,-0.0767403170466423
1772538580922117600,1.62811767578125,0.01245134323835373,-0.005152684170752764,-0.07630382478237152
1772538580932133600,1.638133544921875,0.013410613872110844,-0.01853986270725727,-0.07370910793542862
1772538580942148600,1.648148681640625,0.029030319303274155,-0.02803589589893818,-0.07725617289543152
1772538580952164600,1.65816455078125,0.043232690542936325,-0.017418405041098595,-0.08051668107509613
1772538580962179600,1.6681796875,0.05368959531188011,-0.004065048880875111,-0.07852011173963547
1772538580972194600,1.678194580078125,0.054299190640449524,0.00703793577849865,-0.07180441170930862
1772538580982210600,1.68821044921875,0.04831373691558838,0.016138223931193352,-0.060623932629823685
1772538580992225500,1.6982255859375,0.03958229720592499,0.008626244962215424,-0.045098237693309784
1772538581002241800,1.70824169921875,0.03256672993302345,-0.0036394759081304073,-0.028781846165657043
1772538581012256500,1.718256591796875,0.027872378006577492,-0.01417520735412836,-0.01480238139629364
1772538581022271700,1.728271728515625,0.030730482190847397,-0.02147866040468216,-0.010997523553669453
1772538581032287700,1.738287841796875,0.03700515627861023,-0.03466556966304779,-0.017467141151428223
1772538581042302700,1.748302734375,0.04296451061964035,-0.05205973982810974,-0.024658475071191788
1772538581052318700,1.758318603515625,0.044385042041540146,-0.06879797577857971,-0.03138907998800278
1772538581062333700,1.768333740234375,0.03918734937906265,-0.08442673087120056,-0.03184208646416664
1772538581072349700,1.778349609375,0.03143009543418884,-0.08403125405311584,-0.035952940583229065
1772538581082364700,1.78836474609375,0.021198762580752373,-0.06550044566392899,-0.03894872963428497
1772538581092380000,1.7983798828125,0.016228238120675087,-0.04253148287534714,-0.04856647178530693
1772538581102395600,1.808395751953125,0.0019648801535367966,-0.026813771575689316,-0.057438790798187256
1772538581112411000,1.818410888671875,-0.012620453722774982,0.01401674933731556,-0.0602865107357502
1772538581122426600,1.828426513671875,-0.03374411538243294,0.0533100925385952,-0.059118445962667465
1772538581132441900,1.83844189453125,-0.05237026512622833,0.09123377501964569,-0.05493754893541336
1772538581142456800,1.848456787109375,-0.060805026441812515,0.13024428486824036,-0.05324298143386841
1772538581152472800,1.858472900390625,-0.06912927329540253,0.14995354413986206,-0.05621799826622009
1772538581162487800,1.86848779296875,-0.07927005738019943,0.15310139954090118,-0.06143353506922722
1772538581172503800,1.87850390625,-0.09281808882951736,0.17121808230876923,-0.06791140884160995
1772538581182518800,1.888518798828125,-0.09970821440219879,0.18605242669582367,-0.07248006016016006
1772538581192533800,1.89853369140625,-0.09823176264762878,0.18811291456222534,-0.07008401304483414
1772538581202549800,1.9085498046875,-0.0920708030462265,0.18109016120433807,-0.06385114789009094
1772538581212564700,1.918564697265625,-0.08295906335115433,0.1515626311302185,-0.05109221115708351
1772538581222580700,1.928580810546875,-0.07223904132843018,0.09097331762313843,-0.03758838772773743
1772538581232595700,1.938595703125,-0.06753270328044891,0.026096582412719727,-0.035602468997240067
1772538581242610700,1.948610595703125,-0.06184446066617966,-0.017661817371845245,-0.03267006203532219
1772538581252626700,1.958626708984375,-0.047868188470602036,-0.03846030682325363,-0.025239042937755585
1772538581262641700,1.9686416015625,-0.033854901790618896,-0.04930070415139198,-0.002862365450710058
1772538581272657700,1.97865771484375,-0.021191570907831192,-0.0551719106733799,0.027108583599328995
1772538581282672600,1.988672607421875,-0.016168583184480667,-0.04381299391388893,0.054060839116573334
1772538581292689000,1.99868896484375,-0.012381568551063538,-0.01936757192015648,0.06709194928407669
1772538581302703600,2.00870361328125,-0.003340669209137559,0.0012841762509196997,0.07436984032392502
1772538581312718600,2.018718505859375,0.007465905509889126,0.01528494618833065,0.07651741057634354
1772538581322734800,2.02873486328125,0.017660219222307205,0.017959825694561005,0.07181879878044128
1772538581332749800,2.038749755859375,0.022414494305849075,0.012377041392028332,0.060450028628110886
1772538581342765800,2.048765869140625,0.02232101745903492,-0.0029372002463787794,0.033789120614528656
1772538581352780800,2.05878076171875,0.01571185141801834,-0.0264262817800045,-0.00484322477132082
1772538581362795800,2.068795654296875,0.01218875590711832,-0.04173679277300835,-0.051230695098638535
1772538581372811800,2.078811767578125,0.014740862883627415,-0.04141401872038841,-0.0945587307214737
1772538581382826800,2.08882666015625,0.022063756361603737,-0.03423520177602768,-0.12715555727481842
1772538581392842800,2.0988427734375,0.029332322999835014,-0.028061462566256523,-0.13504783809185028
1772538581402857700,2.108857666015625,0.019030682742595673,-0.027879567816853523,-0.11018296331167221
1772538581412872700,2.118872802734375,-0.0013334447285160422,-0.03188282996416092,-0.06539711356163025
1772538581422888700,2.128888671875,-0.020121512934565544,-0.03363865241408348,-0.01486576534807682
1772538581432903700,2.138903564453125,-0.025306954979896545,-0.024936242029070854,0.032226379960775375
1772538581442919700,2.148919677734375,-0.023636886849999428,0.0014503574930131435,0.059654541313648224
1772538581452934700,2.1589345703125,-0.02231569215655327,0.028608741238713264,0.06803657114505768
1772538581462950700,2.16895068359375,-0.02297988347709179,0.04496800899505615,0.057668089866638184
1772538581472965600,2.178965576171875,-0.02340066432952881,0.05253085121512413,0.04132267087697983
1772538581482980600,2.188980712890625,-0.021385449916124344,0.05338279902935028,0.026938406750559807
1772538581492996600,2.19899658203125,-0.016653545200824738,0.052208609879016876,0.02003469504415989
1772538581503011600,2.209011474609375,-0.008710667490959167,0.04000440612435341,0.023261379450559616
1772538581513027600,2.219027587890625,-0.007700263988226652,0.023457922041416168,0.02828197181224823
1772538581523042600,2.22904248046875,-0.012792227789759636,0.012146411463618279,0.021926870569586754
1772538581533057800,2.239057861328125,-0.017476728186011314,0.005566805601119995,0.0047060721553862095
1772538581543073500,2.249073486328125,-0.017241304740309715,0.004923918284475803,-0.01587483659386635
1772538581553088800,2.2590888671875,-0.010090983472764492,0.010486729443073273,-0.02881992980837822
1772538581563104500,2.2691044921875,-0.004576109815388918,0.014955513179302216,-0.031687356531620026
1772538581573119700,2.27911962890625,-0.006232329644262791,0.017590178176760674,-0.02455700747668743
1772538581583134700,2.289134765625,-0.0052046156488358974,0.023133015260100365,-0.010040117427706718
1772538581593150700,2.299150634765625,-0.0012434299569576979,0.03081517107784748,0.004282363224774599
1772538581603165700,2.309165771484375,0.007503722794353962,0.03753592446446419,0.018208032473921776
1772538581613181700,2.319181640625,0.012551744468510151,0.03604402020573616,0.02949504181742668
1772538581623196700,2.32919677734375,0.009816944599151611,0.026012159883975983,0.040338899940252304
1772538581633211600,2.339211669921875,0.00001917476038215682,0.021821942180395126,0.04687509685754776
1772538581643227600,2.3492275390625,-0.010950385592877865,0.007679757662117481,0.04392164945602417
1772538581653242600,2.35924267578125,-0.010280068032443523,-0.0006958839949220419,0.03185620158910751
1772538581663258600,2.369258544921875,-0.0011113371001556516,0.00213665422052145,0.01095517911016941
1772538581673273600,2.379273681640625,0.010044910944998264,0.005577191710472107,-0.01888447441160679
1772538581683289900,2.389289794921875,0.019943347200751305,0.0046845003962516785,-0.04030028358101845
1772538581693304600,2.3993046875,0.02582467347383499,0.0014397049089893699,-0.04109097644686699
1772538581703319600,2.409319580078125,0.02618499845266342,-0.0029497172217816114,-0.02232501283288002
1772538581713335800,2.419335693359375,0.012294749729335308,-0.009786318056285381,0.010290187783539295
1772538581723350800,2.429350830078125,-0.004193946253508329,-0.009667274542152882,0.04132160544395447
1772538581733366800,2.43936669921875,-0.01601438596844673,0.010323211550712585,0.05802229046821594
1772538581743381800,2.4493818359375,-0.020957212895154953,0.030821029096841812,0.05813547596335411
1772538581753396700,2.459396728515625,-0.0176951065659523,0.04547986760735512,0.04887539893388748
1772538581763412700,2.469412841796875,-0.011053716763854027,0.05060938000679016,0.046126749366521835
1772538581773427700,2.479427734375,-0.007023022044450045,0.04415228217840195,0.054547399282455444
1772538581783443700,2.489443603515625,-0.011914716102182865,0.022155901417136192,0.06441760808229446
1772538581793458700,2.499458740234375,-0.019292205572128296,-0.008022773079574108,0.0704968050122261
1772538581803473700,2.5094736328125,-0.011167699471116066,-0.02016092836856842,0.06286658346652985
1772538581813489700,2.51948974609375,-0.0028735508676618338,-0.026923758909106255,0.03846057504415512
1772538581823504600,2.529504638671875,0.003187004942446947,-0.025738120079040527,-0.0001395496365148574
1772538581833520600,2.539520751953125,0.0073687005788087845,-0.011800999753177166,-0.03750929236412048
1772538581843535600,2.54953564453125,0.007502124644815922,0.009158344939351082,-0.06251184642314911
1772538581853551600,2.559551513671875,0.003296727081760764,0.02148345485329628,-0.07087098062038422
1772538581863566600,2.569566650390625,-0.00929416622966528,0.011494469828903675,-0.058281946927309036
1772538581873581600,2.57958154296875,-0.025228923186659813,-0.007201187312602997,-0.038954056799411774
1772538581883597600,2.58959765625,-0.036313798278570175,-0.02034495212137699,-0.01901337131857872
1772538581893612500,2.599612548828125,-0.04520130157470703,-0.009753827005624771,-0.008685899898409843
1772538581903628500,2.609628662109375,-0.045209821313619614,0.019567841663956642,-0.007760983891785145
1772538581913643500,2.6196435546875,-0.045163482427597046,0.042392995208501816,-0.013795973733067513
1772538581923658500,2.629658447265625,-0.04541994631290436,0.056961022317409515,-0.019297264516353607
1772538581933674500,2.639674560546875,-0.043230295181274414,0.05303365737199783,-0.025135979056358337
1772538581943689500,2.649689453125,-0.04308009147644043,0.03779877722263336,-0.031382158398628235
1772538581953705500,2.65970556640625,-0.037455495446920395,0.028302744030952454,-0.03621925786137581
1772538581963720400,2.669720458984375,-0.025113075971603394,0.020354805514216423,-0.0388195663690567
1772538581973735700,2.679735595703125,-0.00818096473813057,0.0033875408116728067,-0.03219309076666832
1772538581983751400,2.68975146484375,0.002543585142120719,-0.01992230862379074,-0.01979287900030613
1772538581993766700,2.6997666015625,0.0076025258749723434,-0.04054689407348633,-0.0057433731853961945
1772538582003782700,2.70978271484375,0.0070765516720712185,-0.04078418016433716,0.0036535905674099922
1772538582013798000,2.7197978515625,0.0023065637797117233,-0.0301967840641737,0.00020160128769930452
1772538582023813600,2.729813720703125,-0.006148439832031727,-0.013307549990713596,-0.008592955768108368
1772538582033828600,2.73982861328125,-0.011335212737321854,0.004680239129811525,-0.027249997481703758
1772538582043843800,2.74984375,-0.015080415643751621,0.015217835083603859,-0.04249899089336395
1772538582053859600,2.759859619140625,-0.028917934745550156,0.019227223470807076,-0.04258980602025986
1772538582063874800,2.769874755859375,-0.04656776785850525,0.017970478162169456,-0.026207368820905685
1772538582073890600,2.779890625,-0.05855891853570938,0.014130999334156513,-0.0034021881874650717
1772538582083905800,2.78990576171875,-0.06321652233600616,0.006863764952868223,0.018550515174865723
1772538582093920800,2.799920654296875,-0.06661710888147354,-0.001415736391209066,0.024819063022732735
1772538582103936800,2.809936767578125,-0.06699901074171066,-0.0008255799184553325,0.013743242248892784
1772538582113951700,2.81995166015625,-0.06421706825494766,0.019417639821767807,-0.00549170421436429
1772538582123967700,2.8299677734375,-0.054907191544771194,0.04169684648513794,-0.02551601268351078
1772538582133982700,2.839982666015625,-0.04875795170664787,0.04765433818101883,-0.04060202091932297
1772538582143998700,2.849998779296875,-0.0474383570253849,0.04036153852939606,-0.04280179366469383
1772538582154013700,2.860013671875,-0.051783300936222076,0.026616962626576424,-0.039751939475536346
1772538582164028700,2.870028564453125,-0.04964718222618103,0.00566853815689683,-0.03738971799612045
1772538582174044700,2.880044677734375,-0.04001878947019577,-0.014051370322704315,-0.02997041493654251
1772538582184059600,2.8900595703125,-0.025256088003516197,-0.026876620948314667,-0.023852335289120674
1772538582194075600,2.90007568359375,-0.01762320287525654,-0.04106061905622482,-0.023931698873639107
1772538582204090600,2.910090576171875,-0.015398397110402584,-0.043647345155477524,-0.03145486116409302
1772538582214105600,2.920105712890625,-0.014160560443997383,-0.025463813915848732,-0.042208705097436905
1772538582224121600,2.93012158203125,-0.012176505289971828,-0.0049470881931483746,-0.04905462637543678
1772538582234136600,2.940136474609375,-0.010232930071651936,0.010204700753092766,-0.04418503865599632
1772538582244152600,2.950152587890625,-0.0037974014412611723,0.02094469591975212,-0.03620993718504906
1772538582254167600,2.96016748046875,-0.0013132047606632113,0.02532852627336979,-0.01925705187022686
1772538582264182500,2.9701826171875,-0.004089816473424435,0.021567875519394875,0.0011414308100938797
1772538582274198800,2.98019873046875,-0.01558295451104641,0.010030529461801052,0.01744743250310421
1772538582284213500,2.990213623046875,-0.01834411919116974,0.009302687831223011,0.022666696459054947
1772538582294229800,3.000229736328125,-0.013097958639264107,0.00766005041077733,0.022425679489970207
1772538582304244700,3.01024462890625,-0.010114685632288456,-0.000218645524000749,0.007673632353544235
1772538582314260700,3.0202607421875,-0.005372927524149418,-0.0027052389923483133,-0.00669278996065259
1772538582324275700,3.030275634765625,0.00044767739018425345,-0.0014032195322215557,-0.021881863474845886
1772538582334290700,3.040290771484375,0.005435245577245951,-0.004553738981485367,-0.03449592366814613
1772538582344306700,3.050306640625,0.006566289812326431,-0.0030663637444376945,-0.046488672494888306
1772538582354321700,3.06032177734375,0.004463724326342344,0.008619054220616817,-0.05775304511189461
1772538582364337700,3.070337646484375,0.0007986819837242365,0.022010760381817818,-0.06576090306043625
1772538582374352600,3.0803525390625,-0.004099137615412474,0.030976025387644768,-0.06624986231327057
1772538582384367600,3.09036767578125,-0.006952980998903513,0.022369753569364548,-0.04966102913022041
1772538582394383600,3.100383544921875,-0.004298608284443617,0.009734652936458588,-0.025551166385412216
1772538582404398600,3.110398681640625,0.002674346324056387,-0.006505569908767939,-0.003912183456122875
1772538582414414600,3.12041455078125,0.014388526789844036,-0.01210087165236473,0.005028847139328718
1772538582424429600,3.1304296875,0.018818162381649017,-0.00785419438034296,0.0033936661202460527
1772538582434444500,3.140444580078125,0.015447665937244892,0.008349009789526463,-0.0073505910113453865
1772538582444460500,3.15046044921875,0.008506935089826584,0.020731376484036446,-0.02425900101661682
1772538582454475500,3.1604755859375,-0.0013374395202845335,0.03253397345542908,-0.04267742112278938
1772538582464491500,3.170491455078125,-0.007210508454591036,0.042749062180519104,-0.05215667933225632
1772538582474506500,3.180506591796875,-0.008902681060135365,0.04001612588763237,-0.0548427440226078
1772538582484522500,3.1905224609375,-0.010207896120846272,0.030047114938497543,-0.05200327932834625
1772538582494537500,3.200537353515625,-0.009674731642007828,0.02166667953133583,-0.045578405261039734
1772538582504552700,3.210552734375,-0.016336096450686455,0.007895207032561302,-0.03985900059342384
1772538582514568400,3.220568359375,-0.023274429142475128,-0.003388606244698167,-0.036849625408649445
1772538582524584000,3.230583984375,-0.026560237631201744,0.000827177835162729,-0.035402730107307434
1772538582534600000,3.240599853515625,-0.022718096151947975,0.011218566447496414,-0.03260001912713051
1772538582544615000,3.250614990234375,-0.01991911232471466,0.015894809737801552,-0.025846244767308235
1772538582554630100,3.260630126953125,-0.016591759398579597,0.018921758979558945,-0.016638098284602165
1772538582564646000,3.27064599609375,-0.009518936276435852,0.018979016691446304,-0.009306948632001877
1772538582574661000,3.2806611328125,-0.004129763692617416,0.014418087899684906,-0.010097108781337738
1772538582584676900,3.2906767578125,0.004857605788856745,0.01677977852523327,-0.022530876100063324
1772538582594692000,3.300692138671875,0.008195345290005207,0.01920245587825775,-0.03677878528833389
1772538582604707800,3.310707763671875,0.00481259822845459,0.02226056531071663,-0.04934917390346527
1772538582614723000,3.32072314453125,0.0017241304740309715,0.024594292044639587,-0.0485137403011322
1772538582624738000,3.330738037109375,-0.00047936898772604764,0.015735819935798645,-0.03843766823410988
1772538582634754000,3.340754150390625,-0.007741010282188654,0.007765245158225298,-0.02099636197090149
1772538582644769000,3.35076904296875,-0.00777616398409009,0.008055529557168484,-0.013480388559401035
1772538582654785000,3.360784912109375,-0.0007744472241029143,0.0036999296862632036,-0.012194881215691566
1772538582664800000,3.370800048828125,0.007370298262685537,0.002871153876185417,-0.011606588959693909
1772538582674815000,3.38081494140625,0.010980213060975075,0.007934356108307838,-0.011839615181088448
1772538582684831000,3.3908310546875,0.010688863694667816,0.025019066408276558,-0.009927199222147465
1772538582694846000,3.400845947265625,0.004071973264217377,0.04093438386917114,-0.006603308022022247
1772538582704862000,3.410862060546875,-0.001460743835195899,0.04378476366400719,-0.0006506102508865297
1772538582714877000,3.420876953125,-0.00564084155485034,0.03522350266575813,0.010601777583360672
1772538582724892000,3.430891845703125,-0.015237808227539062,0.030366694554686546,0.02148585021495819
1772538582734908200,3.440908203125,-0.024516528472304344,0.0323701910674572,0.03110332414507866
1772538582744923000,3.4509228515625,-0.030373351648449898,0.0346064455807209,0.03273104876279831
1772538582754939100,3.460939208984375,-0.033963292837142944,0.0372922457754612,0.025584721937775612
1772538582764954000,3.4709541015625,-0.03428393602371216,0.031671907752752304,0.013317936100065708
1772538582774970000,3.48097021484375,-0.03537316992878914,0.017118532210588455,-0.001981391804292798
1772538582784985000,3.490985107421875,-0.029997313395142555,0.014189322479069233,-0.017733190208673477
1772538582795000000,3.501,-0.020708207041025162,0.0265360027551651,-0.038241393864154816
1772538582805016000,3.51101611328125,-0.01649215817451477,0.03092063218355179,-0.047856736928224564
1772538582815031000,3.521031005859375,-0.019577695056796074,0.029798375442624092,-0.0549391470849514
1772538582825047000,3.531047119140625,-0.020622454583644867,0.02208532765507698,-0.06060129404067993
1772538582835062000,3.54106201171875,-0.020484235137701035,0.02502412721514702,-0.06077812984585762
1772538582845077000,3.551076904296875,-0.021687185391783714,0.03309909626841545,-0.04643727466464043
1772538582855093000,3.561093017578125,-0.032347287982702255,0.036429911851882935,-0.02678314410150051
1772538582865108000,3.57110791015625,-0.03779451549053192,0.03668397665023804,-0.005307679995894432
1772538582875124000,3.5811240234375,-0.04077912122011185,0.03634043037891388,0.01284336019307375
1772538582885139000,3.591138916015625,-0.03725868836045265,0.03253797069191933,0.015446600504219532
1772538582895155000,3.601155029296875,-0.034277014434337616,0.03001835197210312,0.00672421557828784
1772538582905170000,3.611169921875,-0.0284071397036314,0.029641248285770416,-0.010147974826395512
1772538582915185000,3.621184814453125,-0.02257055602967739,0.014790131710469723,-0.03171239048242569
1772538582925201000,3.631200927734375,-0.013710485771298409,-0.0025771409273147583,-0.045513689517974854
1772538582935215900,3.6412158203125,-0.009356750175356865,-0.008994027972221375,-0.0503569133579731
1772538582945232000,3.65123193359375,-0.005742840468883514,-0.009474195539951324,-0.052389971911907196
1772538582955246800,3.661246826171875,-0.0032445292454212904,0.0014823154779151082,-0.044737376272678375
1772538582965261800,3.67126171875,-0.0024980450980365276,0.021508753299713135,-0.035599272698163986
1772538582975277800,3.68127783203125,-0.002062085550278425,0.03026070073246956,-0.026154372841119766
1772538582985292800,3.691292724609375,-0.0005885586142539978,0.023247532546520233,-0.020656809210777283
1772538582995308800,3.701308837890625,0.004004861693829298,0.014130732975900173,-0.01900484971702099
1772538583005323800,3.71132373046875,0.007366303354501724,0.014945926144719124,-0.021498100832104683
1772538583015340000,3.721340087890625,0.012085957452654839,0.022881880402565002,-0.0252827201038599
1772538583025355000,3.73135498046875,0.016682839021086693,0.03616652637720108,-0.02792430855333805
1772538583035370000,3.741369873046875,0.019727632403373718,0.043707799166440964,-0.0280366949737072
1772538583045386000,3.751385986328125,0.02280331589281559,0.04104543849825859,-0.023360982537269592
1772538583055401000,3.76140087890625,0.02225443907082081,0.037397973239421844,-0.016564330086112022
1772538583065417000,3.7714169921875,0.01702798530459404,0.02965589612722397,-0.004744421225041151
1772538583075432000,3.781431884765625,0.012917662970721722,0.021026987582445145,0.0025561018846929073
1772538583085447200,3.791447265625,0.01269795186817646,0.020415792241692543,0.0034349451307207346
1772538583095463000,3.801462890625,0.013714213855564594,0.01685061864554882,-0.0025507756508886814
1772538583105478100,3.81147802734375,0.010555172339081764,0.011325891129672527,-0.009072057902812958
1772538583115494000,3.821493896484375,0.01720801554620266,0.00851492490619421,-0.012220713309943676
1772538583125509000,3.831509033203125,0.02046346291899681,0.0014732606941834092,-0.009913350455462933
1772538583135524900,3.84152490234375,0.0237071942538023,-0.0034932682756334543,-0.0025007082149386406
1772538583145540000,3.8515400390625,0.02021472342312336,-0.011578625068068504,0.0031433289404958487
1772538583155555000,3.86155517578125,0.014929414726793766,-0.020865334197878838,0.004202468320727348
1772538583165571000,3.871571044921875,0.007252053823322058,-0.022960176691412926,0.0012982910266146064
1772538583175586000,3.8815859375,-0.0028751487843692303,-0.014514493755996227,-0.004163053352385759
1772538583185602000,3.89160205078125,-0.009049687534570694,-0.006853645201772451,-0.008039018139243126
1772538583195617000,3.901616943359375,-0.012920059263706207,0.0014301175251603127,-0.0070307450369000435
1772538583205632000,3.911632080078125,-0.01332645770162344,0.0073204971849918365,-0.004839496221393347
1772538583215648000,3.92164794921875,-0.01296613272279501,0.010114951990544796,-0.0014711301773786545
1772538583225663000,3.9316630859375,-0.0044168527238070965,0.007487477269023657,0.0038783615455031395
1772538583235679000,3.941678955078125,0.0035595810040831566,-0.0012098740553483367,0.015501461923122406
1772538583245694000,3.95169384765625,0.008184160105884075,-0.015907060354948044,0.025619609281420708
1772538583255709000,3.961708984375,0.003088201628997922,-0.031738489866256714,0.03304477035999298
1772538583265725000,3.971724853515625,-0.007159376051276922,-0.03808107227087021,0.032782182097435
1772538583275740000,3.981739990234375,-0.012862002477049828,-0.03598596528172493,0.023806795477867126
1772538583285756000,3.991755859375,-0.011427091434597969,-0.012941098771989346,0.010389523580670357
1772538583295771000,4.00177099609375,-0.003923901356756687,0.014189588837325573,-0.004323375876992941
1772538583305787100,4.011787109375,-0.00006072007090551779,0.023557523265480995,-0.014548316597938538
1772538583315802000,4.021802001953125,0.001130245509557426,0.015143266879022121,-0.01571504771709442
1772538583325816800,4.03181689453125,-0.0011925635626539588,0.008371912874281406,-0.007400658447295427
1772538583335833000,4.0418330078125,-0.00487172044813633,0.009735983796417713,0.00788668543100357
1772538583345848000,4.05184814453125,-0.003762780223041773,-0.00011584750609472394,0.029145369306206703
1772538583355864000,4.061864013671875,-0.0032623722217977047,-0.01563781499862671,0.045942459255456924
1772538583365879000,4.071879150390625,-0.001107076066546142,-0.028020715340971947,0.05146212503314018
1772538583375894000,4.08189404296875,0.0035691685043275356,-0.035835228860378265,0.04327423870563507
1772538583385910000,4.091909912109375,0.013601562939584255,-0.037165477871894836,0.029206354171037674
1772538583395925000,4.101925048828125,0.020319918170571327,-0.0307517871260643,0.011840680614113808
1772538583405941000,4.11194091796875,0.011861452832818031,-0.014188789762556553,-0.005449360236525536
1772538583415956000,4.1219560546875,-0.000040480048483004794,0.012984507717192173,-0.032228510826826096
1772538583425972000,4.131971923828125,-0.019473033025860786,0.03440750762820244,-0.04268141835927963
1772538583435987000,4.141987060546875,-0.033959563821554184,0.033305227756500244,-0.04241616651415825
1772538583446002000,4.152001953125,-0.03948642313480377,0.008073372766375542,-0.0244896300137043
1772538583456018000,4.162017822265625,-0.03087562508881092,-0.015092932619154453,-0.0037968687247484922
1772538583466033000,4.172032958984375,-0.010571950115263462,-0.0216528307646513,0.011306184343993664
1772538583476049000,4.182048828125,0.010483001358807087,-0.024234499782323837,0.017556089907884598
1772538583486063900,4.19206396484375,0.022701583802700043,-0.02087465487420559,0.00932346098124981
1772538583496078800,4.202078857421875,0.03111690655350685,-0.014660702086985111,-0.0027108315844088793
1772538583506094800,4.2120947265625,0.034560106694698334,-0.015851933509111404,-0.01902296021580696
1772538583516109800,4.22210986328125,0.034867171198129654,-0.02016305923461914,-0.030659109354019165
1772538583526125600,4.23212548828125,0.03382853791117668,-0.020265324041247368,-0.030882282182574272
1772538583536140800,4.242140869140625,0.029449235647916794,-0.005775863770395517,-0.018082331866025925
1772538583546156500,4.252156494140625,0.02106187492609024,0.007822503335773945,-0.00041811628034338355
1772538583556171800,4.262171875,0.01363218855112791,0.008953280746936798,0.0142369931563735
1772538583566186800,4.272186767578125,0.005715143866837025,-0.00001944107498275116,0.016809606924653053
1772538583576202800,4.28220263671875,-0.0009278453071601689,-0.0070978570729494095,0.008948220871388912
1772538583586217700,4.2922177734375,-0.003468767274171114,-0.009882990270853043,-0.005845638457685709
1772538583596233700,4.302233642578125,-0.005368133541196585,0.004451207350939512,-0.020069049671292305
1772538583606248700,4.312248779296875,-0.0051894355565309525,0.02197001315653324,-0.02858157642185688
1772538583616263700,4.322263671875,-0.008077367208898067,0.0282145943492651,-0.02774960547685623
1772538583626279700,4.33227978515625,-0.010488327592611313,0.016994429752230644,-0.019595006480813026
1772538583636294700,4.342294677734375,-0.014879613183438778,0.0025651566684246063,-0.007980428636074066
1772538583646310700,4.352310546875,-0.013396232388913631,-0.01375416200608015,0.003346794517710805
1772538583656325600,4.36232568359375,-0.0011574097443372011,-0.026823358610272408,0.012956811115145683
1772538583666341600,4.372341552734375,0.014857509173452854,-0.03315022960305214,0.021472003310918808
1772538583676356600,4.382356689453125,0.02177533693611622,-0.02929557114839554,0.031500935554504395
1772538583686371600,4.39237158203125,0.01612916961312294,-0.015601863153278828,0.037042174488306046
1772538583696387600,4.4023876953125,-0.00033955302205868065,0.010451043024659157,0.038769498467445374
1772538583706402600,4.412402587890625,-0.01720082387328148,0.03335769101977348,0.031977906823158264
1772538583716418600,4.42241845703125,-0.027178358286619186,0.04713555425405502,0.024060862138867378
1772538583726433500,4.43243359375,-0.02732003852725029,0.05627339333295822,0.016773387789726257
1772538583736448500,4.442448486328125,-0.02491973154246807,0.06055469065904617,0.014217551797628403
1772538583746464800,4.45246484375,-0.021287711337208748,0.05753519758582115,0.013426858931779861
1772538583756479500,4.4624794921875,-0.019594740122556686,0.04535150155425072,0.017100956290960312
1772538583766495700,4.472495849609375,-0.01894466206431389,0.032939840108156204,0.013342170976102352
1772538583776510700,4.4825107421875,-0.01986798085272312,0.02034441940486431,0.010261159390211105
1772538583786526700,4.492526611328125,-0.016918528825044632,0.01007766742259264,0.0031941954512149096
1772538583796541700,4.502541748046875,-0.011143198236823082,0.0028336034156382084,-0.0003432814555708319
1772538583806556700,4.512556640625,-0.003451456781476736,-0.005106344819068909,0.00008894957863958552
1772538583816572700,4.52257275390625,0.0007076018955558538,-0.011713114567101002,0.0032687638886272907
1772538583826587600,4.532587646484375,-0.00017417073831893504,-0.006538859568536282,0.005994775798171759
1772538583836603600,4.542603759765625,-0.0019417107105255127,0.0015872439835220575,-0.0014029532903805375
1772538583846618600,4.55261865234375,-0.001814411603845656,0.0018330537714064121,-0.006912501063197851
1772538583856633600,4.562633544921875,-0.0014349111588671803,-0.0041428133845329285,-0.008559932000935078
1772538583866649600,4.572649658203125,0.000056459015468135476,-0.010702711530029774,0.00173744629137218
1772538583876664600,4.58266455078125,0.0107682254165411,-0.015510516241192818,0.01709403283894062
1772538583886680600,4.5926806640625,0.02720072865486145,-0.015778429806232452,0.028026042506098747
1772538583896695600,4.602695556640625,0.03942117467522621,-0.009466205723583698,0.031565647572278976
1772538583906710500,4.61271044921875,0.04697949439287186,0.003612045431509614,0.03303597867488861
1772538583916726500,4.6227265625,0.04434642568230629,0.013039901852607727,0.03141837567090988
1772538583926741500,4.632741455078125,0.03470445051789284,0.006549512036144733,0.03231453150510788
1772538583936757500,4.642757568359375,0.020491959527134895,-0.011815113946795464,0.03230254724621773
1772538583946772500,4.6527724609375,0.011259046383202076,-0.026800189167261124,0.03677931800484657
1772538583956788500,4.66278857421875,0.008943960070610046,-0.029621807858347893,0.03483494743704796
1772538583966803500,4.672803466796875,0.00624138442799449,-0.024653414264321327,0.02377856709063053
1772538583976818700,4.682818603515625,0.005015797447413206,-0.017124392092227936,0.007458981592208147
1772538583986834400,4.69283447265625,0.0031816784758120775,-0.004992095287889242,-0.010905911214649677
1772538583996849700,4.702849609375,-0.0029933929909020662,0.0019148128340020776,-0.0189563799649477
1772538584006865400,4.712865478515625,-0.008157262578606606,0.0016966998809948564,-0.016585635021328926
1772538584016880600,4.722880615234375,-0.01191205345094204,-0.00544430036097765,-0.006848584860563278
1772538584026896600,4.732896728515625,-0.01587776653468609,-0.008107194676995277,0.007715710438787937
1772538584036911600,4.74291162109375,-0.016704145818948746,-0.010606572031974792,0.017491376027464867
1772538584046926600,4.752926513671875,-0.020200876519083977,-0.00908484123647213,0.02214152179658413
1772538584056942600,4.762942626953125,-0.023490944877266884,-0.0031398669816553593,0.014488928020000458
1772538584066957800,4.772957763671875,-0.025141838937997818,0.006925017572939396,0.0028391960076987743
1772538584076973600,4.7829736328125,-0.019637882709503174,0.011315771378576756,-0.0059598879888653755
1772538584086988800,4.79298876953125,-0.0181686170399189,0.0071164988912642,-0.008772186003625393
1772538584097003800,4.803003662109375,-0.021045897156000137,-0.0017771273851394653,-0.0057463026605546474
1772538584107019800,4.813019775390625,-0.02231649123132229,-0.0017659420846030116,0.003263970138505101
1772538584117034800,4.82303466796875,-0.022793995216488838,0.008359928615391254,0.011642275378108025
1772538584127050800,4.83305078125,-0.02352423407137394,0.01326973270624876,0.016234897077083588
1772538584137065700,4.843065673828125,-0.022820094600319862,0.010264089331030846,0.014704643748700619
1772538584147081700,4.853081787109375,-0.019690347835421562,0.0027355989441275597,0.014929947443306446
1772538584157096700,4.8630966796875,-0.01618003472685814,-0.008126902393996716,0.012431635521352291
1772538584167111700,4.873111572265625,-0.017179518938064575,-0.01792920008301735,0.00749067310243845
1772538584177127700,4.883127685546875,-0.019808059558272362,-0.014375477097928524,0.003020290983840823
1772538584187142700,4.893142578125,-0.026909643784165382,-0.0025366609916090965,-0.0020181434229016304
1772538584197158700,4.90315869140625,-0.031187480315566063,0.015352590940892696,-0.01113494299352169
1772538584207173600,4.913173583984375,-0.035225365310907364,0.03074539639055729,-0.013468670658767223
1772538584217188600,4.923188720703125,-0.033070601522922516,0.0338868610560894,-0.008282696828246117
1772538584227204600,4.93320458984375,-0.032211996614933014,0.028606077656149864,0.0017590179340913892
1772538584237219600,4.943219482421875,-0.03169907256960869,0.017848504707217216,0.011808722279965878
1772538584247235600,4.953235595703125,-0.02503557875752449,0.008698683232069016,0.02009328454732895
1772538584257250600,4.96325048828125,-0.016323046758770943,0.011473163962364197,0.026808444410562515
1772538584267265500,4.973265625,-0.0028511802665889263,0.0143547048792243,0.019347865134477615
1772538584277281500,4.983281494140625,0.009311743080615997,0.018610170111060143,0.003753725439310074
1772538584287296500,4.993296630859375,0.021566012874245644,0.013487046584486961,-0.008711998350918293
1772538584297312500,5.0033125,0.026864636689424515,-0.003326820908114314,-0.011770905926823616
1772538584307327500,5.013327392578125,0.025623871013522148,-0.017946776002645493,-0.0054733287543058395
1772538584317343700,5.02334375,0.01774437539279461,-0.019765980541706085,0.007500526960939169
1772538584327358700,5.033358642578125,0.011144796386361122,-0.00890774093568325,0.026625486090779305
1772538584337373400,5.04337353515625,0.006885070353746414,0.007583351340144873,0.04013729840517044
1772538584347389700,5.0533896484375,0.006095442920923233,0.020672786980867386,0.042517900466918945
1772538584357404700,5.06340478515625,0.0031963258516043425,0.03062608651816845,0.038660045713186264
1772538584367420700,5.073420654296875,0.00022770027862861753,0.03196565434336662,0.027523502707481384
1772538584377435600,5.083435546875,-0.000012783173588104546,0.03316487744450569,0.0196064580231905
1772538584387450600,5.09345068359375,-0.0009970874525606632,0.028188228607177734,0.010267284698784351
1772538584397466600,5.103466552734375,-0.004291683901101351,0.022241922095417976,0.007681621704250574
1772538584407481600,5.113481689453125,-0.0041542649269104,0.01853613369166851,0.0065561700612306595
1772538584417497600,5.12349755859375,-0.00680171325802803,0.014699583873152733,0.007582552265375853
1772538584427512600,5.1335126953125,-0.01290674414485693,0.003192863892763853,0.005950034596025944
1772538584437528600,5.143528564453125,-0.01907995156943798,-0.012706740759313107,0.0032405343372374773
1772538584447543600,5.15354345703125,-0.0179318618029356,-0.025672607123851776,0.0029553098138421774
1772538584457558500,5.16355859375,-0.00993119366466999,-0.030971230939030647,0.0007611314067617059
1772538584467574500,5.173574462890625,0.002255697501823306,-0.023015303537249565,-0.008740494959056377
1772538584477589500,5.183589599609375,0.014797321520745754,-0.0035473306197673082,-0.016626114025712013
1772538584487605500,5.19360546875,0.017196297645568848,0.021391574293375015,-0.022185729816555977
1772538584497620500,5.203620361328125,0.013401559554040432,0.043893422931432724,-0.02034362033009529
1772538584507635700,5.2136357421875,0.00424161646515131,0.0517050065100193,-0.009641707874834538
1772538584517651500,5.2236513671875,-0.010685401037335396,0.03958762437105179,-0.0013768542557954788
1772538584527666700,5.233666748046875,-0.022519690915942192,0.020063988864421844,0.00430260319262743
1772538584537682400,5.243682373046875,-0.027652399614453316,0.007219030521810055,0.0033830134198069572
1772538584547697700,5.25369775390625,-0.029890786856412888,0.0037918086163699627,-0.007442469708621502
1772538584557713400,5.26371337890625,-0.02526247873902321,-0.003352120751515031,-0.02166774496436119
1772538584567728600,5.273728759765625,-0.01985892653465271,-0.008293083868920803,-0.03488447889685631
1772538584577743600,5.28374365234375,-0.011245463974773884,-0.010334929451346397,-0.04295891895890236
1772538584587759600,5.293759521484375,0.0021582257468253374,-0.006609166972339153,-0.04711691290140152
1772538584597774600,5.303774658203125,0.016641560941934586,-0.0011574097443372011,-0.05238863825798035
1772538584607790600,5.31379052734375,0.03044658899307251,0.0024562333710491657,-0.044973332434892654
1772538584618007600,5.324007568359375,0.03663497790694237,0.007836617529392242,-0.02568965032696724
1772538584628447500,5.334447509765625,0.03509939834475517,0.007888549007475376,-0.005179049447178841
1772538584638462500,5.34446240234375,0.029458023607730865,0.010964767076075077,0.01242311391979456
1772538584648477400,5.3544775390625,0.024718130007386208,0.01756541058421135,0.025425732135772705
1772538584658493400,5.364493408203125,0.013597034849226475,0.015118765644729137,0.033317744731903076
1772538584668508400,5.37450830078125,0.0008652610122226179,0.0065324679017066956,0.0308641716837883
1772538584678524400,5.3845244140625,-0.0006567355012521148,-0.0036432044580578804,0.02269545942544937
1772538584688539400,5.394539306640625,0.006313023157417774,-0.017245566472411156,0.011411379091441631
1772538584698555600,5.4045556640625,0.011591674759984016,-0.02273567207157612,-0.006657636258751154
1772538584708570600,5.414570556640625,0.013125123456120491,-0.022528478875756264,-0.01737925596535206
1772538584718585900,5.4245859375,0.012741095386445522,-0.015219433233141899,-0.026972495019435883
1772538584728601600,5.4346015625,0.012940299697220325,-0.007678159512579441,-0.027347201481461525
1772538584738616800,5.444616943359375,0.012445484288036823,-0.00629012007266283,-0.01943202130496502
1772538584748632600,5.454632568359375,0.01318104937672615,-0.008699215948581696,-0.007769772317260504
1772538584758647800,5.464647705078125,0.007277087774127722,0.0016048208344727755,0.003993676509708166
1772538584768662800,5.474662841796875,0.0033563817851245403,0.017115870490670204,0.015594139695167542
1772538584778678500,5.484678466796875,-0.007385744713246822,0.023262977600097656,0.017916949465870857
1772538584788693800,5.49469384765625,-0.012316853739321232,0.0349060520529747,0.0150388702750206
1772538584798709500,5.50470947265625,-0.011751198209822178,0.04200178012251854,0.012219647876918316
1772538584808724700,5.514724853515625,-0.006323143374174833,0.035900477319955826,0.009374060668051243
1772538584818740500,5.524740478515625,-0.0070856064558029175,0.02569444477558136,0.005075186025351286
1772538584828755700,5.534755615234375,-0.002514024032279849,0.016979249194264412,-0.0003326288133393973
1772538584838770700,5.544770751953125,0.004052266012877226,0.01709909178316593,-0.004370247479528189
1772538584848786700,5.55478662109375,0.019391007721424103,0.021261611953377724,-0.00794420950114727
1772538584858801700,5.5648017578125,0.02641190029680729,0.015978433191776276,-0.008668589405715466
1772538584868817700,5.574817626953125,0.026546921581029892,0.00785339530557394,-0.006660565733909607
1772538584878832600,5.58483251953125,0.021472003310918808,0.0034903388004750013,-0.0006556702428497374
1772538584888847600,5.59484765625,0.02014974318444729,0.0006801713607273996,-0.0005310343112796545
1772538584898863600,5.604863525390625,0.022230736911296844,0.0018458369886502624,-0.0022570290602743626
1772538584908878600,5.614878662109375,0.0253924410790205,0.006375873927026987,-0.009822803549468517
1772538584918894600,5.62489453125,0.027835093438625336,0.011935489252209663,-0.0161850955337286
1772538584928909600,5.63490966796875,0.02677302435040474,0.018457571044564247,-0.02370373159646988
1772538584938924500,5.644924560546875,0.019939620047807693,0.017282584682106972,-0.02966202236711979
1772538584948940500,5.6549404296875,0.012311527505517006,0.00980309583246708,-0.029398102313280106
1772538584958955500,5.66495556640625,0.007727960590273142,0.008525311015546322,-0.020124709233641624
1772538584968971800,5.6749716796875,0.010093380697071552,0.004722583573311567,-0.009849168360233307
1772538584978986500,5.684986572265625,0.01164626982063055,-0.004561728797852993,-0.004114317707717419
1772538584989002800,5.695002685546875,0.009403888136148453,-0.01239088922739029,-0.003733751829713583
1772538584999017700,5.705017822265625,0.012106730602681637,-0.016762735322117805,-0.011625230312347412
1772538585009032700,5.71503271484375,0.012319516390562057,-0.020714066922664642,-0.022341791540384293
1772538585019674600,5.725674560546875,0.015864716842770576,-0.020052803680300713,-0.03232811391353607
1772538585029689600,5.735689697265625,0.01918621174991131,-0.02310611866414547,-0.03626879304647446
1772538585039704600,5.74570458984375,0.024874988943338394,-0.02485927753150463,-0.03352067619562149
1772538585049720600,5.755720458984375,0.027408188208937645,-0.023805197328329086,-0.026764769107103348
1772538585059735600,5.765735595703125,0.025298165157437325,-0.01757420040667057,-0.016408268362283707
1772538585069751600,5.77575146484375,0.015783490613102913,-0.011300858110189438,-0.008755940943956375
1772538585079766500,5.7857666015625,-0.0024463797453790903,-0.010716293938457966,-0.0021995047573000193
1772538585089782800,5.79578271484375,-0.018991267308592796,-0.013500628992915154,-0.0002133192028850317
1772538585099797800,5.8057978515625,-0.02762710116803646,-0.013132313266396523,-0.006224073935300112
1772538585109812500,5.8158125,-0.023496802896261215,-0.014049505814909935,-0.018398448824882507
1772538585119828700,5.825828857421875,-0.01605859585106373,-0.02437404915690422,-0.031860992312431335
1772538585129843700,5.83584375,-0.010349310003221035,-0.03623337298631668,-0.03669383376836777
1772538585139859700,5.845859619140625,-0.013273460790514946,-0.04420900717377663,-0.030406907200813293
1772538585149874700,5.855874755859375,-0.014657772146165371,-0.0463363379240036,-0.022645924240350723
1772538585159889700,5.8658896484375,-0.009014001116156578,-0.04063690826296806,-0.012474779039621353
1772538585169905700,5.87590576171875,0.005154814571142197,-0.03374997526407242,-0.002960369922220707
1772538585179920600,5.885920654296875,0.015307051129639149,-0.03410710394382477,0.0049406965263187885
1772538585189936600,5.8959365234375,0.021698370575904846,-0.031630098819732666,0.0067239492200315
1772538585199951600,5.90595166015625,0.015906527638435364,-0.02040380798280239,0.009366337209939957
1772538585209967600,5.915967529296875,0.003853327827528119,-0.009882724843919277,0.006082926411181688
1772538585219982600,5.925982666015625,-0.009291502647101879,-0.0014381069922819734,0.004291151650249958
1772538585229997600,5.93599755859375,-0.01630094274878502,0.0032916669733822346,0.00762862479314208
1772538585240013600,5.946013671875,-0.01200766023248434,-0.0018048242200165987,0.01028512790799141
1772538585250028500,5.956028564453125,-0.0005640574963763356,-0.019524965435266495,0.006398777011781931
1772538585260044500,5.96604443359375,0.0044054011814296246,-0.03951118886470795,-0.003477289341390133
1772538585270059500,5.9760595703125,-0.00046392265358008444,-0.049378734081983566,-0.01907568983733654
1772538585280074500,5.986074462890625,-0.01335495337843895,-0.04716990888118744,-0.029287314042448997
1772538585290090500,5.996090576171875,-0.025077123194932938,-0.03179521486163139,-0.04002438113093376
1772538585300105500,6.00610546875,-0.038361769169569016,-0.01332912128418684,-0.04808683693408966
1772538585310121500,6.01612158203125,-0.04802744835615158,0.005667739547789097,-0.052621398121118546
1772538585320136400,6.026136474609375,-0.050337471067905426,0.02599245123565197,-0.04951828345656395
1772538585330152400,6.03615234375,-0.04845808073878288,0.04127873107790947,-0.04583433270454407
1772538585340167400,6.04616748046875,-0.039908267557621,0.041672877967357635,-0.03640274703502655
1772538585350182700,6.0561826171875,-0.03493880853056908,0.03261866420507431,-0.03443494066596031
1772538585360198400,6.066198486328125,-0.03081117570400238,0.024357536807656288,-0.03810397535562515
1772538585370213600,6.076213623046875,-0.024876054376363754,0.024402013048529625,-0.039675239473581314
1772538585380229600,6.086229736328125,-0.020774254575371742,0.024518925696611404,-0.04044010117650032
1772538585390244600,6.09624462890625,-0.02076812833547592,0.017410682514309883,-0.03868294879794121
1772538585400259600,6.106259521484375,-0.01817926950752735,0.006886401679366827,-0.031013842672109604
1772538585410275600,6.116275634765625,-0.021101290360093117,-0.00532445777207613,-0.0259234756231308
1772538585420290800,6.126290771484375,-0.022647788748145103,-0.009106678888201714,-0.019237875938415527
1772538585430306600,6.136306640625,-0.02190077118575573,-0.005745503585785627,-0.016894293949007988
1772538585440321800,6.14632177734375,-0.02039848268032074,-0.0020538298413157463,-0.024234499782323837
1772538585450337500,6.156337646484375,-0.017018131911754608,-0.0010626012226566672,-0.029255622997879982
1772538585460352800,6.166352783203125,-0.008215053007006645,-0.005852829199284315,-0.03286181017756462
1772538585470367700,6.17636767578125,0.005751628894358873,-0.016653811559081078,-0.03466343879699707
1772538585480383700,6.1863837890625,0.016524648293852806,-0.034019485116004944,-0.03386502340435982
1772538585490398700,6.196398681640625,0.017137175425887108,-0.03345116600394249,-0.029855899512767792
1772538585500414700,6.206414794921875,0.007895473390817642,-0.010596184991300106,-0.022760706022381783
1772538585510429700,6.2164296875,-0.006070409435778856,0.019145198166370392,-0.011926167644560337
1772538585520444700,6.226444580078125,-0.016443954780697823,0.039026226848363876,-0.0025534387677907944
1772538585530461200,6.236461181640625,-0.020204070955514908,0.05438094958662987,0.0021547635551542044
1772538585540476400,6.246476318359375,-0.013882526196539402,0.06755640357732773,0.003593935864046216
1772538585550492200,6.2564921875,-0.0011086739832535386,0.06059437245130539,-0.0009992180857807398
1772538585560507400,6.26650732421875,0.009631588123738766,0.042448922991752625,-0.009851032868027687
1772538585570522400,6.2765224609375,0.023272033780813217,0.016138490289449692,-0.01449824869632721
1772538585580538600,6.28653857421875,0.030365362763404846,-0.017848771065473557,-0.012253737077116966
1772538585590553600,6.2965537109375,0.028072381392121315,-0.03368818759918213,-0.0006452839006669819
1772538585600569600,6.306569580078125,0.022364161908626556,-0.03518887981772423,0.01420663297176361
1772538585610584600,6.31658447265625,0.017972342669963837,-0.025184448808431625,0.021165207028388977
1772538585620600600,6.3266005859375,0.009859022684395313,-0.015664979815483093,0.018908709287643433
1772538585630615600,6.336615478515625,-0.004484497010707855,-0.005130579695105553,0.0035382758360356092
1772538585640630500,6.346630615234375,-0.016139555722475052,0.003022421384230256,-0.01486523263156414
1772538585650646500,6.356646484375,-0.021628063172101974,0.0062280683778226376,-0.026856647804379463
1772538585660661500,6.36666162109375,-0.02328801155090332,0.006395581178367138,-0.028075575828552246
1772538585670677500,6.376677490234375,-0.024647556245326996,-0.0021403825376182795,-0.01889645867049694
1772538585680692500,6.3866923828125,-0.032454345375299454,-0.007198790553957224,-0.0018279937794432044
1772538585690707500,6.39670751953125,-0.04567693918943405,-0.005621133837848902,0.016980048269033432
1772538585700723500,6.406723388671875,-0.060997042804956436,-0.0035324168857187033,0.02792857028543949
1772538585710738400,6.416738525390625,-0.06693296134471893,-0.005241899751126766,0.028137361630797386
1772538585720754400,6.42675439453125,-0.06165830418467522,-0.006714894436299801,0.022352444007992744
1772538585730769400,6.436769287109375,-0.04819123074412346,0.0010980212828144431,0.017437312752008438
1772538585740785400,6.446785400390625,-0.04009575396776199,0.009386577643454075,0.012937369756400585
1772538585750800400,6.45680029296875,-0.041733596473932266,0.010928015224635601,0.007662979885935783
1772538585760815400,6.4668154296875,-0.05236174166202545,0.023566046729683876,0.0010748518398031592
1772538585770831400,6.476831298828125,-0.06023457646369934,0.037571076303720474,-0.005263205152004957
1772538585780846300,6.486846435546875,-0.06527114659547806,0.0451325923204422,-0.007139934692531824
1772538585790862300,6.4968623046875,-0.057072874158620834,0.045031122863292694,-0.006410761270672083
1772538585800877300,6.506877197265625,-0.043243344873189926,0.034515634179115295,0.00336170825175941
1772538585810892300,6.516892333984375,-0.0280300360172987,0.010104565881192684,0.014361894689500332
1772538585820908300,6.526908203125,-0.012504073791205883,-0.009819340892136097,0.022952187806367874
1772538585830923300,6.53692333984375,0.002186188939958811,-0.01690148562192917,0.02846812643110752
1772538585840939500,6.546939453125,0.013459083624184132,-0.01834465190768242,0.027049461379647255
1772538585850954200,6.556954345703125,0.028376780450344086,-0.011936820112168789,0.016895892098546028
1772538585860969200,6.56696923828125,0.04078790917992592,-0.00800040178000927,0.004293548408895731
1772538585870985500,6.5769853515625,0.04981416091322899,-0.012374644167721272,-0.004317250568419695
1772538585881000400,6.58700048828125,0.05146452412009239,-0.023930367082357407,-0.009576727636158466
1772538585891016400,6.597016357421875,0.047869522124528885,-0.03729118034243584,-0.006059756502509117
1772538585901031400,6.607031494140625,0.04463377967476845,-0.04870016127824783,-0.001151284552179277
1772538585911047400,6.61704736328125,0.03623044118285179,-0.0566939041018486,0.008218781091272831
1772538585921062400,6.6270625,0.024561002850532532,-0.05537271127104759,0.008710401132702827
1772538585931077400,6.637077392578125,0.009209210984408855,-0.0432840920984745,0.0006151901907287538
1772538585941093400,6.64709326171875,-0.010989800095558167,-0.0325038805603981,-0.011989018879830837
1772538585951108400,6.6571083984375,-0.027705663815140724,0.00923264678567648,-0.021459752693772316
1772538585961124400,6.667124267578125,-0.03658197820186615,0.04807538539171219,-0.026682477444410324
1772538585971139300,6.677139404296875,-0.06095922365784645,0.04580823332071304,-0.024387365207076073
1772538585981154600,6.687154541015625,-0.06748530268669128,0.04977181553840637,-0.00962519645690918
1772538585991170300,6.69717041015625,-0.06979425996541977,0.0581463947892189,-0.0003861583536490798
1772538586001185500,6.707185546875,-0.07131918519735336,0.05198410525918007,0.002266882685944438
1772538586011201300,6.717201171875,-0.06996124237775803,0.050397392362356186,-0.0025515747256577015
1772538586021216500,6.727216552734375,-0.062487080693244934,0.04884130880236626,-0.012356268242001534
1772538586031231500,6.7372314453125,-0.05401955917477608,0.04410487785935402,-0.026372218504548073
1772538586041247500,6.74724755859375,-0.04369847849011421,0.037097565829753876,-0.03303704410791397
1772538586051262500,6.757262451171875,-0.03925153240561485,0.029096633195877075,-0.030884679406881332
1772538586061278500,6.767278564453125,-0.03635454550385475,0.017057813704013824,-0.020293021574616432
1772538586071293400,6.77729345703125,-0.02852405235171318,-0.0019020296167582273,-0.008768457919359207
1772538586081309400,6.787309326171875,-0.018992865458130836,-0.013887053355574608,-0.0006588660762645304
1772538586091324400,6.797324462890625,-0.006383064668625593,-0.010547981597483158,0.0011848403373733163
1772538586101339400,6.80733935546875,0.005754292011260986,0.0025102957151830196,-0.005918875336647034
1772538586111355400,6.81735546875,0.009398029185831547,0.016162991523742676,-0.015470036305487156
1772538586121370400,6.827370361328125,0.007485879585146904,0.016455139964818954,-0.023303458467125893
1772538586131386600,6.83738671875,0.005475192796438932,0.005526858381927013,-0.023791614919900894
1772538586141401300,6.8474013671875,0.0025132251903414726,-0.0027739484794437885,-0.02041046693921089
1772538586151416300,6.857416259765625,-0.0006056028068996966,-0.002805640222504735,-0.014433800242841244
1772538586161432600,6.8674326171875,-0.0005262406193651259,0.0015062838792800903,-0.010584200732409954
1772538586171447600,6.877447509765625,0.000782436749432236,0.016273245215415955,-0.014888668432831764
1772538586181463600,6.887463623046875,-0.007733553647994995,0.03834206238389015,-0.03175340220332146
1772538586191478500,6.897478515625,-0.011743474751710892,0.05891737714409828,-0.0544709637761116
1772538586201493500,6.907493408203125,-0.00974557176232338,0.045337121933698654,-0.06662749499082565
1772538586211509500,6.917509521484375,-0.004956675227731466,-0.003457582090049982,-0.0538611002266407
1772538586221524500,6.9275244140625,-0.0062424493953585625,-0.021263742819428444,-0.018995529040694237
1772538586231540500,6.93754052734375,-0.011567706242203712,-0.010508034378290176,0.01996997930109501
1772538586241555500,6.947555419921875,-0.011226288974285126,-0.00030120351584628224,0.052620600908994675
1772538586251570400,6.9575703125,0.0008250473183579743,0.027293939143419266,0.07709238678216934
1772538586261586400,6.96758642578125,0.016441291198134422,0.060675330460071564,0.08537615090608597
1772538586271601400,6.977601318359375,0.02015986293554306,0.08228075504302979,0.07945727556943893
1772538586281617400,6.987617431640625,0.00920281931757927,0.10117349028587341,0.06148839369416237
1772538586291632400,6.99763232421875,-0.011391405016183853,0.10721886157989502,0.04461114481091499
1772538586301648400,7.0076484375,-0.02696130983531475,0.10319136828184128,0.03280934691429138
1772538586311663400,7.017663330078125,-0.03886483982205391,0.08861135691404343,0.02977653779089451
1772538586321678300,7.02767822265625,-0.043777041137218475,0.060273461043834686,0.03363892063498497
1772538586331694300,7.0376943359375,-0.0398307703435421,0.02912752516567707,0.03496623784303665
1772538586341709300,7.047709228515625,-0.023300794884562492,0.014079599641263485,0.024448884651064873
1772538586351725300,7.057725341796875,-0.004433364141732454,0.013544037938117981,0.001612277701497078
1772538586361740300,7.067740234375,0.006736199837177992,0.01824025623500347,-0.022416358813643456
1772538586371755300,7.07775537109375,0.015061241574585438,0.031066305935382843,-0.036922063678503036
1772538586381771300,7.087771240234375,0.01440849993377924,0.03854765743017197,-0.04218393936753273
1772538586391786200,7.0977861328125,0.005447229836136103,0.027897145599126816,-0.03863447904586792
1772538586401802200,7.10780224609375,-0.000728907180018723,0.021270934492349625,-0.02292049489915371
1772538586411817200,7.117817138671875,-0.0036639769095927477,0.03598969057202339,-0.0011374361347407103
1772538586421832400,7.12783251953125,-0.0017409083666279912,0.0412270650267601,0.017830129712820053
1772538586431848200,7.13784814453125,-0.002299106912687421,0.031008249148726463,0.041373804211616516
1772538586441863400,7.147863525390625,-0.003951065707951784,0.021805429831147194,0.059545885771512985
1772538586451879400,7.15787939453125,0.0012450277572497725,0.02461746148765087,0.06619925796985626
1772538586461894400,7.167894287109375,0.007499994244426489,0.02316736988723278,0.055149536579847336
1772538586471910400,7.177910400390625,0.012915265746414661,0.019686352461576462,0.032044753432273865
1772538586481925400,7.18792529296875,0.01738591492176056,0.01841522566974163,0.006608634255826473
1772538586491940600,7.197940673828125,0.023625168949365616,0.018440792337059975,-0.009355418384075165
1772538586501956400,7.207956298828125,0.02900635078549385,0.01284682285040617,-0.0136036928743124
1772538586511971600,7.2179716796875,0.033312149345874786,-0.0018072210950776935,-0.005534581374377012
1772538586521987300,7.2279873046875,0.036555878818035126,-0.01829005777835846,0.01392913144081831
1772538586532002300,7.238002197265625,0.03834179788827896,-0.03410683572292328,0.03599102422595024
1772538586542017300,7.248017333984375,0.029409287497401237,-0.052321795374155045,0.04813157767057419
1772538586552033300,7.258033203125,0.013613014481961727,-0.06229133903980255,0.046673230826854706
1772538586562048300,7.26804833984375,-0.0005395564367063344,-0.054779890924692154,0.03278244659304619
1772538586572064300,7.278064208984375,-0.015874037519097328,-0.03719743713736534,0.0062155514024198055
1772538586582079200,7.288079345703125,-0.02821539342403412,-0.010401507839560509,-0.024118386209011078
1772538586592094200,7.29809423828125,-0.028425516560673714,0.02177906408905983,-0.04686044901609421
1772538586602110200,7.308110107421875,-0.021518874913454056,0.038228876888751984,-0.053821951150894165
1772538586612125200,7.318125244140625,-0.011962120421230793,0.023379890248179436,-0.048280712217092514
1772538586622141200,7.32814111328125,-0.0019230686593800783,0.0017867147689685225,-0.03195101022720337
1772538586632156200,7.33815625,0.00646562222391367,-0.018790997564792633,-0.012722186744213104
1772538586642171100,7.348171142578125,0.010727212764322758,-0.030174147337675095,0.0007097324123606086
1772538586652187100,7.358187255859375,0.013696637004613876,-0.030373085290193558,0.006880276836454868
1772538586662202000,7.3682021484375,0.01190885715186596,-0.016835704445838928,0.006330866366624832
1772538586672218000,7.378218017578125,0.014590926468372345,0.00959883164614439,0.0022714100778102875
1772538586682233000,7.388233154296875,0.020141754299402237,0.027540015056729317,0.0002980077115353197
1772538586692249000,7.3982490234375,0.022971361875534058,0.021587317809462547,-0.0028999161440879107
1772538586702264000,7.40826416015625,0.02370133437216282,0.010281666181981564,-0.003334810258820653
1772538586712279000,7.418279052734375,0.0267112385481596,0.007666707970201969,0.0024682176299393177
1772538586722295000,7.428294921875,0.027414847165346146,0.003010969841852784,0.00794447585940361
1772538586732310000,7.43831005859375,0.023249397054314613,-0.013089969754219055,0.008130097761750221
1772538586742326000,7.448325927734375,0.014813034795224667,-0.023623038083314896,0.012210859917104244
1772538586752341000,7.458341064453125,0.009327189065515995,-0.019594207406044006,0.015726499259471893
1772538586762356000,7.46835595703125,0.0052083441987633705,-0.011861719191074371,0.01389690674841404
1772538586772372000,7.4783720703125,0.0009912285022437572,-0.0028016455471515656,0.012268650345504284
1772538586782387000,7.488386962890625,-0.005480252671986818,0.006604905705899,0.007169762160629034
1772538586792403200,7.4984033203125,-0.004028297495096922,0.019206451252102852,-0.0009544769418425858
1772538586802418000,7.50841796875,0.0023065637797117233,0.019473832100629807,-0.0043534692376852036
1772538586812433000,7.518432861328125,0.01062255073338747,0.0073684342205524445,-0.01101403497159481
1772538586822449200,7.52844921875,0.01775369606912136,-0.004715925548225641,-0.014327540062367916
1772538586832464100,7.538464111328125,0.02009328454732895,-0.012780776247382164,-0.013163206167519093
1772538586842480000,7.548480224609375,0.017720140516757965,-0.015366706065833569,-0.009689378552138805
1772538586852495000,7.5584951171875,0.009415073320269585,-0.01022760383784771,-0.000258859246969223
1772538586862510000,7.568510009765625,0.0014101437991485,-0.0008785768295638263,0.009462211281061172
1772538586872526000,7.578526123046875,-0.00621155695989728,0.006611563730984926,0.016409866511821747
1772538586882541000,7.588541015625,-0.005362807307392359,0.009924003854393959,0.020911140367388725
1772538586892557000,7.59855712890625,-0.003934820648282766,0.013187174685299397,0.015421033836901188
1772538586902572000,7.608572021484375,0.0019797938875854015,0.015907060354948044,0.005869606975466013
1772538586912587300,7.618587158203125,0.0065290057100355625,0.021882662549614906,-0.0018492990639060736
1772538586922603000,7.62860302734375,0.008540491573512554,0.021772140637040138,-0.013373329304158688
1772538586932618200,7.6386181640625,0.01034638099372387,0.018916966393589973,-0.021327659487724304
1772538586942634000,7.648634033203125,0.023366309702396393,0.01583169400691986,-0.023069633170962334
1772538586952649200,7.658649169921875,0.03634229674935341,0.01098367478698492,-0.020926853641867638
1772538586962665000,7.6686650390625,0.045526470988988876,0.00006498113361885771,-0.009220396168529987
1772538586972680200,7.67868017578125,0.050040796399116516,-0.003463441040366888,0.006908506155014038
1772538586982695200,7.688695068359375,0.04747084528207779,0.0026045716367661953,0.025229189544916153
1772538586992711200,7.698711181640625,0.04314107820391655,0.010457967408001423,0.041960764676332474
1772538587002726100,7.70872607421875,0.044064395129680634,0.015721704810857773,0.04923998564481735
1772538587012742100,7.7187421875,0.044547226279973984,0.02215137518942356,0.049552638083696365
1772538587022757000,7.728757080078125,0.04258927330374718,0.027151459828019142,0.04031866043806076
1772538587032772000,7.738772216796875,0.0341196209192276,0.028726985678076744,0.022672023624181747
1772538587042788000,7.7487880859375,0.0265439935028553,0.02738954685628414,0.00785499345511198
1772538587052803000,7.758802978515625,0.016582971438765526,0.019112441688776016,-0.0031007183715701103
1772538587062819000,7.768819091796875,0.011652927845716476,0.0023824640084058046,-0.013818077743053436
1772538587072834000,7.778833984375,0.010237723588943481,-0.009588179178535938,-0.022971894592046738
1772538587082849000,7.78884912109375,0.010037720203399658,-0.01510012336075306,-0.028235366567969322
1772538587092865300,7.798865234375,0.002755839144811034,-0.01483513880521059,-0.025050224736332893
1772538587102880000,7.8088798828125,-0.010698450729250908,-0.01248196978121996,-0.019887154921889305
1772538587112896300,7.818896240234375,-0.01973775215446949,-0.010537861846387386,-0.01575632579624653
1772538587122911200,7.8289111328125,-0.021204620599746704,0.007080812472850084,-0.011930429376661777
1772538587132926200,7.83892626953125,-0.011663313955068588,0.030337665230035782,-0.0032855418976396322
1772538587142942200,7.848942138671875,-0.00672181835398078,0.045876409858465195,0.0028426581993699074
1772538587152957200,7.858957275390625,-0.009622800163924694,0.054187871515750885,0.00714765815064311
1772538587162973200,7.86897314453125,-0.013480388559401035,0.05709284543991089,0.012945625931024551
1772538587172988200,7.87898828125,-0.018552113324403763,0.0533100925385952,0.01076715998351574
1772538587183003100,7.889003173828125,-0.01763065904378891,0.05264323577284813,0.004683168604969978
1772538587193019100,7.89901904296875,-0.011384480632841587,0.05296175181865692,-0.0037151097785681486
1772538587203034000,7.9090341796875,-0.00044075315236113966,0.04990391060709953,-0.010461695492267609
1772538587213050000,7.919050048828125,0.010645986534655094,0.03855298459529877,-0.01164467167109251
1772538587223065000,7.929065185546875,0.021073326468467712,0.02793016843497753,-0.00418276060372591
1772538587233081000,7.9390810546875,0.03211772069334984,0.009396963752806187,0.007712780963629484
1772538587243096000,7.949095947265625,0.039503734558820724,-0.015577894635498524,0.015799470245838165
1772538587253111000,7.959111083984375,0.04716005548834801,-0.026571689173579216,0.017772072926163673
1772538587263127000,7.969126953125,0.05090605840086937,-0.024358602240681648,0.009876599535346031
1772538587273142000,7.97914208984375,0.04801386594772339,-0.011857724748551846,-0.01056103128939867
1772538587283158000,7.989157958984375,0.0375329926609993,0.00256435782648623,-0.03690022602677345
1772538587293173000,7.999173095703125,0.021806495264172554,0.01323937252163887,-0.060442570596933365
1772538587303188000,8.00918798828125,0.007790811359882355,0.019570771604776382,-0.07341349869966507
1772538587313204000,8.019203857421875,-0.0017068199813365936,0.015806127339601517,-0.0789017379283905
1772538587323219000,8.029218994140624,-0.01028592698276043,0.010297378525137901,-0.07333626598119736
1772538587333235000,8.03923486328125,-0.01366467960178852,-0.0008487494196742773,-0.06057493016123772
1772538587343250000,8.04925,-0.011800999753177166,-0.013128318823873997,-0.03592684119939804
1772538587353265200,8.05926513671875,-0.005287972744554281,-0.02167147397994995,-0.013831925578415394
1772538587363281000,8.069281005859375,-0.00001997370782191865,-0.022104503586888313,0.0008436894277110696
1772538587373296000,8.079296142578125,0.008897354826331139,-0.013609818182885647,0.0076363482512533665
1772538587383312100,8.08931201171875,0.010149306617677212,-0.0017172062071040273,0.0035183019936084747
1772538587393327000,8.0993271484375,0.010586331598460674,0.018184330314397812,-0.009730391204357147
1772538587403342000,8.109342041015625,0.00726297264918685,0.032878853380680084,-0.0240187831223011
1772538587413358300,8.1193583984375,0.005423261318355799,0.04519064724445343,-0.023620907217264175
1772538587423373300,8.129373291015625,0.00033875409280881286,0.045221805572509766,-0.017655959352850914
1772538587433389300,8.139389404296875,-0.0005874933558516204,0.03712952509522438,-0.012241486459970474
1772538587443404300,8.149404296875,0.0030208237003535032,0.02111327461898327,-0.0038213697262108326
1772538587453419300,8.159419189453125,0.006073072552680969,0.01068087387830019,0.001683916780166328
1772538587463435300,8.169435302734374,0.004387557972222567,0.009311210364103317,0.0017901768442243338
1772538587473450200,8.1794501953125,0.004067978356033564,0.012654808349907398,0.0020911141764372587
1772538587483466200,8.18946630859375,0.006403038278222084,0.01522768847644329,0.0010181264951825142
1772538587493481200,8.199481201171874,0.004976116586476564,0.006417952012270689,0.0019803266040980816
1772538587503496200,8.20949609375,0.004583300091326237,0.005793440621346235,0.008974053896963596
1772538587513512200,8.21951220703125,0.007892544381320477,0.006960970349609852,0.01739470288157463
1772538587523527200,8.229527099609374,0.007424094248563051,0.007273359224200249,0.02093617431819439
1772538587533543000,8.23954296875,0.0046181874349713326,0.01733851060271263,0.01865810714662075
1772538587543558000,8.249557861328125,0.0052136704325675964,0.034085530787706375,0.010980745777487755
1772538587553572900,8.25957275390625,0.002918025478720665,0.04267475754022598,0.0010897654574364424
1772538587563589000,8.269589111328125,-0.006177202332764864,0.04164198413491249,-0.007533283904194832
1772538587573603800,8.279603759765624,-0.018155300989747047,0.04319780319929123,-0.016407735645771027
1772538587583620000,8.2896201171875,-0.023001722991466522,0.04754701256752014,-0.016986707225441933
1772538587593635000,8.299635009765625,-0.02642308548092842,0.042203646153211594,-0.012383964844048023
1772538587603651000,8.309651123046875,-0.026546921581029892,0.0332769975066185,-0.007277354132384062
1772538587613666000,8.319666015625,-0.02919090911746025,0.022977754473686218,-0.004708202555775642
1772538587623681000,8.329680908203125,-0.02738848142325878,0.016512664034962654,-0.0011760519118979573
1772538587633697000,8.339697021484374,-0.025535719469189644,0.00737376045435667,-0.0019920445047318935
1772538587643712000,8.3497119140625,-0.02653893269598484,0.005589442327618599,-0.007160973735153675
1772538587653727000,8.35972705078125,-0.03456303849816322,0.016105733811855316,-0.012734437361359596
1772538587663743000,8.369742919921874,-0.036981984972953796,0.03979748114943504,-0.010350375436246395
1772538587673758000,8.379758056640625,-0.03410390764474869,0.060741644352674484,-0.00612420542165637
1772538587683774000,8.38977392578125,-0.03549034893512726,0.05964282527565956,-0.0030533140525221825
1772538587693789000,8.399788818359376,-0.03975566849112511,0.0503569133579731,-0.008166050538420677
1772538587703805000,8.409804931640625,-0.03852954879403114,0.044449757784605026,-0.02183392643928528
1772538587713820000,8.41981982421875,-0.031622640788555145,0.04121321812272072,-0.04080149158835411
1772538587723835000,8.4298349609375,-0.021021395921707153,0.02678500860929489,-0.053892526775598526
1772538587733851000,8.439850830078125,-0.00782516598701477,0.005197957623749971,-0.05529334768652916
1772538587743865900,8.449865966796875,-0.005339904222637415,-0.010875551030039787,-0.05121418461203575
1772538587753881900,8.4598818359375,-0.0023523701820522547,-0.016594955697655678,-0.0459698885679245
1772538587763896800,8.469896728515625,-0.005377188324928284,-0.01912708953022957,-0.05029113218188286
1772538587773912000,8.479912109375,-0.01281672902405262,-0.01629907824099064,-0.06450096517801285
1772538587783927800,8.489927734375,-0.015222095884382725,-0.011544004082679749,-0.08002053201198578
1772538587793943000,8.499943115234375,-0.0142369931563735,-0.016048474237322807,-0.098234161734581
1772538587803958800,8.509958740234374,-0.010931476950645447,-0.03443041071295738,-0.11061625927686691
1772538587813974000,8.51997412109375,-0.007230482529848814,-0.057441189885139465,-0.11157792806625366
1772538587823989000,8.529989013671875,-0.00019574233738239855,-0.0627179741859436,-0.09964802861213684
1772538587834005000,8.5400048828125,0.012518721632659435,-0.051114317029714584,-0.08046688139438629
1772538587844020000,8.55002001953125,0.020776385441422462,-0.03893381729722023,-0.060257215052843094
1772538587854036000,8.560035888671875,0.023810524493455887,-0.025562085211277008,-0.041065942496061325
1772538587864051200,8.57005126953125,0.024026505649089813,-0.009772202931344509,-0.02540256269276142
1772538587874066000,8.58006591796875,0.021577997133135796,0.0067511131055653095,-0.011689945124089718
1772538587884082200,8.590082275390625,0.020591827109456062,0.012523781508207321,0.0014988270122557878
1772538587894097200,8.60009716796875,0.01774544082581997,0.007764978799968958,0.009103217162191868
1772538587904113200,8.610113037109375,0.013172793202102184,0.00015286543930415064,0.012501676566898823
1772538587914128100,8.620128173828125,0.011151188053190708,0.0032730249222368,0.014582138508558273
1772538587924143000,8.63014306640625,0.015155782923102379,0.008363391272723675,0.015528359450399876
1772538587934159000,8.6401591796875,0.014896657317876816,0.002016811864450574,0.017679661512374878
1772538587944174000,8.650174072265624,0.009456885047256947,-0.0063798688352108,0.020385699346661568
1772538587954190000,8.660190185546876,0.00487092137336731,-0.016537431627511978,0.023195333778858185
1772538587964205000,8.670205078125,-0.0010761833982542157,-0.027218038216233253,0.0252760611474514
1772538587974220000,8.680219970703124,-0.00771757448092103,-0.02443876303732395,0.02684972435235977
1772538587984236000,8.690236083984376,-0.013519536703824997,-0.0057377805933356285,0.028749356046319008
1772538587994251000,8.7002509765625,-0.020239224657416344,0.015894010663032532,0.024450214579701424
1772538588004267000,8.71026708984375,-0.024532506242394447,0.027837490662932396,0.013774667866528034
1772538588014282000,8.720281982421875,-0.022771624848246574,0.029162146151065826,0.004375840071588755
1772538588024297000,8.730296875,-0.01805143803358078,0.025365810841321945,-0.0012319782981649041
1772538588034313000,8.74031298828125,-0.01449638418853283,0.017106281593441963,-0.0030860709957778454
1772538588044328000,8.750327880859375,-0.014185060746967793,-0.0022069616243243217,-0.0023971113841980696
1772538588054344000,8.760343994140625,-0.01660773903131485,-0.012633769772946835,0.0017414409667253494
1772538588064359000,8.77035888671875,-0.014579208567738533,-0.017186177894473076,0.0041310954838991165
1772538588074374000,8.780373779296875,-0.013529657386243343,-0.013097159564495087,0.008405469357967377
1772538588084390000,8.790389892578125,-0.01139992754906416,-0.0037444045301526785,0.010216418653726578
1772538588094404900,8.80040478515625,-0.009424393996596336,0.006331931799650192,0.011413509026169777
1772538588104420900,8.8104208984375,-0.0057479003444314,0.013917413540184498,0.01275467686355114
1772538588114435800,8.820435791015624,-0.0046722497791051865,0.019593408331274986,0.02010287158191204
1772538588124450800,8.830450927734375,-0.0013755226973444223,0.020177174359560013,0.023781761527061462
1772538588134466800,8.840466796875,-0.0007342335302382708,0.01392593514174223,0.022395852953195572
1772538588144481800,8.850481689453124,0.004811799619346857,0.003921504598110914,0.016561400145292282
1772538588154498000,8.860498046875,0.01261086668819189,-0.009254484437406063,0.007868309505283833
1772538588164512800,8.8705126953125,0.02141421101987362,-0.02256762608885765,-0.0015936355339363217
1772538588174528000,8.880528076171874,0.029377596452832222,-0.02960902452468872,-0.008500543422996998
1772538588184544000,8.8905439453125,0.035230159759521484,-0.0337425172328949,-0.016691895201802254
1772538588194559000,8.90055908203125,0.03621179983019829,-0.03259282931685448,-0.023790018633008003
1772538588204575000,8.910574951171874,0.034811776131391525,-0.036141227930784225,-0.02280544675886631
1772538588214590000,8.92058984375,0.0348365418612957,-0.0599253848195076,-0.020553745329380035
1772538588224605200,8.930605224609375,0.027816982939839363,-0.06623973697423935,-0.011267035268247128
1772538588234621000,8.940620849609376,0.026220418512821198,-0.04679600149393082,0.0009139968897216022
1772538588244636200,8.95063623046875,0.020595023408532143,-0.032097216695547104,0.009239038452506065
1772538588254652000,8.96065185546875,0.008946090936660767,-0.03067721799015999,0.013677729293704033
1772538588264667100,8.970667236328126,-0.0015510249650105834,-0.022408902645111084,0.010551444254815578
1772538588274682000,8.98068212890625,-0.0059870523400604725,-0.0051990230567753315,0.0025963156949728727
1772538588284698000,8.990697998046874,-0.0017957695527002215,0.001204547705128789,-0.007796670310199261
1772538588294713000,9.000713134765626,0.0059628174640238285,-0.0065252771601080894,-0.0099034970626235
1772538588304729000,9.01072900390625,0.014326740987598896,-0.01678244210779667,-0.005016063805669546
1772538588314744000,9.020744140625,0.014195181429386139,-0.03342027589678764,0.0020234698895365
1772538588324759000,9.030759033203125,0.013490774668753147,-0.04893478751182556,0.00695005152374506
1772538588334775000,9.040775146484375,0.005840312223881483,-0.048416268080472946,0.005973470397293568
1772538588344790000,9.0507900390625,-0.005115399602800608,-0.034496989101171494,-0.001529453438706696
1772538588354806000,9.060805908203125,-0.014151238836348057,-0.018435997888445854,-0.01224841084331274
1772538588364821000,9.070821044921875,-0.022489862516522408,-0.010979413986206055,-0.022290658205747604
1772538588374836000,9.0808359375,-0.023727700114250183,-0.005282646510750055,-0.019775303080677986
1772538588384852000,9.09085205078125,-0.023667246103286743,-0.009876333177089691,-0.02191142365336418
1772538588394867000,9.100866943359375,-0.02142965793609619,-0.019879698753356934,-0.02696477249264717
1772538588404883000,9.110883056640626,-0.020687434822320938,-0.02526940405368805,-0.0362434908747673
1772538588414898000,9.12089794921875,-0.01618482917547226,-0.02733015827834606,-0.04693927988409996
1772538588424913000,9.130912841796874,-0.009343167766928673,-0.03237657994031906,-0.051956675946712494
1772538588434929000,9.140928955078126,-0.004465055651962757,-0.03863128274679184,-0.045644983649253845
1772538588444944000,9.15094384765625,-0.0004213120846543461,-0.046557649970054626,-0.03417820855975151
1772538588454959900,9.1609599609375,-0.0007613977650180459,-0.04201695695519447,-0.02665344811975956
1772538588464974800,9.170974853515625,-0.004021106753498316,-0.028246551752090454,-0.024983379989862442
1772538588474989800,9.18098974609375,-0.006344715133309364,-0.005002748221158981,-0.027530428022146225
1772538588485006000,9.191006103515624,-0.006746319588273764,0.01233656145632267,-0.03175446763634682
1772538588495021000,9.20102099609375,-0.011904329992830753,0.024037959054112434,-0.03696174547076225
1772538588505037000,9.211037109375,-0.011334413662552834,0.0258110910654068,-0.0389505960047245
1772538588515052000,9.221052001953124,-0.005797701422125101,0.0196104533970356,-0.03653723746538162
1772538588525067000,9.23106689453125,0.0038301581516861916,0.012918728403747082,-0.031927574425935745
1772538588535083300,9.241083251953125,0.015244732610881329,0.013370666652917862,-0.02267681621015072
1772538588545098200,9.25109814453125,0.0233487319201231,0.0198618546128273,-0.014672686345875263
1772538588555114500,9.261114501953125,0.026642529293894768,0.023618243634700775,-0.013341105543076992
1772538588565129500,9.27112939453125,0.0278614591807127,0.022906914353370667,-0.010219081304967403
1772538588575144200,9.281144287109376,0.03442881256341934,0.02105202153325081,-0.00627094553783536
1772538588585160400,9.291160400390625,0.04296637699007988,0.016176307573914528,-0.00430233683437109
1772538588595175400,9.301175537109375,0.04984132573008537,0.00884995050728321,-0.005108209326863289
1772538588605191400,9.31119140625,0.051783833652734756,0.007185208611190319,-0.009372728876769543
1772538588615206400,9.321206298828125,0.04710439592599869,0.012514459900557995,-0.01576058752834797
1772538588625847300,9.331847412109376,0.043717388063669205,0.01763199083507061,-0.012094479985535145
1772538588635863300,9.34186328125,0.035777971148490906,0.018008561804890633,-0.0034786208998411894
1772538588645878300,9.351878173828124,0.0303946565836668,0.01840244233608246,0.0028991170693188906
1772538588655894500,9.36189453125,0.03368685767054558,0.022113557904958725,0.00774607015773654
1772538588665909200,9.3719091796875,0.038782548159360886,0.018495386466383934,0.012182364240288734
1772538588675924200,9.38192431640625,0.043420977890491486,0.005143895745277405,0.014199974946677685
1772538588685940500,9.3919404296875,0.04886075109243393,-0.00339153571985662,0.008709602057933807
1772538588695955500,9.40195556640625,0.04940669611096382,-0.004285026341676712,0.0013683321885764599
1772538588705971500,9.411971435546874,0.04607534781098366,0.001282045734114945,-0.001654089312069118
1772538588715986400,9.421986328125,0.041550640016794205,0.0070794811472296715,-0.0038402783684432507
1772538588726002400,9.43200244140625,0.038362037390470505,0.010493653826415539,-0.004025900736451149
1772538588736017400,9.442017333984374,0.03843660652637482,0.003489806316792965,-0.006022472400218248
1772538588746032400,9.452032470703125,0.03910798951983452,-0.004816593136638403,-0.010832407511770725
1772538588756048400,9.46204833984375,0.03947603702545166,-0.008499478921294212,-0.0184027086943388
1772538588766063400,9.4720634765625,0.037159617990255356,-0.013391172513365746,-0.025591114535927773
1772538588776078300,9.482078369140625,0.03314170613884926,-0.011653460562229156,-0.0226198248565197
1772538588786094300,9.49209423828125,0.0247250534594059,-0.0006053365068510175,-0.01435310672968626
1772538588796109300,9.502109375,0.021016601473093033,0.014108628034591675,-0.003931358456611633
1772538588806125300,9.512125244140625,0.018615229055285454,0.024994831532239914,-0.0008162588928826153
1772538588816140300,9.522140380859375,0.014083861373364925,0.03320562466979027,-0.0040884846821427345
1772538588826155500,9.532155517578126,0.011767975986003876,0.03746641427278519,-0.014282799325883389
1772538588836171300,9.542171142578125,0.01480664312839508,0.027622040361166,-0.019349996000528336
1772538588846186500,9.5521865234375,0.01708311215043068,0.013876400887966156,-0.015154718421399593
1772538588856202200,9.5622021484375,0.019272230565547943,0.008223309181630611,0.002552639925852418
1772538588866217500,9.572217529296875,0.0184655599296093,0.0018913770327344537,0.022723421454429626
1772538588876233200,9.582233154296874,0.01636565662920475,-0.0062456452287733555,0.03500885143876076
1772538588886248400,9.59224853515625,0.020796624943614006,-0.011109909042716026,0.03680701553821564
1772538588896263400,9.602263427734375,0.024104004725813866,-0.010114419274032116,0.030169619247317314
1772538588906279400,9.612279541015624,0.02785799652338028,-0.0024676851462572813,0.014542990364134312
1772538588916294400,9.62229443359375,0.03205380588769913,0.008517853915691376,0.0013046825770288706
1772538588926309400,9.632309326171875,0.03594202175736427,0.012455071322619915,-0.002776611829176545
1772538588936325400,9.642325439453124,0.037882134318351746,0.009770872071385384,-0.00024288028362207115
1772538588946340400,9.65234033203125,0.03641713038086891,0.0033933997619897127,0.006969758775085211
1772538588956356400,9.6623564453125,0.030656712129712105,0.0006431533838622272,0.011665711179375648
1772538588966997500,9.67299755859375,0.028749089688062668,-0.002823749789968133,0.01500984188169241
1772538588977012500,9.683012451171875,0.023907197639346123,-0.0019257317762821913,0.010778611525893211
1772538588987028500,9.693028564453124,0.019815782085061073,-0.005349225364625454,0.0070768180303275585
1772538588997043500,9.70304345703125,0.020171580836176872,-0.00890667550265789,0.009257947094738483
1772538589007059500,9.7130595703125,0.015809057280421257,-0.004515123087912798,0.009135707281529903
1772538589017074400,9.723074462890626,0.012193016707897186,0.011238273233175278,0.007920507341623306
1772538589027089400,9.73308935546875,0.011058776639401913,0.02540202997624874,0.006514891050755978
1772538589037105400,9.74310546875,0.010263023898005486,0.03158242627978325,0.005212338641285896
1772538589047120400,9.753120361328126,0.01218582596629858,0.02431013248860836,0.004688494838774204
1772538589057136400,9.763136474609375,0.015290539711713791,0.003999269101768732,0.009874468669295311
1772538589067151400,9.7731513671875,0.02251010201871395,-0.01004863902926445,0.013904363848268986
1772538589077166300,9.783166259765625,0.026882747188210487,-0.008891229517757893,0.014788533560931683
1772538589087182600,9.7931826171875,0.024329841136932373,0.002409361768513918,0.008094677701592445
1772538589097197300,9.803197265625,0.019535884261131287,0.023091204464435577,0.003168096300214529
1772538589107213600,9.813213623046876,0.015369635075330734,0.03417980670928955,-0.0010098706698045135
1772538589117228500,9.823228515625,0.012058793567121029,0.030131537467241287,-0.004846953321248293
1772538589127243500,9.833243408203124,0.014161358587443829,0.023334616795182228,0.0004727110790554434
1772538589137259500,9.843259521484375,0.01697578839957714,0.01667351834475994,0.00418515782803297
1772538589147274500,9.8532744140625,0.01672092266380787,0.008682969957590103,0.007750597782433033
1772538589157290500,9.86329052734375,0.02009195275604725,0.008016115054488182,0.01324256882071495
1772538589167305500,9.873305419921875,0.020085560157895088,0.014049505814909935,0.018819494172930717
1772538589177320400,9.883320556640625,0.019574766978621483,0.01793958619236946,0.026398850604891777
1772538589187336400,9.89333642578125,0.02298228070139885,0.02889050357043743,0.0311102494597435
1772538589197351400,9.903351318359375,0.03123222105205059,0.03563069924712181,0.025080053135752678
1772538589207367400,9.913367431640625,0.03410390764474869,0.03955433517694473,0.014735536649823189
1772538589217382400,9.92338232421875,0.036197952926158905,0.04488811269402504,0.005145759787410498
1772538589227397400,9.9333974609375,0.03527356684207916,0.04940935969352722,0.0007171892793849111
1772538589237413400,9.943413330078124,0.029137112200260162,0.05139501392841339,0.0034226945135742426
1772538589247428400,9.953428466796876,0.02033483237028122,0.05830219015479088,-0.0013073458103463054
1772538589257444400,9.9634443359375,0.016832776367664337,0.04953719303011894,-0.003229881636798382
1772538589267459300,9.973459228515624,0.014751781709492207,0.035595543682575226,-0.0022650184109807014
1772538589277474300,9.983474365234375,0.007998271845281124,0.025471538305282593,0.005766542628407478
1772538589287490300,9.993490234375,0.0008492820779792964,0.02232634462416172,0.008658203296363354
1772538589297505300,10.00350537109375,0.004000334069132805,0.025500033050775528,0.0072896042838692665
1772538589307521300,10.013521240234375,0.012870791368186474,0.02827717736363411,0.00436145905405283
1772538589317536300,10.023536376953125,0.02219558320939541,0.03187883645296097,-0.0025774072855710983
1772538589327551500,10.033551513671876,0.031565114855766296,0.033492978662252426,-0.007692540530115366
1772538589337567200,10.043567138671875,0.036022450774908066,0.02069782093167305,-0.015152587555348873
1772538589347582500,10.05358251953125,0.0393705740571022,0.004966262727975845,-0.01732546091079712
1772538589357598200,10.06359814453125,0.0365217924118042,0.0005954828229732811,-0.022483738139271736
1772538589367613400,10.073613525390625,0.03996206447482109,0.0012921657180413604,-0.024111460894346237
1772538589377628400,10.08362841796875,0.04542846605181694,0.005360943265259266,-0.016952352598309517
1772538589387644400,10.09364453125,0.05048234760761261,0.002507632365450263,-0.0012863067677244544
1772538589397659400,10.103659423828125,0.052008338272571564,-0.008716260083019733,0.013361611403524876
1772538589407675400,10.11367529296875,0.051001131534576416,-0.02202700451016426,0.02731018327176571
1772538589417690600,10.123690673828126,0.03591006249189377,-0.069346584379673,0.04568279907107353
1772538589427705300,10.133705322265625,0.05308026075363159,-0.06598833948373795,0.05294710397720337
1772538589437721600,10.1437216796875,0.049379002302885056,-0.10121556371450424,0.04109097644686699
1772538589447736600,10.153736572265625,0.05690669268369675,-0.06691192090511322,0.03503787890076637
1772538589457752600,10.163752685546875,0.05576952174305916,-0.029172265902161598,0.011289938353002071
1772538589467767600,10.173767578125,0.044077977538108826,-0.02365499548614025,-0.026024144142866135
1772538589477782500,10.183782470703125,0.050579022616147995,-0.006073871627449989,-0.04333335906267166
1772538589487798500,10.193798583984375,0.043583162128925323,0.008964200504124165,-0.0502471923828125
1772538589497813500,10.2038134765625,0.025420671328902245,0.010123474523425102,-0.050946805626153946
1772538589507829500,10.21382958984375,0.0012157330056652427,0.00039494677912443876,-0.03945766016840935
1772538589517844500,10.223844482421875,-0.023302659392356873,-0.014466824010014534,-0.024234233424067497
1772538589527859500,10.233859375,-0.041734930127859116,-0.03227431699633598,-0.0068022459745407104
1772538589537875200,10.243875244140625,-0.04966236278414726,-0.013764814473688602,0.006630471907556057
1772538589547890200,10.25389013671875,-0.045102495700120926,0.012650547549128532,0.019532687962055206
1772538589557906200,10.26390625,-0.03939827159047127,0.024933844804763794,0.026941869407892227
1772538589567921200,10.273921142578125,-0.030181869864463806,0.0204557403922081,0.0266028493642807
1772538589577936100,10.28393603515625,-0.026195118203759193,0.0070861391723155975,0.024933578446507454
1772538589587952000,10.2939521484375,-0.021226724609732628,-0.009309612214565277,0.019963854923844337
1772538589597967000,10.303967041015625,-0.02008689194917679,-0.014543522149324417,0.013471334241330624
1772538589607982000,10.313982177734376,-0.01804930716753006,-0.011998339556157589,0.006226737052202225
1772538589617998000,10.323998046875,-0.016094280406832695,-0.013814615085721016,-0.00267754215747118
1772538589628013000,10.334012939453125,-0.01233602873980999,-0.01708204858005047,-0.01667112112045288
1772538589638029300,10.344029296875,-0.008289088495075703,-0.013797038234770298,-0.034878090023994446
1772538589648044300,10.354044189453125,-0.008890963159501553,-0.010252371430397034,-0.05680975317955017
1772538589658059000,10.36405908203125,-0.010601777583360672,-0.01007766742259264,-0.07236261665821075
1772538589668075300,10.3740751953125,-0.010657704435288906,-0.009543970227241516,-0.07328300178050995
1772538589678090200,10.38409033203125,-0.010998588986694813,0.003049053018912673,-0.07170215249061584
1772538589688106200,10.394106201171875,-0.010998322628438473,0.022058431059122086,-0.060192499309778214
1772538589698121200,10.404121337890626,-0.011366104707121849,0.03281014412641525,-0.050506848841905594
1772538589708136400,10.414136474609375,-0.006943659856915474,0.04164757952094078,-0.0415293350815773
1772538589718152200,10.424152099609374,-0.0026706180069595575,0.054192133247852325,-0.02961594983935356
1772538589728167200,10.434167236328125,0.00041305628838017583,0.05518202856183052,-0.017660751938819885
1772538589738183200,10.44418310546875,-0.002174204681068659,0.03951758146286011,-0.0017467673169448972
1772538589748198100,10.4541982421875,0.0015036207623779774,0.028985312208533287,0.010542389005422592
1772538589758213400,10.46421337890625,0.009822004474699497,0.018428275361657143,0.015750201418995857
1772538589768229000,10.47422900390625,0.02231622487306595,0.009383914060890675,0.01847301609814167
1772538589778244400,10.484244384765624,0.03801875561475754,-0.0011249192757532,0.014758439734578133
1772538589788260000,10.494260009765625,0.04627508670091629,-0.02052018791437149,0.00953944306820631
1772538589798275300,10.504275390625,0.050343599170446396,-0.03328418731689453,-0.0003653856983873993
1772538589808290300,10.514290283203126,0.0486021563410759,-0.030880151316523552,-0.018918298184871674
1772538589818306300,10.524306396484375,0.04623300954699516,-0.01974201388657093,-0.04306384548544884
1772538589828321300,10.5343212890625,0.04080255702137947,0.00021598236344289035,-0.05848594754934311
1772538589838337300,10.544337158203126,0.032638102769851685,0.015603993088006973,-0.05693518742918968
1772538589848352300,10.554352294921875,0.015986423939466476,0.023036343976855278,-0.042446792125701904
1772538589858367200,10.5643671875,-0.003352120751515031,0.02070368081331253,-0.02088371105492115
1772538589868383200,10.57438330078125,-0.018505508080124855,0.006381466519087553,-0.010065151378512383
1772538589878398200,10.584398193359375,-0.02081180550158024,0.0018551580142229795,-0.013308081775903702
1772538589888414200,10.594414306640624,-0.010731473565101624,0.006713029928505421,-0.03383466228842735
1772538589898429200,10.60442919921875,-0.0031672974582761526,0.008862733840942383,-0.052558816969394684
1772538589908444200,10.614444091796875,-0.003216033335775137,0.006449110805988312,-0.05186506360769272
1772538589918460200,10.624460205078124,-0.014849253930151463,0.00836791843175888,-0.03724164515733719
1772538589928475100,10.63447509765625,-0.032176047563552856,0.019362512975931168,-0.021454958245158195
1772538589938491400,10.644491455078125,-0.04676484316587448,0.03851383551955223,-0.01990952529013157
1772538589948506400,10.65450634765625,-0.058514177799224854,0.056290172040462494,-0.027518177404999733
1772538589958521000,10.66452099609375,-0.06753163784742355,0.07082010805606842,-0.0347135066986084
1772538589968537300,10.674537353515625,-0.07135221362113953,0.07485853135585785,-0.035518843680620193
1772538589978552300,10.68455224609375,-0.07366649806499481,0.08358997106552124,-0.033424802124500275
1772538589988568300,10.694568359375,-0.07230748981237411,0.08538147807121277,-0.03194621577858925
1772538589998583300,10.704583251953125,-0.07101026177406311,0.0703713670372963,-0.02761591412127018
1772538590008598300,10.714598388671876,-0.0699271559715271,0.039205458015203476,-0.019159046933054924
1772538590018614300,10.7246142578125,-0.06886215507984161,0.02485155314207077,-0.007953530177474022
1772538590028629200,10.734629150390624,-0.06577927619218826,0.03721101954579353,-0.004444815684109926
1772538590038645200,10.744645263671876,-0.06108758971095085,0.06623947620391846,-0.016138490289449692
1772538590048660200,10.75466015625,-0.050818704068660736,0.08600865304470062,-0.04294214025139809
1772538590058675200,10.76467529296875,-0.03777347877621651,0.07983145117759705,-0.04403536766767502
1772538590068691200,10.774691162109375,-0.039748210459947586,0.051601409912109375,-0.025532789528369904
1772538590078706200,10.7847060546875,-0.046600259840488434,0.03044792078435421,-0.005309011787176132
1772538590088722200,10.79472216796875,-0.0440465547144413,0.03875938057899475,0.00726323900744319
1772538590098737200,10.804737060546875,-0.04025421291589737,0.05636926740407944,0.019165970385074615
1772538590108752100,10.814752197265625,-0.03580859676003456,0.05969661846756935,0.02033216878771782
1772538590118768000,10.82476806640625,-0.022157765924930573,0.04096154868602753,0.01841735653579235
1772538590128783000,10.834783203125,-0.010468353517353535,0.040220391005277634,0.009107477962970734
1772538590138798300,10.84479833984375,-0.00549276964738965,0.060751497745513916,-0.01661199890077114
1772538590148814000,10.85481396484375,0.00660463934764266,0.09048835188150406,-0.034498054534196854
1772538590158829300,10.864829345703125,0.019762786105275154,0.10752806067466736,-0.03478061780333519
1772538590168845000,10.874844970703125,0.015780294314026833,0.09745358675718307,-0.03724297508597374
1772538590178860300,10.8848603515625,0.025291774421930313,0.04895928502082825,-0.04500475898385048
1772538590188875300,10.894875244140625,0.03568129986524582,0.03191665560007095,-0.05119580775499344
1772538590198891300,10.904891357421874,0.0001608549355296418,0.10773871093988419,0.05468961223959923
1772538590208906200,10.91490625,-0.10402866452932358,-0.011981029063463211,0.11856473237276077
1772538590218922200,10.924922119140625,-0.12791135907173157,-0.12442900985479355,0.13557247817516327
1772538590228937200,10.934937255859374,-0.06699953973293304,-0.07670675963163376,0.1291755586862564
1772538590238952200,10.9449521484375,-0.01876569725573063,-0.04180337116122246,0.08838845044374466
1772538590248968200,10.95496826171875,-0.0065140919759869576,-0.025837723165750504,0.0378083661198616
1772538590258983200,10.964983154296876,-0.026944532990455627,-0.03455238416790962,-0.012255600653588772
1772538590268999400,10.97499951171875,0.013622867874801159,0.008071241900324821,-0.08018884807825089
1772538590279014400,10.985014404296875,0.05198277533054352,0.08424590528011322,-0.1362885981798172
1772538590289029000,10.995029052734376,0.06233900785446167,0.09898969531059265,-0.1481412649154663
1772538590299045400,11.00504541015625,0.05305229872465134,0.02117772400379181,-0.11818629503250122
