time,seconds_elapsed,z,y,x
1772538579335929300,0.041929443359375,-0.1662372648715973,-0.4250682592391968,-0.022174756973981857
1772538579345944000,0.051944091796875,-0.15320223569869995,-0.42484697699546814,0.0785665363073349
1772538579355960300,0.061960205078125,-0.1395743042230606,-0.44039851427078247,0.1691664606332779
1772538579365975300,0.071975341796875,-0.12559892237186432,-0.4498054087162018,0.21935823559761047
1772538579375990300,0.081990234375,-0.1005643978714943,-0.4423046112060547,0.2080770879983902
1772538579386006300,0.09200634765625,-0.06384770572185516,-0.41198667883872986,0.15119948983192444
1772538579396021200,0.102021240234375,-0.020002754405140877,-0.3619634807109833,0.08430753648281097
1772538579406037200,0.112037353515625,0.013260249979794025,-0.3061186969280243,0.015197709202766418
1772538579416052200,0.12205224609375,0.03113405592739582,-0.2640969455242157,-0.04672398045659065
1772538579426067500,0.1320673828125,0.03996322676539421,-0.2207796275615692,-0.1039188802242279
1772538579436083200,0.142083251953125,0.04508741572499275,-0.15615162253379822,-0.14639629423618317
1772538579446098400,0.152098388671875,0.060321442782878876,-0.09962350130081177,-0.16186320781707764
1772538579456114200,0.1621142578125,0.08280757069587708,-0.04192772135138512,-0.15233361721038818
1772538579466129400,0.17212939453125,0.10322927683591843,0.012713523581624031,-0.10709234327077866
1772538579476144400,0.182144287109375,0.11442627757787704,0.03315967321395874,-0.04596400260925293
1772538579486160400,0.192160400390625,0.12262488901615143,0.01991157792508602,0.012410355731844902
1772538579496175400,0.20217529296875,0.12768302857875824,-0.012986715883016586,0.05122273415327072
1772538579506191400,0.21219140625,0.1338096410036087,-0.05097881332039833,0.061718013137578964
1772538579516206300,0.222206298828125,0.15370798110961914,-0.07823812961578369,0.03778631612658501
1772538579526221000,0.232220947265625,0.17876406013965607,-0.09810270369052887,-0.004391289781779051
1772538579536237000,0.242237060546875,0.20794644951820374,-0.10442584753036499,-0.044503554701805115
1772538579546252000,0.252251953125,0.23721033334732056,-0.0940374881029129,-0.04925952106714249
1772538579556268000,0.26226806640625,0.2570442259311676,-0.08362852036952972,-0.012647980824112892
1772538579566283000,0.272282958984375,0.2745983302593231,-0.08556859195232391,0.05735631287097931
1772538579576298000,0.282298095703125,0.3040904402732849,-0.10101758688688278,0.13385561108589172
1772538579586314000,0.29231396484375,0.3441653549671173,-0.12988854944705963,0.19091638922691345
1772538579596329000,0.302328857421875,0.3641079068183899,-0.17667044699192047,0.21681617200374603
1772538579606345000,0.312344970703125,0.3531312048435211,-0.22812402248382568,0.20900480449199677
1772538579616360000,0.32235986328125,0.3221197724342346,-0.2570302188396454,0.16814899444580078
1772538579626375000,0.332375,0.28471043705940247,-0.24687570333480835,0.10047038644552231
1772538579636391000,0.342390869140625,0.25546494126319885,-0.2024610936641693,0.018436232581734657
1772538579646406000,0.352406005859375,0.23523485660552979,-0.13882263004779816,-0.05743693187832832
1772538579656422000,0.362421875,0.21688434481620789,-0.08208692073822021,-0.10303318500518799
1772538579666436900,0.372436767578125,0.19348980486392975,-0.034757014364004135,-0.11784334480762482
1772538579676451800,0.382451904296875,0.15901438891887665,0.012289324775338173,-0.10212589800357819
1772538579686467800,0.3924677734375,0.12898005545139313,0.05808669701218605,-0.06802646070718765
1772538579696482800,0.40248291015625,0.11601685732603073,0.09138765931129456,-0.036358542740345
1772538579706499000,0.4124990234375,0.12168120592832565,0.10866554081439972,-0.026739178225398064
1772538579716513800,0.422513671875,0.13994038105010986,0.09751621633768082,-0.04309312254190445
1772538579726528800,0.43252880859375,0.15825079381465912,0.033873409032821655,-0.0816512182354927
1772538579736545000,0.442544921875,0.17149576544761658,-0.03360017389059067,-0.09354409575462341
1772538579746560000,0.45256005859375,0.16454903781414032,-0.0804123505949974,-0.07534251362085342
1772538579756576000,0.462575927734375,0.13436956703662872,-0.12118134647607803,-0.05342656746506691
1772538579766591000,0.472591064453125,0.10944037139415741,-0.12772424519062042,-0.039746616035699844
1772538579776606200,0.482606201171875,0.09401294589042664,-0.11372055113315582,-0.04164544865489006
1772538579786622000,0.4926220703125,0.08062524348497391,-0.09397285431623459,-0.06962453573942184
1772538579796637200,0.50263720703125,0.07127488404512405,-0.056531473994255066,-0.11870499700307846
1772538579806653000,0.51265283203125,0.07328636199235916,0.010832035914063454,-0.1661492884159088
1772538579816668200,0.522668212890625,0.08176160603761673,0.0703723207116127,-0.19623635709285736
1772538579826683100,0.53268310546875,0.09153468161821365,0.09444094449281693,-0.19512797892093658
1772538579836699100,0.54269921875,0.08933170884847641,0.09177698940038681,-0.1730431765317917
1772538579846714000,0.552714111328125,0.0804922804236412,0.07008762657642365,-0.1476474553346634
1772538579856730000,0.562730224609375,0.07446341216564178,0.0518961064517498,-0.12195967137813568
1772538579866745000,0.5727451171875,0.07317831367254257,0.049273259937763214,-0.0895993635058403
1772538579876760000,0.582760009765625,0.07846228778362274,0.06318161636590958,-0.04824420437216759
1772538579886776000,0.592776123046875,0.07483672350645065,0.07939089834690094,0.004339261446148157
1772538579896791000,0.602791015625,0.06225143000483513,0.08919505774974823,0.05408790707588196
1772538579906807000,0.61280712890625,0.04631972312927246,0.09016062319278717,0.0863228440284729
1772538579916822000,0.622822021484375,0.03115754947066307,0.07810742408037186,0.0940002053976059
1772538579926838000,0.632838134765625,0.021721046417951584,0.05611303448677063,0.07999996840953827
1772538579936853000,0.64285302734375,0.013846347108483315,0.04394398629665375,0.05243411660194397
1772538579946868000,0.652867919921875,0.015483188442885876,0.04371330887079239,0.020321602001786232
1772538579956884000,0.662884033203125,0.013255453668534756,0.05769224092364311,0.005058759357780218
1772538579966899000,0.67289892578125,-0.0022009306121617556,0.07652082294225693,0.007384733762592077
1772538579976915000,0.6829150390625,-0.026181630790233612,0.083725206553936,0.020158585160970688
1772538579986930000,0.692929931640625,-0.04172230139374733,0.08096279203891754,0.02462458610534668
1772538579996945000,0.70294482421875,-0.0412575788795948,0.07009895890951157,0.015738682821393013
1772538580006961000,0.7129609375,-0.025816166773438454,0.05603194236755371,0.001011609099805355
1772538580016976000,0.722975830078125,-0.011381300166249275,0.033501334488391876,-0.017382312566041946
1772538580026992000,0.7329921875,-0.011171717196702957,0.01899847388267517,-0.044006817042827606
1772538580037007000,0.743007080078125,-0.01587219536304474,0.03127244859933853,-0.06963121891021729
1772538580047022000,0.75302197265625,-0.012945778667926788,0.04854815453290939,-0.09066468477249146
1772538580057038000,0.7630380859375,-0.0077949585393071175,0.05388299748301506,-0.10460953414440155
1772538580067053000,0.773052978515625,-0.0024604476056993008,0.05344836041331291,-0.1123691275715828
1772538580077069000,0.783069091796875,0.0038552386686205864,0.054444652050733566,-0.11280348896980286
1772538580087084000,0.793083984375,0.015695780515670776,0.05050842836499214,-0.09015963971614838
1772538580097099000,0.80309912109375,0.02274649776518345,0.048843152821063995,-0.042424604296684265
1772538580107115000,0.813114990234375,0.01940162107348442,0.043864477425813675,0.015522085130214691
1772538580117130000,0.8231298828125,0.003860212629660964,0.031159332022070885,0.06366831064224243
1772538580127146000,0.83314599609375,-0.017103174701333046,0.017974508926272392,0.09238599985837936
1772538580137161000,0.843160888671875,-0.028284987434744835,0.007701897993683815,0.10508129000663757
1772538580147176000,0.853176025390625,-0.0309587474912405,0.01262727938592434,0.10231831669807434
1772538580157192000,0.86319189453125,-0.024061160162091255,0.024693263694643974,0.08565279096364975
1772538580167207000,0.87320703125,-0.006648153066635132,0.030196355655789375,0.06460476666688919
1772538580177223000,0.883222900390625,0.012254697270691395,0.025016507133841515,0.043922122567892075
1772538580187238000,0.89323779296875,0.025183826684951782,0.008684310130774975,0.023048173636198044
1772538580197252900,0.9032529296875,0.028036339208483696,0.01163163036108017,-0.0019823447801172733
1772538580207268900,0.913268798828125,0.030587442219257355,0.030931774526834488,-0.022081606090068817
1772538580217283800,0.923283935546875,0.03020634315907955,0.051724936813116074,-0.023197468370199203
1772538580227299800,0.9332998046875,0.024354515597224236,0.05859911069273949,-0.003842592239379883
1772538580237314800,0.943314697265625,0.022981122136116028,0.0490463525056839,0.02788497693836689
1772538580247330000,0.953330078125,0.0156791340559721,0.019748901948332787,0.05571699142456055
1772538580257345800,0.963345703125,0.006181769073009491,-0.00738018611446023,0.07952139526605606
1772538580267361000,0.973361083984375,-0.00394703121855855,-0.012948056682944298,0.08326766639947891
1772538580277376800,0.983376708984375,-0.015145623125135899,0.0031374357640743256,0.06830096244812012
1772538580287392000,0.99339208984375,-0.02021528035402298,0.03473799303174019,0.0466865673661232
1772538580297408000,1.003407958984375,-0.02238922007381916,0.0750420093536377,0.017901793122291565
1772538580307423000,1.013423095703125,-0.021981148049235344,0.09272152185440063,-0.008428823202848434
1772538580317438000,1.02343798828125,-0.022054918110370636,0.08834381401538849,-0.0319402739405632
1772538580327454200,1.0334541015625,-0.011496623046696186,0.07760373502969742,-0.04210212826728821
1772538580337469200,1.04346923828125,0.005337218288332224,0.06418406218290329,-0.03327188640832901
1772538580347485200,1.053485107421875,0.02017461508512497,0.05191560462117195,-0.006260978523641825
1772538580357500200,1.063500244140625,0.02866530418395996,0.03823814168572426,0.02596566639840603
1772538580367515100,1.07351513671875,0.027303501963615417,0.029886245727539062,0.056657977402210236
1772538580377531100,1.08353125,0.01846686750650406,0.020625103265047073,0.08632266521453857
1772538580387546000,1.093546142578125,0.0028785786125808954,0.013450196012854576,0.09913530945777893
1772538580397562000,1.10356201171875,-0.01794520951807499,0.015606025233864784,0.09066352993249893
1772538580407577000,1.1135771484375,-0.02641160413622856,0.04086392745375633,0.0591060146689415
1772538580417592000,1.123592041015625,-0.018675919622182846,0.0728418380022049,0.018242739140987396
1772538580427608000,1.133608154296875,-0.0011405829573050141,0.09140269458293915,-0.021730009466409683
1772538580437623000,1.143623046875,0.013686299324035645,0.08539726585149765,-0.04607982560992241
1772538580447639000,1.15363916015625,0.015200698748230934,0.07226139307022095,-0.05383305251598358
1772538580457654000,1.163654052734375,0.004866568371653557,0.056244079023599625,-0.04694318771362305
1772538580467669000,1.1736689453125,-0.008364013396203518,0.0339483842253685,-0.03226568177342415
1772538580477685000,1.18368505859375,-0.022135218605399132,0.014749392867088318,-0.016277926042675972
1772538580487700000,1.193699951171875,-0.0308216605335474,-0.002468561287969351,-0.006939107086509466
1772538580497716000,1.203716064453125,-0.021219898015260696,-0.004134634509682655,-0.0034506325609982014
1772538580507731000,1.21373095703125,-0.0053460546769201756,0.007014220580458641,-0.007855236530303955
1772538580517746000,1.223745849609375,0.005994750652462244,0.014700901694595814,-0.014530450105667114
1772538580527761700,1.23376171875,0.01433749683201313,0.017330968752503395,-0.022388311102986336
1772538580537776600,1.243776611328125,0.021467844024300575,0.006786182522773743,-0.026827799156308174
1772538580547792600,1.253792724609375,0.025171974673867226,-0.015796545892953873,-0.02289656177163124
1772538580557807600,1.2638076171875,0.027332598343491554,-0.023135419934988022,-0.017317771911621094
1772538580567823600,1.27382373046875,0.03109031356871128,0.008305832743644714,-0.012241017073392868
1772538580577838600,1.283838623046875,0.032503124326467514,0.05868697911500931,-0.005228914320468903
1772538580587853600,1.293853515625,0.030082978308200836,0.09499203413724899,-0.003177038859575987
1772538580597869600,1.30386962890625,0.0202425979077816,0.11631729453802109,-0.005359765607863665
1772538580607884500,1.313884521484375,0.007768691051751375,0.12255237996578217,-0.01433618925511837
1772538580617900800,1.32390087890625,-0.007160990033298731,0.11127069592475891,-0.024528106674551964
1772538580627915500,1.33391552734375,-0.019099077209830284,0.10194108635187149,-0.03578457608819008
1772538580637930800,1.3439306640625,-0.029569827020168304,0.08708091825246811,-0.04445502907037735
1772538580647946800,1.35394677734375,-0.0312177911400795,0.06999114900827408,-0.053325753659009933
1772538580657961700,1.363961669921875,-0.02342006005346775,0.05425526946783066,-0.050831228494644165
1772538580667977700,1.373977783203125,-0.020218873396515846,0.03353188931941986,-0.04047958180308342
1772538580677992700,1.38399267578125,-0.014530360698699951,-0.004681807942688465,-0.0261634923517704
1772538580688008000,1.394008056640625,-0.004108418710529804,-0.031172867864370346,-0.01023592334240675
1772538580698023700,1.404023681640625,0.0065881675109267235,-0.0405820831656456,0.003593605477362871
1772538580708039000,1.414038818359375,0.013541417196393013,-0.03762967139482498,0.0070157963782548904
1772538580718054700,1.4240546875,0.013482827693223953,-0.02318362332880497,0.010592687875032425
1772538580728070000,1.43406982421875,-0.0004912415752187371,0.0033585417550057173,0.00940355658531189
1772538580738084900,1.4440849609375,-0.014895480126142502,0.03118111565709114,0.01102382317185402
1772538580748100900,1.454100830078125,-0.025689201429486275,0.05481087788939476,0.006596050690859556
1772538580758115800,1.46411572265625,-0.025101175531744957,0.06517616659402847,0.0035443343222141266
1772538580768131800,1.4741318359375,-0.01911013014614582,0.053692322224378586,0.007237044163048267
1772538580778146800,1.484146728515625,-0.016610220074653625,0.04179970920085907,0.013707459904253483
1772538580788161800,1.494161865234375,-0.024639520794153214,0.0308064054697752,0.018351569771766663
1772538580798177800,1.504177734375,-0.037105511873960495,0.02082034945487976,0.01803145930171013
1772538580808192800,1.51419287109375,-0.040321480482816696,0.014016721397638321,0.015129826962947845
1772538580818208800,1.524208740234375,-0.02670261077582836,0.014142956584692001,0.011507928371429443
1772538580828223700,1.5342236328125,-0.00888838991522789,0.010542930103838444,0.018076850101351738
1772538580838238700,1.54423876953125,0.0035363216884434223,0.0035864869132637978,0.02669084630906582
1772538580848254700,1.554254638671875,0.008895860984921455,-0.004677099175751209,0.03201157599687576
1772538580858269700,1.564269775390625,0.01524164155125618,-0.009216990321874619,0.019693924114108086
1772538580868285700,1.57428564453125,0.0225042887032032,-0.013764525763690472,-0.0007744533941149712
1772538580878300700,1.58430078125,0.0302029550075531,-0.007654435001313686,-0.02373036928474903
1772538580888315600,1.594315673828125,0.03650565817952156,-0.0008010778110474348,-0.047932468354701996
1772538580898331600,1.60433154296875,0.03752724453806877,-0.002476206049323082,-0.06498841941356659
1772538580908346600,1.6143466796875,0.026432519778609276,-0.004443692974746227,-0.07096661627292633
1772538580918362600,1.624362548828125,0.015458165667951107,-0.006076743360608816,-0.07187023758888245
1772538580928377600,1.634377685546875,0.01241390872746706,-0.01519457995891571,-0.07046405225992203
1772538580938393900,1.644393798828125,0.022867081686854362,-0.029966868460178375,-0.07107977569103241
1772538580948408800,1.654408935546875,0.03750620409846306,-0.02673180028796196,-0.07515668869018555
1772538580958423800,1.664423828125,0.05153892934322357,-0.012182952836155891,-0.07608985900878906
1772538580968439800,1.674439697265625,0.05643428862094879,0.00020822486840188503,-0.06994452327489853
1772538580978454800,1.684454833984375,0.05027439817786217,0.011695504188537598,-0.05876484513282776
1772538580988470800,1.694470703125,0.04251600801944733,0.009332740679383278,-0.046018097549676895
1772538580998485800,1.70448583984375,0.03472493216395378,-0.0026075425557792187,-0.0291387140750885
1772538581008500700,1.714500732421875,0.030858013778924942,-0.01322671677917242,-0.01412416622042656
1772538581018516700,1.724516845703125,0.030136829242110252,-0.020427372306585312,-0.006041738670319319
1772538581028531700,1.73453173828125,0.03532068058848381,-0.0314708836376667,-0.008055535145103931
1772538581038547700,1.744547607421875,0.04240601882338524,-0.0492115318775177,-0.01817554607987404
1772538581048562700,1.754562744140625,0.04587699472904205,-0.06439326703548431,-0.025343891233205795
1772538581058577700,1.76457763671875,0.042228732258081436,-0.08269823342561722,-0.027457375079393387
1772538581068593700,1.77459375,0.03463139757514,-0.08984430879354477,-0.031365711241960526
1772538581078608600,1.784608642578125,0.026285583153367043,-0.07594180852174759,-0.03265734389424324
1772538581088624600,1.794624755859375,0.019007697701454163,-0.05432223901152611,-0.040379419922828674
1772538581098639600,1.8046396484375,0.007424545474350452,-0.03588171303272247,-0.049645621329545975
1772538581108654800,1.81465478515625,-0.0059982649981975555,-0.00558122806251049,-0.05625848472118378
1772538581118670600,1.824670654296875,-0.025134675204753876,0.036931343376636505,-0.05502916872501373
1772538581128685800,1.834685791015625,-0.04605846107006073,0.07379329949617386,-0.049947116523981094
1772538581138701600,1.84470166015625,-0.0587494857609272,0.11159314215183258,-0.04866081103682518
1772538581148716800,1.854716796875,-0.06424305588006973,0.1447090357542038,-0.050851233303546906
1772538581158732500,1.864732666015625,-0.0745132714509964,0.1486438512802124,-0.05526648834347725
1772538581168747800,1.874747802734375,-0.086329385638237,0.16122111678123474,-0.06000277027487755
1772538581178762800,1.8847626953125,-0.09522701054811478,0.17980492115020752,-0.06626439839601517
1772538581188778800,1.89477880859375,-0.09685298800468445,0.18474224209785461,-0.06776275485754013
1772538581198793700,1.904793701171875,-0.09307263046503067,0.18341438472270966,-0.062303271144628525
1772538581208809700,1.914809814453125,-0.0865819975733757,0.16352441906929016,-0.05119111016392708
1772538581218824700,1.92482470703125,-0.07627236843109131,0.11418509483337402,-0.037027619779109955
1772538581228839700,1.934839599609375,-0.06899114698171616,0.045765604823827744,-0.02941027097404003
1772538581238856000,1.94485595703125,-0.06299690157175064,-0.005385464522987604,-0.03055250085890293
1772538581248871000,1.954870849609375,-0.0537874810397625,-0.033516597002744675,-0.023922117426991463
1772538581258887000,1.964886962890625,-0.0387752428650856,-0.04911978915333748,-0.008753284811973572
1772538581268902000,1.97490185546875,-0.0243088249117136,-0.05780605226755142,0.02052074484527111
1772538581278916900,1.984916748046875,-0.017005106434226036,-0.054517850279808044,0.04999767616391182
1772538581288932900,1.994932861328125,-0.012989583425223827,-0.031849708408117294,0.06740794330835342
1772538581298947800,2.00494775390625,-0.005409428849816322,-0.007335311733186245,0.0760863870382309
1772538581308963800,2.0149638671875,0.0036198890302330256,0.008131038397550583,0.07899952679872513
1772538581318978800,2.024978759765625,0.014075725339353085,0.014291996136307716,0.0806749239563942
1772538581328993800,2.034993896484375,0.021746225655078888,0.013245618902146816,0.07000887393951416
1772538581339009800,2.045009765625,0.024020832031965256,0.0020382378716021776,0.050477780401706696
1772538581349024800,2.055024658203125,0.020510774105787277,-0.018909795209765434,0.01586266979575157
1772538581359040800,2.065040771484375,0.012754851952195168,-0.040405500680208206,-0.02795165590941906
1772538581369055700,2.0750556640625,0.014513464644551277,-0.04470524564385414,-0.07431989908218384
1772538581379071700,2.08507177734375,0.019559355452656746,-0.04138294979929924,-0.11209736764431
1772538581389086700,2.095086669921875,0.03046833723783493,-0.03060770221054554,-0.1312282234430313
1772538581399101700,2.105101806640625,0.024592604488134384,-0.03109878860414028,-0.1178215965628624
1772538581409117700,2.11511767578125,0.005847943481057882,-0.033124152570962906,-0.07988809049129486
1772538581419132700,2.125132568359375,-0.014867454767227173,-0.038417983800172806,-0.02837669663131237
1772538581429148700,2.135148681640625,-0.024083249270915985,-0.033137109130620956,0.021175704896450043
1772538581439163600,2.14516357421875,-0.02556689642369747,-0.012627306394279003,0.05715927109122276
1772538581449178600,2.1551787109375,-0.022832242771983147,0.015883807092905045,0.07357630133628845
1772538581459194600,2.165194580078125,-0.022281767800450325,0.03740960732102394,0.06770483404397964
1772538581469209600,2.175209716796875,-0.0224592424929142,0.046952538192272186,0.05232364684343338
1772538581479225600,2.1852255859375,-0.02348429337143898,0.050018638372421265,0.033819474279880524
1772538581489240600,2.195240478515625,-0.017498916015028954,0.050500016659498215,0.02697535790503025
1772538581499255600,2.205255615234375,-0.008640709333121777,0.04432468116283417,0.026628615334630013
1772538581509271600,2.215271484375,-0.008418404497206211,0.024800479412078857,0.030739765614271164
1772538581519286500,2.22528662109375,-0.010009909979999065,0.01347139198333025,0.029716579243540764
1772538581529302500,2.235302490234375,-0.016125595197081566,0.004892522469162941,0.01715921424329281
1772538581539317500,2.2453173828125,-0.017987409606575966,0.0005710108671337366,-0.002259491477161646
1772538581549333500,2.25533349609375,-0.011159468442201614,0.005268517881631851,-0.02118861861526966
1772538581559348500,2.265348388671875,-0.004643778782337904,0.009613465517759323,-0.027888864278793335
1772538581569363700,2.27536376953125,-0.0032593985088169575,0.01422236766666174,-0.02245151996612549
1772538581579379500,2.28537939453125,-0.004744110628962517,0.01715157926082611,-0.012312332168221474
1772538581589394700,2.295394775390625,-0.003978720400482416,0.023666173219680786,0.004086851608008146
1772538581599410700,2.30541064453125,0.005735425744205713,0.03518914058804512,0.01675311103463173
1772538581609425700,2.31542578125,0.011815841309726238,0.03692948818206787,0.03033268451690674
1772538581619440600,2.325440673828125,0.010946318507194519,0.02531570754945278,0.04134512320160866
1772538581629456600,2.33545654296875,0.003149771597236395,0.0213213749229908,0.05178657919168472
1772538581639471900,2.345471923828125,-0.006409112364053726,0.011235716752707958,0.051968205720186234
1772538581649487600,2.355487548828125,-0.010284880176186562,-0.0021626814268529415,0.0431358627974987
1772538581659502800,2.3655029296875,-0.0033848958555608988,-0.0033379346132278442,0.02477523311972618
1772538581669517800,2.375517822265625,0.007965169847011566,0.003798082238063216,-0.0015941760502755642
1772538581679533800,2.385533935546875,0.019924361258745193,0.002012432785704732,-0.02998427301645279
1772538581689548800,2.395548828125,0.024324825033545494,-0.0003493844997137785,-0.040063802152872086
1772538581699564800,2.405564697265625,0.0273688193410635,-0.004612838849425316,-0.026326153427362442
1772538581709579800,2.415579833984375,0.018040569499135017,-0.010159320197999477,0.0013875882141292095
1772538581719595800,2.425595703125,0.002340969629585743,-0.013686144724488258,0.035966336727142334
1772538581729610800,2.43561083984375,-0.013351382687687874,-0.00047936802729964256,0.05638568103313446
1772538581739625700,2.445625732421875,-0.01814187504351139,0.020985975861549377,0.06648385524749756
1772538581749641700,2.455641845703125,-0.01808081567287445,0.03815733268857002,0.05845685303211212
1772538581759656700,2.46565673828125,-0.011917196214199066,0.04796575382351875,0.051669519394636154
1772538581769672700,2.475672607421875,-0.00935150682926178,0.04614095389842987,0.05512843281030655
1772538581779687700,2.485687744140625,-0.008660683408379555,0.030387025326490402,0.06660585850477219
1772538581789702700,2.49570263671875,-0.015000277198851109,0.00023916689679026604,0.075784832239151
1772538581799718700,2.50571875,-0.013319023884832859,-0.02197505719959736,0.07340609282255173
1772538581809733600,2.515733642578125,-0.005877072922885418,-0.02861894480884075,0.05352151021361351
1772538581819749600,2.52574951171875,0.0016913642175495625,-0.031394489109516144,0.02089991793036461
1772538581829764600,2.5357646484375,0.006567804608494043,-0.021703071892261505,-0.019861655309796333
1772538581839779600,2.545779541015625,0.009281565435230732,-0.0019240410765632987,-0.04939984157681465
1772538581849795600,2.555795654296875,0.00630501564592123,0.01599368453025818,-0.06691048294305801
1772538581859810600,2.565810546875,-0.003312191693112254,0.014598721638321877,-0.0603143647313118
1772538581869826600,2.57582666015625,-0.018873175606131554,-0.002354709431529045,-0.040365301072597504
1772538581879841500,2.585841552734375,-0.03029334358870983,-0.020387237891554832,-0.019854169338941574
1772538581889856500,2.5958564453125,-0.04025362804532051,-0.019478492438793182,-0.005149377975612879
1772538581899872500,2.60587255859375,-0.04392106458544731,0.004268382675945759,-0.0022582500241696835
1772538581909887500,2.615887451171875,-0.04620758816599846,0.031611595302820206,-0.00643228180706501
1772538581919903700,2.62590380859375,-0.04410156235098839,0.05168623849749565,-0.013230533339083195
1772538581929918700,2.635918701171875,-0.042777836322784424,0.05316481366753578,-0.018080031499266624
1772538581939934700,2.645934814453125,-0.043202877044677734,0.041630130261182785,-0.024042049422860146
1772538581949949700,2.65594970703125,-0.03994676470756531,0.028401661664247513,-0.030909422785043716
1772538581959964700,2.665964599609375,-0.0306941457092762,0.02056424506008625,-0.03340880200266838
1772538581969980700,2.675980712890625,-0.013009625487029552,0.008563486859202385,-0.031836025416851044
1772538581979995600,2.68599560546875,0.00014505913713946939,-0.014157803729176521,-0.019672038033604622
1772538581990011600,2.69601171875,0.007597843650728464,-0.03640937805175781,-0.004712795373052359
1772538582000026600,2.706026611328125,0.007389318197965622,-0.045457735657691956,0.005291635170578957
1772538582010041600,2.71604150390625,0.0059567345306277275,-0.03719344735145569,0.006226168945431709
1772538582020057600,2.7260576171875,-0.002649004105478525,-0.022606516256928444,0.000015943776816129684
1772538582030072600,2.736072509765625,-0.009527208283543587,-0.005175221245735884,-0.015990810468792915
1772538582040088600,2.746088623046875,-0.013414357788860798,0.008438591845333576,-0.03236338868737221
1772538582050103600,2.756103515625,-0.023680439218878746,0.014700551517307758,-0.03873267024755478
1772538582060118800,2.766118896484375,-0.03892117738723755,0.017125094309449196,-0.02959110029041767
1772538582070134500,2.776134521484375,-0.055117469280958176,0.01430173683911562,-0.007705123629420996
1772538582080149800,2.786149658203125,-0.06266460567712784,0.00798285473138094,0.016310198232531548
1772538582090165500,2.79616552734375,-0.0629311054944992,-0.0019572749733924866,0.029148023575544357
1772538582100180700,2.8061806640625,-0.06606777757406235,-0.005563993938267231,0.02357296273112297
1772538582110196500,2.816196533203125,-0.06621158868074417,0.0067477719858288765,0.007872266694903374
1772538582120211700,2.826211669921875,-0.058053795248270035,0.031738877296447754,-0.012698255479335785
1772538582130226700,2.836226806640625,-0.0504523366689682,0.04530898481607437,-0.031543079763650894
1772538582140242700,2.84624267578125,-0.04607569798827171,0.042498551309108734,-0.03881990164518356
1772538582150257700,2.856257568359375,-0.04816747084259987,0.028728773817420006,-0.03654399514198303
1772538582160273700,2.866273681640625,-0.051214396953582764,0.012491481378674507,-0.03218679875135422
1772538582170288600,2.87628857421875,-0.044219814240932465,-0.009937822818756104,-0.027562452480196953
1772538582180303600,2.8863037109375,-0.02981264516711235,-0.024456579238176346,-0.02038257010281086
1772538582190319600,2.896319580078125,-0.017826750874519348,-0.038866881281137466,-0.017894377931952477
1772538582200334600,2.90633447265625,-0.014843211509287357,-0.047092318534851074,-0.023488881066441536
1772538582210350800,2.916350830078125,-0.014783285558223724,-0.03537861630320549,-0.03214222937822342
1772538582220365800,2.92636572265625,-0.011434626765549183,-0.01382938027381897,-0.0413527749478817
1772538582230381800,2.9363818359375,-0.012321336194872856,0.0023409409914165735,-0.04190085083246231
1772538582240396800,2.946396728515625,-0.006960659753531218,0.014429294504225254,-0.0356978178024292
1772538582250411800,2.956411865234375,0.00005011196481063962,0.021516766399145126,-0.02155456691980362
1772538582260427800,2.966427734375,-0.0010694810189306736,0.02208881266415119,-0.0018093576654791832
1772538582270442800,2.97644287109375,-0.011762997135519981,0.011442392133176327,0.017100652679800987
1772538582280458800,2.986458740234375,-0.01772475056350231,0.00643564946949482,0.026655541732907295
1772538582290473700,2.9964736328125,-0.015343151055276394,0.0054111238569021225,0.02791048400104046
1772538582300488700,3.00648876953125,-0.011188353411853313,-0.000669937813654542,0.018930569291114807
1772538582310504700,3.016504638671875,-0.006616171915084124,-0.005178662482649088,0.003507611807435751
1772538582320519700,3.026519775390625,-0.002902127569541335,-0.005282259546220303,-0.012099577113986015
1772538582330535700,3.03653564453125,0.005578711163252592,-0.0064726644195616245,-0.0264435987919569
1772538582340550700,3.046550537109375,0.008197663351893425,-0.007143515162169933,-0.037182264029979706
1772538582350565600,3.056565673828125,0.006950574927031994,0.0010060591157525778,-0.04990155249834061
1772538582360581600,3.06658154296875,0.003374748397618532,0.01531176082789898,-0.05841407924890518
1772538582370596600,3.0765966796875,-0.0019316065590828657,0.026748888194561005,-0.06302143633365631
1772538582380612600,3.086612548828125,-0.00641956552863121,0.02412460930645466,-0.05320848524570465
1772538582390627600,3.096627685546875,-0.006830097641795874,0.013021822087466717,-0.030658377334475517
1772538582400643600,3.1066435546875,-0.0011855276534333825,-0.003325460013002157,-0.006086454261094332
1772538582410658600,3.116658447265625,0.009409460239112377,-0.013196718879044056,0.007682769559323788
1772538582420673500,3.126673583984375,0.017801348119974136,-0.014403663575649261,0.01068202219903469
1772538582430689500,3.136689453125,0.018494166433811188,-0.0005653880070894957,0.0030162017792463303
1772538582440704500,3.14670458984375,0.011689255945384502,0.0141387227922678,-0.014384625479578972
1772538582450720500,3.156720458984375,0.0017173916567116976,0.025829054415225983,-0.03085275925695896
1772538582460735500,3.166735595703125,-0.003641687100753188,0.03471069782972336,-0.044366706162691116
1772538582470750500,3.17675048828125,-0.007821124978363514,0.03961190953850746,-0.050334520637989044
1772538582480766500,3.186766357421875,-0.007850153371691704,0.031134001910686493,-0.04788520932197571
1772538582490781400,3.196781494140625,-0.008541704155504704,0.02115440182387829,-0.04362655058503151
1772538582500797700,3.206797607421875,-0.012240834534168243,0.010222656652331352,-0.03676331788301468
1772538582510812700,3.216812744140625,-0.020332584157586098,-0.003967197611927986,-0.03236537426710129
1772538582520829000,3.226828857421875,-0.025598186999559402,-0.004115535877645016,-0.03197468817234039
1772538582530844000,3.236843994140625,-0.023165253922343254,0.006055623292922974,-0.028680212795734406
1772538582540859000,3.24685888671875,-0.01874786987900734,0.012555866502225399,-0.023363742977380753
1772538582550875000,3.256875,-0.01771163009107113,0.01645955629646778,-0.01491590030491352
1772538582560889900,3.266889892578125,-0.011892889626324177,0.016783129423856735,-0.004662463441491127
1772538582570905900,3.27690576171875,-0.006571355275809765,0.01172267459332943,-0.003612824250012636
1772538582580920800,3.2869208984375,0.003082070965319872,0.012558108195662498,-0.012490738183259964
1772538582590936000,3.29693603515625,0.007695324253290892,0.01612078957259655,-0.028977539390325546
1772538582600951800,3.306951904296875,0.007420219946652651,0.019280895590782166,-0.04239427670836449
1772538582610967000,3.316967041015625,0.003672147635370493,0.021536514163017273,-0.045943088829517365
1772538582620982800,3.326982666015625,0.0029272614046931267,0.016973454505205154,-0.03832751512527466
1772538582630998000,3.336998046875,-0.0042470889165997505,0.0067437984980642796,-0.02226850390434265
1772538582641013000,3.347012939453125,-0.0063398005440831184,0.003989024553447962,-0.011246210895478725
1772538582651029000,3.357029052734375,-0.002881896449252963,0.0021912571974098682,-0.008111611008644104
1772538582661044000,3.3670439453125,0.005350200925022364,0.0012998967431485653,-0.008174194023013115
1772538582671060000,3.37706005859375,0.00976299587637186,0.001747623784467578,-0.008318953216075897
1772538582681075200,3.3870751953125,0.0105116106569767,0.01596491038799286,-0.006637698970735073
1772538582691091000,3.397091064453125,0.006420928053557873,0.032707396894693375,-0.002698025666177273
1772538582701106200,3.407106201171875,0.0023446937557309866,0.041860148310661316,0.0022517256438732147
1772538582711121200,3.41712109375,-0.004515268839895725,0.03556186333298683,0.010407418012619019
1772538582721137200,3.42713720703125,-0.009497777558863163,0.02773083932697773,0.022479262202978134
1772538582731152100,3.437152099609375,-0.020966416224837303,0.02803174778819084,0.03391510993242264
1772538582741168000,3.447168212890625,-0.02757318690419197,0.03026134893298149,0.03885021433234215
1772538582751183000,3.45718310546875,-0.03118623048067093,0.033663276582956314,0.033398132771253586
1772538582761198000,3.467197998046875,-0.03189516440033913,0.03232290595769882,0.024805443361401558
1772538582771214000,3.477214111328125,-0.03325124457478523,0.019602345302700996,0.008609991520643234
1772538582781229000,3.48722900390625,-0.03444354236125946,0.009298043325543404,-0.006272817496210337
1772538582791245000,3.4972451171875,-0.020196299999952316,0.020020391792058945,-0.026619307696819305
1772538582801260000,3.507260009765625,-0.01810332201421261,0.02674247696995735,-0.03892311081290245
1772538582811276000,3.517276123046875,-0.01767621748149395,0.027753937989473343,-0.04774370789527893
1772538582821291000,3.527291015625,-0.021206770092248917,0.02297862432897091,-0.05359680578112602
1772538582831306000,3.537305908203125,-0.018827170133590698,0.019879482686519623,-0.05716286599636078
1772538582841322000,3.547322021484375,-0.018587220460176468,0.02574908919632435,-0.04724045842885971
1772538582851337000,3.5573369140625,-0.025781411677598953,0.03222782537341118,-0.03125137463212013
1772538582861353000,3.56735302734375,-0.036029789596796036,0.03324568644165993,-0.008629951626062393
1772538582871368000,3.577367919921875,-0.04052986949682236,0.03312843665480614,0.013102302327752113
1772538582881383000,3.5873828125,-0.03707734867930412,0.03238141909241676,0.020617477595806122
1772538582891399000,3.59739892578125,-0.03408388793468475,0.02835339494049549,0.015666333958506584
1772538582901414000,3.607413818359375,-0.02839590795338154,0.0273152943700552,0.003235231153666973
1772538582911430000,3.617429931640625,-0.022398533299565315,0.017841413617134094,-0.01970059424638748
1772538582921444900,3.62744482421875,-0.016251690685749054,0.0006640255451202393,-0.037823669612407684
1772538582931459800,3.6374599609375,-0.008568072691559792,-0.009792624041438103,-0.046269770711660385
1772538582941475800,3.647475830078125,-0.005016480106860399,-0.011772152036428452,-0.04941469803452492
1772538582951490800,3.65749072265625,-0.0008985732565633953,-0.007470950484275818,-0.0456654354929924
1772538582961507000,3.667507080078125,-0.0022810203954577446,0.010248124599456787,-0.03384099900722504
1772538582971522000,3.67752197265625,-0.0023980559781193733,0.024742772802710533,-0.02352578192949295
1772538582981538000,3.6875380859375,-0.0021067061461508274,0.023614924401044846,-0.017904646694660187
1772538582991553000,3.697552978515625,0.0019315725658088923,0.015373434871435165,-0.016495240852236748
1772538583001568000,3.707568115234375,0.0051470729522407055,0.011276960372924805,-0.015698423609137535
1772538583011584000,3.717583984375,0.011018142104148865,0.016629604622721672,-0.01851436123251915
1772538583021599000,3.727598876953125,0.015944989398121834,0.029279887676239014,-0.0207359716296196
1772538583031615000,3.737614990234375,0.01853172481060028,0.03817093372344971,-0.024206779897212982
1772538583041630000,3.7476298828125,0.021383702754974365,0.039899326860904694,-0.022641373798251152
1772538583051645000,3.75764501953125,0.024019895121455193,0.037108536809682846,-0.016693735495209694
1772538583061661000,3.767660888671875,0.021584168076515198,0.028678301721811295,-0.0027542184107005596
1772538583071676000,3.777676025390625,0.01503446139395237,0.020838284865021706,0.0040261889807879925
1772538583081692000,3.78769189453125,0.01253508497029543,0.01791360042989254,0.008906964212656021
1772538583091707000,3.797706787109375,0.012098927982151508,0.015783637762069702,0.004468776285648346
1772538583101723000,3.807722900390625,0.012838488444685936,0.00894623901695013,-0.0036759688518941402
1772538583111737900,3.81773779296875,0.01479704212397337,0.005761077627539635,-0.007191164419054985
1772538583121753000,3.827753173828125,0.018043434247374535,0.00022543082013726234,-0.0063163163140416145
1772538583131768800,3.837768798828125,0.024858396500349045,-0.006040727719664574,-0.0008104373700916767
1772538583141784000,3.8477841796875,0.022647706791758537,-0.01221659779548645,0.006634162738919258
1772538583151799800,3.8577998046875,0.01507460605353117,-0.02086392417550087,0.008862253278493881
1772538583161815000,3.86781494140625,0.010601560585200787,-0.026057355105876923,0.008608986623585224
1772538583171830000,3.877830078125,0.0014303028583526611,-0.02065349370241165,0.0028580669313669205
1772538583181846000,3.887845947265625,-0.00394688593223691,-0.012495164759457111,-0.003461614716798067
1772538583191861000,3.897861083984375,-0.01021962147206068,-0.0036938597913831472,-0.0021385266445577145
1772538583201877000,3.907876953125,-0.013784795068204403,0.003131289267912507,-0.0003345017321407795
1772538583211892000,3.91789208984375,-0.013828213326632977,0.006906741298735142,0.001543175894767046
1772538583221908000,3.927907958984375,-0.006749797612428665,0.004736531525850296,0.006470290012657642
1772538583231923200,3.937923095703125,0.002527733100578189,0.0018710950389504433,0.016312532126903534
1772538583241938000,3.94793798828125,0.006624740082770586,-0.011003157123923302,0.026489270851016045
1772538583251954200,3.9579541015625,0.006348563823848963,-0.030423011630773544,0.03645126894116402
1772538583261969200,3.96796923828125,-0.0015983087942004204,-0.03908094763755798,0.03893999382853508
1772538583271985200,3.977985107421875,-0.010689680464565754,-0.043006781488657,0.03217881917953491
1772538583282000100,3.988000244140625,-0.013193318620324135,-0.026552708819508553,0.022137105464935303
1772538583292015000,3.99801513671875,-0.005692124366760254,0.0036558066494762897,0.006716484669595957
1772538583302031000,4.008031005859375,-0.0005990951904095709,0.017858177423477173,-0.0060435193590819836
1772538583312046000,4.018046142578125,0.0013227761955931783,0.015265071764588356,-0.012140145525336266
1772538583322062000,4.02806201171875,0.001042611664161086,0.007818607613444328,-0.007647392805665731
1772538583332077000,4.0380771484375,-0.002368040382862091,0.006135917268693447,0.0056594484485685825
1772538583342093000,4.048093017578125,-0.004024260677397251,0.001183502608910203,0.026120513677597046
1772538583352108000,4.05810791015625,-0.0029934740159660578,-0.012594234198331833,0.04528861120343208
1772538583362123000,4.068123046875,-0.0029327538795769215,-0.026503393426537514,0.05514470487833023
1772538583372139000,4.078138916015625,0.0013767085038125515,-0.036093149334192276,0.05223928764462471
1772538583382154000,4.088154052734375,0.011103637516498566,-0.03913314640522003,0.03952429071068764
1772538583392170000,4.098169921875,0.01948833093047142,-0.03677627444267273,0.023069655522704124
1772538583402185000,4.10818505859375,0.016324495896697044,-0.024426665157079697,0.006293604150414467
1772538583412200000,4.118199951171875,0.007686802186071873,-0.0016451592091470957,-0.015897955745458603
1772538583422216000,4.1282158203125,-0.012155345641076565,0.02623014897108078,-0.03701149672269821
1772538583432231000,4.13823095703125,-0.02738736756145954,0.03497590497136116,-0.03821950405836105
1772538583442247000,4.148246826171875,-0.03873402997851372,0.01511724665760994,-0.0270741768181324
1772538583452262000,4.158261962890625,-0.035716064274311066,-0.01023704931139946,-0.007654938846826553
1772538583462276900,4.16827685546875,-0.017471548169851303,-0.021461207419633865,0.011412229388952255
1772538583472292900,4.17829296875,0.003176070051267743,-0.02779185026884079,0.020638572052121162
1772538583482307800,4.188307861328125,0.01831693947315216,-0.027281589806079865,0.01707233488559723
1772538583492323800,4.19832373046875,0.02882024273276329,-0.01870253123342991,0.007213727571070194
1772538583502338800,4.2083388671875,0.03310766816139221,-0.017474547028541565,-0.008196387439966202
1772538583512355000,4.21835498046875,0.03731546178460121,-0.02148553356528282,-0.021814195439219475
1772538583522370000,4.2283701171875,0.03579532727599144,-0.0240648053586483,-0.027615094557404518
1772538583532384500,4.238384521484375,0.032365381717681885,-0.015599338337779045,-0.020657705143094063
1772538583542400500,4.248400390625,0.02631760947406292,0.0011772445868700743,-0.0030230507254600525
1772538583552415500,4.25841552734375,0.018776066601276398,0.0070886071771383286,0.014606751501560211
1772538583562431500,4.268431396484375,0.00994529016315937,0.0008661316242069006,0.0229637511074543
1772538583572446500,4.278446533203125,0.003179804887622595,-0.007708336692303419,0.0177169069647789
1772538583582462500,4.28846240234375,-0.0011944371508434415,-0.013581671752035618,0.0057593141682446
1772538583592477400,4.2984775390625,-0.0023866696283221245,-0.005824703723192215,-0.009531846269965172
1772538583602492700,4.30849267578125,-0.004067922942340374,0.013537542894482613,-0.021232977509498596
1772538583612508400,4.31850830078125,-0.0060363393276929855,0.02388729527592659,-0.024662889540195465
1772538583622523600,4.328523681640625,-0.00907101109623909,0.020084567368030548,-0.020025260746479034
1772538583632539400,4.338539306640625,-0.01524101197719574,0.005981670692563057,-0.009737856686115265
1772538583642554600,4.3485546875,-0.015113446861505508,-0.011047912761569023,0.003945464733988047
1772538583652569600,4.358569580078125,-0.006478958297520876,-0.025568166747689247,0.013406701385974884
1772538583662585600,4.368585693359375,0.009865127503871918,-0.035310275852680206,0.022301925346255302
1772538583672600600,4.3786005859375,0.0211767740547657,-0.03506868705153465,0.031357116997241974
1772538583682616800,4.388616943359375,0.019263824447989464,-0.025034163147211075,0.03964380547404289
1772538583692631800,4.3986318359375,0.007318952586501837,-0.002770085586234927,0.045020315796136856
1772538583702646500,4.408646484375,-0.009250170551240444,0.022994931787252426,0.03764655813574791
1772538583712662800,4.418662841796875,-0.024047618731856346,0.03903016075491905,0.03087540715932846
1772538583722677800,4.428677734375,-0.026745134964585304,0.05011290684342384,0.022251825779676437
1772538583732693800,4.43869384765625,-0.024313343688845634,0.05586232990026474,0.019943784922361374
1772538583742708700,4.448708740234375,-0.020061606541275978,0.05819232761859894,0.017601266503334045
1772538583752724700,4.458724853515625,-0.019205797463655472,0.04784063249826431,0.020799871534109116
1772538583762739700,4.46873974609375,-0.01847715675830841,0.03572511300444603,0.020615845918655396
1772538583772754700,4.478754638671875,-0.018038734793663025,0.022475630044937134,0.016246605664491653
1772538583782770700,4.488770751953125,-0.017623547464609146,0.011296212673187256,0.010278727859258652
1772538583792785700,4.49878564453125,-0.012683582492172718,0.003552013309672475,0.00476565957069397
1772538583802801700,4.5088017578125,-0.005334855988621712,-0.006032969802618027,0.004897485952824354
1772538583812816600,4.518816650390625,-0.0006179343326948583,-0.013350039720535278,0.006981172598898411
1772538583822831600,4.52883154296875,0.0016606663120910525,-0.012086635455489159,0.010429168120026588
1772538583832847600,4.53884765625,-0.00035275949630886316,-0.0029952561017125845,0.006061792839318514
1772538583842862600,4.548862548828125,-0.0017352064605802298,0.00004953588359057903,0.00010430160909891129
1772538583852878600,4.558878662109375,-0.00044522504322230816,-0.005825502332299948,-0.005779452621936798
1772538583862893600,4.5688935546875,-0.000881717074662447,-0.009813586249947548,0.00221162848174572
1772538583872909600,4.57890966796875,0.006337038706988096,-0.01624629646539688,0.014299866743385792
1772538583882924500,4.588924560546875,0.020845407620072365,-0.017849253490567207,0.029133141040802002
1772538583892939500,4.598939453125,0.03709708899259567,-0.01602407731115818,0.03539168834686279
1772538583902955500,4.60895556640625,0.04634331911802292,-0.0035109492018818855,0.036532316356897354
1772538583912970500,4.618970458984375,0.04713061824440956,0.007672764360904694,0.036999672651290894
1772538583922986500,4.628986572265625,0.03983009234070778,0.007555585354566574,0.0391581654548645
1772538583933001500,4.63900146484375,0.027301985770463943,-0.006524288095533848,0.03825381398200989
1772538583943016400,4.649016357421875,0.014309488236904144,-0.02490915358066559,0.0394144169986248
1772538583953032400,4.659032470703125,0.011106299236416817,-0.03318260610103607,0.040767159312963486
1772538583963047400,4.66904736328125,0.009769924916327,-0.02931090258061886,0.03406211733818054
1772538583973063700,4.679063720703125,0.007732747122645378,-0.02420312911272049,0.01844690926373005
1772538583983078700,4.68907861328125,0.003991272300481796,-0.012332089245319366,0.0017643356695771217
1772538583993094700,4.6990947265625,0.000024746987037360668,-0.0007059606723487377,-0.013982312753796577
1772538584003109600,4.709109619140625,-0.006955131888389587,-0.0004484329838305712,-0.013463795185089111
1772538584013124600,4.71912451171875,-0.010291466489434242,-0.004715790972113609,-0.006847675424069166
1772538584023140600,4.729140625,-0.014565306715667248,-0.010543053969740868,0.004780484363436699
1772538584033155600,4.739155517578125,-0.014226752333343029,-0.012253595516085625,0.01943047344684601
1772538584043171600,4.749171630859375,-0.018268100917339325,-0.01053985022008419,0.026709161698818207
1772538584053186600,4.7591865234375,-0.01996946521103382,-0.011687477119266987,0.021984240040183067
1772538584063201800,4.769201904296875,-0.024464081972837448,0.000610734336078167,0.012637609615921974
1772538584073217500,4.779217529296875,-0.02101755328476429,0.007088326849043369,0.0013107710983604193
1772538584083232800,4.789232666015625,-0.01734132505953312,0.007314695976674557,-0.002755342982709408
1772538584093248500,4.79924853515625,-0.01821669563651085,-0.00045839929953217506,-0.002584222238510847
1772538584103263700,4.809263671875,-0.021818088367581367,-0.00528830848634243,0.003858231008052826
1772538584113279500,4.819279541015625,-0.022664248943328857,0.0021652563009411097,0.011617056094110012
1772538584123294500,4.82929443359375,-0.02243734709918499,0.010213595815002918,0.021008159965276718
1772538584133309700,4.839309814453125,-0.022544272243976593,0.008390942588448524,0.020500443875789642
1772538584143325400,4.849325439453125,-0.021116819232702255,0.0028494365978986025,0.018637828528881073
1772538584153340700,4.859340576171875,-0.01736968383193016,-0.00633260328322649,0.019272401928901672
1772538584163356400,4.8693564453125,-0.017802447080612183,-0.01773466169834137,0.014853417873382568
1772538584173371600,4.87937158203125,-0.018387017771601677,-0.018087347969412804,0.008283578790724277
1772538584183386600,4.88938671875,-0.024312283843755722,-0.0102443378418684,0.003959670662879944
1772538584193402600,4.899402587890625,-0.028033385053277016,0.005276312120258808,-0.0040123555809259415
1772538584203417600,4.90941748046875,-0.033204711973667145,0.023286739364266396,-0.008358900435268879
1772538584213433600,4.91943359375,-0.033558908849954605,0.03150850534439087,-0.006279978435486555
1772538584223448600,4.929448486328125,-0.03230402618646622,0.028000589460134506,0.0016312082298099995
1772538584233464800,4.93946484375,-0.031233500689268112,0.018282974138855934,0.01268631499260664
1772538584243479800,4.949479736328125,-0.026458188891410828,0.008194653317332268,0.02234586700797081
1772538584253494500,4.95949462890625,-0.01989481784403324,0.007710068486630917,0.029069934040308
1772538584263510800,4.9695107421875,-0.006485536694526672,0.010036606341600418,0.026950590312480927
1772538584273525800,4.97952587890625,0.005906872916966677,0.01516597531735897,0.012641604989767075
1772538584283541800,4.989541748046875,0.0195611659437418,0.013493509963154793,-0.0003282558172941208
1772538584293556700,4.999556640625,0.026899568736553192,0.0025569230783730745,-0.00807284563779831
1772538584303571700,5.00957177734375,0.02581513114273548,-0.01429582666605711,-0.005041636060923338
1772538584313587700,5.019587646484375,0.021063249558210373,-0.02426140382885933,0.0074845124036073685
1772538584323602700,5.029602783203125,0.013131823390722275,-0.015523571521043777,0.024960175156593323
1772538584333618700,5.03961865234375,0.010356555692851543,-0.00016708415932953358,0.040396030992269516
1772538584343633700,5.049633544921875,0.008905932307243347,0.013905592262744904,0.045816097408533096
1772538584353649700,5.059649658203125,0.006412146613001823,0.02614838257431984,0.04454627260565758
1772538584363664600,5.06966455078125,0.0011063304264098406,0.030910911038517952,0.03572189062833786
1772538584373679600,5.0796796875,0.0007578569347970188,0.029335666447877884,0.02712428756058216
1772538584383695600,5.089695556640625,-0.00018117367289960384,0.026995280757546425,0.01936277002096176
1772538584393710600,5.099710693359375,-0.002712447661906481,0.02039455808699131,0.012559846043586731
1772538584403726600,5.1097265625,-0.0034317674580961466,0.01773778907954693,0.012158241122961044
1772538584413741600,5.119741455078125,-0.004021055996417999,0.014428580179810524,0.010742207989096642
1772538584423756500,5.129756591796875,-0.009033656679093838,0.00652138888835907,0.01127217710018158
1772538584433772500,5.1397724609375,-0.01602351665496826,-0.008968817070126534,0.00862972903996706
1772538584443787500,5.14978759765625,-0.018319161608815193,-0.024798648431897163,0.00862813089042902
1772538584453803500,5.159803466796875,-0.013384990394115448,-0.03237079828977585,0.0069142673164606094
1772538584463818500,5.169818603515625,-0.0022175568155944347,-0.029892195016145706,0.00006168754771351814
1772538584473833500,5.17983349609375,0.009958669543266296,-0.014943773858249187,-0.009206021204590797
1772538584483849500,5.189849365234375,0.01876308023929596,0.007917866110801697,-0.01542024128139019
1772538584493864400,5.199864501953125,0.01690773479640484,0.03455095738172531,-0.016457190737128258
1772538584503880400,5.20988037109375,0.008235415443778038,0.04795011878013611,-0.008536683395504951
1772538584513895400,5.2198955078125,-0.004941844847053289,0.04332413151860237,0.0005703824572265148
1772538584523911700,5.22991162109375,-0.01850292831659317,0.02346121147274971,0.006284460891038179
1772538584533926700,5.2399267578125,-0.026621706783771515,0.008301712572574615,0.010021023452281952
1772538584543941400,5.24994140625,-0.027341825887560844,0.0019287678878754377,0.002220891183242202
1772538584553957600,5.25995751953125,-0.02773837186396122,-0.0033160895109176636,-0.011068310588598251
1772538584563972600,5.26997265625,-0.02274148166179657,-0.009261330589652061,-0.024019530043005943
1772538584573988600,5.279988525390625,-0.015808409079909325,-0.012163636274635792,-0.035560932010412216
1772538584584003600,5.290003662109375,-0.0019107020925730467,-0.008883420377969742,-0.0402933694422245
1772538584594018800,5.300018798828125,0.012308591045439243,-0.00540440808981657,-0.046116903424263
1772538584604034600,5.31003466796875,0.023835550993680954,-0.0021178012248128653,-0.04473073035478592
1772538584614049800,5.3200498046875,0.035394731909036636,0.0038759091403335333,-0.028712613508105278
1772538584624691700,5.330691650390625,0.03552735969424248,0.00419282540678978,-0.00790213979780674
1772538584634706400,5.34070654296875,0.03204433247447014,0.006416649557650089,0.00873776525259018
1772538584644722700,5.35072265625,0.027808306738734245,0.011187968775629997,0.02565682679414749
1772538584654737700,5.360737548828125,0.018548034131526947,0.01433642115443945,0.037041839212179184
1772538584664753700,5.370753662109375,0.005110523197799921,0.00796081405133009,0.03697659447789192
1772538584674768600,5.3807685546875,0.000004784262273460627,-0.0026781579945236444,0.02944200672209263
1772538584684783600,5.39078369140625,0.0030402550473809242,-0.015535100363194942,0.02005995623767376
1772538584694799600,5.400799560546875,0.00917050987482071,-0.025068804621696472,0.0047493851743638515
1772538584704814600,5.410814697265625,0.014575927518308163,-0.025585457682609558,-0.010538225062191486
1772538584714830600,5.42083056640625,0.014692036435008049,-0.019817905500531197,-0.01983031816780567
1772538584724845600,5.430845458984375,0.013862461782991886,-0.01337332185357809,-0.0219802875071764
1772538584734860500,5.440860595703125,0.013100541196763515,-0.007280695252120495,-0.018537236377596855
1772538584744876500,5.45087646484375,0.01195351779460907,-0.011478902772068977,-0.008663833141326904
1772538584754891500,5.4608916015625,0.010756157338619232,-0.0064639318734407425,0.0038822893984615803
1772538584764907500,5.470907470703125,0.005415721330791712,0.009511838667094707,0.017311545088887215
1772538584774922500,5.480922607421875,-0.0021538552828133106,0.017302557826042175,0.02220800705254078
1772538584784937700,5.490937744140625,-0.011776654981076717,0.026731479912996292,0.020501187071204185
1772538584794953500,5.500953369140625,-0.010938746854662895,0.03948364034295082,0.018726009875535965
1772538584804968700,5.51096875,-0.006804188713431358,0.03582126274704933,0.015413036569952965
1772538584814984400,5.520984375,-0.006815309636294842,0.02632041461765766,0.011081050150096416
1772538584824999700,5.530999755859375,-0.004793703556060791,0.016721051186323166,0.008678878657519817
1772538584835015400,5.541015380859375,0.0014836937189102173,0.013688165694475174,0.0028163157403469086
1772538584845030700,5.55103076171875,0.01444103755056858,0.017179571092128754,-0.0011560553684830666
1772538584855045600,5.561045654296875,0.026032179594039917,0.015674883499741554,-0.0048192329704761505
1772538584865061600,5.5710615234375,0.027819693088531494,0.008084608241915703,-0.0020008101128041744
1772538584875076600,5.58107666015625,0.024042271077632904,0.0036670409608632326,0.0024712574668228626
1772538584885092600,5.591092529296875,0.02017802558839321,-0.0013221249682828784,0.005821247585117817
1772538584895107600,5.601107666015625,0.020936084911227226,-0.0024583558551967144,0.0057304357178509235
1772538584905122600,5.61112255859375,0.02703792043030262,0.000722523545846343,-0.0022659716196358204
1772538584915138800,5.621138916015625,0.02842630073428154,0.004606330767273903,-0.008519815281033516
1772538584925153500,5.631153564453125,0.029521925374865532,0.015486141666769981,-0.017780691385269165
1772538584935169800,5.641169677734375,0.023295851424336433,0.016380656510591507,-0.022845668718218803
1772538584945184800,5.651184814453125,0.015837669372558594,0.010352058336138725,-0.02516341768205166
1772538584955200800,5.66120068359375,0.009790162555873394,0.006516840308904648,-0.019539354369044304
1772538584965215700,5.6712158203125,0.010738779790699482,0.0034238453954458237,-0.008670460432767868
1772538584975230700,5.681230712890625,0.011076333001255989,-0.003853817004710436,-0.000661979429423809
1772538584985246700,5.691246826171875,0.011576474644243717,-0.012974078767001629,0.000978261698037386
1772538584995261700,5.70126171875,0.01071727555245161,-0.018500622361898422,-0.0034432681277394295
1772538585005277700,5.711277587890625,0.014148492366075516,-0.02263757586479187,-0.012882575392723083
1772538585015292700,5.721292724609375,0.016614045947790146,-0.022018391638994217,-0.02362603321671486
1772538585025933600,5.73193359375,0.01899358071386814,-0.024218428879976273,-0.02935422584414482
1772538585035949800,5.74194970703125,0.022975880652666092,-0.026360318064689636,-0.03287622705101967
1772538585045964800,5.75196484375,0.030202368274331093,-0.028170468285679817,-0.025621511042118073
1772538585055980800,5.761980712890625,0.029214728623628616,-0.023075643926858902,-0.01595763862133026
1772538585065995800,5.771995849609375,0.021399682387709618,-0.014742880128324032,-0.005518846679478884
1772538585076010800,5.7820107421875,0.005907466169446707,-0.012490231543779373,0.0016101119108498096
1772538585086026800,5.79202685546875,-0.01226088497787714,-0.01521304715424776,0.005986484698951244
1772538585096041700,5.802041748046875,-0.02590458281338215,-0.01646832749247551,0.0016468020621687174
1772538585106057700,5.8120576171875,-0.026293937116861343,-0.015840353444218636,-0.010596814565360546
1772538585116072700,5.82207275390625,-0.017291320487856865,-0.022005299106240273,-0.0230729840695858
1772538585126088700,5.832088623046875,-0.009582532569766045,-0.03385450318455696,-0.030510662123560905
1772538585136103700,5.842103759765625,-0.011154607869684696,-0.04489877074956894,-0.029965657740831375
1772538585146118700,5.85211865234375,-0.01388621237128973,-0.051073573529720306,-0.021460585296154022
1772538585156134700,5.862134765625,-0.011429640464484692,-0.046873174607753754,-0.010383968241512775
1772538585166149600,5.872149658203125,0.0006070481613278389,-0.037855710834264755,-0.001884489320218563
1772538585176165600,5.88216552734375,0.01422072947025299,-0.03618030250072479,0.007421542890369892
1772538585186180600,5.8921806640625,0.020862121134996414,-0.03742239996790886,0.012161171063780785
1772538585196195600,5.902195556640625,0.021525181829929352,-0.02696175128221512,0.013179118745028973
1772538585206211600,5.912211669921875,0.008771836757659912,-0.015394575893878937,0.011841146275401115
1772538585216226600,5.9222265625,-0.005998256150633097,-0.007137199863791466,0.009868987835943699
1772538585226242600,5.93224267578125,-0.014845010824501514,-0.0020199359860271215,0.011850912123918533
1772538585236257500,5.942257568359375,-0.013005893677473068,-0.0016510393470525742,0.015035903081297874
1772538585246273500,5.9522734375,-0.0035327638033777475,-0.014331414364278316,0.013459578156471252
1772538585256288500,5.96228857421875,0.004415173549205065,-0.03387795016169548,0.006379564758390188
1772538585266303500,5.972303466796875,0.0029403152875602245,-0.05108436942100525,-0.00893787294626236
1772538585276319500,5.982319580078125,-0.008526463992893696,-0.051339585334062576,-0.021921668201684952
1772538585286334500,5.99233447265625,-0.018885893747210503,-0.04106271266937256,-0.03146883472800255
1772538585296350700,6.002350830078125,-0.03339779004454613,-0.02254599705338478,-0.04185587540268898
1772538585306365700,6.01236572265625,-0.04390209540724754,-0.004550752229988575,-0.04652492702007294
1772538585316380400,6.02238037109375,-0.0483558252453804,0.014210810884833336,-0.0463172011077404
1772538585326396700,6.032396728515625,-0.04761520028114319,0.03182229399681091,-0.04258371517062187
1772538585336411600,6.04241162109375,-0.04348783940076828,0.0405682735145092,-0.03624710813164711
1772538585346427600,6.052427734375,-0.03601501137018204,0.034200653433799744,-0.03053010068833828
1772538585356442600,6.062442626953125,-0.03208611160516739,0.022714486345648766,-0.03243254870176315
1772538585366457600,6.07245751953125,-0.026337413117289543,0.020802870392799377,-0.033157460391521454
1772538585376473600,6.0824736328125,-0.02185997925698757,0.02237297222018242,-0.03535826504230499
1772538585386488600,6.092488525390625,-0.018510255962610245,0.015976326540112495,-0.034950800240039825
1772538585396504600,6.102504638671875,-0.018316034227609634,0.00853290967643261,-0.028739452362060547
1772538585406519600,6.11251953125,-0.019785303622484207,-0.004661455284804106,-0.02147647738456726
1772538585416535600,6.12253564453125,-0.020005082711577415,-0.011181973852217197,-0.01372478622943163
1772538585426550500,6.132550537109375,-0.02358437143266201,-0.009683147072792053,-0.01331306155771017
1772538585436565800,6.142565673828125,-0.020149825140833855,-0.006204245612025261,-0.01893750950694084
1772538585446581500,6.15258154296875,-0.016493570059537888,-0.004999698139727116,-0.02158069610595703
1772538585456596700,6.1625966796875,-0.011812137439846992,-0.0053334622643888,-0.027342652902007103
1772538585466612500,6.172612548828125,0.00013187318108975887,-0.015494486317038536,-0.02943483181297779
1772538585476627700,6.182627685546875,0.013114910572767258,-0.03148231282830238,-0.029361000284552574
1772538585486642700,6.192642578125,0.018883850425481796,-0.038526907563209534,-0.0267548318952322
1772538585496658700,6.20265869140625,0.01273348554968834,-0.023395545780658722,-0.021193206310272217
1772538585506673700,6.212673583984375,0.0012137163430452347,0.005035828799009323,-0.012255903333425522
1772538585516689700,6.222689697265625,-0.012375996448099613,0.029315054416656494,-0.0023669349029660225
1772538585526705400,6.232705322265625,-0.020010214298963547,0.04691615328192711,0.006127217318862677
1772538585536721400,6.242721435546875,-0.016797179356217384,0.06000395864248276,0.009703606367111206
1772538585546736400,6.252736328125,-0.006187944207340479,0.06271851807832718,0.006805287674069405
1772538585556751600,6.262751708984375,0.0053926254622638226,0.04768700897693634,-0.002372914459556341
1772538585566767400,6.272767333984375,0.01976730488240719,0.02415718510746956,-0.007500298786908388
1772538585576782600,6.282782470703125,0.029722588136792183,-0.008582539856433868,-0.00882950983941555
1772538585586798300,6.29279833984375,0.028936421498656273,-0.032757118344306946,0.00010832492262125015
1772538585596813600,6.3028134765625,0.024409515783190727,-0.039015259593725204,0.014290278777480125
1772538585606828500,6.31282861328125,0.019948720932006836,-0.031124578788876534,0.024321608245372772
1772538585616844300,6.32284423828125,0.013651667162775993,-0.021773535758256912,0.02738652378320694
1772538585626859500,6.332859619140625,0.0004490464343689382,-0.010735797695815563,0.015728270635008812
1772538585636875300,6.342875244140625,-0.010507188737392426,-0.0019294098019599915,-0.0029901741072535515
1772538585646890500,6.352890380859375,-0.018819181248545647,0.003331664949655533,-0.019349973648786545
1772538585656905500,6.362905517578125,-0.021762901917099953,0.004706725478172302,-0.025454796850681305
1772538585666921500,6.37292138671875,-0.02493765577673912,-0.001575938193127513,-0.01736464537680149
1772538585676936400,6.3829365234375,-0.028512295335531235,-0.009127220138907433,-0.002239782363176346
1772538585686952400,6.392952392578125,-0.0393497608602047,-0.008836137130856514,0.015647072345018387
1772538585696967400,6.402967529296875,-0.055047087371349335,-0.006818609312176704,0.02886732667684555
1772538585706983400,6.4129833984375,-0.06492554396390915,-0.005508866626769304,0.03296486660838127
1772538585716998400,6.422998291015625,-0.06500491499900818,-0.009266376495361328,0.030058499425649643
1772538585727013400,6.433013427734375,-0.05249311774969101,-0.0064644645899534225,0.024309268221259117
1772538585737029400,6.443029296875,-0.042159657925367355,0.00299474666826427,0.0199140477925539
1772538585747044400,6.45304443359375,-0.03870261088013649,0.0074765803292393684,0.013700626790523529
1772538585757060400,6.463060302734375,-0.0472610741853714,0.014152397401630878,0.00940435379743576
1772538585767075300,6.473075439453125,-0.05828363075852394,0.030823785811662674,0.0036250280681997538
1772538585777090300,6.48309033203125,-0.06441742181777954,0.04085884243249893,-0.001582516822963953
1772538585787106600,6.4931064453125,-0.05977499485015869,0.044634461402893066,-0.0028655692003667355
1772538585797121300,6.503121337890625,-0.04815882444381714,0.03644651547074318,0.002912099938839674
1772538585807137500,6.513137451171875,-0.03376923128962517,0.015201416797935963,0.015188206918537617
1772538585817152500,6.523152587890625,-0.018097199499607086,-0.007436588406562805,0.0249029453843832
1772538585827168500,6.53316845703125,-0.002590145915746689,-0.018310541287064552,0.03283676877617836
1772538585837183500,6.54318359375,0.011637866497039795,-0.021998127922415733,0.03237900137901306
1772538585847198500,6.553198486328125,0.024826105684041977,-0.017374616116285324,0.023990577086806297
1772538585857214500,6.56321435546875,0.03713057190179825,-0.012438489124178886,0.012691406533122063
1772538585867229400,6.5732294921875,0.047819968312978745,-0.013606817461550236,0.001544212456792593
1772538585877245400,6.583245361328125,0.053659748286008835,-0.021407483145594597,-0.0039035496301949024
1772538585887260400,6.593260498046875,0.049681518226861954,-0.0361158512532711,-0.0030984762124717236
1772538585897275400,6.603275390625,0.04680057242512703,-0.047628484666347504,0.0004849554970860481
1772538585907291400,6.61329150390625,0.040447335690259933,-0.05754103511571884,0.00904115941375494
1772538585917306400,6.623306396484375,0.030517075210809708,-0.061929911375045776,0.014519961550831795
1772538585927322400,6.633322265625,0.017428170889616013,-0.051754772663116455,0.008653550408780575
1772538585937337300,6.64333740234375,-0.0021928069181740284,-0.039105091243982315,-0.0028768107295036316
1772538585947352300,6.653352294921875,-0.022839762270450592,-0.01157759502530098,-0.01483999565243721
1772538585957368300,6.663368408203125,-0.03261701762676239,0.03504061698913574,-0.01997205801308155
1772538585967383300,6.67338330078125,-0.049853526055812836,0.04917987436056137,-0.021790197119116783
1772538585977399300,6.6833994140625,-0.06858954578638077,0.040157996118068695,-0.010920798406004906
1772538585987414300,6.693414306640625,-0.06769658625125885,0.057127393782138824,0.0024005987215787172
1772538585997430300,6.70343017578125,-0.06950391829013824,0.04993283376097679,0.008270585909485817
1772538586007445200,6.7134453125,-0.07251941412687302,0.04843667149543762,0.0034627816639840603
1772538586017460200,6.723460205078125,-0.0634487047791481,0.047151848673820496,-0.00490871537476778
1772538586027476200,6.733476318359375,-0.05507918447256088,0.04331609979271889,-0.016419164836406708
1772538586037491200,6.7434912109375,-0.04590047895908356,0.03722449392080307,-0.027649475261569023
1772538586047507200,6.753507080078125,-0.04075365513563156,0.02952742576599121,-0.026255575940012932
1772538586057522200,6.763522216796875,-0.03672647103667259,0.020601529628038406,-0.02058514766395092
1772538586067537400,6.773537353515625,-0.030311714857816696,0.00332826585508883,-0.0074307299219071865
1772538586077553400,6.783553466796875,-0.02293696068227291,-0.013814564794301987,0.002761454787105322
1772538586087568600,6.793568603515625,-0.010763651691377163,-0.016152819618582726,0.006862190086394548
1772538586097584400,6.80358447265625,0.002337493933737278,-0.0055807167664170265,0.0018872891087085009
1772538586107599600,6.813599609375,0.010215656831860542,0.008652813732624054,-0.008558694273233414
1772538586117614600,6.823614501953125,0.009337818250060081,0.014333147555589676,-0.01610594615340233
1772538586127630600,6.833630615234375,0.007722079288214445,0.007685631979256868,-0.02001919597387314
1772538586137645600,6.8436455078125,0.0029927059076726437,-0.003145163878798485,-0.016746290028095245
1772538586147661600,6.85366162109375,0.000032868527341634035,-0.007131117396056652,-0.01219974085688591
1772538586157676500,6.863676513671875,0.0008820879156701267,-0.004270566627383232,-0.006728157866746187
1772538586167691500,6.87369140625,0.0005515896482393146,0.006656383164227009,-0.007147605996578932
1772538586177707500,6.88370751953125,-0.003285034094005823,0.02566700056195259,-0.01926581561565399
1772538586187722500,6.893722412109375,-0.01074614655226469,0.050543855875730515,-0.03924138844013214
1772538586197738500,6.903738525390625,-0.010786418803036213,0.0543336383998394,-0.058012500405311584
1772538586207753500,6.91375341796875,-0.005232395604252815,0.012416282668709755,-0.05577917769551277
1772538586217769500,6.92376953125,-0.0037086086813360453,-0.02364327758550644,-0.028370214626193047
1772538586227784400,6.933784423828125,-0.00945091713219881,-0.019086342304944992,0.009912457317113876
1772538586237799400,6.94379931640625,-0.01314258761703968,-0.00856522936373949,0.04594771936535835
1772538586247815400,6.9538154296875,-0.004716080613434315,0.010736563242971897,0.07419480383396149
1772538586257830400,6.963830322265625,0.012162760831415653,0.04504038766026497,0.08870361745357513
1772538586267846400,6.973846435546875,0.020491531118750572,0.07173751294612885,0.08704260736703873
1772538586277861400,6.983861328125,0.013768529519438744,0.09094681590795517,0.07318542897701263
1772538586287876400,6.99387646484375,-0.004620332270860672,0.10464664548635483,0.05673642084002495
1772538586297892400,7.003892333984375,-0.020905504003167152,0.10267473757266998,0.040869396179914474
1772538586307907300,7.0139072265625,-0.03401251509785652,0.09203940629959106,0.03484293073415756
1772538586317923300,7.02392333984375,-0.04103727266192436,0.06809195131063461,0.03827609866857529
1772538586327938300,7.033938232421875,-0.04197177663445473,0.03772205859422684,0.04003218561410904
1772538586337953300,7.043953369140625,-0.027811415493488312,0.01669028401374817,0.03419128432869911
1772538586347969300,7.05396923828125,-0.010285419411957264,0.01086035743355751,0.016292976215481758
1772538586357984300,7.063984375,0.0037669469602406025,0.011416390538215637,-0.009353766217827797
1772538586368000500,7.07400048828125,0.015089109539985657,0.023074112832546234,-0.025824885815382004
1772538586378015500,7.084015380859375,0.01701352186501026,0.036370083689689636,-0.03739564120769501
1772538586388031500,7.094031494140625,0.012628892436623573,0.02922189235687256,-0.03765743225812912
1772538586398046500,7.10404638671875,0.0012143765343353152,0.01808604598045349,-0.02497643232345581
1772538586408061400,7.1140615234375,-0.002779033500701189,0.027183938771486282,-0.004026941489428282
1772538586418077400,7.124077392578125,-0.0020848100539296865,0.03918685391545296,0.016135701909661293
1772538586428092400,7.134092529296875,0.0005716931773349643,0.031826410442590714,0.0371328629553318
1772538586438108400,7.1441083984375,-0.0025854867417365313,0.023407062515616417,0.05779976397752762
1772538586448123400,7.154123291015625,-0.0005617504357360303,0.021652838215231895,0.06943856924772263
1772538586458138400,7.164138427734375,0.006885980721563101,0.020854443311691284,0.06553633511066437
1772538586468154400,7.174154296875,0.010589373297989368,0.0177643783390522,0.04425900802016258
1772538586478169300,7.18416943359375,0.015444646589457989,0.014678552746772766,0.020657453685998917
1772538586488185300,7.194185302734375,0.022597897797822952,0.01662532426416874,0.0013261002022773027
1772538586498200300,7.204200439453125,0.0291549414396286,0.014730338007211685,-0.008437523618340492
1772538586508215600,7.214215576171875,0.03223329037427902,0.0024590243119746447,-0.006364785134792328
1772538586518231300,7.224231201171875,0.03736885264515877,-0.015348349697887897,0.009519552811980247
1772538586528246300,7.234246337890625,0.03956755995750427,-0.0318029560148716,0.03265976160764694
1772538586538262000,7.244261962890625,0.03520137816667557,-0.04884256795048714,0.04975248500704765
1772538586548277200,7.25427734375,0.0208986047655344,-0.06292323768138885,0.053704883903265
1772538586558292200,7.264292236328125,0.004496919456869364,-0.06267541646957397,0.04603226110339165
1772538586568308200,7.27430810546875,-0.01058269664645195,-0.04827650263905525,0.02276688441634178
1772538586578323200,7.2843232421875,-0.02245939150452614,-0.02442994713783264,-0.008086221292614937
1772538586588339200,7.294339111328125,-0.028255227953195572,0.00861402414739132,-0.03546777740120888
1772538586598354200,7.304354248046875,-0.023386843502521515,0.032000500708818436,-0.04818803817033768
1772538586608370200,7.3143701171875,-0.01556007843464613,0.027550624683499336,-0.04765194654464722
1772538586618385200,7.32438525390625,-0.0038593437056988478,0.007663246709853411,-0.03590163588523865
1772538586628400000,7.334400146484375,0.004856117069721222,-0.01510385051369667,-0.014477569609880447
1772538586638416100,7.344416015625,0.009030564688146114,-0.029133809730410576,0.000749494880437851
1772538586648431000,7.35443115234375,0.01339814905077219,-0.03573179244995117,0.011776579543948174
1772538586658447000,7.364447021484375,0.012602190487086773,-0.02580493688583374,0.010438993573188782
1772538586668462000,7.374462158203125,0.013006724417209625,-0.0056772977113723755,0.008714063093066216
1772538586678477000,7.38447705078125,0.01955290697515011,0.02079770527780056,0.0076630329713225365
1772538586688493000,7.3944931640625,0.02378040924668312,0.02247736044228077,0.0036898627877235413
1772538586698508000,7.404508056640625,0.025696156546473503,0.009217790327966213,-0.0004538395442068577
1772538586708524300,7.414524169921875,0.026782725006341934,0.0048930831253528595,0.0043592918664216995
1772538586718539000,7.4245390625,0.026820000261068344,0.0036828299053013325,0.009528636932373047
1772538586728554000,7.434553955078125,0.025679634883999825,-0.009335234761238098,0.012870104983448982
1772538586738570200,7.4445703125,0.017726648598909378,-0.024536415934562683,0.015534743666648865
1772538586748585200,7.454585205078125,0.011580605059862137,-0.025217652320861816,0.021126050502061844
1772538586758601200,7.464601318359375,0.00611538952216506,-0.01778436452150345,0.019989948719739914
1772538586768616200,7.4746162109375,0.004501780029386282,-0.009379961527884007,0.01780855283141136
1772538586778631200,7.484631103515625,-0.0035803811624646187,0.0003067546058446169,0.013863345608115196
1772538586788647200,7.494647216796875,-0.0041750650852918625,0.01187099888920784,0.007548458408564329
1772538586798662100,7.504662109375,-0.00045761861838400364,0.01765919104218483,0.0021708838175982237
1772538586808678100,7.51467822265625,0.007914294488728046,0.009725634008646011,-0.005296885967254639
1772538586818693000,7.524693115234375,0.0164803434163332,-0.004892570432275534,-0.010117856785655022
1772538586828709000,7.534709228515625,0.020859379321336746,-0.011404264718294144,-0.010372987017035484
1772538586838724000,7.54472412109375,0.019813431426882744,-0.018133440986275673,-0.00559584004804492
1772538586848739000,7.554739013671875,0.014381114393472672,-0.015697713941335678,0.0014727218076586723
1772538586858755000,7.564755126953125,0.005079355090856552,-0.008256352506577969,0.0087805250659585
1772538586868770000,7.57477001953125,-0.004761557560414076,0.0020080034155398607,0.019380971789360046
1772538586878786000,7.5847861328125,-0.005230146460235119,0.006283104419708252,0.023089485242962837
1772538586888801000,7.594801025390625,-0.003524924861267209,0.008767567574977875,0.022366702556610107
1772538586898816000,7.60481591796875,0.0017916825599968433,0.011114949360489845,0.015693025663495064
1772538586908832000,7.61483203125,0.0063115996308624744,0.01680772192776203,0.005568220280110836
1772538586918847000,7.624846923828125,0.007975880987942219,0.018480250611901283,-0.004084673710167408
1772538586928863000,7.634863037109375,0.00906777661293745,0.017033088952302933,-0.013259530067443848
1772538586938878000,7.6448779296875,0.01635032705962658,0.013885275460779667,-0.01770283840596676
1772538586948893200,7.65489306640625,0.033847030252218246,0.011748620308935642,-0.017372339963912964
1772538586958909000,7.664908935546875,0.043078333139419556,0.0017999745905399323,-0.009059160947799683
1772538586968924200,7.674924072265625,0.04875779151916504,-0.006593509577214718,0.005248937755823135
1772538586978940000,7.68493994140625,0.04855571687221527,-0.0029676947742700577,0.024489864706993103
1772538586988955100,7.694955078125,0.04482089728116989,0.00291549414396286,0.03999824821949005
1772538586998970000,7.70497021484375,0.044254120439291,0.011907498352229595,0.051582109183073044
1772538587008986000,7.714986083984375,0.045616861432790756,0.01810787059366703,0.055250879377126694
1772538587019001000,7.7250009765625,0.04381103813648224,0.023510899394750595,0.04917295277118683
1772538587029017000,7.73501708984375,0.03646870329976082,0.02558070793747902,0.033702120184898376
1772538587039032300,7.7450322265625,0.028146779164671898,0.024896154180169106,0.018379567191004753
1772538587049047000,7.755047119140625,0.020658770576119423,0.02028702199459076,0.004868552554398775
1772538587059063300,7.765063232421875,0.013339215889573097,0.005674649961292744,-0.0055252364836633205
1772538587069078300,7.775078369140625,0.011354096233844757,-0.008629720658063889,-0.016356047242879868
1772538587079094300,7.78509423828125,0.011246110312640667,-0.0157322995364666,-0.023587387055158615
1772538587089109200,7.795109130859375,0.006115796975791454,-0.01941411942243576,-0.022154340520501137
1772538587099124200,7.805124267578125,-0.005001837387681007,-0.014218321070075035,-0.017658688127994537
1772538587109140200,7.81514013671875,-0.018113112077116966,-0.014827386476099491,-0.013413343578577042
1772538587119155200,7.8251552734375,-0.021906312555074692,-0.0038199317641556263,-0.009574515745043755
1772538587129171200,7.835171142578125,-0.0149437440559268,0.019773012027144432,-0.0013349615037441254
1772538587139186200,7.845186279296875,-0.007056329865008593,0.03861271217465401,0.0075432490557432175
1772538587149202200,7.8552021484375,-0.008432918228209019,0.048407554626464844,0.01128499023616314
1772538587159217200,7.865217041015625,-0.011782849207520485,0.0531446747481823,0.015442808158695698
1772538587169232100,7.875232177734375,-0.01533284317702055,0.050062332302331924,0.01758558675646782
1772538587179248000,7.885248046875,-0.01735011860728264,0.049322277307510376,0.013753801584243774
1772538587189263000,7.89526318359375,-0.012672276236116886,0.050093796104192734,0.0034894454292953014
1772538587199279000,7.905279052734375,-0.003589433617889881,0.04913291335105896,-0.004071949515491724
1772538587209294000,7.915294189453125,0.007274399511516094,0.04039348289370537,-0.004969167988747358
1772538587219309000,7.92530908203125,0.016471821814775467,0.030610593035817146,-0.0040668584406375885
1772538587229325000,7.935324951171875,0.026939377188682556,0.014934158883988857,0.007992466911673546
1772538587239340000,7.945340087890625,0.035945530980825424,-0.010039771907031536,0.017353741452097893
1772538587249356000,7.95535595703125,0.04505354166030884,-0.02789919637143612,0.023104039952158928
1772538587259371000,7.96537109375,0.05139005556702614,-0.03012629598379135,0.01832503080368042
1772538587269386000,7.975385986328125,0.04921771585941315,-0.018833426758646965,0.0044654072262346745
1772538587279402000,7.985402099609375,0.04295210540294647,-0.004586228635162115,-0.02219780720770359
1772538587289417000,7.9954169921875,0.028159841895103455,0.005386510398238897,-0.04561471939086914
1772538587299433000,8.005432861328124,0.013448613695800304,0.016792919486761093,-0.06607922166585922
1772538587309448000,8.015447998046875,0.0016814367845654488,0.013893538154661655,-0.07322821021080017
1772538587319463000,8.025462890625,-0.008453963324427605,0.01106568705290556,-0.07272983342409134
1772538587329479200,8.035479248046874,-0.012371739372611046,0.0009315602947026491,-0.0625578910112381
1772538587339494100,8.045494140625,-0.011569005437195301,-0.01214626431465149,-0.04142722114920616
1772538587349510100,8.05551025390625,-0.00801608245819807,-0.020895548164844513,-0.0179530531167984
1772538587359525000,8.065525146484376,-0.001754184253513813,-0.026487568393349648,0.001543770544230938
1772538587369540000,8.0755400390625,0.006240624934434891,-0.020037658512592316,0.011816647835075855
1772538587379556000,8.08555615234375,0.010048271156847477,-0.010602711699903011,0.011023057624697685
1772538587389571000,8.095571044921876,0.012507434003055096,0.006488657556474209,0.000003962777554988861
1772538587399587000,8.105587158203125,0.008449990302324295,0.023687804117798805,-0.01661171019077301
1772538587409602000,8.11560205078125,0.007083522621542215,0.038605500012636185,-0.01926235482096672
1772538587419617300,8.1256171875,0.002693102229386568,0.04396085813641548,-0.016983281821012497
1772538587429633000,8.135633056640625,-0.00048697844613343477,0.03668829798698425,-0.009461714886128902
1772538587439648300,8.145648193359374,0.0022902193013578653,0.025021890178322792,-0.0003688512369990349
1772538587449664000,8.1556640625,0.003615674562752247,0.010830704122781754,0.0056967646814882755
1772538587459679200,8.16567919921875,0.0056920768693089485,0.006132909096777439,0.006053183693438768
1772538587469694200,8.175694091796874,0.0032313158735632896,0.008596333675086498,0.006614844314754009
1772538587479710200,8.185710205078125,0.006077836267650127,0.012662994675338268,0.007295962423086166
1772538587489725200,8.19572509765625,0.00645627174526453,0.008410192094743252,0.00521177239716053
1772538587499741200,8.2057412109375,0.004587536212056875,0.001086023636162281,0.009710175916552544
1772538587509756200,8.215756103515625,0.007917553186416626,0.003963569179177284,0.020201697945594788
1772538587519772200,8.225772216796875,0.008425616659224033,0.004821632988750935,0.02494005300104618
1772538587529787100,8.235787109375,0.007028788793832064,0.00936844851821661,0.02324947901070118
1772538587539802000,8.245802001953125,0.005779562518000603,0.02606801502406597,0.018184829503297806
1772538587549818000,8.255818115234375,0.003185110865160823,0.038317494094371796,0.011294698342680931
1772538587559833000,8.2658330078125,-0.0019053991418331861,0.04066334292292595,0.000026601366698741913
1772538587569849000,8.27584912109375,-0.014460606500506401,0.03721614554524422,-0.009778092615306377
1772538587579864000,8.285864013671874,-0.02007959969341755,0.04137798398733139,-0.014239037409424782
1772538587589879000,8.295879150390626,-0.025172362104058266,0.04221980646252632,-0.011906107887625694
1772538587599895000,8.30589501953125,-0.027214137837290764,0.03320400416851044,-0.005245278589427471
1772538587609910000,8.315909912109374,-0.026931576430797577,0.024150589480996132,0.000023785047233104706
1772538587619926000,8.325926025390626,-0.028128206729888916,0.017011094838380814,0.0021846469026058912
1772538587629941000,8.33594091796875,-0.025066902860999107,0.009141986258327961,0.0034376641269773245
1772538587639956000,8.3459560546875,-0.02463439665734768,0.003991813398897648,-0.00022193556651473045
1772538587649972000,8.355971923828125,-0.03156101331114769,0.006056028883904219,-0.00811261497437954
1772538587659987000,8.365987060546875,-0.036815691739320755,0.026094775646924973,-0.0065804412588477135
1772538587670003000,8.3760029296875,-0.03340071812272072,0.0526086762547493,-0.0021689152345061302
1772538587680018000,8.386017822265625,-0.03169171139597893,0.05867497995495796,0.0014264434576034546
1772538587690033000,8.396032958984375,-0.036786336451768875,0.052071671932935715,-0.0005621388554573059
1772538587700049000,8.406048828125,-0.03791351616382599,0.042442552745342255,-0.011898212134838104
1772538587710063900,8.41606396484375,-0.035303883254528046,0.03988219052553177,-0.031053796410560608
1772538587720080000,8.426079833984375,-0.024756373837590218,0.029976753517985344,-0.04536869749426842
1772538587730094800,8.4360947265625,-0.0124986432492733,0.010798530653119087,-0.05141407251358032
1772538587740109800,8.44610986328125,-0.005367026198655367,-0.008508273400366306,-0.047344911843538284
1772538587750125800,8.456125732421874,-0.0018916010158136487,-0.017131589353084564,-0.04144281521439552
1772538587760140800,8.466140869140625,-0.003214932745322585,-0.02333417534828186,-0.04285917058587074
1772538587770157000,8.476156982421875,-0.009831023402512074,-0.020065411925315857,-0.0542156882584095
1772538587780171800,8.486171875,-0.01339332852512598,-0.015454070642590523,-0.06901232898235321
1772538587790187000,8.49618701171875,-0.013691069558262825,-0.015418650582432747,-0.086820088326931
1772538587800203000,8.506203125,-0.010795757174491882,-0.029427796602249146,-0.10186541080474854
1772538587810218000,8.516218017578124,-0.007900901138782501,-0.052536845207214355,-0.1090594083070755
1772538587820234000,8.52623388671875,-0.001733872457407415,-0.06530626863241196,-0.09928404539823532
1772538587830249000,8.5362490234375,0.006918204948306084,-0.06130620464682579,-0.08465210348367691
1772538587840264200,8.54626416015625,0.019107693806290627,-0.045949093997478485,-0.06468579173088074
1772538587850280000,8.556280029296875,0.0235234797000885,-0.0323970653116703,-0.04226383939385414
1772538587860295200,8.566295166015625,0.023687588050961494,-0.017987074330449104,-0.026494905352592468
1772538587870311000,8.576310791015626,0.022903820499777794,-0.0004661376588046551,-0.011864563450217247
1772538587880326100,8.586326171875,0.02276134118437767,0.008913249708712101,0.00148240034468472
1772538587890341000,8.596341064453124,0.019903237000107765,0.008048787713050842,0.01185141783207655
1772538587900357000,8.606357177734376,0.017319174483418465,0.000631408067420125,0.017433196306228638
1772538587910372000,8.6163720703125,0.009827970527112484,-0.0015499871224164963,0.017482995986938477
1772538587920388000,8.62638818359375,0.015591307543218136,0.004530694335699081,0.0206587016582489
1772538587930403000,8.636403076171876,0.016592122614383698,0.002284850925207138,0.023089367896318436
1772538587940418000,8.64641796875,0.011008878238499165,-0.004786310251802206,0.023791907355189323
1772538587950434000,8.65643408203125,0.007150224409997463,-0.014474358409643173,0.02545478567481041
1772538587960449000,8.666448974609375,0.0017003242392092943,-0.02676466666162014,0.030139731243252754
1772538587970465000,8.676465087890625,-0.005982096306979656,-0.03247368335723877,0.03148462995886803
1772538587980480000,8.68647998046875,-0.011901699006557465,-0.014845358207821846,0.03438560664653778
1772538587990496000,8.69649609375,-0.016357433050870895,0.006176837254315615,0.030491266399621964
1772538588000511000,8.706510986328125,-0.02173987776041031,0.020704178139567375,0.02269859053194523
1772538588010526000,8.71652587890625,-0.02247544191777706,0.028640396893024445,0.01067388616502285
1772538588020542000,8.7265419921875,-0.019434316083788872,0.024563847109675407,0.005675547756254673
1772538588030557000,8.736556884765625,-0.01403129380196333,0.01964365690946579,0.0007359161972999573
1772538588040572000,8.746572021484376,-0.013696596957743168,0.0033369064331054688,0.0010785162448883057
1772538588050588000,8.756587890625,-0.013823896646499634,-0.009581288322806358,0.004506004508584738
1772538588060603000,8.766602783203124,-0.016349514946341515,-0.019573036581277847,0.008952982723712921
1772538588070619000,8.776618896484376,-0.010850085876882076,-0.01844412088394165,0.012751182541251183
1772538588080633900,8.7866337890625,-0.011622060090303421,-0.010402852669358253,0.015516931191086769
1772538588090650000,8.796650146484374,-0.008202827535569668,-0.00014249258674681187,0.015959816053509712
1772538588100665000,8.8066650390625,-0.007363737560808659,0.011012626811861992,0.017292462289333344
1772538588110680000,8.81668017578125,-0.004538123030215502,0.016487818211317062,0.02227870002388954
1772538588120696000,8.826696044921874,-0.0012848777696490288,0.020619383081793785,0.026942962780594826
1772538588130711000,8.8367109375,-0.00022280908888205886,0.013740438967943192,0.02848200313746929
1772538588140726000,8.84672607421875,0.002410932444036007,0.005164893344044685,0.023926634341478348
1772538588150742000,8.856741943359374,0.011403894983232021,-0.0069911060854792595,0.015660181641578674
1772538588160757000,8.866757080078125,0.019977806136012077,-0.020961293950676918,0.00694986991584301
1772538588170773000,8.87677294921875,0.027364615350961685,-0.03114628605544567,-0.0009658434428274632
1772538588180788000,8.8867880859375,0.03404915705323219,-0.03475451469421387,-0.011772330850362778
1772538588190804000,8.896803955078125,0.037251073867082596,-0.03590553253889084,-0.01780758611857891
1772538588200819000,8.90681884765625,0.036465711891651154,-0.036938782781362534,-0.017677834257483482
1772538588210834000,8.916833984375,0.037500616163015366,-0.05177685245871544,-0.017082883045077324
1772538588220850000,8.926849853515625,0.03161880746483803,-0.06907670199871063,-0.01020129956305027
1772538588230865000,8.936864990234374,0.029186010360717773,-0.06014605611562729,0.0008191275410354137
1772538588240881000,8.946880859375,0.023650970309972763,-0.037261418998241425,0.010134093463420868
1772538588250896000,8.956895751953125,0.015705961734056473,-0.03361954912543297,0.01742502860724926
1772538588260911000,8.9669111328125,0.003634453285485506,-0.029776334762573242,0.017925111576914787
1772538588270926800,8.9769267578125,-0.004269542638212442,-0.016024569049477577,0.010225912556052208
1772538588280942000,8.986942138671875,-0.002284158021211624,-0.001582275377586484,-0.0002392735332250595
1772538588290957800,8.996957763671874,0.0029548124875873327,-0.004761823453009129,-0.004364510532468557
1772538588300973000,9.00697314453125,0.011880792677402496,-0.01561691053211689,-0.003066662233322859
1772538588310988000,9.016988037109375,0.014665394090116024,-0.027670912444591522,0.0019491356797516346
1772538588321004000,9.027004150390624,0.016727618873119354,-0.048437636345624924,0.010430444031953812
1772538588331019000,9.03701904296875,0.00981085654348135,-0.05319377779960632,0.012543128803372383
1772538588341035000,9.047034912109375,0.0003409869968891144,-0.04346686601638794,0.005978881381452084
1772538588351050000,9.057050048828126,-0.010033090598881245,-0.026412516832351685,-0.0040849377401173115
1772538588361065000,9.06706494140625,-0.018006188794970512,-0.016071125864982605,-0.016038864850997925
1772538588371081000,9.0770810546875,-0.023725593462586403,-0.007843289524316788,-0.01589159108698368
1772538588381096000,9.087095947265626,-0.02179281786084175,-0.009875704534351826,-0.015573369339108467
1772538588391112200,9.0971123046875,-0.020483609288930893,-0.01961115561425686,-0.019934561103582382
1772538588401127200,9.107127197265624,-0.02178375795483589,-0.02700509876012802,-0.027813199907541275
1772538588411142000,9.117141845703125,-0.01817038096487522,-0.03042486310005188,-0.039305273443460464
1772538588421158100,9.127158203125,-0.012220481410622597,-0.032052867114543915,-0.04625653475522995
1772538588431173000,9.137173095703124,-0.006029963959008455,-0.038670822978019714,-0.04348471760749817
1772538588441189000,9.147189208984376,-0.001713308272883296,-0.04683629050850868,-0.03230411931872368
1772538588451204000,9.1572041015625,0.0017128484323620796,-0.0478336438536644,-0.02321980893611908
1772538588461219000,9.167218994140624,-0.0034113419242203236,-0.038136038929224014,-0.020032834261655807
1772538588471235000,9.177235107421875,-0.005311774089932442,-0.01686856895685196,-0.021596109494566917
1772538588481250000,9.18725,-0.004809501580893993,0.0035245877224951982,-0.025717884302139282
1772538588491266000,9.19726611328125,-0.009578158147633076,0.018376238644123077,-0.029090510681271553
1772538588501281000,9.207281005859375,-0.012161155231297016,0.021671928465366364,-0.033240750432014465
1772538588511296000,9.2172958984375,-0.008870287798345089,0.020463386550545692,-0.034031178802251816
1772538588521312000,9.22731201171875,-0.0003689493169076741,0.011142531409859657,-0.02920718677341938
1772538588531327500,9.237327392578125,0.012178267352283001,0.011362242512404919,-0.021996676921844482
1772538588541343500,9.247343505859375,0.02384158782660961,0.01411337312310934,-0.012805488891899586
1772538588551358500,9.2573583984375,0.025786761194467545,0.019124111160635948,-0.010159105993807316
1772538588561373400,9.26737353515625,0.025274891406297684,0.019319739192724228,-0.006229460705071688
1772538588571389400,9.277389404296875,0.03319673240184784,0.01847711391746998,-0.0040792240761220455
1772538588581404400,9.287404296875,0.04118015244603157,0.015310831367969513,0.0008485717698931694
1772538588591420400,9.29742041015625,0.047225262969732285,0.006916281767189503,0.0024792253971099854
1772538588601435400,9.307435302734374,0.05180077627301216,0.0039016627706587315,-0.004149503540247679
1772538588611450400,9.317450439453125,0.050809282809495926,0.006931807845830917,-0.009421497583389282
1772538588622092500,9.328092529296875,0.04565287008881569,0.014445117674767971,-0.009190067648887634
1772538588632107500,9.338107421875,0.039374466985464096,0.01668616756796837,0.000017544720321893692
1772538588642123500,9.34812353515625,0.03333967924118042,0.016588451340794563,0.0048736403696238995
1772538588652138500,9.358138427734374,0.033786557614803314,0.01813068799674511,0.010473202913999557
1772538588662153500,9.368153564453126,0.03769262880086899,0.017116403207182884,0.016274748370051384
1772538588672169500,9.37816943359375,0.04389273375272751,0.005976933520287275,0.018489433452486992
1772538588682184400,9.388184326171874,0.04655396193265915,-0.003619004040956497,0.016437498852610588
1772538588692200400,9.398200439453126,0.049121513962745667,-0.007009207736700773,0.00892605260014534
1772538588702215400,9.40821533203125,0.04825424775481224,-0.0033487644977867603,0.0037209652364253998
1772538588712230400,9.41823046875,0.04332580044865608,0.0025019340682774782,0.0017441008239984512
1772538588722246400,9.428246337890625,0.039523880928754807,0.008117827586829662,0.0006789229810237885
1772538588732261400,9.438261474609375,0.03749402239918709,0.0023076089564710855,0.0001886347308754921
1772538588742277400,9.44827734375,0.03929876908659935,-0.004569298587739468,-0.005104958079755306
1772538588752292400,9.458292236328125,0.04039252921938896,-0.010467400774359703,-0.010250184684991837
1772538588762307300,9.468307373046875,0.041650742292404175,-0.015087942592799664,-0.018702615052461624
1772538588772323300,9.4783232421875,0.03583093732595444,-0.016044016927480698,-0.02042141929268837
1772538588782338300,9.48833837890625,0.027010278776288033,-0.008449272252619267,-0.012781133875250816
1772538588792354300,9.498354248046875,0.024753516539931297,0.004460667259991169,-0.003312797751277685
1772538588802369300,9.508369384765626,0.019786454737186432,0.01852375455200672,0.004397852346301079
1772538588812384300,9.51838427734375,0.017359845340251923,0.027160631492733955,0.003211059607565403
1772538588822400300,9.528400146484374,0.013915713876485825,0.032668061554431915,-0.00535724638029933
1772538588832415200,9.538415283203125,0.014658469706773758,0.030867498368024826,-0.012914499267935753
1772538588842430500,9.548430419921875,0.017599867656826973,0.014599602669477463,-0.014551190659403801
1772538588852446200,9.5584462890625,0.018155401572585106,0.005915566347539425,-0.0004137991927564144
1772538588862461400,9.56846142578125,0.01864861324429512,0.000986264320090413,0.020649883896112442
1772538588872477200,9.578477294921875,0.017731154337525368,-0.006500414106994867,0.03731061518192291
1772538588882492400,9.588492431640624,0.01837577484548092,-0.012265610508620739,0.04267251119017601
1772538588892507400,9.59850732421875,0.02295934036374092,-0.012224331498146057,0.0376063771545887
1772538588902523400,9.6085234375,0.02722512185573578,-0.00972395483404398,0.027515927329659462
1772538588912538400,9.618538330078126,0.03119509294629097,0.0020983496215194464,0.01216413639485836
1772538588922554400,9.628554443359375,0.03693787753582001,0.008560913614928722,0.0018666945397853851
1772538588932569600,9.638569580078125,0.03841140493750572,0.007036253809928894,0.0025223647244274616
1772538588942585300,9.64858544921875,0.03790208324790001,0.00318430014885962,0.008922383189201355
1772538588952600600,9.6586005859375,0.03439123556017876,-0.001328958896920085,0.015477754175662994
1772538588962615600,9.668615478515624,0.030585365369915962,-0.005855699069797993,0.018954811617732048
1772538588973256400,9.67925634765625,0.028732338920235634,-0.005761156789958477,0.0170903317630291
1772538588983272200,9.689272216796875,0.022903744131326675,-0.005592844914644957,0.013656452298164368
1772538588993287400,9.699287353515626,0.019971473142504692,-0.011298091150820255,0.013239577412605286
1772538589003303200,9.70930322265625,0.018224172294139862,-0.009784083813428879,0.014420157298445702
1772538589013318400,9.719318359375,0.014006592333316803,0.0006379375699907541,0.01384725235402584
1772538589023333400,9.72933349609375,0.012023602612316608,0.017461393028497696,0.012742839753627777
1772538589033349600,9.739349609375,0.01282900758087635,0.026603203266859055,0.010300632566213608
1772538589043364400,9.7493642578125,0.011708219535648823,0.025282852351665497,0.009858457371592522
1772538589053380600,9.759380615234376,0.01304725743830204,0.009063134901225567,0.01225343905389309
1772538589063395600,9.7693955078125,0.020839398726820946,-0.009342502802610397,0.016738468781113625
1772538589073410600,9.77941064453125,0.02760561741888523,-0.01579650118947029,0.02018297277390957
1772538589083426600,9.789426513671875,0.02640027180314064,-0.006347073707729578,0.015723776072263718
1772538589093441500,9.799441650390625,0.022638630121946335,0.012405402027070522,0.009318634867668152
1772538589103457500,9.80945751953125,0.017091266810894012,0.029584120959043503,0.0046234820038080215
1772538589113472500,9.819472412109375,0.014236891642212868,0.03004937618970871,0.0016061204951256514
1772538589123487500,9.829487548828125,0.014538627117872238,0.022373612970113754,0.003685250412672758
1772538589133503500,9.83950341796875,0.016331201419234276,0.01651545986533165,0.007458416745066643
1772538589143518500,9.8495185546875,0.018022308126091957,0.00776005070656538,0.011493904516100883
1772538589153534500,9.859534423828125,0.019110674038529396,0.005843633320182562,0.016028262674808502
1772538589163549400,9.869549560546876,0.021131480112671852,0.006870814133435488,0.021836884319782257
1772538589173564400,9.879564453125,0.019977930933237076,0.01417744904756546,0.02864430658519268
1772538589183580400,9.889580322265624,0.021493537351489067,0.022826330736279488,0.03449686989188194
1772538589193595400,9.899595458984376,0.030023256316781044,0.029995983466506004,0.03284626826643944
1772538589203611400,9.909611328125,0.03469017893075943,0.0364200621843338,0.02371801808476448
1772538589213626400,9.91962646484375,0.03798297047615051,0.03940724954009056,0.012320607900619507
1772538589223641300,9.929641357421875,0.03701730817556381,0.04584810510277748,0.00896555744111538
1772538589233657300,9.9396572265625,0.03183485567569733,0.04784670099616051,0.006417003460228443
1772538589243672300,9.94967236328125,0.023219263181090355,0.0506235770881176,0.0074180858209729195
1772538589253688300,9.959688232421875,0.01884828880429268,0.05360425263643265,0.00014232797548174858
1772538589263703300,9.969703369140625,0.01867411844432354,0.0388876236975193,0.00007628137245774269
1772538589273718300,9.97971826171875,0.012017612345516682,0.025308145210146904,0.007794301025569439
1772538589283734300,9.989734375,0.004651308059692383,0.020627373829483986,0.012805305421352386
1772538589293749200,9.999749267578125,0.003024850971996784,0.022433815523982048,0.01394735649228096
1772538589303765200,10.00976513671875,0.010058792307972908,0.024634918197989464,0.010282846167683601
1772538589313780200,10.0197802734375,0.020919231697916985,0.02644028328359127,0.0054062725976109505
1772538589323795200,10.029795166015624,0.02980007417500019,0.03277114778757095,-0.0003741183318197727
1772538589333811500,10.0398115234375,0.03547067567706108,0.022765113040804863,-0.00728070130571723
1772538589343826200,10.049826171875,0.04058687388896942,0.008143827319145203,-0.012274127453565598
1772538589353842400,10.059842529296875,0.038257673382759094,-0.0024006934836506844,-0.018382353708148003
1772538589363857400,10.069857421875,0.039647843688726425,-0.002940516220405698,-0.018228689208626747
1772538589373872600,10.07987255859375,0.042655546218156815,0.0015159526374191046,-0.015574314631521702
1772538589383888400,10.089888427734374,0.050667665898799896,0.0017630939837545156,-0.0013873898424208164
1772538589393903600,10.099903564453125,0.051313817501068115,-0.005709937307983637,0.013121509924530983
1772538589403919400,10.10991943359375,0.05271996930241585,-0.017229706048965454,0.027275411412119865
1772538589413934600,10.1199345703125,0.03767956420779228,-0.05506419390439987,0.04286547005176544
1772538589423949600,10.129949462890625,0.04803313687443733,-0.07209963351488113,0.058232974261045456
1772538589433965600,10.139965576171875,0.05348396301269531,-0.09694824367761612,0.050587717443704605
1772538589443980500,10.14998046875,0.05262589082121849,-0.08751452714204788,0.04221527278423309
1772538589453996500,10.15999658203125,0.05931255593895912,-0.0409928634762764,0.029223544523119926
1772538589464011500,10.170011474609375,0.0470455028116703,-0.028472010046243668,-0.009155802428722382
1772538589474026500,10.180026611328126,0.050175849348306656,-0.018636655062437057,-0.033775694668293
1772538589484042500,10.19004248046875,0.048970770090818405,0.00397358275949955,-0.045365236699581146
1772538589494057500,10.200057373046874,0.0358620248734951,0.006672977469861507,-0.04682529717683792
1772538589504073500,10.210073486328126,0.010759870521724224,0.0029687860514968634,-0.04007285460829735
1772538589514088400,10.22008837890625,-0.011804565787315369,-0.010441618971526623,-0.024611664935946465
1772538589524103400,10.230103515625,-0.034593768417835236,-0.03198020160198212,-0.010373072698712349
1772538589534119200,10.240119140625,-0.04702979698777199,-0.02594919130206108,0.0046917772851884365
1772538589544134100,10.250134033203125,-0.04771177098155022,0.0018919475842267275,0.019084420055150986
1772538589554150400,10.260150390625,-0.04007142782211304,0.020146051421761513,0.029473677277565002
1772538589564165400,10.270165283203125,-0.03252030164003372,0.019683727994561195,0.033035919070243835
1772538589574180000,10.28018017578125,-0.02571159414947033,0.009550969116389751,0.03174372389912605
1772538589584196400,10.2901962890625,-0.022310737520456314,-0.006409888155758381,0.027803044766187668
1772538589594211300,10.30021142578125,-0.020368823781609535,-0.017233723774552345,0.020017944276332855
1772538589604226300,10.310226318359375,-0.01871793158352375,-0.015559926629066467,0.01348414458334446
1772538589614242300,10.3202421875,-0.016964435577392578,-0.01488131657242775,0.007360707502812147
1772538589624257300,10.33025732421875,-0.014547617174685001,-0.018509341403841972,-0.0058088903315365314
1772538589634273300,10.340273193359375,-0.008678218349814415,-0.01881864294409752,-0.02258138731122017
1772538589644288300,10.350288330078126,-0.006395623087882996,-0.013661963865160942,-0.04748913273215294
1772538589654303200,10.36030322265625,-0.008254372514784336,-0.013976173475384712,-0.06263488531112671
1772538589664319200,10.3703193359375,-0.009487682953476906,-0.013845146633684635,-0.06870343536138535
1772538589674334200,10.380334228515625,-0.012343917973339558,-0.006316864863038063,-0.06741733849048615
1772538589684350200,10.39035009765625,-0.009655989706516266,0.013238726183772087,-0.058919455856084824
1772538589694365200,10.400365234375,-0.009136737324297428,0.026155080646276474,-0.047871772199869156
1772538589704380200,10.410380126953125,-0.00866908673197031,0.03504524379968643,-0.04039068892598152
1772538589714396200,10.420396240234375,-0.0037865815684199333,0.047246769070625305,-0.029271872714161873
1772538589724411100,10.4304111328125,-0.0006568348035216331,0.05395074561238289,-0.01637844368815422
1772538589734427100,10.44042724609375,0.0000510778627358377,0.04370744153857231,-0.0023526903241872787
1772538589744442000,10.450442138671875,0.0010777264833450317,0.02883075550198555,0.010480018332600594
1772538589754457300,10.460457275390626,0.0064739808440208435,0.01875096559524536,0.019093884155154228
1772538589764473000,10.47047314453125,0.01861266978085041,0.008930293843150139,0.021360501646995544
1772538589774488300,10.48048828125,0.03279026225209236,0.0010442924685776234,0.020851988345384598
1772538589784504000,10.490504150390626,0.04265972971916199,-0.014575228095054626,0.01737348921597004
1772538589794519300,10.500519287109375,0.0494912713766098,-0.03254757076501846,0.008670544251799583
1772538589804534300,10.5105341796875,0.05090061575174332,-0.03513643145561218,-0.0057443478144705296
1772538589814550300,10.52055029296875,0.0463201180100441,-0.029067574068903923,-0.03043620102107525
1772538589824565200,10.530565185546875,0.04224788025021553,-0.009764716029167175,-0.04958326742053032
1772538589834581200,10.540581298828124,0.03803889453411102,0.007625884842127562,-0.05577109381556511
1772538589844596200,10.55059619140625,0.021413106471300125,0.017246978357434273,-0.04348025098443031
1772538589854611200,10.560611083984375,0.004367811139672995,0.0201098769903183,-0.022499598562717438
1772538589864627200,10.570627197265624,-0.013376032002270222,0.009418883360922337,-0.007971523329615593
1772538589874642200,10.58064208984375,-0.01905868574976921,-0.0012492075329646468,-0.00503245834261179
1772538589884658400,10.590658447265625,-0.012124346569180489,0.0020195564720779657,-0.019658803939819336
1772538589894673400,10.60067333984375,-0.004251183941960335,0.005560948513448238,-0.04150858893990517
1772538589904688000,10.610688232421875,-0.002076180186122656,0.003466638270765543,-0.05085095763206482
1772538589914704400,10.620704345703125,-0.009649328887462616,0.0031536307651549578,-0.03943254426121712
1772538589924719400,10.63071923828125,-0.023667942732572556,0.012318899855017662,-0.021006928756833076
1772538589934735400,10.6407353515625,-0.04088734835386276,0.02931724674999714,-0.012143809348344803
1772538589944750300,10.650750244140625,-0.054204486310482025,0.0483870729804039,-0.01929226703941822
1772538589954765300,10.660765380859376,-0.06383327394723892,0.06356263905763626,-0.028418712317943573
1772538589964781300,10.67078125,-0.06940887123346329,0.07127222418785095,-0.03130291774868965
1772538589974796300,10.68079638671875,-0.07150045782327652,0.07759682834148407,-0.030039984732866287
1772538589984812300,10.690812255859376,-0.0717337504029274,0.08127625286579132,-0.02764420211315155
1772538589994827300,10.7008271484375,-0.07134085893630981,0.07529089599847794,-0.02494213357567787
1772538590004842200,10.71084228515625,-0.06959569454193115,0.04761851578950882,-0.017874635756015778
1772538590014858200,10.720858154296875,-0.06897364556789398,0.02304067276418209,-0.007665939629077911
1772538590024873200,10.730873291015625,-0.06495946645736694,0.02659386210143566,0.00034458283334970474
1772538590034889200,10.74088916015625,-0.06158876791596413,0.05239112675189972,-0.005735059734433889
1772538590044904200,10.750904296875,-0.05457233637571335,0.07732474058866501,-0.030229512602090836
1772538590054919200,10.760919189453125,-0.04241127520799637,0.0833999440073967,-0.0427093505859375
1772538590064935200,10.77093505859375,-0.03455734625458717,0.060388896614313126,-0.02832162380218506
1772538590074950100,10.7809501953125,-0.043706052005290985,0.03479309380054474,-0.0072037880308926105
1772538590084966100,10.790966064453125,-0.04530980810523033,0.03113524056971073,0.00794427189975977
1772538590094981000,10.800981201171876,-0.0402134470641613,0.04826952889561653,0.01919310726225376
1772538590104996000,10.81099609375,-0.037948161363601685,0.05802708491683006,0.023905836045742035
1772538590115012000,10.82101220703125,-0.027905303984880447,0.04710878059267998,0.023281915113329887
1772538590125027000,10.831027099609376,-0.01275298185646534,0.03346780315041542,0.019943641498684883
1772538590135042300,10.841042236328125,-0.00799584947526455,0.04882725328207016,-0.001004515215754509
1772538590145058000,10.85105810546875,0.002104579471051693,0.07563453167676926,-0.026490401476621628
1772538590155073300,10.8610732421875,0.016937853768467903,0.10032495856285095,-0.031469181180000305
1772538590165089000,10.871089111328125,0.01919648051261902,0.10233405232429504,-0.03126438334584236
1772538590175104300,10.881104248046874,0.020740866661071777,0.0665123388171196,-0.038179878145456314
1772538590185119200,10.891119140625,0.03207927197217941,0.028474945574998856,-0.04590757191181183
1772538590195135200,10.90113525390625,0.02953169494867325,0.07324294745922089,0.002228796249255538
1772538590205150200,10.911150146484376,-0.06876931339502335,0.05605677142739296,0.11037977039813995
1772538590215166200,10.921166259765625,-0.1323268711566925,-0.10995469987392426,0.1364624947309494
1772538590225181400,10.931181396484375,-0.09247718006372452,-0.10328241437673569,0.13898557424545288
1772538590235196400,10.941196533203126,-0.030755681917071342,-0.05104944854974747,0.11030125617980957
1772538590245212400,10.95121240234375,-0.008404304273426533,-0.03372371941804886,0.0645364373922348
1772538590255227400,10.961227294921875,-0.013302797451615334,-0.02754635363817215,0.005781012587249279
1772538590265243400,10.971243408203126,-0.0033135467674583197,-0.021433865651488304,-0.042109016329050064
1772538590275258400,10.98125830078125,0.03973237797617912,0.05538009852170944,-0.11742965877056122
1772538590285273300,10.9912734375,0.06443479657173157,0.09939388930797577,-0.1458623707294464
1772538590295289300,11.001289306640626,0.055577535182237625,0.05987510830163956,-0.12584525346755981
