time,seconds_elapsed,z,y,x
1772574501394186800,0.087186767578125,0.015579032711684704,-0.014114337973296642,-0.04913387447595596
1772574501444141600,0.1371416015625,0.010252867825329304,0.00399462366476655,-0.058720968663692474
1772574501454072300,0.147072265625,0.009187635034322739,0.014646953903138638,-0.029959678649902344
1772574501464016100,0.15701611328125,0.008122402243316174,0.016777420416474342,-0.009720250964164734
1772574501473947100,0.166947021484375,0.008122402243316174,0.015712186694145203,0.006258244160562754
1772574501483885600,0.176885498046875,0.011318100616335869,0.015712186694145203,0.022236740216612816
1772574501493801200,0.18680126953125,0.013448567129671574,0.021038351580500603,0.033954303711652756
1772574501503730700,0.196730712890625,0.01664426550269127,0.018907885998487473,0.042476166039705276
1772574501513636000,0.206635986328125,0.02197043038904667,0.010386021807789803,0.043541401624679565
1772574501533530000,0.226530029296875,0.02836182899773121,-0.010918638668954372,0.043541401624679565
1772574501543475200,0.23647509765625,0.02942706272006035,-0.017310036346316338,0.045671865344047546
1772574501553414000,0.246413818359375,0.03262276202440262,-0.016244804486632347,0.04673709720373154
1772574501563356200,0.256356201171875,0.03368799388408661,-0.0077229393646121025,0.045671865344047546
1772574501573253600,0.266253662109375,0.03368799388408661,0.0018641578499227762,0.03928046673536301
1772574501583178000,0.276177978515625,0.03368799388408661,0.009320789016783237,0.027562905102968216
1772574501593121500,0.28612158203125,0.03049229457974434,0.011451254598796368,0.017975807189941406
1772574501603053600,0.296053466796875,0.02836182899773121,0.008255556225776672,0.012649642303586006
1772574501612966100,0.305966064453125,0.02623136341571808,0.0061250897124409676,0.0030625448562204838
1772574501622890200,0.31589013671875,0.02623136341571808,0.002929390873759985,-0.005459319334477186
1772574501632855300,0.325855224609375,0.02410089783370495,0.0007989247678779066,-0.007589785382151604
1772574501642796000,0.335796142578125,0.02090519852936268,0.002929390873759985,-0.008655018173158169
1772574501652725800,0.345725830078125,0.01664426550269127,0.0050598569214344025,-0.006524552125483751
1772574501662662100,0.355662109375,0.015579032711684704,0.014646953903138638,-0.010785484686493874
1772574501672585000,0.3655849609375,0.012383334338665009,0.021038351580500603,-0.013981183059513569
1772574501682516000,0.375515869140625,0.008122402243316174,0.023168819025158882,-0.015046416781842709
1772574501692447700,0.38544775390625,0.00399462366476655,0.026364516466856003,-0.011850717477500439
1772574501702379300,0.395379150390625,0.0018641578499227762,0.024234050884842873,-0.010785484686493874
1772574501712289500,0.40528955078125,-0.0023967742454260588,0.016777420416474342,-0.006524552125483751
1772574501722212600,0.415212646484375,-0.00452724052593112,0.012516488321125507,-0.00226362026296556
1772574501732181800,0.425181640625,-0.00452724052593112,0.00719032296910882,-0.0011983871227130294
1772574501742123300,0.435123291015625,-0.00452724052593112,0.0050598569214344025,0.0009320789249613881
1772574501752008700,0.4450087890625,-0.0023967742454260588,0.002929390873759985,-0.0001331541279796511
1772574501761927700,0.454927734375,-0.00133154122158885,0.00399462366476655,-0.0011983871227130294
1772574501771917300,0.464917236328125,-0.0023967742454260588,0.0050598569214344025,-0.00226362026296556
1772574501781864700,0.47486474609375,-0.00452724052593112,0.008255556225776672,0.0009320789249613881
1772574501791739400,0.484739501953125,-0.006657706573605537,0.014646953903138638,0.004127778112888336
1772574501801679600,0.4946796875,-0.006657706573605537,0.019973119720816612,0.008388710208237171
1772574501811619300,0.504619384765625,-0.00452724052593112,0.021038351580500603,0.012649642303586006
1772574501821559600,0.5145595703125,-0.0023967742454260588,0.019973119720816612,0.013714875094592571
1772574501831482400,0.524482421875,0.0007989247678779066,0.014646953903138638,0.014780107885599136
1772574501841420800,0.5344208984375,0.0018641578499227762,0.013581721112132072,0.017975807189941406
1772574501851345400,0.544345458984375,0.0050598569214344025,0.012516488321125507,0.019041040912270546
1772574501861282600,0.554282470703125,0.008122402243316174,0.008255556225776672,0.020106272771954536
1772574501871209700,0.564209716796875,0.010252867825329304,0.0018641578499227762,0.015845341607928276
1772574501881145900,0.574145751953125,0.01664426550269127,-0.0077229393646121025,0.014780107885599136
1772574501891108900,0.58410888671875,0.01983996480703354,-0.017310036346316338,0.021171506494283676
1772574501901047600,0.594047607421875,0.02729659713804722,-0.015179570764303207,0.028628136962652206
1772574501910944800,0.60394482421875,0.0347532257437706,-0.011983871459960938,0.038215234875679016
1772574501920879600,0.613879638671875,0.04220985993742943,-0.009853405877947807,0.058454662561416626
1772574501930804200,0.62380419921875,0.04220985993742943,-0.014114337973296642,0.09467258304357529
1772574501940737800,0.63373779296875,0.0347532257437706,-0.021570969372987747,0.12982527911663055
1772574501950675500,0.643675537109375,0.02942706272006035,-0.030092833563685417,0.1553908735513687
1772574501960609500,0.653609619140625,0.03368799388408661,-0.04287562891840935,0.16391272842884064
1772574501970543400,0.66354345703125,0.04327509179711342,-0.0482017956674099,0.16391272842884064
1772574501980477400,0.6734775390625,0.04753602296113968,-0.05352795869112015,0.15965180099010468
1772574501990405400,0.6834052734375,0.04647079110145569,-0.07163692265748978,0.15006470680236816
1772574502000338700,0.693338623046875,0.04647079110145569,-0.08868064731359482,0.14047759771347046
1772574502010273500,0.7032734375,0.04647079110145569,-0.09933298081159592,0.13834713399410248
1772574502020207000,0.71320703125,0.04434032365679741,-0.08761541545391083,0.1362166702747345
1772574502030154500,0.723154541015625,0.04753602296113968,-0.06631075590848923,0.13089050352573395
1772574502040089600,0.733089599609375,0.04966649040579796,-0.05033225938677788,0.12130340933799744
1772574502050018800,0.743018798828125,0.05179695412516594,-0.022636201232671738,0.09893351793289185
1772574502059953200,0.752953125,0.05179695412516594,0.0061250897124409676,0.06484606117010117
1772574502069889500,0.7628896484375,0.05818835273385048,0.012516488321125507,0.023301972076296806
1772574502079824100,0.77282421875,0.0454055592417717,0.024234050884842873,-0.008655018173158169
1772574502089744400,0.782744384765625,0.02516612969338894,0.04553871229290962,-0.036351077258586884
1772574502099677700,0.792677734375,0.010252867825329304,0.07323476672172546,-0.05232957378029823
1772574502109618200,0.8026181640625,0.002929390873759985,0.07749570161104202,-0.061916667968034744
1772574502119552300,0.81255224609375,-0.0023967742454260588,0.05512581020593643,-0.07043853402137756
1772574502129479700,0.822479736328125,-0.0023967742454260588,0.03382114693522453,-0.067242830991745
1772574502139413000,0.8324130859375,0.0018641578499227762,0.028494983911514282,-0.04593817517161369
1772574502149350400,0.842350341796875,0.002929390873759985,0.03595161437988281,-0.018242115154862404
1772574502159284000,0.852283935546875,0.00399462366476655,0.04447348043322563,0.008388710208237171
1772574502169207300,0.862207275390625,0.012383334338665009,0.04979964345693588,0.024367205798625946
1772574502179139800,0.872139892578125,0.02090519852936268,0.05193011090159416,0.037150003015995026
1772574502189071600,0.882071533203125,0.02836182899773121,0.0583215095102787,0.05312849581241608
1772574502199004200,0.892004150390625,0.03049229457974434,0.06684337556362152,0.07975932210683823
1772574502208939300,0.901939208984375,0.02623136341571808,0.07216953486204147,0.10745538026094437
1772574502218872000,0.9118720703125,0.02197043038904667,0.07430000603199005,0.12236864119768143
1772574502228805400,0.921805419921875,0.02197043038904667,0.06471290439367294,0.12236864119768143
1772574502238738200,0.93173828125,0.01983996480703354,0.05725627392530441,0.11597724258899689
1772574502248666600,0.94166650390625,0.01983996480703354,0.0583215095102787,0.1138467788696289
1772574502258599000,0.951598876953125,0.01877473294734955,0.06258244067430496,0.11917294561862946
1772574502268504600,0.961504638671875,0.01664426550269127,0.06577813625335693,0.12023817747831345
1772574502278434300,0.971434326171875,0.013448567129671574,0.05619104206562042,0.10958584398031235
1772574502288392000,0.981391845703125,0.013448567129671574,0.04447348043322563,0.0936073511838913
1772574502298324200,0.99132421875,0.01770949922502041,0.04553871229290962,0.07549838721752167
1772574502308269800,1.001269775390625,0.01877473294734955,0.06045197322964668,0.055258963257074356
1772574502318203600,1.01120361328125,0.01770949922502041,0.06577813625335693,0.024367205798625946
1772574502328123400,1.021123291015625,0.01664426550269127,0.03169068321585655,-0.011850717477500439
1772574502338055700,1.0310556640625,0.01877473294734955,0.011451254598796368,-0.03954677656292915
1772574502347976000,1.040975830078125,0.02090519852936268,0.008255556225776672,-0.058720968663692474
1772574502357907000,1.050906982421875,0.01770949922502041,-0.00133154122158885,-0.066177599132061
1772574502367852300,1.060852294921875,0.01770949922502041,-0.013049104250967503,-0.06404713541269302
1772574502377784800,1.070784912109375,0.02090519852936268,-0.015179570764303207,-0.054460037499666214
1772574502387694000,1.080694091796875,0.02516612969338894,-0.00133154122158885,-0.033155377954244614
1772574502397624300,1.090624267578125,0.02516612969338894,0.00719032296910882,-0.005459319334477186
1772574502407585800,1.100585693359375,0.02942706272006035,-0.0034620072692632675,0.017975807189941406
1772574502417519000,1.11051904296875,0.03262276202440262,-0.025831900537014008,0.033954303711652756
1772574502427455700,1.120455810546875,0.03049229457974434,-0.03861469775438309,0.038215234875679016
1772574502457254700,1.150254638671875,0.02410089783370495,-0.04181039705872536,0.008388710208237171
1772574502467175200,1.160175048828125,0.02729659713804722,-0.0375494658946991,0.0030625448562204838
1772574502477107200,1.170107177734375,0.02516612969338894,-0.03648423030972481,0.008388710208237171
1772574502487040500,1.18004052734375,0.02197043038904667,-0.04394086077809334,0.016910573467612267
1772574502496972800,1.189972900390625,0.02516612969338894,-0.0482017956674099,0.017975807189941406
1772574502506906600,1.19990673828125,0.02516612969338894,-0.04074516147375107,0.010519175790250301
1772574502516839200,1.209839111328125,0.02090519852936268,-0.029027599841356277,-0.004394086077809334
1772574502526772500,1.2197724609375,0.01770949922502041,-0.024766668677330017,-0.017176883295178413
1772574502536705300,1.229705322265625,0.01664426550269127,-0.029027599841356277,-0.028894444927573204
1772574502546645200,1.239645263671875,0.01770949922502041,-0.03328853100538254,-0.034220609813928604
1772574502556578800,1.249578857421875,0.01770949922502041,-0.027962366119027138,-0.037416309118270874
1772574502566504200,1.259504150390625,0.01664426550269127,-0.022636201232671738,-0.047003407031297684
1772574502576436700,1.269436767578125,0.02197043038904667,-0.024766668677330017,-0.057655736804008484
1772574502586367200,1.2793671875,0.02410089783370495,-0.030092833563685417,-0.061916667968034744
1772574502596299500,1.289299560546875,0.02197043038904667,-0.030092833563685417,-0.06511236727237701
1772574502606218200,1.29921826171875,0.01983996480703354,-0.021570969372987747,-0.060851436108350754
1772574502616149200,1.309149169921875,0.01770949922502041,-0.010918638668954372,-0.0555252730846405
1772574502626094000,1.319093994140625,0.01770949922502041,-0.008788172155618668,-0.050199106335639954
1772574502636026400,1.3290263671875,0.02197043038904667,-0.024766668677330017,-0.03954677656292915
1772574502645958000,1.3389580078125,0.02623136341571808,-0.031158065423369408,-0.022503048181533813
1772574502655890200,1.34889013671875,0.03368799388408661,-0.015179570764303207,-0.017176883295178413
1772574502665830700,1.35883056640625,0.04007939249277115,-0.015179570764303207,-0.013981183059513569
1772574502675764000,1.368763916015625,0.03688369318842888,-0.018375270068645477,-0.005459319334477186
1772574502685695700,1.37869580078125,0.03368799388408661,-0.006657706573605537,-0.0033288532868027687
1772574502695628500,1.388628662109375,0.03262276202440262,0.0018641578499227762,0.0009320789249613881
1772574502705567000,1.39856689453125,0.02836182899773121,-0.0002663082559593022,0.0030625448562204838
1772574502715500500,1.40850048828125,0.02410089783370495,-0.0034620072692632675,0.001997311832383275
1772574502725421300,1.41842138671875,0.02410089783370495,-0.00452724052593112,-0.00226362026296556
1772574502735353600,1.428353515625,0.02729659713804722,-0.005592473316937685,-0.004394086077809334
1772574502745294600,1.438294677734375,0.02729659713804722,-0.005592473316937685,-0.011850717477500439
1772574502755228000,1.448227783203125,0.02623136341571808,-0.0034620072692632675,-0.025698747485876083
1772574502765156000,1.458156005859375,0.02410089783370495,-0.00452724052593112,-0.03848154470324516
1772574502775088600,1.468088623046875,0.01983996480703354,-0.008788172155618668,-0.047003407031297684
1772574502785016300,1.478016357421875,0.01983996480703354,-0.011983871459960938,-0.050199106335639954
1772574502794948600,1.487948486328125,0.02303566411137581,-0.006657706573605537,-0.04593817517161369
1772574502804855300,1.497855224609375,0.02197043038904667,-0.00133154122158885,-0.028894444927573204
1772574502814785000,1.507784912109375,0.01877473294734955,0.00719032296910882,-0.011850717477500439
1772574502824745500,1.517745361328125,0.01664426550269127,0.023168819025158882,-0.00226362026296556
1772574502834678000,1.527677978515625,0.015579032711684704,0.029560215771198273,-0.00226362026296556
1772574502844616200,1.5376162109375,0.01664426550269127,0.03595161437988281,-0.0033288532868027687
1772574502854549200,1.54754931640625,0.01770949922502041,0.03808208182454109,-0.010785484686493874
1772574502864481500,1.5574814453125,0.015579032711684704,0.03595161437988281,-0.016111649572849274
1772574502874414600,1.56741455078125,0.013448567129671574,0.028494983911514282,-0.017176883295178413
1772574502884344300,1.57734423828125,0.011318100616335869,0.017842652276158333,-0.017176883295178413
1772574502894277000,1.587277099609375,0.010252867825329304,0.011451254598796368,-0.012915950268507004
1772574502904213200,1.597213134765625,0.009187635034322739,0.015712186694145203,-0.011850717477500439
1772574502914146300,1.607146240234375,0.008122402243316174,0.022103585302829742,-0.013981183059513569
1772574502924075800,1.61707568359375,0.007057168986648321,0.029560215771198273,-0.017176883295178413
1772574502934008600,1.627008544921875,0.0050598569214344025,0.03169068321585655,-0.018242115154862404
1772574502943936800,1.636936767578125,0.0050598569214344025,0.027429750189185143,-0.025698747485876083
1772574502953869000,1.646869140625,0.005991935729980469,0.026364516466856003,-0.034220609813928604
1772574502963800000,1.656800048828125,0.002929390873759985,0.03169068321585655,-0.03954677656292915
1772574502973732000,1.666732177734375,0.0007989247678779066,0.030625449493527412,-0.04913387447595596
1772574502983640300,1.676640380859375,0.0007989247678779066,0.030625449493527412,-0.05232957378029823
1772574502993570000,1.686570068359375,0.0018641578499227762,0.024234050884842873,-0.054460037499666214
1772574503003539700,1.696539794921875,0.0007989247678779066,0.019973119720816612,-0.051264338195323944
1772574503013473500,1.7064736328125,-0.0002663082559593022,0.018907885998487473,-0.051264338195323944
1772574503023369700,1.71636962890625,0.002929390873759985,0.017842652276158333,-0.053394805639982224
1772574503033299700,1.7262998046875,0.002929390873759985,0.022103585302829742,-0.050199106335639954
1772574503043234800,1.73623486328125,0.0007989247678779066,0.026364516466856003,-0.044872939586639404
1772574503053165300,1.746165283203125,-0.0002663082559593022,0.030625449493527412,-0.036351077258586884
1772574503063135000,1.756135009765625,-0.0002663082559593022,0.027429750189185143,-0.022503048181533813
1772574503073069600,1.766069580078125,-0.0002663082559593022,0.024234050884842873,-0.010785484686493874
1772574503082970000,1.77597021484375,-0.0002663082559593022,0.021038351580500603,-0.0001331541279796511
1772574503092901400,1.7859013671875,-0.0002663082559593022,0.017842652276158333,0.008388710208237171
1772574503102833200,1.795833251953125,-0.00133154122158885,0.012516488321125507,0.016910573467612267
1772574503112764400,1.805764404296875,-0.00133154122158885,0.008255556225776672,0.024367205798625946
1772574503122696000,1.815696044921875,-0.0023967742454260588,0.009320789016783237,0.033954303711652756
1772574503132627200,1.825627197265625,-0.00133154122158885,0.015712186694145203,0.040345702320337296
1772574503142561800,1.835561767578125,-0.00133154122158885,0.017842652276158333,0.037150003015995026
1772574503152493300,1.845493408203125,-0.0002663082559593022,0.013581721112132072,0.030758604407310486
1772574503162424600,1.855424560546875,-0.00133154122158885,0.00719032296910882,0.024367205798625946
1772574503172356400,1.8653564453125,-0.00133154122158885,0.00719032296910882,0.017975807189941406
1772574503182290200,1.875290283203125,-0.0023967742454260588,0.0061250897124409676,0.017975807189941406
1772574503192222000,1.885221923828125,-0.0023967742454260588,0.0018641578499227762,0.021171506494283676
1772574503202188300,1.895188232421875,-0.00452724052593112,-0.0023967742454260588,0.020106272771954536
1772574503212123400,1.905123291015625,-0.00133154122158885,-0.005592473316937685,0.011584409512579441
1772574503222049300,1.91504931640625,0.0007989247678779066,-0.006657706573605537,0.005193010903894901
1772574503231983600,1.924983642578125,-0.0002663082559593022,-0.008788172155618668,-0.004394086077809334
1772574503241907000,1.934906982421875,-0.00133154122158885,-0.0077229393646121025,-0.010785484686493874
1772574503251840300,1.94484033203125,-0.00133154122158885,-0.006657706573605537,-0.010785484686493874
1772574503261784000,1.9547841796875,-0.0023967742454260588,-0.0077229393646121025,-0.010785484686493874
1772574503271718100,1.96471826171875,-0.00452724052593112,-0.0077229393646121025,-0.009720250964164734
1772574503281616100,1.9746162109375,-0.005592473316937685,-0.00133154122158885,-0.008655018173158169
1772574503291547000,1.984546875,-0.0034620072692632675,0.0050598569214344025,-0.006524552125483751
1772574503301503200,1.994503173828125,-0.0023967742454260588,0.0061250897124409676,-0.0033288532868027687
1772574503311436300,2.004436279296875,-0.0023967742454260588,-0.00133154122158885,0.001997311832383275
1772574503321370600,2.01437060546875,-0.0023967742454260588,-0.005592473316937685,0.008388710208237171
1772574503331304000,2.024303955078125,-0.0002663082559593022,-0.0034620072692632675,0.007323476951569319
1772574503341236200,2.034236328125,-0.00133154122158885,0.0018641578499227762,0.0030625448562204838
1772574503351169300,2.044169189453125,-0.00452724052593112,0.00399462366476655,0.005193010903894901
1772574503361075200,2.0540751953125,-0.006657706573605537,0.008255556225776672,0.008388710208237171
1772574503371005700,2.064005615234375,-0.0023967742454260588,0.014646953903138638,0.0009320789249613881
1772574503380967000,2.073966796875,0.002929390873759985,0.015712186694145203,-0.010785484686493874
1772574503390900500,2.083900390625,0.005991935729980469,0.011451254598796368,-0.021437814459204674
1772574503400832000,2.09383203125,0.005991935729980469,0.00719032296910882,-0.031024912372231483
1772574503410765300,2.103765380859375,0.0050598569214344025,0.00399462366476655,-0.03528584539890289
1772574503420688100,2.113688232421875,0.0018641578499227762,-0.00133154122158885,-0.034220609813928604
1772574503430620400,2.123620361328125,0.002929390873759985,-0.00452724052593112,-0.03209014609456062
1772574503440562200,2.133562255859375,0.007057168986648321,-0.0002663082559593022,-0.031024912372231483
1772574503450495500,2.14349560546875,0.009187635034322739,0.002929390873759985,-0.034220609813928604
1772574503460421600,2.153421630859375,0.010252867825329304,0.00399462366476655,-0.03848154470324516
1772574503470354000,2.16335400390625,0.013448567129671574,0.0050598569214344025,-0.037416309118270874
1772574503480295400,2.17329541015625,0.01770949922502041,0.008255556225776672,-0.031024912372231483
1772574503490228700,2.183228759765625,0.01664426550269127,0.012516488321125507,-0.025698747485876083
1772574503500150000,2.19314990234375,0.014513799920678139,0.013581721112132072,-0.018242115154862404
1772574503510082300,2.203082275390625,0.013448567129671574,0.010386021807789803,-0.012915950268507004
1772574503520019000,2.21301904296875,0.012383334338665009,0.008255556225776672,-0.006524552125483751
1772574503529951500,2.222951416015625,0.012383334338665009,0.013581721112132072,-0.00226362026296556
1772574503539879200,2.232879150390625,0.010252867825329304,0.030625449493527412,0.006258244160562754
1772574503549811500,2.2428115234375,0.007057168986648321,0.03808208182454109,0.012649642303586006
1772574503559743700,2.25274365234375,0.007057168986648321,0.03382114693522453,0.009453942999243736
1772574503569675800,2.26267578125,0.012383334338665009,0.029560215771198273,0.001997311832383275
1772574503579618800,2.272618896484375,0.014513799920678139,0.023168819025158882,-0.006524552125483751
1772574503589552000,2.28255224609375,0.014513799920678139,0.022103585302829742,-0.020372580736875534
1772574503599475500,2.292475341796875,0.013448567129671574,0.019973119720816612,-0.03209014609456062
1772574503609407700,2.30240771484375,0.012383334338665009,0.013581721112132072,-0.036351077258586884
1772574503619349000,2.312348876953125,0.009187635034322739,0.012516488321125507,-0.03848154470324516
1772574503629282300,2.3222822265625,0.009187635034322739,0.010386021807789803,-0.03848154470324516
1772574503639205600,2.33220556640625,0.008122402243316174,0.011451254598796368,-0.037416309118270874
1772574503649137700,2.3421376953125,0.005991935729980469,0.016777420416474342,-0.037416309118270874
1772574503659045400,2.35204541015625,0.0050598569214344025,0.016777420416474342,-0.03848154470324516
1772574503668975000,2.36197509765625,0.007057168986648321,0.016777420416474342,-0.036351077258586884
1772574503678943500,2.371943603515625,0.010252867825329304,0.013581721112132072,-0.034220609813928604
1772574503688877000,2.381876953125,0.012383334338665009,0.002929390873759985,-0.03528584539890289
1772574503698816300,2.391816162109375,0.013448567129671574,-0.0034620072692632675,-0.03848154470324516
1772574503708750300,2.401750244140625,0.014513799920678139,-0.0023967742454260588,-0.047003407031297684
1772574503718666500,2.41166650390625,0.011318100616335869,0.0007989247678779066,-0.053394805639982224
1772574503728599000,2.42159912109375,0.007057168986648321,0.0050598569214344025,-0.0555252730846405
1772574503738508000,2.431508056640625,0.008122402243316174,0.009320789016783237,-0.05232957378029823
1772574503748438000,2.44143798828125,0.007057168986648321,0.013581721112132072,-0.048068638890981674
1772574503758390800,2.451390869140625,0.0050598569214344025,0.013581721112132072,-0.041677240282297134
1772574503768323000,2.461322998046875,0.0050598569214344025,0.008255556225776672,-0.033155377954244614
1772574503778253800,2.47125390625,0.0050598569214344025,0.0050598569214344025,-0.028894444927573204
1772574503788185900,2.481185791015625,0.005991935729980469,0.0007989247678779066,-0.03209014609456062
1772574503798117600,2.49111767578125,0.0050598569214344025,0.002929390873759985,-0.03209014609456062
1772574503808049700,2.501049560546875,0.002929390873759985,0.008255556225776672,-0.033155377954244614
1772574503817975000,2.51097509765625,0.002929390873759985,0.009320789016783237,-0.03528584539890289
1772574503827906600,2.520906494140625,0.0050598569214344025,0.008255556225776672,-0.036351077258586884
1772574503837848000,2.53084814453125,0.008122402243316174,0.014646953903138638,-0.037416309118270874
1772574503847780400,2.5407802734375,0.007057168986648321,0.017842652276158333,-0.04593817517161369
1772574503857696300,2.5506962890625,0.005991935729980469,0.013581721112132072,-0.051264338195323944
1772574503867626800,2.560626708984375,0.0050598569214344025,0.012516488321125507,-0.053394805639982224
1772574503877560800,2.570560791015625,0.007057168986648321,0.010386021807789803,-0.05659050494432449
1772574503887491800,2.580491943359375,0.008122402243316174,0.0050598569214344025,-0.053394805639982224
1772574503897445600,2.590445556640625,0.011318100616335869,0.0007989247678779066,-0.04593817517161369
1772574503907379000,2.60037890625,0.012383334338665009,0.002929390873759985,-0.03848154470324516
1772574503917310000,2.61031005859375,0.013448567129671574,0.0050598569214344025,-0.037416309118270874
1772574503927243000,2.620242919921875,0.011318100616335869,0.008255556225776672,-0.03528584539890289
1772574503937176800,2.6301767578125,0.010252867825329304,0.009320789016783237,-0.034220609813928604
1772574503947110100,2.640110107421875,0.011318100616335869,0.008255556225776672,-0.03209014609456062
1772574503957044200,2.650044189453125,0.013448567129671574,0.0061250897124409676,-0.029959678649902344
1772574503966977500,2.6599775390625,0.012383334338665009,0.009320789016783237,-0.029959678649902344
1772574503976911600,2.66991162109375,0.012383334338665009,0.009320789016783237,-0.029959678649902344
1772574503986845000,2.679844970703125,0.014513799920678139,0.009320789016783237,-0.026763979345560074
1772574503996771300,2.689771240234375,0.01664426550269127,0.009320789016783237,-0.026763979345560074
1772574504006704000,2.6997041015625,0.01877473294734955,0.00399462366476655,-0.022503048181533813
1772574504016639700,2.7096396484375,0.02197043038904667,-0.0034620072692632675,-0.016111649572849274
1772574504026572800,2.71957275390625,0.02410089783370495,-0.005592473316937685,-0.013981183059513569
1772574504036478700,2.729478759765625,0.02410089783370495,-0.0077229393646121025,-0.016111649572849274
1772574504046409000,2.739408935546875,0.02836182899773121,-0.010918638668954372,-0.020372580736875534
1772574504056372500,2.74937255859375,0.02623136341571808,-0.011983871459960938,-0.026763979345560074
1772574504066306000,2.75930615234375,0.02090519852936268,-0.011983871459960938,-0.036351077258586884
1772574504076232700,2.769232666015625,0.013448567129671574,-0.005592473316937685,-0.04274247586727142
1772574504086165500,2.77916552734375,0.0050598569214344025,0.00399462366476655,-0.050199106335639954
1772574504096097500,2.78909765625,-0.0034620072692632675,0.002929390873759985,-0.054460037499666214
1772574504106030300,2.7990302734375,-0.009853405877947807,-0.00452724052593112,-0.0555252730846405
1772574504115970000,2.808969970703125,-0.010918638668954372,-0.010918638668954372,-0.050199106335639954
1772574504125903600,2.818903564453125,-0.017310036346316338,-0.015179570764303207,-0.036351077258586884
1772574504135826700,2.82882666015625,-0.029027599841356277,-0.020505735650658607,-0.026763979345560074
1772574504145759200,2.83875927734375,-0.03328853100538254,-0.020505735650658607,-0.012915950268507004
1772574504155687200,2.848687255859375,-0.03541899845004082,-0.011983871459960938,-0.00226362026296556
1772574504165619200,2.858619140625,-0.04181039705872536,-0.009853405877947807,0.007323476951569319
1772574504175556600,2.868556640625,-0.04607132822275162,-0.0077229393646121025,0.013714875094592571
1772574504185489200,2.8784892578125,-0.0482017956674099,-0.00452724052593112,0.017975807189941406
1772574504195416800,2.888416748046875,-0.05033225938677788,-0.0023967742454260588,0.019041040912270546
1772574504205348900,2.898348876953125,-0.04713656008243561,0.002929390873759985,0.023301972076296806
1772574504215260700,2.9082607421875,-0.04713656008243561,0.0061250897124409676,0.028628136962652206
1772574504225190700,2.918190673828125,-0.0482017956674099,0.0061250897124409676,0.033954303711652756
1772574504235125800,2.928125732421875,-0.0482017956674099,0.0050598569214344025,0.037150003015995026
1772574504245056300,2.93805615234375,-0.04607132822275162,0.0061250897124409676,0.038215234875679016
1772574504254994700,2.94799462890625,-0.04181039705872536,0.00719032296910882,0.03608476743102074
1772574504264926000,2.957926025390625,-0.03861469775438309,0.0050598569214344025,0.031823836266994476
1772574504274852600,2.9678525390625,-0.03541899845004082,0.002929390873759985,0.025432437658309937
1772574504284783400,2.977783447265625,-0.03222329914569855,0.002929390873759985,0.022236740216612816
1772574504294723000,2.98772314453125,-0.030092833563685417,-0.0023967742454260588,0.016910573467612267
1772574504304654800,2.99765478515625,-0.030092833563685417,-0.006657706573605537,0.012649642303586006
1772574504314592300,3.00759228515625,-0.031158065423369408,-0.015179570764303207,0.008388710208237171
1772574504324524500,3.017524658203125,-0.029027599841356277,-0.017310036346316338,0.004127778112888336
1772574504334454000,3.0274541015625,-0.027962366119027138,-0.011983871459960938,0.0030625448562204838
1772574504344386000,3.037385986328125,-0.027962366119027138,-0.0023967742454260588,-0.00226362026296556
1772574504354345000,3.047344970703125,-0.026897134259343147,-0.00133154122158885,-0.011850717477500439
1772574504364279800,3.05727978515625,-0.026897134259343147,-0.0034620072692632675,-0.021437814459204674
1772574504374180900,3.067180908203125,-0.027962366119027138,-0.006657706573605537,-0.023568280041217804
1772574504384112000,3.077112060546875,-0.027962366119027138,-0.010918638668954372,-0.023568280041217804
1772574504394069000,3.087069091796875,-0.030092833563685417,-0.009853405877947807,-0.022503048181533813
1772574504404003000,3.097003173828125,-0.030092833563685417,-0.006657706573605537,-0.017176883295178413
1772574504413910300,3.10691015625,-0.031158065423369408,-0.009853405877947807,-0.012915950268507004
1772574504423841500,3.116841552734375,-0.031158065423369408,-0.010918638668954372,-0.012915950268507004
1772574504433793800,3.126793701171875,-0.029027599841356277,-0.00452724052593112,-0.016111649572849274
1772574504443727400,3.136727294921875,-0.030092833563685417,0.0007989247678779066,-0.019307348877191544
1772574504453674800,3.1466748046875,-0.030092833563685417,-0.00133154122158885,-0.021437814459204674
1772574504463609300,3.156609375,-0.03222329914569855,-0.0023967742454260588,-0.017176883295178413
1772574504473524700,3.166524658203125,-0.03222329914569855,-0.00452724052593112,-0.007589785382151604
1772574504483457500,3.17645751953125,-0.03328853100538254,-0.00452724052593112,0.001997311832383275
1772574504493388500,3.186388427734375,-0.03222329914569855,-0.0077229393646121025,0.016910573467612267
1772574504503321000,3.196321044921875,-0.03328853100538254,-0.014114337973296642,0.027562905102968216
1772574504513256200,3.206256103515625,-0.03435376659035683,-0.014114337973296642,0.030758604407310486
1772574504523189000,3.21618896484375,-0.03222329914569855,-0.013049104250967503,0.033954303711652756
1772574504533123600,3.22612353515625,-0.029027599841356277,-0.013049104250967503,0.033954303711652756
1772574504543056600,3.236056640625,-0.030092833563685417,-0.0034620072692632675,0.031823836266994476
1772574504552990000,3.245989990234375,-0.029027599841356277,0.0007989247678779066,0.025432437658309937
1772574504562923000,3.255923095703125,-0.027962366119027138,0.0050598569214344025,0.015845341607928276
1772574504572847400,3.265847412109375,-0.025831900537014008,0.011451254598796368,0.007323476951569319
1772574504582779600,3.275779541015625,-0.022636201232671738,0.011451254598796368,-0.00226362026296556
1772574504592731400,3.2857314453125,-0.021570969372987747,0.0050598569214344025,-0.008655018173158169
1772574504602665700,3.295665771484375,-0.018375270068645477,0.0061250897124409676,-0.008655018173158169
1772574504612556800,3.305556884765625,-0.014114337973296642,0.010386021807789803,-0.006524552125483751
1772574504622486500,3.315486572265625,-0.014114337973296642,0.012516488321125507,-0.004394086077809334
1772574504632422000,3.325421875,-0.014114337973296642,0.008255556225776672,-0.005459319334477186
1772574504642352000,3.33535205078125,-0.010918638668954372,0.00399462366476655,-0.007589785382151604
1772574504652320300,3.3453203125,-0.0077229393646121025,-0.0002663082559593022,-0.008655018173158169
1772574504662254600,3.355254638671875,-0.0034620072692632675,-0.005592473316937685,-0.008655018173158169
1772574504672176000,3.365176025390625,0.0007989247678779066,-0.005592473316937685,-0.005459319334477186
1772574504682109200,3.375109130859375,0.005991935729980469,-0.0002663082559593022,-0.0001331541279796511
1772574504692036900,3.385036865234375,0.009187635034322739,0.0007989247678779066,0.009453942999243736
1772574504701969200,3.39496923828125,0.011318100616335869,0.002929390873759985,0.019041040912270546
1772574504711914800,3.404914794921875,0.015579032711684704,0.0018641578499227762,0.025432437658309937
1772574504721848300,3.414848388671875,0.01664426550269127,-0.0023967742454260588,0.03288906812667847
1772574504731775200,3.424775146484375,0.01664426550269127,-0.00133154122158885,0.037150003015995026
1772574504741708300,3.434708251953125,0.01770949922502041,-0.0002663082559593022,0.035019535571336746
1772574504751591200,3.444591064453125,0.01664426550269127,0.0007989247678779066,0.029693370684981346
1772574504761519000,3.45451904296875,0.014513799920678139,0.0018641578499227762,0.026497671380639076
1772574504771498200,3.464498291015625,0.012383334338665009,-0.00133154122158885,0.020106272771954536
1772574504781431300,3.474431396484375,0.014513799920678139,-0.00133154122158885,0.010519175790250301
1772574504791366000,3.484365966796875,0.01664426550269127,0.0018641578499227762,-0.0033288532868027687
1772574504801299200,3.49429931640625,0.01770949922502041,0.0050598569214344025,-0.019307348877191544
1772574504811235800,3.50423583984375,0.01770949922502041,-0.0023967742454260588,-0.03209014609456062
1772574504821169700,3.514169677734375,0.02197043038904667,-0.006657706573605537,-0.040612008422613144
1772574504831106600,3.5241064453125,0.02410089783370495,-0.005592473316937685,-0.03954677656292915
1772574504841040400,3.534040283203125,0.02836182899773121,-0.0034620072692632675,-0.025698747485876083
1772574504850968600,3.543968505859375,0.03262276202440262,0.002929390873759985,-0.007589785382151604
1772574504860902100,3.553902099609375,0.03368799388408661,0.009320789016783237,0.009453942999243736
1772574504870827000,3.563826904296875,0.03581846132874489,0.012516488321125507,0.023301972076296806
1772574504880759800,3.573759765625,0.0347532257437706,0.015712186694145203,0.03608476743102074
1772574504890689300,3.583689208984375,0.03262276202440262,0.014646953903138638,0.045671865344047546
1772574504900621600,3.59362158203125,0.0347532257437706,0.00719032296910882,0.050998032093048096
1772574504910557200,3.60355712890625,0.04007939249277115,-0.0002663082559593022,0.052063263952732086
1772574504920489700,3.61348974609375,0.03901416063308716,-0.00133154122158885,0.04673709720373154
1772574504930424600,3.623424560546875,0.03581846132874489,-0.00133154122158885,0.03928046673536301
1772574504940357600,3.633357666015625,0.03688369318842888,-0.00133154122158885,0.03288906812667847
1772574504950290700,3.643290771484375,0.04007939249277115,0.0007989247678779066,0.016910573467612267
1772574504960223500,3.653223388671875,0.03901416063308716,-0.0002663082559593022,-0.0001331541279796511
1772574504970154200,3.663154296875,0.03581846132874489,0.002929390873759985,-0.015046416781842709
1772574504980086800,3.673086669921875,0.03368799388408661,0.00399462366476655,-0.023568280041217804
1772574504990016300,3.683016357421875,0.03155753016471863,0.009320789016783237,-0.026763979345560074
1772574504999948500,3.692948486328125,0.03155753016471863,0.008255556225776672,-0.023568280041217804
1772574505009890800,3.702890869140625,0.03901416063308716,0.00719032296910882,-0.017176883295178413
1772574505019824000,3.71282421875,0.04647079110145569,0.010386021807789803,-0.010785484686493874
1772574505029750000,3.72275,0.04114462435245514,0.012516488321125507,-0.005459319334477186
1772574505039682600,3.7326826171875,0.03688369318842888,0.019973119720816612,-0.006524552125483751
1772574505049614800,3.74261474609375,0.03688369318842888,0.024234050884842873,-0.009720250964164734
1772574505059547100,3.752547119140625,0.0347532257437706,0.018907885998487473,-0.011850717477500439
1772574505069485800,3.76248583984375,0.03262276202440262,0.017842652276158333,-0.012915950268507004
1772574505079419000,3.7724189453125,0.03262276202440262,0.022103585302829742,-0.011850717477500439
1772574505089322200,3.782322265625,0.0347532257437706,0.025299284607172012,-0.012915950268507004
1772574505099252500,3.79225244140625,0.0347532257437706,0.025299284607172012,-0.007589785382151604
1772574505109204500,3.80220458984375,0.03262276202440262,0.021038351580500603,-0.004394086077809334
1772574505119136800,3.81213671875,0.02942706272006035,0.016777420416474342,-0.0001331541279796511
1772574505129075500,3.822075439453125,0.02942706272006035,0.010386021807789803,0.0030625448562204838
1772574505139008500,3.832008544921875,0.03049229457974434,0.0061250897124409676,0.004127778112888336
1772574505148925200,3.84192529296875,0.03155753016471863,0.002929390873759985,0.008388710208237171
1772574505158856400,3.8518564453125,0.0347532257437706,0.00399462366476655,0.012649642303586006
1772574505168799000,3.861799072265625,0.03794892504811287,0.012516488321125507,0.017975807189941406
1772574505178731500,3.8717314453125,0.04007939249277115,0.011451254598796368,0.014780107885599136
1772574505188667600,3.881667724609375,0.03794892504811287,0.009320789016783237,0.009453942999243736
1772574505198600700,3.8916005859375,0.03688369318842888,0.008255556225776672,0.0030625448562204838
1772574505208530700,3.90153076171875,0.0347532257437706,0.008255556225776672,-0.00226362026296556
1772574505218463200,3.911463134765625,0.03262276202440262,0.0050598569214344025,-0.007589785382151604
1772574505228394000,3.92139404296875,0.03155753016471863,0.0007989247678779066,-0.013981183059513569
1772574505238326500,3.931326416015625,0.03049229457974434,0.002929390873759985,-0.020372580736875534
1772574505248246500,3.94124658203125,0.02836182899773121,0.0050598569214344025,-0.020372580736875534
1772574505258177800,3.951177734375,0.02942706272006035,0.012516488321125507,-0.013981183059513569
1772574505268124000,3.9611240234375,0.02729659713804722,0.021038351580500603,-0.007589785382151604
1772574505278056700,3.971056640625,0.02303566411137581,0.025299284607172012,-0.008655018173158169
1772574505287985000,3.98098486328125,0.02090519852936268,0.024234050884842873,-0.010785484686493874
1772574505297917200,3.990917236328125,0.01877473294734955,0.026364516466856003,-0.009720250964164734
1772574505307853300,4.000853271484375,0.01770949922502041,0.027429750189185143,-0.006524552125483751
1772574505317785900,4.010785888671875,0.01770949922502041,0.026364516466856003,0.0009320789249613881
1772574505327728000,4.02072802734375,0.01770949922502041,0.023168819025158882,0.009453942999243736
1772574505337661700,4.03066162109375,0.01877473294734955,0.016777420416474342,0.012649642303586006
1772574505347593700,4.04059375,0.01877473294734955,0.012516488321125507,0.011584409512579441
1772574505357527300,4.05052734375,0.014513799920678139,0.009320789016783237,0.009453942999243736
1772574505367446000,4.060446044921875,0.013448567129671574,0.00719032296910882,0.004127778112888336
1772574505377378000,4.0703779296875,0.012383334338665009,0.00719032296910882,-0.0001331541279796511
1772574505387324400,4.080324462890625,0.010252867825329304,0.009320789016783237,-0.004394086077809334
1772574505397258000,4.090258056640625,0.005991935729980469,0.010386021807789803,-0.005459319334477186
1772574505407156000,4.100156005859375,0.0018641578499227762,0.009320789016783237,-0.008655018173158169
1772574505417086000,4.1100859375,0.0018641578499227762,0.009320789016783237,-0.007589785382151604
1772574505427052500,4.120052490234375,0.0007989247678779066,0.009320789016783237,-0.00226362026296556
1772574505436986000,4.129986083984375,0.0007989247678779066,0.011451254598796368,-0.00226362026296556
1772574505446882800,4.1398828125,0.0007989247678779066,0.011451254598796368,-0.00226362026296556
1772574505456812800,4.149812744140625,0.002929390873759985,0.008255556225776672,-0.00226362026296556
1772574505466746400,4.159746337890625,0.0018641578499227762,0.009320789016783237,-0.00226362026296556
1772574505476676600,4.169676513671875,0.0007989247678779066,0.00719032296910882,0.001997311832383275
1772574505486636000,4.179635986328125,0.0007989247678779066,0.00719032296910882,0.010519175790250301
1772574505496569300,4.1895693359375,-0.00133154122158885,0.012516488321125507,0.017975807189941406
1772574505506481700,4.199481689453125,-0.0002663082559593022,0.013581721112132072,0.016910573467612267
1772574505516412700,4.20941259765625,0.00399462366476655,0.012516488321125507,0.013714875094592571
1772574505526348500,4.2193486328125,0.007057168986648321,0.012516488321125507,0.007323476951569319
1772574505536286200,4.2292861328125,0.010252867825329304,0.012516488321125507,0.0030625448562204838
1772574505546209000,4.239208984375,0.011318100616335869,0.013581721112132072,0.006258244160562754
1772574505556116700,4.24911669921875,0.012383334338665009,0.012516488321125507,0.006258244160562754
1772574505566075100,4.2590751953125,0.013448567129671574,0.014646953903138638,0.007323476951569319
1772574505576013800,4.269013916015625,0.012383334338665009,0.015712186694145203,0.009453942999243736
1772574505585943800,4.27894384765625,0.011318100616335869,0.012516488321125507,0.013714875094592571
1772574505605806800,4.298806884765625,0.013448567129671574,0.010386021807789803,0.013714875094592571
1772574505615756000,4.308756103515625,0.01664426550269127,0.014646953903138638,0.014780107885599136
1772574505625689300,4.318689453125,0.014513799920678139,0.015712186694145203,0.011584409512579441
1772574505635620400,4.328620361328125,0.013448567129671574,0.012516488321125507,0.005193010903894901
1772574505645553400,4.338553466796875,0.015579032711684704,0.010386021807789803,-0.00226362026296556
1772574505655486500,4.348486572265625,0.01664426550269127,0.010386021807789803,-0.006524552125483751
1772574505665377300,4.358377197265625,0.015579032711684704,0.009320789016783237,-0.008655018173158169
1772574505675310300,4.368310302734375,0.014513799920678139,0.009320789016783237,-0.005459319334477186
1772574505685321000,4.378321044921875,0.015579032711684704,0.0050598569214344025,-0.0033288532868027687
1772574505695260400,4.388260498046875,0.01664426550269127,-0.0023967742454260588,-0.00226362026296556
1772574505705156400,4.39815625,0.015579032711684704,-0.0023967742454260588,-0.00226362026296556
1772574505715091500,4.408091552734375,0.015579032711684704,0.0007989247678779066,-0.007589785382151604
1772574505725016300,4.418016357421875,0.013448567129671574,-0.00452724052593112,-0.010785484686493874
1772574505734950400,4.427950439453125,0.011318100616335869,-0.009853405877947807,-0.012915950268507004
1772574505744854800,4.437854736328125,0.011318100616335869,-0.006657706573605537,-0.006524552125483751
1772574505754785800,4.447785888671875,0.009187635034322739,-0.0002663082559593022,-0.00226362026296556
1772574505764756500,4.457756591796875,0.008122402243316174,-0.00133154122158885,-0.00226362026296556
1772574505774691300,4.46769140625,0.005991935729980469,-0.005592473316937685,-0.0033288532868027687
1772574505784611600,4.477611572265625,0.00399462366476655,-0.008788172155618668,-0.006524552125483751
1772574505794545200,4.487545166015625,0.0007989247678779066,-0.009853405877947807,-0.010785484686493874
1772574505804482800,4.49748291015625,-0.0023967742454260588,-0.008788172155618668,-0.010785484686493874
1772574505814416600,4.507416748046875,-0.0034620072692632675,-0.0077229393646121025,-0.013981183059513569
1772574505824338700,4.517338623046875,-0.005592473316937685,-0.0023967742454260588,-0.017176883295178413
1772574505834271500,4.527271484375,-0.006657706573605537,-0.0002663082559593022,-0.021437814459204674
1772574505844202200,4.5372021484375,-0.008788172155618668,-0.005592473316937685,-0.020372580736875534
1772574505854134800,4.547134765625,-0.009853405877947807,-0.011983871459960938,-0.020372580736875534
1772574505864068400,4.557068359375,-0.013049104250967503,-0.018375270068645477,-0.013981183059513569
1772574505874001000,4.5670009765625,-0.011983871459960938,-0.020505735650658607,-0.008655018173158169
1772574505883933200,4.57693310546875,-0.011983871459960938,-0.022636201232671738,-0.0033288532868027687
1772574505893865700,4.58686572265625,-0.010918638668954372,-0.019440501928329468,-0.0033288532868027687
1772574505903799000,4.596799072265625,-0.0077229393646121025,-0.015179570764303207,-0.0011983871227130294
1772574505913731800,4.60673193359375,-0.0077229393646121025,-0.011983871459960938,-0.00226362026296556
1772574505923667500,4.61666748046875,-0.010918638668954372,-0.011983871459960938,-0.006524552125483751
1772574505933600300,4.626600341796875,-0.013049104250967503,-0.011983871459960938,-0.009720250964164734
1772574505943504100,4.636504150390625,-0.014114337973296642,-0.010918638668954372,-0.011850717477500439
1772574505953434000,4.64643408203125,-0.016244804486632347,-0.016244804486632347,-0.015046416781842709
1772574505963412700,4.656412841796875,-0.018375270068645477,-0.023701434955000877,-0.017176883295178413
1772574505973347800,4.666347900390625,-0.020505735650658607,-0.021570969372987747,-0.020372580736875534
1772574505983270100,4.676270263671875,-0.020505735650658607,-0.020505735650658607,-0.019307348877191544
1772574505993204000,4.686203857421875,-0.020505735650658607,-0.020505735650658607,-0.016111649572849274
1772574506003131600,4.696131591796875,-0.022636201232671738,-0.020505735650658607,-0.008655018173158169
1772574506013064700,4.706064697265625,-0.023701434955000877,-0.020505735650658607,-0.0033288532868027687
1772574506022989000,4.715989013671875,-0.020505735650658607,-0.016244804486632347,-0.0001331541279796511
1772574506032921000,4.725921142578125,-0.020505735650658607,-0.014114337973296642,0.0030625448562204838
1772574506042856400,4.7358564453125,-0.021570969372987747,-0.008788172155618668,0.001997311832383275
1772574506052788700,4.745788818359375,-0.022636201232671738,-0.0077229393646121025,-0.0033288532868027687
1772574506062727000,4.755726806640625,-0.022636201232671738,-0.0077229393646121025,-0.011850717477500439
1772574506072660000,4.765659912109375,-0.021570969372987747,-0.009853405877947807,-0.019307348877191544
1772574506082583300,4.775583251953125,-0.022636201232671738,-0.014114337973296642,-0.025698747485876083
1772574506092515300,4.785515380859375,-0.021570969372987747,-0.014114337973296642,-0.026763979345560074
1772574506102443500,4.795443603515625,-0.020505735650658607,-0.014114337973296642,-0.020372580736875534
1772574506112375300,4.805375244140625,-0.020505735650658607,-0.014114337973296642,-0.012915950268507004
1772574506122327300,4.815327392578125,-0.020505735650658607,-0.016244804486632347,-0.007589785382151604
1772574506132260900,4.8252607421875,-0.022636201232671738,-0.009853405877947807,-0.005459319334477186
1772574506142206000,4.8352060546875,-0.024766668677330017,-0.006657706573605537,-0.007589785382151604
1772574506152140800,4.845140869140625,-0.025831900537014008,-0.00452724052593112,-0.007589785382151604
1772574506162038500,4.85503857421875,-0.026897134259343147,-0.0002663082559593022,-0.007589785382151604
1772574506171969800,4.8649697265625,-0.026897134259343147,0.0018641578499227762,-0.005459319334477186
1772574506181911000,4.8749111328125,-0.029027599841356277,-0.0002663082559593022,-0.004394086077809334
1772574506191843000,4.884843017578125,-0.031158065423369408,-0.0002663082559593022,-0.004394086077809334
1772574506201780000,4.894780029296875,-0.031158065423369408,-0.005592473316937685,-0.004394086077809334
1772574506211712800,4.904712646484375,-0.031158065423369408,-0.011983871459960938,-0.0011983871227130294
1772574506221641000,4.914640869140625,-0.030092833563685417,-0.016244804486632347,0.007323476951569319
1772574506231573200,4.9245732421875,-0.027962366119027138,-0.016244804486632347,0.014780107885599136
1772574506241505300,4.93450537109375,-0.029027599841356277,-0.013049104250967503,0.017975807189941406
1772574506251437300,4.944437255859375,-0.027962366119027138,-0.013049104250967503,0.019041040912270546
1772574506261372400,4.954372314453125,-0.026897134259343147,-0.010918638668954372,0.017975807189941406
1772574506271305000,4.964304931640625,-0.026897134259343147,-0.006657706573605537,0.014780107885599136
1772574506281208000,4.9742080078125,-0.030092833563685417,-0.0023967742454260588,0.017975807189941406
1772574506291137800,4.9841376953125,-0.03222329914569855,-0.00133154122158885,0.023301972076296806
1772574506301090800,4.9940908203125,-0.03435376659035683,-0.00452724052593112,0.025432437658309937
1772574506311022800,5.00402294921875,-0.03541899845004082,-0.00452724052593112,0.027562905102968216
1772574506320959700,5.013959716796875,-0.03541899845004082,-0.006657706573605537,0.017975807189941406
1772574506330892300,5.023892333984375,-0.03648423030972481,-0.005592473316937685,-0.0011983871227130294
1772574506340827000,5.033826904296875,-0.03861469775438309,-0.006657706573605537,-0.019307348877191544
1772574506350759400,5.043759521484375,-0.0375494658946991,-0.009853405877947807,-0.036351077258586884
1772574506360702500,5.053702392578125,-0.03541899845004082,-0.013049104250967503,-0.041677240282297134
1772574506370636000,5.063635986328125,-0.03328853100538254,-0.016244804486632347,-0.040612008422613144
1772574506380531500,5.073531494140625,-0.027962366119027138,-0.016244804486632347,-0.036351077258586884
1772574506390461400,5.08346142578125,-0.025831900537014008,-0.013049104250967503,-0.029959678649902344
1772574506400420000,5.093420166015625,-0.022636201232671738,-0.011983871459960938,-0.024633513763546944
1772574506410353000,5.103352783203125,-0.018375270068645477,-0.010918638668954372,-0.019307348877191544
1772574506420284200,5.1132841796875,-0.017310036346316338,-0.008788172155618668,-0.015046416781842709
1772574506430216700,5.123216796875,-0.013049104250967503,-0.010918638668954372,-0.012915950268507004
1772574506440153900,5.13315380859375,-0.010918638668954372,-0.014114337973296642,-0.00226362026296556
1772574506450087000,5.1430869140625,-0.011983871459960938,-0.013049104250967503,0.012649642303586006
1772574506460016400,5.153016357421875,-0.011983871459960938,-0.015179570764303207,0.022236740216612816
1772574506469949200,5.16294921875,-0.010918638668954372,-0.016244804486632347,0.03288906812667847
1772574506479886800,5.172886962890625,-0.011983871459960938,-0.014114337973296642,0.03928046673536301
1772574506489820200,5.182820068359375,-0.009853405877947807,-0.014114337973296642,0.03608476743102074
1772574506499742000,5.192741943359375,-0.0077229393646121025,-0.010918638668954372,0.026497671380639076
1772574506509674000,5.202674072265625,-0.008788172155618668,-0.008788172155618668,0.012649642303586006
1772574506519623400,5.21262353515625,-0.006657706573605537,-0.0023967742454260588,-0.0001331541279796511
1772574506529521400,5.222521484375,-0.008788172155618668,0.0007989247678779066,-0.007589785382151604
1772574506549389000,5.24238916015625,-0.009853405877947807,0.009320789016783237,-0.009720250964164734
1772574506559337700,5.252337646484375,-0.008788172155618668,0.014646953903138638,-0.009720250964164734
1772574506569272600,5.2622724609375,-0.006657706573605537,0.021038351580500603,-0.008655018173158169
1772574506579178500,5.272178466796875,-0.00452724052593112,0.022103585302829742,-0.007589785382151604
1772574506589110500,5.282110595703125,-0.0034620072692632675,0.014646953903138638,-0.0033288532868027687
1772574506599046000,5.2920458984375,-0.00133154122158885,0.00399462366476655,0.004127778112888336
1772574506608978200,5.301978271484375,0.002929390873759985,-0.0023967742454260588,0.017975807189941406
1772574506618926000,5.311926025390625,0.0050598569214344025,-0.0034620072692632675,0.029693370684981346
1772574506628860200,5.321860107421875,0.009187635034322739,0.00399462366476655,0.03928046673536301
1772574506638772700,5.331772705078125,0.011318100616335869,0.009320789016783237,0.042476166039705276
1772574506648706600,5.34170654296875,0.013448567129671574,0.009320789016783237,0.037150003015995026
1772574506668554500,5.361554443359375,0.015579032711684704,0.00719032296910882,0.012649642303586006
1772574506678489300,5.3714892578125,0.015579032711684704,0.00399462366476655,-0.0001331541279796511
1772574506698357000,5.39135693359375,0.012383334338665009,-0.0034620072692632675,-0.018242115154862404
1772574506708321300,5.4013212890625,0.012383334338665009,-0.00133154122158885,-0.020372580736875534
1772574506718257700,5.411257568359375,0.011318100616335869,-0.00133154122158885,-0.022503048181533813
1772574506728190000,5.42118994140625,0.009187635034322739,-0.0002663082559593022,-0.019307348877191544
1772574506738125800,5.431125732421875,0.008122402243316174,-0.0023967742454260588,-0.017176883295178413
1772574506748050400,5.441050537109375,0.008122402243316174,-0.0002663082559593022,-0.015046416781842709
1772574506757985300,5.4509853515625,0.007057168986648321,0.0018641578499227762,-0.013981183059513569
1772574506767918800,5.4609189453125,0.007057168986648321,-0.00133154122158885,-0.013981183059513569
1772574506777853700,5.470853759765625,0.00399462366476655,-0.0023967742454260588,-0.013981183059513569
1772574506787783000,5.480782958984375,0.0050598569214344025,-0.00133154122158885,-0.018242115154862404
1772574506797717200,5.49071728515625,0.005991935729980469,0.0007989247678779066,-0.023568280041217804
1772574506807651800,5.50065185546875,0.00399462366476655,0.0007989247678779066,-0.031024912372231483
1772574506817586000,5.5105859375,0.002929390873759985,-0.00452724052593112,-0.034220609813928604
1772574506837438700,5.530438720703125,-0.0034620072692632675,-0.0034620072692632675,-0.031024912372231483
1772574506847373300,5.540373291015625,-0.005592473316937685,-0.0023967742454260588,-0.03209014609456062
1772574506857306000,5.55030615234375,-0.005592473316937685,-0.0023967742454260588,-0.033155377954244614
1772574506867235800,5.56023583984375,-0.008788172155618668,-0.0002663082559593022,-0.033155377954244614
1772574506877168400,5.57016845703125,-0.013049104250967503,0.0007989247678779066,-0.033155377954244614
1772574506887099100,5.58009912109375,-0.015179570764303207,-0.00452724052593112,-0.029959678649902344
1772574506897031400,5.590031494140625,-0.014114337973296642,-0.00452724052593112,-0.023568280041217804
1772574506906964200,5.599964111328125,-0.015179570764303207,0.0007989247678779066,-0.019307348877191544
1772574506916896500,5.609896484375,-0.016244804486632347,0.002929390873759985,-0.016111649572849274
1772574506926821000,5.619821044921875,-0.018375270068645477,-0.0002663082559593022,-0.013981183059513569
1772574506936752600,5.629752685546875,-0.021570969372987747,-0.0023967742454260588,-0.010785484686493874
1772574506946685000,5.639684814453125,-0.021570969372987747,-0.005592473316937685,-0.008655018173158169
1772574506956616700,5.64961669921875,-0.021570969372987747,-0.0034620072692632675,-0.010785484686493874
1772574506966572300,5.659572265625,-0.022636201232671738,-0.00133154122158885,-0.016111649572849274
1772574506976506400,5.66950634765625,-0.023701434955000877,-0.014114337973296642,-0.017176883295178413
1772574506986412800,5.679412841796875,-0.020505735650658607,-0.018375270068645477,-0.008655018173158169
1772574506996344000,5.689343994140625,-0.015179570764303207,-0.020505735650658607,-0.0001331541279796511
1772574507006280000,5.699280029296875,-0.014114337973296642,-0.023701434955000877,0.0030625448562204838
1772574507016211700,5.709211669921875,-0.013049104250967503,-0.021570969372987747,0.0009320789249613881
1772574507026142000,5.719141845703125,-0.011983871459960938,-0.020505735650658607,-0.0001331541279796511
1772574507036073500,5.729073486328125,-0.010918638668954372,-0.015179570764303207,-0.00226362026296556
1772574507046006000,5.739006103515625,-0.0077229393646121025,-0.009853405877947807,-0.00226362026296556
1772574507055937800,5.748937744140625,-0.0077229393646121025,-0.008788172155618668,0.001997311832383275
1772574507065877200,5.758877197265625,-0.0077229393646121025,-0.013049104250967503,0.004127778112888336
1772574507075809800,5.768809814453125,-0.006657706573605537,-0.020505735650658607,0.005193010903894901
1772574507085719300,5.77871923828125,-0.00452724052593112,-0.022636201232671738,0.007323476951569319
1772574507095649500,5.7886494140625,-0.00452724052593112,-0.018375270068645477,0.010519175790250301
1772574507105609500,5.798609375,-0.00452724052593112,-0.010918638668954372,0.012649642303586006
1772574507115542800,5.808542724609375,-0.0034620072692632675,-0.008788172155618668,0.011584409512579441
1772574507125467000,5.818466796875,-0.0023967742454260588,-0.0077229393646121025,0.010519175790250301
1772574507135399200,5.828399169921875,-0.00452724052593112,-0.0023967742454260588,0.009453942999243736
1772574507145364000,5.838364013671875,-0.005592473316937685,-0.0023967742454260588,0.011584409512579441
1772574507155299600,5.848299560546875,-0.005592473316937685,-0.0023967742454260588,0.015845341607928276
1772574507165229000,5.85822900390625,-0.006657706573605537,-0.005592473316937685,0.017975807189941406
1772574507175164000,5.868163818359375,-0.00452724052593112,-0.008788172155618668,0.021171506494283676
1772574507185094700,5.8780947265625,-0.00452724052593112,-0.013049104250967503,0.021171506494283676
1772574507195029200,5.888029296875,-0.006657706573605537,-0.017310036346316338,0.019041040912270546
1772574507204960000,5.8979599609375,-0.008788172155618668,-0.018375270068645477,0.017975807189941406
1772574507214894300,5.907894287109375,-0.013049104250967503,-0.020505735650658607,0.017975807189941406
1772574507224811800,5.917811767578125,-0.018375270068645477,-0.024766668677330017,0.024367205798625946
1772574507234744300,5.927744384765625,-0.022636201232671738,-0.023701434955000877,0.033954303711652756
1772574507244676900,5.9376767578125,-0.030092833563685417,-0.016244804486632347,0.038215234875679016
1772574507254609200,5.947609130859375,-0.03541899845004082,-0.017310036346316338,0.035019535571336746
1772574507264541400,5.95754150390625,-0.03541899845004082,-0.019440501928329468,0.033954303711652756
1772574507274474000,5.967473876953125,-0.03541899845004082,-0.023701434955000877,0.033954303711652756
1772574507284417300,5.977417236328125,-0.05139749497175217,-0.029027599841356277,0.033954303711652756
1772574507294351000,5.98735107421875,-0.06844121962785721,-0.025831900537014008,0.03288906812667847
1772574507304280300,5.9972802734375,-0.07483261823654175,-0.017310036346316338,0.031823836266994476
1772574507314213400,6.00721337890625,-0.07696308940649033,-0.020505735650658607,0.030758604407310486
1772574507324137700,6.0171376953125,-0.08122401684522629,-0.025831900537014008,0.027562905102968216
1772574507334070300,6.0270703125,-0.08441971987485886,-0.024766668677330017,0.023301972076296806
1772574507344004600,6.037004638671875,-0.08974587917327881,-0.021570969372987747,0.020106272771954536
1772574507353937200,6.046937255859375,-0.0908111184835434,-0.018375270068645477,0.016910573467612267
1772574507363863800,6.05686376953125,-0.08761541545391083,-0.019440501928329468,0.014780107885599136
1772574507373795800,6.0667958984375,-0.08655018359422684,-0.013049104250967503,0.012649642303586006
1772574507383731000,6.07673095703125,-0.08761541545391083,-0.022636201232671738,0.014780107885599136
1772574507393663200,6.086663330078125,-0.08441971987485886,-0.023701434955000877,0.011584409512579441
1772574507403604700,6.096604736328125,-0.08122401684522629,-0.020505735650658607,0.007323476951569319
1772574507413538000,6.1065380859375,-0.07802832126617432,-0.018375270068645477,0.008388710208237171
1772574507423463400,6.11646337890625,-0.07589785009622574,-0.011983871459960938,0.009453942999243736
1772574507433396000,6.12639599609375,-0.07376738637685776,-0.00452724052593112,0.013714875094592571
1772574507443328500,6.13632861328125,-0.07589785009622574,0.010386021807789803,0.011584409512579441
1772574507453261000,6.146260986328125,-0.07376738637685776,0.019973119720816612,0.006258244160562754
1772574507463196700,6.15619677734375,-0.07057169079780579,0.025299284607172012,0.011584409512579441
1772574507473129200,6.166129150390625,-0.06631075590848923,0.014646953903138638,0.017975807189941406
1772574507483032000,6.176031982421875,-0.06524552404880524,-0.0002663082559593022,0.021171506494283676
1772574507492961800,6.1859619140625,-0.05672365799546242,0.025299284607172012,0.012649642303586006
1772574507502924800,6.1959248046875,-0.05459319427609444,0.03275591507554054,0.007323476951569319
1772574507512857900,6.20585791015625,-0.05565842613577843,0.017842652276158333,0.015845341607928276
1772574507522763800,6.215763671875,-0.0482017956674099,0.013581721112132072,0.030758604407310486
1772574507532694300,6.2256943359375,-0.0375494658946991,0.0050598569214344025,0.040345702320337296
1772574507542651600,6.235651611328125,-0.03222329914569855,-0.006657706573605537,0.041410934180021286
1772574507552584700,6.245584716796875,-0.031158065423369408,-0.009853405877947807,0.037150003015995026
1772574507562524000,6.25552392578125,-0.027962366119027138,-0.009853405877947807,0.030758604407310486
1772574507572457500,6.26545751953125,-0.025831900537014008,-0.010918638668954372,0.024367205798625946
1772574507582358000,6.27535791015625,-0.021570969372987747,-0.017310036346316338,0.017975807189941406
1772574507592288500,6.28528857421875,-0.015179570764303207,-0.022636201232671738,0.015845341607928276
1772574507602238700,6.29523876953125,-0.009853405877947807,-0.017310036346316338,0.020106272771954536
1772574507612171300,6.305171142578125,-0.006657706573605537,-0.008788172155618668,0.026497671380639076
1772574507622109200,6.315109130859375,-0.0034620072692632675,-0.0077229393646121025,0.03288906812667847
1772574507632042000,6.3250419921875,-0.00133154122158885,-0.009853405877947807,0.03608476743102074
1772574507641957600,6.33495751953125,0.002929390873759985,-0.008788172155618668,0.038215234875679016
1772574507651889000,6.344888916015625,0.007057168986648321,-0.010918638668954372,0.03928046673536301
1772574507661838000,6.354838134765625,0.010252867825329304,-0.010918638668954372,0.038215234875679016
1772574507671771100,6.364771240234375,0.013448567129671574,-0.008788172155618668,0.038215234875679016
1772574507681712400,6.37471240234375,0.01664426550269127,-0.00452724052593112,0.037150003015995026
1772574507691646500,6.384646484375,0.01770949922502041,-0.0002663082559593022,0.037150003015995026
1772574507701567700,6.394567626953125,0.01877473294734955,0.002929390873759985,0.038215234875679016
1772574507711500300,6.404500244140625,0.02090519852936268,0.00719032296910882,0.040345702320337296
1772574507721435400,6.414435302734375,0.02197043038904667,0.011451254598796368,0.044606633484363556
1772574507731368200,6.4243681640625,0.02410089783370495,0.014646953903138638,0.04993279650807381
1772574507741301000,6.434301025390625,0.02836182899773121,0.011451254598796368,0.05632419511675835
1772574507751234000,6.444234130859375,0.02836182899773121,0.00719032296910882,0.058454662561416626
1772574507761170200,6.454170166015625,0.02623136341571808,0.010386021807789803,0.06271559745073318
1772574507771103200,6.464103271484375,0.02516612969338894,0.021038351580500603,0.06804175674915314
1772574507781035300,6.47403515625,0.02516612969338894,0.04553871229290962,0.06378082931041718
1772574507790968300,6.48396826171875,0.02090519852936268,0.05512581020593643,0.047802332788705826
1772574507800893700,6.493893798828125,0.01983996480703354,0.05086487531661987,0.029693370684981346
1772574507810826000,6.503825927734375,0.02303566411137581,0.03488638252019882,0.020106272771954536
1772574507820756200,6.513756103515625,0.02623136341571808,0.011451254598796368,0.021171506494283676
1772574507830688300,6.523688232421875,0.02836182899773121,0.0007989247678779066,0.024367205798625946
1772574507840622600,6.53362255859375,0.02942706272006035,-0.0023967742454260588,0.023301972076296806
1772574507850555000,6.543554931640625,0.02942706272006035,0.0018641578499227762,0.019041040912270546
1772574507860500200,6.553500244140625,0.03155753016471863,0.0007989247678779066,0.012649642303586006
1772574507870434000,6.56343408203125,0.03049229457974434,0.0018641578499227762,0.006258244160562754
1772574507880361200,6.573361328125,0.02516612969338894,0.00399462366476655,0.006258244160562754
1772574507890294300,6.583294189453125,0.02197043038904667,0.008255556225776672,0.008388710208237171
1772574507900221200,6.59322119140625,0.02197043038904667,0.0061250897124409676,0.010519175790250301
1772574507910153700,6.60315380859375,0.02197043038904667,-0.0002663082559593022,0.013714875094592571
1772574507920084700,6.613084716796875,0.02090519852936268,-0.0002663082559593022,0.014780107885599136
1772574507930017000,6.62301708984375,0.01877473294734955,0.00399462366476655,0.007323476951569319
1772574507939947500,6.632947509765625,0.014513799920678139,0.00399462366476655,-0.0011983871227130294
1772574507949879600,6.642879638671875,0.013448567129671574,0.0018641578499227762,-0.011850717477500439
1772574507959825400,6.652825439453125,0.013448567129671574,-0.0023967742454260588,-0.021437814459204674
1772574507969759000,6.662759033203125,0.011318100616335869,-0.006657706573605537,-0.021437814459204674
1772574507979683600,6.67268359375,0.010252867825329304,-0.008788172155618668,-0.013981183059513569
1772574507989616000,6.6826162109375,0.009187635034322739,-0.00452724052593112,-0.004394086077809334
1772574507999545600,6.692545654296875,0.009187635034322739,0.00399462366476655,0.0030625448562204838
1772574508009478100,6.70247802734375,0.005991935729980469,0.008255556225776672,0.0030625448562204838
1772574508019417900,6.71241796875,0.0050598569214344025,0.00399462366476655,0.0009320789249613881
1772574508029351000,6.722350830078125,0.005991935729980469,-0.00133154122158885,-0.0033288532868027687
1772574508039270100,6.732270263671875,0.00399462366476655,-0.009853405877947807,-0.00226362026296556
1772574508049202000,6.742201904296875,0.002929390873759985,-0.009853405877947807,0.001997311832383275
1772574508059134000,6.752134033203125,0.00399462366476655,-0.006657706573605537,0.009453942999243736
1772574508069065500,6.7620654296875,0.008122402243316174,-0.0077229393646121025,0.016910573467612267
1772574508078976300,6.771976318359375,0.02516612969338894,-0.009853405877947807,0.017975807189941406
1772574508088905700,6.78190576171875,0.03155753016471863,-0.016244804486632347,0.023301972076296806
1772574508098869800,6.791869873046875,0.03049229457974434,-0.019440501928329468,0.017975807189941406
1772574508108802600,6.801802490234375,0.02623136341571808,-0.0034620072692632675,0.008388710208237171
1772574508118733300,6.8117333984375,0.010252867825329304,0.002929390873759985,-0.0001331541279796511
1772574508128666400,6.821666259765625,-0.00133154122158885,-0.005592473316937685,-0.008655018173158169
1772574508138574600,6.83157470703125,-0.0023967742454260588,-0.010918638668954372,-0.016111649572849274
1772574508148504800,6.8415048828125,-0.0002663082559593022,-0.011983871459960938,-0.015046416781842709
1772574508158479400,6.851479248046875,-0.00133154122158885,-0.019440501928329468,-0.009720250964164734
1772574508168414200,6.861414306640625,-0.0002663082559593022,-0.005592473316937685,-0.0011983871227130294
1772574508178305800,6.871305908203125,0.00399462366476655,0.002929390873759985,0.006258244160562754
1772574508188236300,6.881236328125,0.007057168986648321,0.0050598569214344025,0.017975807189941406
1772574508198174000,6.891174072265625,0.005991935729980469,0.002929390873759985,0.026497671380639076
1772574508208105200,6.901105224609375,0.0018641578499227762,0.0018641578499227762,0.035019535571336746
1772574508218038500,6.91103857421875,0.00399462366476655,0.0061250897124409676,0.033954303711652756
1772574508227970000,6.920969970703125,0.0050598569214344025,0.011451254598796368,0.031823836266994476
1772574508237900300,6.930900390625,0.0050598569214344025,0.010386021807789803,0.028628136962652206
1772574508247831600,6.94083154296875,0.0050598569214344025,0.009320789016783237,0.025432437658309937
1772574508257764000,6.95076416015625,0.008122402243316174,0.002929390873759985,0.020106272771954536
1772574508267695600,6.960695556640625,0.009187635034322739,-0.0002663082559593022,0.024367205798625946
1772574508277633000,6.970633056640625,0.011318100616335869,-0.0034620072692632675,0.030758604407310486
1772574508287564800,6.980564697265625,0.012383334338665009,0.00399462366476655,0.03288906812667847
1772574508297494800,6.990494873046875,0.010252867825329304,0.016777420416474342,0.031823836266994476
1772574508307426600,7.000426513671875,0.010252867825329304,0.010386021807789803,0.024367205798625946
1772574508317387300,7.01038720703125,0.009187635034322739,0.002929390873759985,0.014780107885599136
1772574508327322000,7.020322021484375,0.007057168986648321,0.0018641578499227762,0.005193010903894901
1772574508337249000,7.0302490234375,0.005991935729980469,0.0050598569214344025,-0.0001331541279796511
1772574508347182800,7.040182861328125,0.00399462366476655,0.009320789016783237,-0.0033288532868027687
1772574508357110300,7.0501103515625,0.0050598569214344025,0.010386021807789803,-0.005459319334477186
1772574508367043600,7.060043701171875,0.002929390873759985,0.011451254598796368,-0.013981183059513569
1772574508376983600,7.069983642578125,0.0007989247678779066,0.015712186694145203,-0.026763979345560074
1772574508386917600,7.079917724609375,-0.00133154122158885,0.018907885998487473,-0.033155377954244614
1772574508396836600,7.089836669921875,-0.0002663082559593022,0.011451254598796368,-0.034220609813928604
1772574508406769200,7.09976904296875,0.0018641578499227762,0.00719032296910882,-0.027829213067889214
1772574508416726500,7.1097265625,-0.00133154122158885,0.0061250897124409676,-0.018242115154862404
1772574508426661600,7.11966162109375,-0.0023967742454260588,0.008255556225776672,-0.005459319334477186
1772574508436570400,7.1295703125,-0.0034620072692632675,0.00399462366476655,0.001997311832383275
1772574508446502700,7.139502685546875,-0.006657706573605537,0.017842652276158333,0.008388710208237171
1772574508456435700,7.149435791015625,-0.0034620072692632675,0.029560215771198273,0.016910573467612267
1772574508466368000,7.159367919921875,-0.0034620072692632675,0.028494983911514282,0.014780107885599136
1772574508476305000,7.169304931640625,-0.011983871459960938,0.03169068321585655,0.008388710208237171
1772574508486237700,7.17923779296875,-0.017310036346316338,0.0370168462395668,0.007323476951569319
1772574508496173300,7.18917333984375,-0.025831900537014008,0.05406057462096214,0.006258244160562754
1772574508506106600,7.199106689453125,-0.030092833563685417,0.08814803510904312,-0.010785484686493874
1772574508516029000,7.20902880859375,-0.03222329914569855,0.10625699162483215,-0.043807707726955414
1772574508525961000,7.2189609375,-0.03222329914569855,0.10199606418609619,-0.0768299326300621
1772574508535906000,7.228906005859375,-0.022636201232671738,0.09134373068809509,-0.08535179495811462
1772574508545839400,7.23883935546875,-0.018375270068645477,0.06151720881462097,-0.060851436108350754
1772574508555722500,7.248722412109375,-0.013049104250967503,0.03488638252019882,-0.022503048181533813
1772574508575623400,7.26862353515625,-0.0034620072692632675,0.0018641578499227762,0.057389430701732635
1772574508585560000,7.27856005859375,0.007057168986648321,-0.006657706573605537,0.07762885838747025
1772574508595488000,7.288488037109375,0.01664426550269127,-0.021570969372987747,0.08082455396652222
1772574508605423600,7.298423583984375,0.02303566411137581,-0.022636201232671738,0.06910699605941772
1772574508615349200,7.308349365234375,0.02836182899773121,-0.024766668677330017,0.05312849581241608
1772574508625283800,7.318283935546875,0.02942706272006035,-0.026897134259343147,0.040345702320337296
1772574508635220000,7.328219970703125,0.03155753016471863,-0.027962366119027138,0.033954303711652756
1772574508645154800,7.33815478515625,0.0347532257437706,-0.027962366119027138,0.033954303711652756
1772574508655058000,7.348057861328125,0.04007939249277115,-0.020505735650658607,0.041410934180021286
1772574508664989700,7.35798974609375,0.04434032365679741,-0.019440501928329468,0.043541401624679565
1772574508674950000,7.367949951171875,0.04434032365679741,-0.020505735650658607,0.041410934180021286
1772574508684884500,7.377884521484375,0.04007939249277115,-0.019440501928329468,0.035019535571336746
1772574508694809300,7.387809326171875,0.03794892504811287,-0.017310036346316338,0.029693370684981346
1772574508704743000,7.397742919921875,0.03688369318842888,-0.008788172155618668,0.023301972076296806
1772574508714673200,7.407673095703125,0.03794892504811287,-0.0034620072692632675,0.012649642303586006
1772574508724606200,7.417606201171875,0.04007939249277115,0.00399462366476655,-0.0011983871227130294
1772574508734540500,7.42754052734375,0.03901416063308716,0.0018641578499227762,-0.013981183059513569
1772574508744473900,7.437473876953125,0.03794892504811287,-0.0077229393646121025,-0.015046416781842709
1772574508754409000,7.447408935546875,0.04327509179711342,-0.015179570764303207,-0.009720250964164734
1772574508764342500,7.457342529296875,0.04966649040579796,-0.022636201232671738,-0.009720250964164734
1772574508774271200,7.467271240234375,0.03901416063308716,-0.014114337973296642,-0.017176883295178413
1772574508784204300,7.477204345703125,0.02623136341571808,0.0018641578499227762,-0.034220609813928604
1772574508794136000,7.487135986328125,0.02303566411137581,0.015712186694145203,-0.05232957378029823
1772574508804068900,7.49706884765625,0.02303566411137581,0.022103585302829742,-0.06511236727237701
1772574508814010000,7.507010009765625,0.01983996480703354,0.019973119720816612,-0.0768299326300621
1772574508823943700,7.516943603515625,0.01983996480703354,0.015712186694145203,-0.08215609937906265
1772574508833864700,7.52686474609375,0.02197043038904667,0.013581721112132072,-0.0768299326300621
1772574508843797200,7.53679736328125,0.02410089783370495,0.00719032296910882,-0.054460037499666214
1772574508853729800,7.546729736328125,0.02410089783370495,0.00719032296910882,-0.023568280041217804
1772574508863662300,7.556662353515625,0.02516612969338894,0.013581721112132072,0.010519175790250301
1772574508873601300,7.566601318359375,0.02729659713804722,0.027429750189185143,0.035019535571336746
1772574508883534300,7.576534423828125,0.02516612969338894,0.03914731368422508,0.042476166039705276
1772574508893463000,7.586463134765625,0.02410089783370495,0.03914731368422508,0.03608476743102074
1772574508903395600,7.5963955078125,0.02410089783370495,0.03488638252019882,0.025432437658309937
1772574508913336600,7.606336669921875,0.02516612969338894,0.030625449493527412,0.022236740216612816
1772574508923270100,7.616270263671875,0.02729659713804722,0.024234050884842873,0.023301972076296806
1772574508933190100,7.626190185546875,0.02836182899773121,0.014646953903138638,0.025432437658309937
1772574508943122200,7.6361220703125,0.02942706272006035,0.0061250897124409676,0.029693370684981346
1772574508953060400,7.646060302734375,0.02836182899773121,0.0007989247678779066,0.035019535571336746
1772574508962993200,7.6559931640625,0.02942706272006035,-0.005592473316937685,0.041410934180021286
1772574508972925000,7.665925048828125,0.03049229457974434,-0.006657706573605537,0.040345702320337296
1772574508982857700,7.675857666015625,0.03262276202440262,-0.0034620072692632675,0.027562905102968216
1772574508992792300,7.685792236328125,0.03155753016471863,-0.0023967742454260588,0.007323476951569319
1772574509002725400,7.695725341796875,0.02729659713804722,-0.0034620072692632675,-0.011850717477500439
1772574509012649500,7.7056494140625,0.02197043038904667,0.0007989247678779066,-0.023568280041217804
1772574509022581500,7.71558154296875,0.01983996480703354,0.00399462366476655,-0.036351077258586884
1772574509032514300,7.725514404296875,0.01664426550269127,-0.00133154122158885,-0.047003407031297684
1772574509042446300,7.7354462890625,0.014513799920678139,-0.00452724052593112,-0.04913387447595596
1772574509052384500,7.745384521484375,0.013448567129671574,-0.008788172155618668,-0.04913387447595596
1772574509062317000,7.755317138671875,0.011318100616335869,-0.005592473316937685,-0.040612008422613144
1772574509072222000,7.765221923828125,0.010252867825329304,-0.0023967742454260588,-0.028894444927573204
1772574509082152000,7.77515185546875,0.008122402243316174,0.00399462366476655,-0.020372580736875534
1772574509092107800,7.785107666015625,0.0050598569214344025,0.00719032296910882,-0.017176883295178413
1772574509102040300,7.795040283203125,0.00399462366476655,0.0050598569214344025,-0.015046416781842709
1772574509111973000,7.80497314453125,0.007057168986648321,0.0018641578499227762,-0.020372580736875534
1772574509121905700,7.81490576171875,0.007057168986648321,-0.00133154122158885,-0.028894444927573204
1772574509131837000,7.8248369140625,0.0050598569214344025,-0.0002663082559593022,-0.034220609813928604
1772574509141769200,7.834769287109375,0.0050598569214344025,0.008255556225776672,-0.03848154470324516
1772574509151703600,7.84470361328125,0.0050598569214344025,0.011451254598796368,-0.040612008422613144
1772574509161636000,7.854635986328125,0.00399462366476655,0.013581721112132072,-0.037416309118270874
1772574509171572500,7.864572509765625,0.002929390873759985,0.013581721112132072,-0.031024912372231483
1772574509181505500,7.874505615234375,0.005991935729980469,0.010386021807789803,-0.023568280041217804
1772574509191431000,7.884430908203125,0.007057168986648321,0.008255556225776672,-0.016111649572849274
1772574509201363200,7.89436328125,0.009187635034322739,0.0018641578499227762,-0.012915950268507004
1772574509211275500,7.904275634765625,0.009187635034322739,-0.0034620072692632675,-0.013981183059513569
1772574509221205800,7.914205810546875,0.010252867825329304,-0.009853405877947807,-0.020372580736875534
1772574509231163100,7.9241630859375,0.011318100616335869,-0.010918638668954372,-0.023568280041217804
1772574509241096000,7.934095947265625,0.012383334338665009,-0.00452724052593112,-0.024633513763546944
1772574509251028000,7.944028076171875,0.014513799920678139,0.0018641578499227762,-0.024633513763546944
1772574509260960800,7.953960693359375,0.013448567129671574,0.0061250897124409676,-0.022503048181533813
1772574509270895900,7.963895751953125,0.013448567129671574,0.00399462366476655,-0.012915950268507004
1772574509280829000,7.973828857421875,0.013448567129671574,-0.0023967742454260588,-0.004394086077809334
1772574509290759700,7.983759765625,0.013448567129671574,-0.00452724052593112,0.005193010903894901
1772574509300692700,7.993692626953125,0.012383334338665009,-0.0002663082559593022,0.007323476951569319
1772574509310625300,8.003625244140625,0.009187635034322739,0.0061250897124409676,0.0030625448562204838
1772574509320558000,8.01355810546875,0.0050598569214344025,0.011451254598796368,-0.0001331541279796511
1772574509330466300,8.02346630859375,0.005991935729980469,0.011451254598796368,-0.0001331541279796511
1772574509340396500,8.033396484375,0.00399462366476655,0.009320789016783237,0.0009320789249613881
1772574509350331100,8.0433310546875,0.002929390873759985,0.0061250897124409676,0.008388710208237171
1772574509360262000,8.053261962890625,0.00399462366476655,0.002929390873759985,0.014780107885599136
1772574509370229000,8.06322900390625,0.00399462366476655,0.0018641578499227762,0.019041040912270546
1772574509380163300,8.073163330078126,0.0050598569214344025,0.0018641578499227762,0.016910573467612267
1772574509390094300,8.08309423828125,0.007057168986648321,-0.0023967742454260588,0.011584409512579441
1772574509400028400,8.0930283203125,0.005991935729980469,-0.00452724052593112,0.004127778112888336
1772574509409932800,8.102932861328124,0.00399462366476655,-0.00133154122158885,-0.0033288532868027687
1772574509419864000,8.112864013671874,0.005991935729980469,0.0061250897124409676,-0.005459319334477186
1772574509429787400,8.122787353515625,0.0050598569214344025,0.010386021807789803,-0.006524552125483751
1772574509439717600,8.132717529296874,0.002929390873759985,0.0061250897124409676,-0.005459319334477186
1772574509449688300,8.142688232421875,0.0018641578499227762,0.0018641578499227762,-0.0033288532868027687
1772574509459622700,8.15262255859375,-0.0002663082559593022,0.0050598569214344025,-0.0011983871227130294
1772574509469522700,8.162522705078125,0.0007989247678779066,0.00399462366476655,-0.0011983871227130294
1772574509479453400,8.172453369140625,-0.00133154122158885,0.0018641578499227762,-0.00226362026296556
1772574509489394200,8.182394287109375,-0.0023967742454260588,0.00399462366476655,-0.0033288532868027687
1772574509499326200,8.192326171875,0.0018641578499227762,0.002929390873759985,-0.004394086077809334
1772574509509283300,8.202283447265625,0.0018641578499227762,0.0007989247678779066,0.0030625448562204838
1772574509519218000,8.212218017578126,0.00399462366476655,0.0050598569214344025,0.014780107885599136
1772574509529110500,8.222110595703125,0.005991935729980469,0.012516488321125507,0.022236740216612816
1772574509539040800,8.232040771484375,0.007057168986648321,0.016777420416474342,0.022236740216612816
1772574509549007600,8.242007568359375,0.008122402243316174,0.012516488321125507,0.017975807189941406
1772574509558941400,8.25194140625,0.007057168986648321,0.0061250897124409676,0.0030625448562204838
1772574509568865300,8.261865234375,0.005991935729980469,0.009320789016783237,-0.016111649572849274
1772574509578798300,8.27179833984375,0.002929390873759985,0.011451254598796368,-0.036351077258586884
1772574509588742400,8.281742431640625,-0.0023967742454260588,0.013581721112132072,-0.05232957378029823
1772574509598676500,8.291676513671876,-0.00452724052593112,0.017842652276158333,-0.057655736804008484
1772574509608600000,8.30160009765625,-0.0034620072692632675,0.017842652276158333,-0.050199106335639954
1772574509618533000,8.311533203125,-0.00133154122158885,0.011451254598796368,-0.034220609813928604
1772574509628460800,8.321460693359375,0.0018641578499227762,0.0061250897124409676,-0.012915950268507004
1772574509638393300,8.331393310546876,0.00399462366476655,-0.0034620072692632675,0.010519175790250301
1772574509648327700,8.34132763671875,0.0050598569214344025,-0.010918638668954372,0.026497671380639076
1772574509658260200,8.35126025390625,0.00399462366476655,-0.015179570764303207,0.03928046673536301
1772574509668200700,8.36120068359375,-0.0002663082559593022,-0.015179570764303207,0.044606633484363556
1772574509678134000,8.371134033203125,-0.0023967742454260588,-0.013049104250967503,0.042476166039705276
1772574509688055000,8.381054931640625,-0.0034620072692632675,-0.015179570764303207,0.03928046673536301
1772574509697987300,8.3909873046875,-0.005592473316937685,-0.022636201232671738,0.03928046673536301
1772574509707905500,8.400905517578124,-0.008788172155618668,-0.017310036346316338,0.03288906812667847
1772574509717836300,8.410836181640626,-0.008788172155618668,-0.0077229393646121025,0.022236740216612816
1772574509727782000,8.420781982421875,-0.009853405877947807,0.0007989247678779066,0.015845341607928276
1772574509737714200,8.430714111328125,-0.006657706573605537,0.015712186694145203,0.014780107885599136
1772574509747660500,8.44066064453125,-0.0023967742454260588,0.025299284607172012,0.009453942999243736
1772574509757594400,8.450594482421875,-0.005592473316937685,0.03595161437988281,-0.0001331541279796511
1772574509767516700,8.4605166015625,-0.008788172155618668,0.030625449493527412,-0.009720250964164734
1772574509777449200,8.47044921875,-0.006657706573605537,0.018907885998487473,-0.012915950268507004
1772574509787376400,8.48037646484375,-0.0034620072692632675,0.027429750189185143,-0.005459319334477186
1772574509797308400,8.490308349609375,-0.00133154122158885,0.030625449493527412,0.004127778112888336
1772574509807245300,8.500245361328124,-0.0002663082559593022,0.024234050884842873,0.011584409512579441
1772574509817177900,8.510177734375,0.0018641578499227762,0.023168819025158882,0.013714875094592571
1772574509827107300,8.520107421875,0.0018641578499227762,0.026364516466856003,0.013714875094592571
1772574509837039400,8.530039306640624,0.0007989247678779066,0.024234050884842873,0.012649642303586006
1772574509846973200,8.53997314453125,0.0018641578499227762,0.017842652276158333,0.008388710208237171
1772574509856905500,8.549905517578125,0.0018641578499227762,0.008255556225776672,0.004127778112888336
1772574509866840300,8.55984033203125,0.002929390873759985,0.00399462366476655,0.0009320789249613881
1772574509876772900,8.56977294921875,0.00399462366476655,0.0061250897124409676,0.004127778112888336
1772574509886701800,8.579701904296876,0.002929390873759985,0.00719032296910882,0.012649642303586006
1772574509896634000,8.589634033203126,-0.0023967742454260588,0.00719032296910882,0.027562905102968216
1772574509906566400,8.59956640625,0.005991935729980469,0.009320789016783237,0.026497671380639076
1772574509916498400,8.60949853515625,0.008122402243316174,-0.005592473316937685,0.017975807189941406
1772574509926434300,8.619434326171875,0.002929390873759985,0.0018641578499227762,0.013714875094592571
1772574509936366800,8.629366943359376,0.0050598569214344025,0.021038351580500603,0.0030625448562204838
1772574509946273300,8.639273193359376,0.0050598569214344025,0.024234050884842873,-0.008655018173158169
1772574509956203300,8.649203369140626,0.0018641578499227762,0.017842652276158333,-0.021437814459204674
1772574509966176500,8.659176513671875,-0.0023967742454260588,-0.0002663082559593022,-0.029959678649902344
1772574509976111000,8.669111083984374,-0.00452724052593112,-0.011983871459960938,-0.034220609813928604
1772574509986028000,8.679028076171875,-0.006657706573605537,-0.014114337973296642,-0.036351077258586884
1772574509995960600,8.688960693359375,-0.010918638668954372,-0.013049104250967503,-0.03528584539890289
1772574510005903400,8.6989033203125,-0.010918638668954372,-0.009853405877947807,-0.041677240282297134
1772574510015798300,8.70879833984375,-0.0077229393646121025,-0.00452724052593112,-0.050199106335639954
1772574510025724000,8.718723876953124,-0.006657706573605537,0.0050598569214344025,-0.053394805639982224
1772574510035645000,8.72864501953125,-0.009853405877947807,0.012516488321125507,-0.053394805639982224
1772574510045578500,8.73857861328125,-0.014114337973296642,0.016777420416474342,-0.051264338195323944
1772574510075408100,8.768408203125,-0.008788172155618668,0.015712186694145203,-0.028894444927573204
1772574510085346300,8.77834619140625,-0.0034620072692632675,0.014646953903138638,-0.020372580736875534
1772574510095280400,8.7882802734375,-0.0002663082559593022,0.014646953903138638,-0.016111649572849274
1772574510105215500,8.798215576171875,-0.0002663082559593022,0.012516488321125507,-0.016111649572849274
1772574510115108400,8.8081083984375,0.0007989247678779066,0.013581721112132072,-0.020372580736875534
1772574510125042400,8.81804248046875,0.002929390873759985,0.015712186694145203,-0.018242115154862404
1772574510154845700,8.847845703125,0.007057168986648321,0.017842652276158333,-0.019307348877191544
1772574510174745000,8.8677451171875,0.005991935729980469,0.026364516466856003,-0.028894444927573204
1772574510184682200,8.87768212890625,0.0050598569214344025,0.024234050884842873,-0.029959678649902344
1772574510194605800,8.887605712890625,0.005991935729980469,0.017842652276158333,-0.027829213067889214
1772574510204541400,8.89754150390625,0.007057168986648321,0.015712186694145203,-0.026763979345560074
1772574510214481700,8.907481689453125,0.005991935729980469,0.017842652276158333,-0.029959678649902344
1772574510224417800,8.917417724609376,0.002929390873759985,0.015712186694145203,-0.036351077258586884
1772574510234339800,8.92733984375,-0.00133154122158885,0.010386021807789803,-0.03848154470324516
1772574510244274700,8.937274658203124,-0.0034620072692632675,0.00399462366476655,-0.03528584539890289
1772574510254205400,8.947205322265624,-0.005592473316937685,-0.0034620072692632675,-0.025698747485876083
1772574510264139800,8.957139892578125,0.00399462366476655,-0.011983871459960938,-0.022503048181533813
1772574510274077400,8.967077392578124,0.010252867825329304,-0.019440501928329468,-0.019307348877191544
1772574510284012000,8.977011962890625,0.010252867825329304,-0.015179570764303207,-0.016111649572849274
1772574510293930800,8.9869306640625,0.009187635034322739,-0.0077229393646121025,-0.016111649572849274
1772574510303863800,8.99686376953125,0.008122402243316174,-0.0034620072692632675,-0.018242115154862404
1772574510313773600,9.006773681640626,0.005991935729980469,-0.00133154122158885,-0.019307348877191544
1772574510323704300,9.016704345703126,0.007057168986648321,0.0061250897124409676,-0.016111649572849274
1772574510333638000,9.026637939453124,0.0050598569214344025,0.013581721112132072,-0.011850717477500439
1772574510343569200,9.036569091796874,0.0018641578499227762,0.012516488321125507,-0.010785484686493874
1772574510353527800,9.04652783203125,-0.0002663082559593022,0.0050598569214344025,-0.016111649572849274
1772574510363461600,9.056461669921875,-0.00133154122158885,0.0018641578499227762,-0.022503048181533813
1772574510373393200,9.06639306640625,-0.0002663082559593022,0.0050598569214344025,-0.026763979345560074
1772574510383326700,9.07632666015625,0.0018641578499227762,0.012516488321125507,-0.025698747485876083
1772574510393251600,9.08625146484375,0.00399462366476655,0.011451254598796368,-0.018242115154862404
1772574510403184000,9.09618408203125,0.008122402243316174,0.010386021807789803,-0.008655018173158169
1772574510413124400,9.106124267578124,0.010252867825329304,0.010386021807789803,0.005193010903894901
1772574510423058000,9.116057861328125,0.011318100616335869,0.00719032296910882,0.014780107885599136
1772574510432987000,9.12598681640625,0.013448567129671574,0.0007989247678779066,0.017975807189941406
1772574510442920000,9.135919921875,0.014513799920678139,-0.0002663082559593022,0.020106272771954536
1772574510452851700,9.145851806640625,0.012383334338665009,-0.0034620072692632675,0.021171506494283676
1772574510462784500,9.155784423828125,0.015579032711684704,-0.005592473316937685,0.023301972076296806
1772574510472715000,9.165715087890625,0.014513799920678139,0.0018641578499227762,0.026497671380639076
1772574510482647600,9.1756474609375,0.011318100616335869,0.011451254598796368,0.026497671380639076
1772574510492563000,9.18556298828125,0.0050598569214344025,0.017842652276158333,0.019041040912270546
1772574510502494000,9.195493896484376,0.0007989247678779066,0.019973119720816612,0.009453942999243736
1772574510512445400,9.205445556640624,-0.0023967742454260588,0.017842652276158333,-0.0001331541279796511
1772574510522378200,9.215378173828125,-0.0023967742454260588,0.009320789016783237,-0.007589785382151604
1772574510532284200,9.2252841796875,0.0007989247678779066,0.00719032296910882,-0.006524552125483751
1772574510542214400,9.23521435546875,0.0050598569214344025,0.011451254598796368,-0.005459319334477186
1772574510552166400,9.24516650390625,0.008122402243316174,0.016777420416474342,-0.004394086077809334
1772574510562099000,9.255098876953125,0.011318100616335869,0.017842652276158333,-0.005459319334477186
1772574510572017400,9.265017333984375,0.013448567129671574,0.016777420416474342,-0.0001331541279796511
1772574510581948400,9.274948486328125,0.012383334338665009,0.015712186694145203,0.007323476951569319
1772574510591879400,9.28487939453125,0.013448567129671574,0.008255556225776672,0.013714875094592571
1772574510601810400,9.294810546875,0.01770949922502041,-0.0002663082559593022,0.022236740216612816
1772574510611757800,9.3047578125,0.01983996480703354,-0.0023967742454260588,0.026497671380639076
1772574510621690600,9.314690673828125,0.01770949922502041,0.002929390873759985,0.027562905102968216
1772574510631615200,9.324615234375,0.015579032711684704,0.008255556225776672,0.020106272771954536
1772574510641547000,9.334547119140625,0.01983996480703354,0.0061250897124409676,0.012649642303586006
1772574510651476000,9.34447607421875,0.02197043038904667,-0.00133154122158885,0.007323476951569319
1772574510661407700,9.35440771484375,0.02410089783370495,-0.005592473316937685,0.010519175790250301
1772574510671347700,9.36434765625,0.02410089783370495,-0.0023967742454260588,0.019041040912270546
1772574510681280300,9.3742802734375,0.02090519852936268,0.00399462366476655,0.027562905102968216
1772574510691205600,9.38420556640625,0.01983996480703354,0.012516488321125507,0.029693370684981346
1772574510701137400,9.394137451171876,0.02197043038904667,0.017842652276158333,0.029693370684981346
1772574510711068400,9.404068359375,0.01983996480703354,0.016777420416474342,0.027562905102968216
1772574510721000200,9.414000244140626,0.015579032711684704,0.014646953903138638,0.023301972076296806
1772574510730961200,9.423961181640625,0.010252867825329304,0.026364516466856003,0.021171506494283676
1772574510740895700,9.433895751953125,0.00399462366476655,0.03169068321585655,0.020106272771954536
1772574510750831000,9.4438310546875,0.007057168986648321,0.029560215771198273,0.023301972076296806
1772574510760765700,9.453765625,0.008122402243316174,0.027429750189185143,0.024367205798625946
1772574510770663700,9.46366357421875,0.010252867825329304,0.021038351580500603,0.022236740216612816
1772574510780594700,9.4735947265625,0.011318100616335869,0.012516488321125507,0.019041040912270546
1772574510790555100,9.48355517578125,0.009187635034322739,0.011451254598796368,0.017975807189941406
1772574510800489000,9.493489013671875,0.009187635034322739,0.011451254598796368,0.016910573467612267
1772574510810396000,9.50339599609375,0.008122402243316174,0.008255556225776672,0.013714875094592571
1772574510820327200,9.5133271484375,0.007057168986648321,0.0061250897124409676,0.005193010903894901
1772574510830285000,9.52328515625,0.005991935729980469,0.0050598569214344025,-0.00226362026296556
1772574510840219000,9.533218994140626,0.0050598569214344025,0.0018641578499227762,-0.009720250964164734
1772574510850149400,9.5431494140625,0.0050598569214344025,-0.0002663082559593022,-0.013981183059513569
1772574510860083000,9.5530830078125,0.008122402243316174,0.0018641578499227762,-0.012915950268507004
1772574510870019600,9.56301953125,0.011318100616335869,0.0018641578499227762,-0.013981183059513569
1772574510879953400,9.572953369140626,0.011318100616335869,0.0018641578499227762,-0.012915950268507004
1772574510889859800,9.58285986328125,0.011318100616335869,-0.0002663082559593022,-0.010785484686493874
1772574510899790800,9.592790771484376,0.010252867825329304,-0.0002663082559593022,-0.010785484686493874
1772574510909750000,9.60275,0.009187635034322739,0.0018641578499227762,-0.011850717477500439
1772574510919684000,9.61268408203125,0.005991935729980469,0.0061250897124409676,-0.008655018173158169
1772574510929583400,9.622583251953126,0.00399462366476655,0.00719032296910882,-0.007589785382151604
1772574510939513600,9.632513671875,0.00399462366476655,0.0007989247678779066,-0.004394086077809334
1772574510949476600,9.6424765625,0.0050598569214344025,-0.00452724052593112,-0.0033288532868027687
1772574510959410400,9.652410400390625,0.010252867825329304,-0.008788172155618668,-0.0033288532868027687
1772574510969339400,9.66233935546875,0.011318100616335869,-0.00452724052593112,-0.00226362026296556
1772574510979272400,9.6722724609375,0.011318100616335869,-0.0023967742454260588,-0.0011983871227130294
1772574510989205500,9.68220556640625,0.012383334338665009,-0.00133154122158885,0.0009320789249613881
1772574510999138800,9.692138916015624,0.012383334338665009,-0.00452724052593112,-0.0001331541279796511
1772574511009037300,9.702037353515625,0.010252867825329304,-0.00133154122158885,-0.0033288532868027687
1772574511018947600,9.711947509765626,0.009187635034322739,0.0050598569214344025,-0.005459319334477186
1772574511028909300,9.721909423828125,0.008122402243316174,0.011451254598796368,-0.007589785382151604
1772574511038842600,9.731842529296875,0.008122402243316174,0.013581721112132072,-0.009720250964164734
1772574511068641300,9.761641357421874,0.005991935729980469,0.024234050884842873,-0.011850717477500439
1772574511078572000,9.771572021484374,0.00399462366476655,0.03595161437988281,-0.015046416781842709
1772574511088504800,9.7815048828125,-0.0034620072692632675,0.05299534276127815,-0.015046416781842709
1772574511098433300,9.791433349609376,-0.017310036346316338,0.0902784988284111,0.004127778112888336
1772574511108365800,9.80136572265625,-0.026897134259343147,0.09240896254777908,0.027562905102968216
1772574511118292000,9.8112919921875,-0.018375270068645477,0.07643046975135803,0.023301972076296806
1772574511138185700,9.831185791015624,-0.008788172155618668,0.05938674136996269,-0.018242115154862404
1772574511148120600,9.84112060546875,-0.014114337973296642,0.03382114693522453,-0.028894444927573204
1772574511158067700,9.851067626953125,-0.017310036346316338,-0.00452724052593112,-0.028894444927573204
1772574511168003800,9.86100390625,-0.011983871459960938,-0.019440501928329468,-0.013981183059513569
1772574511177919000,9.8709189453125,-0.0034620072692632675,-0.018375270068645477,-0.0011983871227130294
1772574511187853000,9.88085302734375,-0.0002663082559593022,-0.022636201232671738,0.006258244160562754
1772574511197764000,9.89076416015625,-0.0023967742454260588,-0.027962366119027138,0.016910573467612267
1772574511207696100,9.900696044921874,-0.009853405877947807,-0.03967992961406708,0.026497671380639076
1772574511217664000,9.9106640625,-0.016244804486632347,-0.06737598776817322,0.043541401624679565
1772574511227599400,9.920599365234375,-0.014114337973296642,-0.07483261823654175,0.0712374597787857
1772574511237522000,9.93052197265625,0.0007989247678779066,-0.03328853100538254,0.09680305421352386
