time,seconds_elapsed,z,y,x
1772534758381985800,0.06598583984375,0.7461129660904408,0.15385149512775242,-0.22248788204565642
1772534758392002800,0.0760029296875,0.7213467736244201,0.209165532201156,-0.31204189624264833
1772534758402019800,0.086019775390625,0.5683078369885682,0.3015819500919431,-0.34769042498990893
1772534758412036600,0.09603662109375,0.30467618978023525,0.3309678382478654,-0.2594973238825798
1772534758422054000,0.106053955078125,0.07660626981854439,0.4205292320337146,-0.12760814278125762
1772534758432070700,0.116070556640625,-0.0998895302504301,0.5328950166933238,0.0048161681100726125
1772534758442087700,0.126087646484375,-0.3471019575774669,0.7912661860901862,-0.012921587023884058
1772534758452104700,0.136104736328125,-0.438323028203845,0.8909312599349767,-0.21324600644782185
1772534758462121700,0.146121826171875,-0.37481297132372854,1.2106512165248393,-0.5615303056776523
1772534758472138800,0.156138671875,-0.5723135654985905,1.3339439803250133,-0.8333215862050652
1772534758482155800,0.16615576171875,-0.7439408827483653,1.2490338464111088,-0.6877557619288563
1772534758492172800,0.1761728515625,-0.8021487415671348,1.1424518327847122,-0.48809579776301976
1772534758502189600,0.186189453125,-0.7397901928097009,0.9700031892146914,-0.31775925097614527
1772534758512206800,0.196206787109375,-0.23850772734582423,0.7499369082927704,-0.046137920188158744
1772534758522222800,0.206222900390625,0.19831249507963655,0.6247504397004843,-0.0591796264603734
1772534758532239600,0.216239501953125,0.5615338128089904,0.8333530042566358,0.04290069183260202
1772534758542257000,0.2262568359375,0.955371802598238,0.49500981493517754,0.29731165236160156
1772534758552273700,0.236273681640625,1.4416928457736968,0.026240648932754993,0.15210501678660512
1772534758562290700,0.246290771484375,1.5657546942502258,-0.4316505647026002,0.11000219733342528
1772534758572307700,0.2563076171875,1.2773726366668938,-0.7254448565930127,0.39430356147438284
1772534758582324700,0.26632470703125,1.0500234321951865,-0.8815886273764073,0.6824595552168786
1772534758592341800,0.276341796875,0.4694581711798906,-1.1027945067875087,0.34501258408278224
1772534758602358800,0.28635888671875,-0.20274317100346087,-1.1391636048942804,0.026072891150414942
1772534758612375800,0.296375732421875,-0.4460656051546335,-1.1856433242574334,0.3186791423000395
1772534758622392600,0.306392578125,-0.29193595067262645,-1.1403149668864905,0.6495313913442194
1772534758632409900,0.316409912109375,-0.049609541821479794,-1.2113687171444296,0.9618743163600564
1772534758642426600,0.326426513671875,0.10068272645473479,-0.7437678642690181,0.9507244151838123
1772534758652443600,0.336443603515625,0.17910335221886634,-0.20238325164988635,0.1472103766128421
1772534758662461000,0.3464609375,0.6309674145191908,0.09812661223113536,-0.43928763545230026
1772534758672477700,0.356477783203125,1.3720377102673054,0.2309925294101238,-0.467987806366384
1772534758682494700,0.36649462890625,1.8159949449658392,0.13688479743152857,-0.38077728655561804
1772534758692511700,0.37651171875,1.9077111056327818,-0.0021289748527109622,-0.15881503581926226
1772534758702528800,0.38652880859375,1.6972528302073477,-0.10002674676403403,0.30938539038449525
1772534758712545500,0.396545654296875,1.2573919249117373,-0.31061025600433345,0.6917372327804565
1772534758722562800,0.406562744140625,1.0875473994255065,-0.3000723492465913,1.0449398453205823
1772534758732579600,0.41657958984375,0.7986842803269624,-0.21209493671655655,1.211180647226423
1772534758742596600,0.4265966796875,0.9828063374906778,-0.40434257879927754,0.8026805103562772
1772534758752614000,0.43661376953125,1.4064257175594568,-0.4939740421466529,0.23103534563854336
1772534758762630700,0.446630615234375,1.5815110663086176,-0.17317293925657867,0.03233750450313091
1772534758772647700,0.456647705078125,1.4540841253131627,0.027899522055685518,0.13101415183246135
1772534758782664700,0.466664794921875,1.760729569339752,0.14298136074095963,0.6506389141947031
1772534758792681700,0.476681640625,2.2066607344597577,0.0024055998370051384,0.9971465591408312
1772534758802698500,0.486698486328125,1.911392424494028,-0.1647986402735114,0.9756780930459499
1772534758812715500,0.496715576171875,2.2994378023564814,0.01673646913692355,0.8046103093750775
1772534758822732800,0.50673291015625,2.5358348211586472,0.2974056142553687,0.575944761607796
1772534758832749600,0.51674951171875,3.0757465847462413,0.48445276508554813,0.545691516032815
1772534758842766600,0.5267666015625,3.216356247919798,0.20588629133477807,0.4951489311449229
1772534758852783600,0.53678369140625,2.6626006678968666,-0.3131144939102232,0.33136487474143506
1772534758862800600,0.546800537109375,2.4360341382354496,-0.5178064608938991,-0.1130645075134933
1772534758872817400,0.5568173828125,1.8840093275278806,-0.47731546055153007,-0.49208881292194123
1772534758882834700,0.566834716796875,1.2656851214826106,-0.675909841312468,-0.7897207832790911
1772534758892851700,0.576851806640625,1.2090309218466282,-0.7922773358941078,-1.1388742665588856
1772534758902868700,0.58686865234375,0.6689291886448859,-0.7799692045934498,-1.2148561208687723
1772534758912885800,0.5968857421875,-0.21975977225601673,-0.988406641715765,-0.615258827125281
1772534758922902500,0.606902587890625,-1.7653174816519022,-1.2294186069674788,0.5787637645512819
1772534758932919800,0.616919921875,-3.3000901776611804,-1.5190020031645892,1.2443358978532253
1772534758942936600,0.6269365234375,-4.858256608739495,-1.7772950658239424,0.6498764784548431
1772534758952953600,0.63695361328125,-6.410908075788616,-1.9580606521666049,-0.3329169995542616
1772534758962970600,0.646970703125,-7.257666358932853,-2.4396505751669406,-1.0201586014159023
1772534758972987600,0.656987548828125,-8.253190139177441,-2.3449722036935388,-2.090964855529368
1772534758983003600,0.667003662109375,-8.864995172587037,-1.9790376814827322,-2.807140363995731
1772534758993020400,0.6770205078125,-9.00602218438983,-1.6087321045808494,-3.4949268133237954
1772534759003037700,0.68703759765625,-9.360217315098643,-1.4409239072278142,-3.589583995878696
1772534759013054700,0.6970546875,-9.216104027718306,-1.8704006350226698,-3.8494530756831167
1772534759023071500,0.707071533203125,-8.938274928331374,-2.1194791484825313,-4.036220094397664
1772534759033088800,0.7170888671875,-9.177307556334137,-2.019503985775262,-3.610276655295491
1772534759043105500,0.72710546875,-9.29093802716732,-1.5807055951446294,-3.0205875921040772
1772534759053122600,0.73712255859375,-9.474983511963487,-1.2172278184361756,-2.699232654723525
1772534759063139600,0.7471396484375,-9.652361355563997,-0.39051337541118264,-1.4037792947039007
1772534759073156600,0.757156494140625,-8.803650184786319,0.46294805863350624,-0.40427550491243597
1772534759083173600,0.767173583984375,-6.634786973801255,1.0045205950401723,-0.004739741872996092
1772534759093190700,0.777190673828125,-3.865720904394984,1.356267894205451,-0.21392916640639303
1772534759103207700,0.787207763671875,-1.017425815451145,1.3913289784535765,-0.5950929680615663
1772534759113224700,0.797224609375,1.4648054258137941,1.2948824282638727,-1.1491584908165038
1772534759123241700,0.80724169921875,2.5019734680891035,0.9554717558413743,-2.0443689624406396
1772534759133258500,0.817258544921875,2.207501276937127,0.43452612013891334,-2.6493893041461702
1772534759143275800,0.82727587890625,1.5208184049367903,-0.1406114167392254,-1.7247317887634037
1772534759153292500,0.83729248046875,1.2603034284442662,0.2743454950548708,0.43418446709439157
1772534759163309600,0.8473095703125,1.3768027327120302,1.0525371685817837,1.8023263389669357
1772534759173326800,0.857326904296875,1.4245821364969014,1.7030609319642185,2.282892910268903
1772534759183343600,0.867343505859375,2.22480312487185,1.8760054692924022,2.0597706758424636
1772534759193360600,0.877360595703125,2.9776930377513167,1.2763218124397098,1.5755825530424714
1772534759203377700,0.887377685546875,4.089614999976754,1.7628852860689161,1.26747185876891
1772534759213394700,0.897394775390625,5.177274043083191,1.9477663449063896,0.2523259709484875
1772534759223411500,0.907411376953125,5.787194577920436,1.0724741873256862,-0.06967632442489266
1772534759233428700,0.9174287109375,6.118091250628233,1.0371763717122375,0.3810058346144855
1772534759243445800,0.92744580078125,6.274177299875021,1.2394245988056063,1.2158302265979348
1772534759253462500,0.937462646484375,6.442354768931866,1.0845568393073974,1.6817627078697084
1772534759263479800,0.947479736328125,6.701862614208459,0.8427232554744929,1.6718673367992043
1772534759273496600,0.95749658203125,7.152463524705171,0.5173102748747914,1.8389616867944598
1772534759283513600,0.967513671875,7.46681355175972,0.47876931262165306,1.6304288264736533
1772534759293530600,0.977530517578125,7.46636346990466,0.3913097864858806,1.4987719928234815
1772534759303547600,0.987547607421875,7.291845107388496,0.2322084445385262,1.626113593623042
1772534759313564400,0.997564453125,7.272357732108235,-0.028180932812951504,1.5974240902334451
1772534759323581700,1.007581787109375,7.134746666228771,-0.26251466240976007,1.4322335280328988
1772534759333598700,1.0175986328125,7.153442598870396,-0.2292594220072031,1.161210601529479
1772534759343615500,1.027615478515625,7.163781037533282,-0.054187663391977545,0.9788082077652215
1772534759353632800,1.0376328125,7.180857260018587,0.02249981843661517,0.848217834302783
1772534759363649500,1.0476494140625,7.228579380658268,-0.011028868612460791,0.6335245516560971
1772534759373666600,1.05766650390625,7.492763985574245,-0.05291095798704773,0.40362909676767883
1772534759383682800,1.067682861328125,7.530935603058338,-0.002782433792762458,0.31019294390771535
1772534759393699600,1.077699462890625,7.496095760345458,-0.30055271664205935,0.1419827416250482
1772534759403716600,1.087716552734375,7.5946671937346455,-0.6469514578536153,-0.020880802400037646
1772534759413733600,1.097733642578125,7.420697112751006,-0.6012312516208738,0.054408265606407075
1772534759423750700,1.107750732421875,7.2020982009679075,-0.4150248624637723,0.32957042907271533
1772534759433767700,1.117767578125,6.991876072385907,-0.24492577769458293,0.5372173368718475
1772534759443784700,1.12778466796875,6.831296218851208,0.038132089191302655,0.8006586491398513
1772534759453801700,1.1378017578125,6.475974129939079,0.4695018641911447,1.2710542473003268
1772534759463818500,1.147818603515625,5.957360590445995,0.3670993282064795,1.342188807709515
1772534759473835800,1.157835693359375,4.963389300340414,0.29093356869705017,0.8823942446708679
1772534759483852500,1.1678525390625,3.654865738606453,0.23411672584526239,0.15859901844840496
1772534759493869600,1.17786962890625,2.2267203566700218,0.16272249158658086,-0.41732331213187424
1772534759503886600,1.187886474609375,1.0039859036415815,-0.31383155613839625,-0.3420265540093183
1772534759513903600,1.197903564453125,0.027494156125187873,-0.6854832869522273,0.21669019208494572
1772534759523920600,1.207920654296875,-1.0395727653294802,-0.5546057671114802,0.9232545897822827
1772534759533937700,1.217937744140625,-2.7609429687052964,-1.1307079112380742,1.9534049353152512
1772534759543954700,1.22795458984375,-3.685558983033895,-1.756698560258001,1.7479381845667956
1772534759553971500,1.237971435546875,-4.931837977778911,-1.6187671763829885,-0.22385685057761145
1772534759563988700,1.24798876953125,-6.24534575766623,-1.428685772423446,-2.281770628240704
1772534759574005500,1.258005615234375,-8.371969663336873,-1.8490549185246228,-3.3442025833711027
1772534759584022500,1.2680224609375,-10.723381398558615,-3.1080139466226098,-3.3326451243072746
1772534759594039600,1.27803955078125,-12.344267612922192,-3.6721155640929934,-2.7223221461489797
1772534759604056600,1.288056640625,-13.051910855364799,-3.509614971628785,-1.6368202810764312
1772534759614073600,1.298073486328125,-12.898162893676757,-2.7547826925098895,-0.7655475882701576
1772534759624090600,1.308090576171875,-12.465873884940146,-1.8517983720138669,-0.4012731082260608
1772534759634107600,1.318107666015625,-12.031765844082832,-1.124258881229162,-0.5166700772751123
1772534759644124700,1.328124755859375,-11.246531996959447,-0.32432387018874287,-0.7491988032765686
1772534759654141700,1.3381416015625,-10.501890856987238,0.4913296651177108,-0.5890615058775991
1772534759664158500,1.348158447265625,-9.794960146728158,1.241687575301528,-0.0024310265392065047
1772534759674175700,1.35817578125,-9.121313281911611,1.7363430238410829,0.5290880986910313
1772534759684192800,1.36819287109375,-8.777111721950769,1.6831947864994405,1.095100737414509
1772534759694209500,1.37820947265625,-9.176136758989095,1.3035919505506752,1.2081490244455635
1772534759704226800,1.388226806640625,-10.095060114634036,0.42412820637375115,0.3487668220497668
1772534759714243600,1.39824365234375,-10.689030216145515,-0.6974927275672554,-0.9299887934081256
1772534759724260600,1.408260498046875,-10.863708737659454,-1.482197728510946,-2.326220449211448
1772534759734277600,1.418277587890625,-11.012759481441973,-1.8882285526581108,-2.943773817014694
1772534759744294700,1.428294677734375,-10.687127012872695,-1.9533260248601436,-2.8320465494543314
1772534759754311700,1.438311767578125,-9.461578086945414,-1.9251509007334708,-2.3170677132017907
1772534759764328700,1.44832861328125,-7.726993597209453,-1.288171094056964,-2.1275486193001267
1772534759774345700,1.458345703125,-5.525687667781114,-1.1315214195780456,-2.164906582313776
1772534759784361700,1.46836181640625,-3.252750918859243,-0.6532976120099425,-1.9805930942311882
1772534759794378500,1.47837841796875,-1.7276812862187623,-0.4377946204155683,-1.2309306189656257
1772534759804395500,1.4883955078125,-0.8871481611996889,-0.5600915050461888,-0.2077118993267417
1772534759814412300,1.498412353515625,0.2343915241986513,-0.7205714784029871,0.37839039141908287
1772534759824429300,1.50842919921875,1.555211672925949,-0.9092932113818823,0.5638720464982092
1772534759834446300,1.5184462890625,2.40690215177536,-1.0430750743620096,0.7813345015972852
1772534759844463400,1.52846337890625,2.946138792580366,-1.1600555132102222,1.0942109489679337
1772534759854480400,1.53848046875,3.6008225982517,-1.095677441323921,1.2339688176177441
1772534759864497400,1.548497314453125,4.230285453426838,-0.9844719326153397,1.4841263584859667
1772534759874514400,1.558514404296875,4.838810149991512,-0.8060094355832785,1.6691678685821592
1772534759884531200,1.56853125,5.480433398559689,-0.6491945606052875,1.8453721383586525
1772534759894548500,1.578548583984375,6.2510150354743,-0.705049207361415,2.049505594676733
1772534759904565200,1.588565185546875,6.952143781456351,-0.6568382072262465,2.233340943853557
1772534759914582300,1.598582275390625,7.5580650175243616,-0.6289012757696211,2.5813456954896448
1772534759924599300,1.608599365234375,7.9291767962425945,-0.7551946826905012,2.6393051325052976
1772534759934616300,1.6186162109375,8.42210819746852,-0.8163914211269467,2.5374372879192233
1772534759944633300,1.62863330078125,9.158348004320263,-0.7136212939389049,2.48655670324862
1772534759954650400,1.638650390625,9.51634311183393,-0.5457125953534617,1.8312816536858676
1772534759964667400,1.64866748046875,8.805833958566188,-1.2078723263960331,0.5784445425342768
1772534759974684200,1.65868408203125,8.603502875494957,-2.3825099071882665,0.4012223278868943
1772534759984701400,1.668701416015625,8.630881880807877,-2.399921791368723,-0.2539956577263772
1772534759994718200,1.67871826171875,8.75868408485651,-2.0763512237653137,-0.4465483837028965
1772534760004735200,1.6887353515625,9.024847296369074,-1.9439859495848417,-0.3014278189761564
1772534760014752500,1.69875244140625,9.14190248095393,-1.851555503168702,-0.34953305718190963
1772534760024769300,1.708769287109375,9.15525880613327,-1.8358257268562912,-0.2657664307473227
1772534760034786300,1.718786376953125,8.939847876736522,-1.6960951846048236,-0.31620603018477556
1772534760044803300,1.72880322265625,8.535264036527275,-1.541709947926551,-0.551278960776329
1772534760054820400,1.7388203125,8.305210249271989,-1.4563450559824704,-0.5078078851772472
1772534760064837400,1.74883740234375,8.388573592135309,-1.2746920192807911,-0.320098507578671
1772534760074854400,1.7588544921875,8.210909917330742,-0.8516332687694579,-0.11558973340848461
1772534760084871200,1.76887109375,7.8580866594970225,-0.5427713908024132,0.10580609735045582
1772534760094888400,1.778888427734375,7.3498168193638325,-0.527451473932527,0.35157826274130494
1772534760104905500,1.788905517578125,6.694360275754332,-0.4677657976461574,0.3990927685122937
1772534760114922200,1.798922119140625,6.104605161589384,-0.5147472925189882,0.4153018162416294
1772534760124939500,1.808939453125,5.649479467144608,-0.5710077435970307,0.46173612556047733
1772534760134956300,1.818956298828125,5.067245396134257,-0.298208382005617,0.07888838940635323
1772534760144973300,1.828973388671875,4.299441407239437,-0.46375415085200217,-0.12268098857738077
1772534760154990300,1.838990234375,3.4431472339868545,-0.801449434191361,-0.08032503461334854
1772534760165006300,1.84900634765625,1.9491466933488846,-0.891553118160367,-0.17693590851929036
1772534760175023400,1.8590234375,-0.22170038492977617,-1.1824483276084066,0.5596828877126798
1772534760185040100,1.8690400390625,-2.2215584438622,-1.5569383505880832,0.8971788490876554
1772534760195057400,1.879057373046875,-4.449796803879738,-1.8582485710665582,0.7428988994147628
1772534760205074400,1.889074462890625,-6.529968754976988,-2.168398662213236,-0.31565223222691563
1772534760215091200,1.89909130859375,-7.957983204010128,-3.307207900711894,-1.2013923897922039
1772534760225108500,1.9091083984375,-8.363659515631198,-3.5560511441111564,-1.2160144971236586
1772534760235125200,1.919125244140625,-8.6100974514544,-2.7064561762362715,-0.8190724038392305
1772534760245142500,1.929142578125,-8.815403750944137,-2.551997435930371,-0.924881168070808
1772534760255159300,1.9391591796875,-9.424345796138047,-1.8718826902739703,-1.7118075713910161
1772534760265176300,1.94917626953125,-10.926147365915774,-1.2661083153307437,-2.464581018283963
1772534760275193300,1.959193359375,-13.498981253647804,-0.9739946700036525,-2.7416946628779173
1772534760285210400,1.96921044921875,-15.705647248804569,-0.7762406855896115,-2.345330954003334
1772534760295227400,1.979227294921875,-16.75573380936384,-0.36853067618384955,-1.6987625041179357
1772534760305244400,1.989244384765625,-16.985666016066073,-0.15150792767629026,-1.1953221299678087
1772534760315261400,1.999261474609375,-15.632590195900201,0.40504356667548413,-0.9333668184738606
1772534760325278200,2.0092783203125,-13.588518316709994,1.2780842920675872,-0.6210609375327825
1772534760335295500,2.01929541015625,-11.638359231448172,2.3028119549646973,-0.33204978826567527
1772534760345312300,2.029312255859375,-9.677584059625863,3.39219358408004,-0.36092619252949953
1772534760355329300,2.039329345703125,-7.314414666593074,4.288977004109323,-0.973059434980154
1772534760365346300,2.04934619140625,-4.592795992538333,4.368927615919709,-1.5667758539915084
1772534760375363300,2.05936328125,-1.9116244796842337,4.182833089639246,-2.2351614372789856
1772534760385380400,2.06938037109375,0.23413608813285827,3.9480525661230086,-2.7815263225287197
1772534760395397400,2.0793974609375,1.4193383906245232,3.560654253992438,-2.906339573894441
1772534760405414400,2.089414306640625,1.2918828080564737,3.1126562194705008,-2.5073785420030354
1772534760415431200,2.09943115234375,0.26023615955114365,2.7588337214663623,-1.678301023108512
1772534760425448400,2.109448486328125,-0.8423913201063871,2.49164788890779,-0.804306211861968
1772534760435465200,2.11946533203125,-1.6811621116280555,1.8532538315191864,-0.1815010610103607
1772534760445482200,2.129482177734375,-1.581566011366248,0.6878792421780526,-0.05838190021142363
1772534760455499500,2.13949951171875,-0.8452917177230119,-0.3343813730183989,-0.24060104636326432
1772534760465516300,2.149516357421875,-0.012179098093509673,-1.1807985145747661,-0.11812369059920311
1772534760475533300,2.159533203125,0.4087047195315361,-1.5559583996400237,0.6234973708994687
1772534760485550300,2.16955029296875,1.0673621050089597,-1.4797183327853678,1.2628802931949497
1772534760495567400,2.1795673828125,1.7407289838403461,-1.3639372597895563,1.535521176289022
1772534760505584000,2.189584228515625,2.511329325455427,-1.1056260769516228,1.7489442928694188
1772534760515601400,2.199601318359375,3.9431349834650753,-0.8069382408659904,1.649125928159058
1772534760525618400,2.209618408203125,5.440025400325656,-0.7967644181802869,1.7590442466013132
1772534760535635200,2.21963525390625,6.375656145143509,-0.9239205794103443,1.7328053512342274
1772534760545651500,2.2296513671875,6.790511788520217,-1.4076168270401657,1.7656325389504433
1772534760555668500,2.23966845703125,7.1141299946576355,-1.6957541160821914,1.8213688930891454
1772534760565685200,2.249685302734375,7.035658515489101,-1.8267481019094585,1.9195513271607458
1772534760575702500,2.25970263671875,6.437286964148282,-2.000933725339919,2.6388115037694573
1772534760585719300,2.26971923828125,6.443318645527959,-1.9578348805867134,2.5912492498666047
1772534760595736300,2.279736328125,7.070413018006086,-2.0901890488512813,2.06645892143473
1772534760605753300,2.28975341796875,7.631479213303327,-2.112908391790092,1.6144691869281231
1772534760615770400,2.299770263671875,8.022885592031479,-1.9233634327948093,1.2179049870453775
1772534760625787100,2.309787109375,8.301601995646953,-1.9803427727319298,0.9814949626311659
1772534760635804400,2.319804443359375,8.757004168945551,-1.9679073617897926,0.8967796206369996
1772534760645821400,2.329821533203125,9.094861912837624,-1.947429952558875,0.9333930488936603
1772534760655838200,2.339838134765625,9.012242081817984,-2.057648715252429,1.1138545377232134
1772534760665855500,2.34985546875,8.864290823709965,-1.9767573154605924,1.3610457761317492
1772534760675872300,2.359872314453125,8.56403537298143,-2.025372439417243,1.5837242123134434
1772534760685889300,2.36988916015625,8.074794058445095,-1.897553138103336,1.7528265411302446
1772534760695906300,2.37990625,7.673965771377087,-1.8517739682249723,1.9241750414386392
1772534760705923300,2.38992333984375,7.373386495521665,-1.8421845943637192,1.998361390633881
1772534760715940400,2.3999404296875,7.5283777352690695,-1.6297503426901996,1.9733058598324655
1772534760725957400,2.409957275390625,7.4802780134886495,-1.3777842910952864,1.8247291633024811
1772534760735974400,2.419974365234375,7.03508276142776,-1.2109616707134991,1.6597329546302555
1772534760745991200,2.4299912109375,6.0442047611623995,-1.024624787044525,1.5725962307080625
1772534760756008400,2.440008544921875,4.847697220802307,-0.8431829088754952,1.5396093223854899
1772534760766025200,2.450025146484375,3.116025988164544,-0.9138071086097508,1.0251354399804025
1772534760776042200,2.460042236328125,1.4181214160501956,-1.441205939039588,0.20759302218742667
1772534760786059300,2.470059326171875,0.027829671689867972,-1.982329708765447,-0.1293119510244578
1772534760796076300,2.480076171875,-1.702595360279083,-2.365627892100811,0.1179421234872192
1772534760806093600,2.490093505859375,-3.163070063412189,-2.7874495750978587,0.7998466021046042
1772534760816110600,2.500110595703125,-4.9926241626530885,-3.1433231604129075,1.7255191397488117
1772534760826127600,2.510127685546875,-7.329825586214661,-3.0743659440428015,2.633429518470168
1772534760836144600,2.52014453125,-9.656919457259773,-2.326443590442836,2.6897031943559644
1772534760846161700,2.53016162109375,-11.735693816518783,-1.009849754173681,1.0996223064921795
1772534760856178400,2.540178466796875,-13.797061698424816,-0.5435920595355331,-0.723798404560238
1772534760866195700,2.55019580078125,-15.212272195464372,-0.2711369082719087,-2.0309119533658024
1772534760876212500,2.56021240234375,-15.682122580832242,-0.5665834974139928,-2.783314667250216
1772534760886229500,2.5702294921875,-16.013269428908824,-1.0361344614438712,-3.9220942412629722
1772534760896246800,2.580246826171875,-16.136697071135043,-1.6669108834356068,-4.833102878260612
1772534760906263600,2.590263671875,-15.4362422788918,-1.8702565503768622,-5.062492648649215
1772534760916280600,2.600280517578125,-14.268894782042503,-1.354435271950811,-4.779037526074052
1772534760926296600,2.610296630859375,-13.205857554495333,-0.07246975453570485,-4.213830285449326
1772534760936313600,2.620313720703125,-12.042857731461524,1.4553262343287467,-3.1976565158858894
1772534760946330600,2.63033056640625,-11.403893472969532,2.673748669376969,-1.3475282690413295
1772534760956347600,2.64034765625,-10.7470218018651,3.516015486320853,0.2764088573254645
1772534760966364700,2.65036474609375,-9.296465850678086,4.0926042449206115,0.9653633275195955
1772534760976381400,2.66038134765625,-7.30125707885623,4.487384483996033,0.5360819761663675
1772534760986398700,2.670398681640625,-5.596390266513824,4.562671487909555,-0.2974433159172535
1772534760996415500,2.68041552734375,-3.989184202456474,4.184409837436676,-1.4570174022860825
1772534761006432500,2.6904326171875,-2.1769722831606866,3.3102260794892904,-2.371136426389217
1772534761016449800,2.70044970703125,-0.46832302967011924,2.5566554908692836,-3.1001608950346706
1772534761026466600,2.710466552734375,0.6359598159790039,1.6441146758683025,-3.0564155690714716
1772534761036483600,2.720483642578125,0.8203010688513517,1.2392882590748369,-1.9112484859786927
1772534761046500600,2.73050048828125,0.2096177329480648,1.2104055712006985,-0.5899686107851565
1772534761056517600,2.740517578125,-0.16353519620895385,1.1710925285965204,0.7545717284865677
1772534761066534400,2.750534423828125,0.36829146060049534,1.3883071464143693,1.733601323917508
1772534761076551700,2.7605517578125,1.4678554610341787,1.4091273777335882,2.2272356127157806
1772534761086568700,2.770568603515625,2.8237895932406185,1.369904497630894,2.1275103331163523
1772534761096585500,2.78058544921875,4.157683743074536,1.1570648800268768,1.718815842717886
1772534761106602800,2.790602783203125,5.351097993594408,0.8699691359270364,1.3215727206602692
1772534761116619500,2.80061962890625,6.132567519748211,0.5414971696155145,0.9905087285615504
1772534761126636500,2.810636474609375,5.9392018334209915,0.3725979986879974,1.146960980772227
1772534761136653600,2.820653564453125,5.964043429210782,0.14513309541475028,1.7747670086510479
1772534761146670600,2.830670654296875,6.493688650327921,-0.057585361272562294,1.5932535265505312
1772534761156687600,2.8406875,6.70001494051516,-0.3781780273100361,1.222134368243441
1772534761166704600,2.85070458984375,6.8139914483070365,-0.4835544645389542,1.0266318160180001
1772534761176721700,2.8607216796875,7.028567680445313,-0.6235977625340223,0.6915854032196104
1772534761186738400,2.870738525390625,7.225232408317923,-0.9213889420408755,0.34733291678912936
1772534761196755700,2.880755615234375,7.386032626605034,-1.1036449861370026,-0.013748100975900887
1772534761206772500,2.8907724609375,7.48458535529375,-1.3362217159986496,-0.2557180976048112
1772534761216789500,2.90078955078125,7.701575662836432,-1.6032435901671647,-0.4705873213402927
1772534761226806500,2.910806640625,8.071800137326122,-1.716892035048455,-0.7013548098228871
1772534761236823600,2.920823486328125,8.256533604386448,-1.8090733290091157,-0.9221769506134092
1772534761246840600,2.930840576171875,8.489777712115645,-2.0566746095232666,-1.0843392510339618
1772534761256857600,2.940857666015625,8.703465470981598,-2.1233255947776137,-1.0037651735629887
1772534761266874600,2.95087451171875,8.69650498431921,-2.1533950082182884,-0.936714156140387
1772534761276891600,2.9608916015625,8.536721249598264,-2.1923042923271656,-0.7021044591464102
1772534761286908700,2.97090869140625,8.505145377117396,-2.0965084611311555,-0.1875909023180604
1772534761296925400,2.980925537109375,8.349201366689801,-1.8771544931970536,0.2950652982069179
1772534761306941400,2.99094140625,8.315513032099604,-1.6146563800632954,0.6728617788534611
1772534761316958700,3.000958740234375,8.193508700674771,-1.2688554220817982,0.8949569352544844
1772534761326975500,3.0109755859375,7.784432809743285,-1.051025887235999,1.0172457096438854
1772534761336992500,3.020992431640625,7.327106974905729,-1.0284298784159123,0.8293219951748847
1772534761347009500,3.031009521484375,6.887948664921522,-1.225143706127256,0.5662267198655754
1772534761357026600,3.041026611328125,6.214578863480686,-1.4547966574966906,0.6205416628990322
1772534761367043600,3.051043701171875,5.475573683568835,-1.111854742208123,0.8555969847686589
1772534761377060600,3.061060546875,4.741101470911502,-0.8139563029345125,1.070230061660707
1772534761387077600,3.07107763671875,4.196080986008048,-0.7463061505749822,0.734378835285455
1772534761397094400,3.081094482421875,3.1165000354170798,-0.7598239499263465,0.18467786441557107
1772534761407111700,3.091111572265625,0.7849825027108192,-0.7966909145526587,-0.36503019378222523
1772534761417128400,3.10112841796875,-1.7768834162831306,-1.2233849528264253,-1.1655366480350493
1772534761427145500,3.1111455078125,-4.405283123892546,-1.8724886933431029,-2.3031762582324444
1772534761437162800,3.121162841796875,-7.057098778402805,-2.1366268287688492,-1.9542646208845078
1772534761447179500,3.131179443359375,-9.871653510308265,-1.5686578683458268,0.3894629895754158
1772534761457196500,3.141196533203125,-12.373019075632095,-0.3648997723355889,1.2528751781396568
1772534761467213600,3.151213623046875,-15.661284375464914,0.9534037173956632,-0.18440131249651312
1772534761477230600,3.161230712890625,-17.936816401576994,0.7058326858893036,-2.1014783584982157
1772534761487247600,3.17124755859375,-17.458142073762417,-0.5818880340516567,-3.8429391637444494
1772534761497264600,3.1812646484375,-15.670816758441925,-1.8701367233894763,-5.174796254792809
1772534761507281700,3.19128173828125,-14.18866564555168,-3.3575881346449252,-5.769294764092564
1772534761517298700,3.201298583984375,-13.516334539508819,-4.453981396088004,-5.24668952461481
1772534761527315700,3.211315673828125,-13.404156605571508,-4.320097241777181,-4.442267577418685
1772534761537332500,3.22133251953125,-13.653704197847842,-2.973127337270975,-3.652669397605955
1772534761547349800,3.231349853515625,-13.919100516641139,-1.2382226756699382,-2.942820461812615
1772534761557366500,3.241366455078125,-13.909889620703458,0.014129793769866228,-2.429299277022481
1772534761567383600,3.251383544921875,-13.414118027615546,0.7710910477414726,-1.4189242568656801
1772534761577400600,3.261400634765625,-11.444940938150882,2.0545006264850496,-0.8986728870376944
1772534761587417600,3.27141748046875,-8.595088682892918,2.479216277357936,-1.2362573669463395
1772534761597434600,3.2814345703125,-5.901430613431335,2.091990106923878,-1.9917729521542786
1772534761607451600,3.29145166015625,-3.117210229513049,1.3763834843866527,-3.0752967951521275
1772534761617468700,3.30146875,-0.8300146536141634,0.25085911326631904,-4.059174853527546
1772534761627485400,3.3114853515625,-0.4496387874662876,-0.6115548580408096,-3.3210534707129
1772534761637502700,3.321502685546875,-1.1919757421493529,-0.827690083124116,-0.858862416305393
1772534761647519500,3.33151953125,-1.4387304888367651,-0.895932063896954,0.8776704310193657
1772534761657536500,3.34153662109375,-1.096433301192522,-0.5586459093477577,1.8264950039312242
1772534761667553500,3.351553466796875,0.04540215325951576,0.1545238779639825,2.3443360977470875
1772534761677569500,3.361569580078125,1.2665361853539943,0.8585603646188974,2.48861685064882
1772534761687586600,3.371586669921875,2.185613270255923,1.1627732477363197,2.46774766562134
1772534761697603600,3.381603515625,3.067994070923328,1.2777449771106242,1.810119038669765
1772534761707620600,3.39162060546875,4.646670206066966,0.8450462185293436,1.1264271651789546
1772534761717637600,3.4016376953125,5.868795002764463,0.8033588480092585,0.724292617817968
1772534761727654700,3.411654541015625,6.607251316621899,0.4578701708473265,0.6263669349864125
1772534761737671700,3.421671630859375,7.161278114801645,-0.33688122701011597,0.4843438248183578
1772534761747688400,3.4316884765625,7.269245153045654,-0.7351643596399575,0.5806932713091373
1772534761757705700,3.441705810546875,7.810262832048535,-0.9657768767565488,0.596977174372971
1772534761767722500,3.451722412109375,9.02144420992732,-1.1119998497672379,-0.04633483099974692
1772534761777739500,3.461739501953125,9.455591413751243,-1.7813421492576598,-0.6064736457863822
1772534761787756800,3.4717568359375,9.19567615671754,-2.4033437286414205,-0.9748119777359068
1772534761797773600,3.481773681640625,9.339188555595278,-2.3715914766803383,-1.3435115807458757
1772534761807791400,3.491791259765625,9.441261275103688,-2.8591479068696497,-1.7008691210083662
1772534761817808400,3.501808349609375,9.41557621422708,-3.1418934198707342,-1.9976881675474345
1772534761827825400,3.511825439453125,8.898138732776046,-2.747169002635777,-1.7909516891241073
1772534761837842200,3.52184228515625,8.446813015136122,-2.7833970848366616,-1.2813416864283382
1772534761847859500,3.531859375,8.209181486102938,-2.801774745309353,-1.0032783398941159
1772534761857876200,3.541876220703125,8.0417744168967,-2.818092842903733,-0.6960001509219408
1772534761867893500,3.5518935546875,7.891569242382049,-2.7659032214611767,-0.3102587026203051
1772534761877910300,3.56191015625,7.891826432013511,-2.677008840216696,-0.06051308072095271
1772534761887927300,3.57192724609375,7.886805973502993,-2.521705758041143,0.15205367019185795
1772534761897944600,3.581944580078125,7.677216297605633,-2.4275863356247545,0.23711576153077185
1772534761907961300,3.59196142578125,7.583463078153133,-2.364368831950426,0.20875945388460532
1772534761917978400,3.601978271484375,7.468888019946217,-2.0850841269277036,0.4816367212841287
1772534761927995400,3.611995361328125,6.7370730437994,-1.6680403258569538,1.0169945113617926
1772534761938012400,3.622012451171875,6.241059458649158,-1.1076471344504504,1.261685092061013
1772534761948029200,3.632029296875,5.739427449095249,-0.938334012427181,1.1755172862362115
1772534761958046500,3.64204638671875,4.777185760727525,-1.0639436748676,0.8743974006980657
1772534761968063200,3.652063232421875,3.244690946522355,-1.348518595252931,0.5514483990591019
1772534761978080300,3.662080322265625,1.287549747288227,-1.849810120806098,0.5911437189791351
1772534761988097500,3.67209765625,-0.7003659449160099,-2.3050477511927485,1.0936540457375348
1772534761998114300,3.6821142578125,-2.9602883139640093,-2.0712432331018147,1.8044629126042127
1772534762008131300,3.69213134765625,-5.50635460627973,-1.4470438514128328,2.4712574273079633
1772534762018148400,3.7021484375,-6.989533308652043,-0.5591709561351687,2.814323845759034
1772534762028165400,3.712165283203125,-8.915136044806241,-0.569182500931248,2.7712808228462933
1772534762038181400,3.722181396484375,-11.591363671517371,-0.986301924521476,1.4856269723072648
1772534762048198100,3.7321982421875,-13.000573466837405,-0.12257036780975758,-0.3469166641384363
1772534762058215400,3.74221533203125,-12.54334174002409,0.6506416176084429,-1.7909758006520569
1772534762068232200,3.752232177734375,-12.452259201085567,0.2204468046721071,-2.3679975438416
1772534762078249500,3.76224951171875,-12.714439480441808,-0.9666112086888402,-2.2438882029615344
1772534762088266500,3.7722666015625,-12.819822931933402,-1.7351080752186476,-2.651863000783324
1772534762098283300,3.782283203125,-13.389500303709506,-2.1785127906009554,-2.2334198543086647
1772534762108300500,3.792300537109375,-14.148137235808372,-1.814219021334499,-1.3434298938117921
1772534762118317300,3.8023173828125,-14.467475572669505,-1.1189954077430069,-0.4070853016361594
1772534762128334300,3.812334228515625,-14.043297389674185,-0.7019235496215522,0.6310493937142193
1772534762138351400,3.822351318359375,-12.456648960477112,0.10927234868891536,1.6295922295190393
1772534762148368400,3.832368408203125,-9.703433955675363,1.2762968241289256,1.7778268346130848
1772534762158385200,3.84238525390625,-6.555425267794728,2.344672490094602,1.0733955399543047
1772534762168402400,3.85240234375,-4.306740332075953,2.9088801982879637,0.20245470945090055
1772534762178419500,3.86241943359375,-2.926792287075519,2.539333769190311,-0.6943629781741648
1772534762188436200,3.872436279296875,-2.070350229784846,1.8395432860746979,-1.745222495867312
1772534762198453500,3.88245361328125,-1.9096178160369395,1.4269745845913886,-1.3361492352843283
1772534762208470300,3.89247021484375,-2.502256376683712,0.9656947514310479,-0.14173749815970657
1772534762218487300,3.9024873046875,-2.6738579749703404,0.39299766650758683,0.39803675665333865
1772534762228504300,3.91250439453125,-1.6835680037260055,0.22030940549541264,0.18389051343016324
1772534762238521300,3.922521240234375,-0.20784838518798351,0.022586364208906886,-0.673651248730719
1772534762248538400,3.932538330078125,2.0447820732861755,-0.3319865503037348,-1.6632146592661738
1772534762258555400,3.942555419921875,4.282565675762296,-0.12150564292138441,-2.24347582276836
1772534762268572400,3.952572509765625,5.6677393464565275,0.028171932089165783,-2.2407310541048644
1772534762278589200,3.962589111328125,6.262659296038747,0.1412215297278948,-1.8241094239689408
1772534762288606500,3.9726064453125,6.218135679179429,0.3884558218268677,-0.6673885350741445
1772534762298623200,3.982623291015625,6.338628436997532,0.44256472089421,0.3465384784758091
1772534762308640300,3.99264013671875,6.4299874547898765,0.24440935260504482,0.34075887216106054
1772534762318657300,4.0026572265625,6.9545660401672125,-0.18342413802742957,0.4356741576628759
1772534762328674300,4.01267431640625,7.329405314975976,-0.5600135444391519,0.25294079664489255
1772534762338691300,4.02269140625,7.761085251903533,-1.0389077986147255,-0.05454382901904173
1772534762348708400,4.032708251953125,7.975651547169685,-1.4667910466730594,-0.60547889912799
1772534762358725400,4.042725341796875,8.027873317316175,-1.758497280243039,-0.7407374835971743
1772534762368742100,4.0527421875,8.113943581050634,-1.770812279675901,-0.7565794881124049
1772534762378759400,4.062759521484375,8.134324105778337,-1.6820307111561297,-0.4940156162660569
1772534762388776200,4.072776123046875,7.976042007791995,-1.5205932178787886,0.14223343758364207
1772534762398792200,4.082792236328125,7.8047975523799655,-1.6121850215137004,0.4426962017867714
1772534762408809500,4.0928095703125,7.85391317320466,-1.9649194320201873,0.33235534708350895
1772534762418826200,4.102826171875,7.833038727480172,-2.2277876936405896,0.0395296536300797
1772534762428843300,4.11284326171875,7.734226471072435,-2.5534932274460793,-0.24644425596613437
1772534762438860500,4.122860595703125,7.589314726790786,-2.7608903617352247,-0.2816576812317595
1772534762448877300,4.132877197265625,7.5571724525988095,-2.697743877470493,-0.1466519207461737
1772534762458894300,4.142894287109375,7.312252520123124,-2.59882932973206,0.1974560974460095
1772534762468911400,4.152911376953125,7.210021979704499,-2.518465168684721,0.40296902542375024
1772534762478928400,4.162928466796875,7.211447044071555,-2.4170921218782664,0.5877988289980217
1772534762488945200,4.172945068359375,7.241082303878665,-2.270395540006459,0.8783010570731014
1772534762498962400,4.18296240234375,7.176901800391078,-2.097291574332863,0.9217726075962185
1772534762508979200,4.192979248046875,7.066667401736974,-2.1681933488994836,0.9496968257017433
1772534762518996200,4.202996337890625,6.352919997200369,-2.163345324346423,1.1617601251710206
1772534762529013500,4.213013427734375,5.64354656996429,-2.0639728037074208,1.1129966787848622
1772534762539030300,4.2230302734375,5.224743065744638,-1.970869280335307,0.8338442218396812
1772534762549047300,4.23304736328125,4.735355620735883,-2.1983470796227453,0.7451802152849734
1772534762559064300,4.243064208984375,3.8775761773616075,-2.197497769317031,0.8550107823785394
1772534762569081300,4.253081298828125,2.7036101391553875,-1.8054308808535335,1.0255888097710908
1772534762579098000,4.26309814453125,1.2233166368305683,-1.7572651080995798,1.0688555584371089
1772534762589115400,4.273115478515625,-0.44407589264214037,-1.9919863026440143,0.7936791655160487
1772534762599132400,4.28313232421875,-2.6931717472493646,-1.5746809280276297,0.6837618699871003
1772534762609149400,4.2931494140625,-5.396307254630327,-1.1026678847331552,1.2394443264193833
1772534762619166500,4.30316650390625,-7.844220631229877,-1.2254978533271699,2.4976912607252597
1772534762629183200,4.313183349609375,-11.006254921853541,-1.8450924446344374,3.937065015901625
1772534762639200500,4.323200439453125,-15.957645156842469,-0.7786404402077197,4.1335187313720585
1772534762649217300,4.33321728515625,-19.708065026843546,0.5799370461143553,3.4584602461919185
1772534762659234300,4.343234375,-21.578803953909873,0.8031744313530623,2.150225438271463
1772534762669251300,4.353251220703125,-21.853629779827592,1.4153599885128438,-0.9091878513112663
1772534762679268400,4.363268310546875,-20.03361800043583,0.7221124972999096,-3.891583367665112
1772534762689285400,4.373285400390625,-17.258799066591262,-0.41430422003902495,-4.984212308138608
1772534762699302400,4.383302490234375,-14.820639022243022,-0.555561168140173,-4.411812817922234
1772534762709319400,4.3933193359375,-13.564557595407962,-0.2640454156409949,-2.97781754091382
1772534762719336200,4.403336181640625,-13.135855212986469,0.909910320366919,-2.05387065801844
1772534762729353500,4.413353515625,-12.19980770406127,2.497640699581802,-1.780855973175913
1772534762739369500,4.423369384765625,-11.044089854729174,3.335093101981282,-1.2835210762940346
1772534762749386200,4.43338623046875,-9.77195921036899,3.63029010027647,-0.6759720928937196
1772534762759403300,4.4434033203125,-8.32490396077931,4.0256922706425184,-0.1444149737406522
1772534762769420300,4.453420166015625,-6.0481853552311655,3.865900352615118,0.29054091611765326
1772534762779437300,4.463437255859375,-3.6994174125164747,3.243236071538925,0.14622582255490124
1772534762789454300,4.473454345703125,-1.8979910911291837,2.370337092705071,-0.6449307656809687
1772534762799471400,4.483471435546875,-0.5009451963335275,1.480962926018983,-1.5903469914540647
1772534762809488400,4.49348828125,0.6992062534868717,0.8331151769127696,-2.4685583974823353
1772534762819505400,4.50350537109375,0.8401303894370794,0.48297429003082215,-2.211895712503791
1772534762829522400,4.5135224609375,0.12608487873673438,0.7426133604716509,-0.44784693561345335
1772534762839539200,4.523539306640625,0.2675181332528591,1.0049619090668858,0.9063353844895958
1772534762849556500,4.533556396484375,0.9717144501119851,0.9624529930308461,1.2899530090376734
1772534762859573200,4.5435732421875,2.0274726265668868,0.891364609850943,1.0720867223780601
1772534762869590300,4.55359033203125,3.1603561282783743,0.9292980346649885,0.5981663841575384
1772534762879607600,4.563607666015625,4.210220570519566,0.8059001299899071,-0.058554480299353596
1772534762889624300,4.573624267578125,5.106394334217906,0.4049254201885313,-0.6809890442728996
1772534762899641300,4.583641357421875,5.786219595408439,0.012887136765010654,-1.179711596120894
1772534762909658400,4.593658447265625,6.296500190842151,-0.2822957234069705,-1.342241414679587
1772534762919675400,4.60367529296875,6.555106118842959,-0.5924958642404526,-1.2351646032735704
1772534762929692200,4.613692138671875,6.413420935392379,-0.7128028171628713,-0.6554692569606005
1772534762939709400,4.62370947265625,6.443314553874731,-0.8695840090669691,-0.021756945913750676
1772534762949726500,4.6337265625,6.932234381371736,-1.2787050543144345,-0.0474489845204167
1772534762959743200,4.6437431640625,7.438768776014447,-1.720725475731492,-0.8532304017677903
1772534762969760500,4.653760498046875,8.040083395069837,-2.3059420696839688,-1.6720234041437505
1772534762979777300,4.66377734375,8.416186406204105,-2.480872227871418,-2.0106547627568245
1772534762989794300,4.673794189453125,8.746398019257187,-2.413045769096911,-2.131280207043886
1772534762999811300,4.683811279296875,9.105720575982332,-2.1903554963469505,-2.1706885267160834
1772534763009828400,4.693828369140625,9.279690072444081,-2.1003294807240365,-2.05758602527976
1772534763019845000,4.70384521484375,9.304655002352595,-2.394953647567332,-1.9350024326622486
1772534763029862400,4.7138623046875,9.046467007502914,-2.6332921558260916,-1.542236748279631
1772534763039879400,4.72387939453125,8.917121665665507,-2.667368905211985,-1.0168999649461359
1772534763049896200,4.733896240234375,8.840235409861803,-2.6653935134857893,-0.5677005187451839
1772534763059913500,4.74391357421875,8.61298908124268,-2.6462854929119346,-0.2251834047399461
1772534763069930200,4.75393017578125,8.43307090550959,-2.5990976252794264,-0.11435315908454358
1772534763079947300,4.763947265625,8.296821191111206,-2.5609046727463602,-0.2797089948493987
1772534763089963500,4.773963623046875,8.111889571130275,-2.5891701055049894,-0.3620163989190012
1772534763099980300,4.783980224609375,7.776623597297072,-2.3348802871376275,-0.20528350313603877
1772534763109997300,4.793997314453125,7.372244924271106,-1.930599083136767,-0.04533734439499676
1772534763120014300,4.804014404296875,6.999621571946144,-1.633894456757605,0.15074834148064256
1772534763130031400,4.81403125,6.909681773301958,-1.6084233308926223,0.1762286735653877
1772534763140048400,4.82404833984375,6.880434051507711,-1.8609601681128143,-0.07738426845371722
1772534763150065400,4.8340654296875,6.506573266342282,-2.0110215502426025,-0.39198936624787745
1772534763160082400,4.84408251953125,5.327193386393785,-2.166848510161787,-0.49335854059681294
1772534763170099200,4.85409912109375,3.7029479247301813,-2.4073840900734065,-0.33195115019679067
1772534763180116500,4.864116455078125,1.8111720548540353,-2.330006543621421,-0.01703391771353781
1772534763190133200,4.87413330078125,-0.3584568798065185,-1.7735694694295525,0.6628245150942355
1772534763200150300,4.884150390625,-3.270321646863222,-0.27650775112267584,1.7148479620002208
1772534763210167300,4.894167236328125,-6.53175388482809,0.918160116187483,2.92602656340003
1772534763220184300,4.904184326171875,-8.941000553902983,0.8395949673861265,3.2963369626075028
1772534763230201300,4.914201416015625,-11.748314813160896,-0.21412286234758793,2.3785715448260305
1772534763240218400,4.92421826171875,-14.293928685534,-0.05370316781066358,-0.1023870278882794
1772534763250235400,4.9342353515625,-14.816872363185881,0.41221301991343495,-2.0112930606603623
1772534763260252200,4.944252197265625,-15.699365976577996,-0.3835206669796258,-1.9652219220981
1772534763270269400,4.95426953125,-17.29259729129672,-0.4644987221416086,-1.388318544591218
1772534763280286200,4.9642861328125,-18.167239606666563,-0.38008280148543416,-0.2831392250264063
1772534763290303200,4.97430322265625,-18.474440931010246,0.24256781639158725,1.8686644588798282
1772534763300320500,4.984320556640625,-18.495631018555162,1.1323483719214797,3.774415954877436
1772534763310337300,4.994337158203125,-17.782409099197388,1.8808285055346785,4.386426739992201
1772534763320354300,5.004354248046875,-16.799142742979527,2.9893872749373314,4.446832693377137
1772534763330371300,5.014371337890625,-15.876206060039996,3.9558980189263817,3.808798993733525
1772534763340388400,5.024388427734375,-14.321244562482834,3.7008798862844703,2.425593115980923
1772534763350405400,5.0344052734375,-11.701038682723045,3.047879795916378,0.4941386581238359
1772534763360422400,5.04442236328125,-8.736549409937858,2.2970450620010494,-1.2741536746203899
1772534763370439200,5.054439208984375,-6.208648304387927,1.0196419571306556,-2.257734649745375
1772534763380456400,5.06445654296875,-3.488001105713844,0.07433043384104966,-2.5429063669800755
1772534763390473500,5.074473388671875,-0.9133914404809474,-0.3427418626718223,-2.330139668481797
1772534763400490200,5.084490234375,0.3462058855205774,-0.7150257539093494,-0.9865810337238013
1772534763410506200,5.09450634765625,1.1713123088270425,-0.21600842036586254,0.9976314931135624
1772534763420523500,5.1045234375,1.8026637542277573,0.6233924492202699,2.021940419141948
1772534763430540300,5.114540283203125,1.9912772775918244,0.88897844536677,2.002110367903858
1772534763440557300,5.124557373046875,2.4734160666465757,0.6443433211818337,1.6330635588914155
1772534763450574300,5.13457421875,2.911054035195708,0.6103242202673107,1.1420393795263022
1772534763460591400,5.14459130859375,3.7965748874545096,0.6339256798028946,0.15963906555324792
1772534763470608100,5.154608154296875,4.883755207133293,0.54264206533432,-0.4678980822563171
1772534763480625400,5.16462548828125,5.669349704262614,0.7589939288429915,-0.784461547576636
1772534763490642400,5.174642333984375,6.269990369579196,0.9481404631052166,-0.9438353132572025
1772534763500659200,5.1846591796875,6.793852331119775,0.8270002742290496,-0.8415973201844841
1772534763510676500,5.194676513671875,7.416090495738387,0.6384500253595411,-1.0802340076722203
1772534763520693200,5.204693359375,7.997401022163033,0.40755562256164846,-1.2772332281962036
1772534763530710500,5.21471044921875,8.33077431411743,-0.18896093029594047,-1.265125880164653
1772534763540727300,5.224727294921875,8.68719705774784,-0.5223997069682925,-1.4159990170687435
1772534763550744300,5.234744384765625,9.15852336088717,-0.6453826011016964,-1.451007348216325
1772534763560761300,5.24476123046875,9.45720586321056,-0.6747850750662386,-1.4001339239388704
1772534763570778400,5.2547783203125,9.586728899702429,-0.5510693000810221,-0.7963777569502591
1772534763580795400,5.26479541015625,9.637868135309219,-0.2742765580045059,-0.26965960226096214
1772534763590812400,5.2748125,9.626486325073241,-0.028675840190425513,-0.10304404875859617
1772534763600829400,5.284829345703125,9.609754970502852,0.13962518218085168,0.024340368269383905
1772534763610846200,5.29484619140625,9.62367360574007,0.19934596631322055,-0.3107281832955777
1772534763620863500,5.304863525390625,9.474452181565761,-0.16957951787449418,-1.4177273021660743
1772534763630880300,5.31488037109375,9.449132446870207,-0.24979689086228607,-1.5278199542619286
1772534763640897300,5.324897216796875,9.282127528724073,-0.9537557457037269,-2.343722203632444
1772534763650914300,5.334914306640625,8.989951924076676,-1.5071607587233184,-2.856049940854311
1772534763660931300,5.344931396484375,8.622681623217463,-2.120879516799748,-3.3464532849073407
1772534763670948400,5.3549482421875,8.31650905739963,-2.422350919189304,-3.3972029366746543
1772534763680965400,5.36496533203125,8.273301199313998,-2.505798287074268,-3.35882001452744
1772534763690982400,5.374982421875,7.97381322582662,-2.336746081009507,-3.183260910786688
1772534763700999200,5.384999267578125,7.2975389351159325,-2.0616493291959164,-2.861743184059858
1772534763711016400,5.395016357421875,6.816196849396825,-2.2297800365015865,-2.677698868307471
1772534763721033200,5.405033203125,6.569196603515744,-2.5168372752219437,-2.9941423605099318
1772534763731050200,5.41505029296875,6.665981153488159,-2.2965780290111897,-3.426662839914858
1772534763741067500,5.425067626953125,6.71118573834896,-2.0334727437645195,-3.6905063763082024
1772534763751083300,5.435083251953125,5.737883142262697,-2.023693984811008,-3.7058857317477463
1772534763761100300,5.445100341796875,4.619516826203466,-1.8502841680586337,-3.5407875240057707
1772534763771117600,5.45511767578125,3.5643554465979337,-1.8871365196377037,-3.320091055421531
1772534763781134300,5.46513427734375,1.7559522719353435,-2.087495133592188,-3.0272920581787823
1772534763791151400,5.4751513671875,-0.3274661137372255,-1.877018445727229,-2.4226094239950178
1772534763801168400,5.48516845703125,-2.502006201314926,-1.5862803265370429,-1.5229389042221009
1772534763811185400,5.495185302734375,-4.15271589153409,-1.8696197137780486,-0.6447616927243769
1772534763821201400,5.505201416015625,-6.484999732437729,-2.331333700571954,-0.3891811038941145
1772534763831218400,5.515218505859375,-9.559569090098142,-2.453370765222609,-0.7954599114529788
1772534763841235500,5.5252353515625,-12.013051791262626,-3.4840590900897976,-2.221713196032494
1772534763851252200,5.535252197265625,-14.169473453825711,-4.53640365870893,-3.0943875723302363
1772534763861269500,5.54526953125,-16.29640131087899,-4.257680533091723,-2.7383400917530056
1772534763871286300,5.555286376953125,-18.964693468415735,-3.254297856040299,-1.8136046888284385
1772534763881303300,5.56530322265625,-21.155240687942502,-2.076033243857324,-1.121436371154338
1772534763891320600,5.575320556640625,-22.293075674581527,-1.0204214901357889,-0.19876001965142787
1772534763901337300,5.58533740234375,-22.989804724299905,0.3349934405021369,1.0403354202650488
1772534763911354400,5.595354248046875,-22.701439033329486,1.7166048886701464,2.0507349903412164
1772534763921371400,5.605371337890625,-20.95739171872139,2.2917016551464795,2.1576602644473315
1772534763931388400,5.615388427734375,-19.111514845710992,2.607412156899273,2.139043972913176
1772534763941405200,5.6254052734375,-17.432925799441335,3.0549516339987512,1.9127175356179476
1772534763951422500,5.63542236328125,-14.722011474752426,2.367925939910114,0.9022041299037635
1772534763961439500,5.645439453125,-11.452738460159301,1.2756167329102754,-0.06343582260012626
1772534763971456300,5.655456298828125,-8.69199013724327,1.0019292633727193,-0.19864501496963202
1772534763981473500,5.6654736328125,-6.149737850257754,1.0175247457809746,0.6581940788146108
1772534763991490300,5.675490234375,-3.2613644334256646,0.8758105554316192,0.8608012754134833
1772534764001507300,5.68550732421875,-0.9122978000253439,0.7514707667965441,0.3088824092984199
1772534764011524400,5.6955244140625,0.7166939793825149,0.9454090653799474,0.1238416298545897
1772534764021541400,5.705541259765625,1.9883990918070076,1.241556642398238,0.0816809427343309
1772534764031558400,5.715558349609375,2.7968390424728393,1.2500023991823195,-0.20592128958292305
1772534764041575400,5.725575439453125,3.980551398667693,0.8130508054621517,-0.50469870364815
1772534764051592400,5.735592529296875,5.051895266789198,0.5033092220511287,-0.7836049307473003
1772534764061609200,5.745609130859375,5.730253962558508,0.29188038456048815,-0.6636331280633807
1772534764071626500,5.75562646484375,6.0378387332618235,-0.013962994968751445,-0.07511296252086758
1772534764081643300,5.765643310546875,6.263701498568057,-0.1357166304349899,0.4518584728097543
1772534764091659300,5.7756591796875,6.59451166203618,-0.09013522988473996,0.7786071224600076
1772534764101676500,5.785676513671875,7.128299974307417,-0.291553856019862,0.843134685819596
1772534764111693300,5.795693359375,7.647312742251157,-0.4887393563635647,0.4594703725855797
1772534764121710300,5.80571044921875,8.100259923613072,-0.6193976074304431,0.04224091274961829
1772534764131727400,5.815727294921875,8.133203577315808,-0.7741767387971281,-0.28038079316373915
1772534764141744400,5.825744384765625,8.292913077756761,-1.1796746981766075,-0.29767752653192725
1772534764151761400,5.835761474609375,8.669022518631815,-1.4473559861019254,-0.36557252049800004
1772534764161778400,5.8457783203125,9.020584378227591,-1.5072934451922773,-0.3692013419870287
1772534764171795500,5.85579541015625,9.353095500394701,-1.6363015178993343,-0.3401819490559399
1772534764181812200,5.865812255859375,9.550985386148094,-1.7845593577384948,-0.47140806313864886
1772534764191829500,5.87582958984375,9.722429748046398,-1.9670028141655027,-0.6025349546305835
1772534764201846300,5.88584619140625,9.822031109005213,-2.1485572127982975,-0.8173674265522509
1772534764211863300,5.89586328125,9.676150227430462,-2.1326593864426013,-0.8610399064749479
1772534764221880300,5.90588037109375,9.232720231476426,-2.32404032869339,-1.0265059246160089
1772534764231897300,5.9158974609375,8.810501950377226,-2.5127646189555524,-0.745538088811934
1772534764241914400,5.925914306640625,8.640417186394334,-2.5396447348356244,-0.4406606773711741
1772534764251931400,5.935931396484375,8.337277704662084,-2.5313281573891637,-0.43752223321497435
1772534764261948400,5.945948486328125,7.96915166375637,-2.877856698992848,-0.5571821934707463
1772534764271965200,5.955965087890625,7.8131743355810634,-3.1464225877329706,-0.45825741659924385
1772534764281982500,5.965982421875,7.610684847077727,-3.0688942346334454,-0.25869755180701615
1772534764291999200,5.975999267578125,7.679070401039719,-3.1717513825178143,-0.029339930122345686
1772534764302016500,5.9860166015625,7.729790534451603,-3.1392230316177008,-0.12921798913069069
1772534764312033500,5.996033447265625,7.43301941870749,-3.1164617492333053,-0.41179530595801767
1772534764322050300,6.00605029296875,7.015024308261275,-3.0614886345520613,-0.6717188193634152
1772534764332067600,6.016067626953125,6.352613707730174,-2.7805536781042814,-0.9113352386035024
1772534764342084400,6.02608447265625,5.400765987604856,-2.490394966237247,-0.7789674802049994
1772534764352101400,6.036101318359375,4.0722523617655035,-2.091148541533202,-0.45727585821598765
1772534764362118400,6.046118408203125,2.840840681284666,-1.3696408782586456,-0.2660100667774677
1772534764372135400,6.056135498046875,1.4683365225493907,-1.0833009940274059,-0.4020633087556809
1772534764382152200,6.066152099609375,-0.21532851181030271,-0.9897704774148761,-0.5300843431867659
1772534764392169500,6.07616943359375,-2.636256850850582,-0.9537220626298337,-0.5703621391698718
1772534764402186500,6.0861865234375,-4.759040447705984,-1.5783261526621877,0.10164463028945028
1772534764412203300,6.096203369140625,-6.533177195629477,-1.4190378002427517,0.06063588968329131
1772534764422220500,6.106220458984375,-9.54469066991806,-1.3553370430961251,-0.3011782646618783
1772534764432237300,6.1162373046875,-12.772745538938045,-1.5337448142662644,-0.9628787441622465
1772534764442253300,6.12625341796875,-15.503060145145653,-0.9447943675477057,-2.7321804000794887
1772534764452270300,6.136270263671875,-17.821172252833843,0.4285131434597075,-3.1984578953966496
1772534764462287400,6.146287353515625,-20.34447609372139,1.5714058518797158,-2.536686469551921
1772534764472304400,6.156304443359375,-21.507536707031726,1.8317976403839884,-0.44553266732171176
1772534764482321400,6.1663212890625,-21.923950101244447,2.173721756932139,1.944605104396492
1772534764492338400,6.17633837890625,-21.704635150146483,2.76030174819231,3.2152038630142807
1772534764502355500,6.18635546875,-19.773358460009096,3.1666715950354933,2.7304943466886877
1772534764512372500,6.19637255859375,-16.828592124825715,3.1847876819625496,1.9552168070428073
1772534764522389500,6.206389404296875,-13.786509909272192,2.9261154107272622,0.8430906274821609
1772534764532406300,6.21640625,-10.854728143346309,2.7020351449236273,-1.0082051287718117
1772534764542423600,6.226423583984375,-8.05384304035306,2.5853639912202953,-3.039543636986613
1772534764552440300,6.2364404296875,-5.683337897604703,2.5101331014081834,-3.9713746972605586
1772534764562457300,6.246457275390625,-4.786473813554644,2.6804355997949836,-3.5652521031767126
1772534764572474400,6.256474365234375,-4.697108599928021,2.8654908461555837,-2.423307781522721
1772534764582491400,6.266491455078125,-4.481887055623531,2.830057421463728,-1.0921816350974143
1772534764592508400,6.27650830078125,-3.692773152196407,2.576569274868071,0.40529783369749783
1772534764602525400,6.286525390625,-2.020288268020749,1.8781528565846382,1.2026131637588142
1772534764612542500,6.29654248046875,0.4283458240687847,1.138109565796703,1.122451101154834
1772534764622559200,6.306559326171875,2.91688756365478,0.5443353156508878,0.9236100521564483
1772534764632576500,6.316576416015625,4.804443185487389,0.14474226946625857,0.7753703324958682
1772534764642593300,6.32659326171875,5.751918681877851,0.12667625049231573,0.905737272465974
1772534764652610300,6.3366103515625,5.9008718105047935,0.3290386968161911,0.7805316607818007
1772534764662627600,6.346627685546875,5.997548223927617,0.3024927447939291,1.1078948256012051
1772534764672644400,6.356644287109375,6.450003822380304,0.3523221399111673,1.143614154562354
1772534764682661400,6.366661376953125,6.821170546156168,0.3865091082058847,0.7653071305777878
1772534764692678400,6.376678466796875,6.997796110084653,0.2785035097834654,0.8363847731679678
1772534764702695400,6.3866953125,7.379946584689617,0.044309353054128586,0.5860403314255178
1772534764712712200,6.396712158203125,7.896269967418909,-0.30657566672600806,0.053406157625466584
1772534764722729500,6.4067294921875,8.252561778146028,-0.7509238735035061,-0.43654860240984705
1772534764732746200,6.416746337890625,8.624631003719568,-0.9309002091646194,-0.7608133262898773
1772534764742763300,6.42676318359375,9.127325674068928,-1.1461211689472197,-0.9483812130585312
1772534764752780500,6.436780517578125,9.533338085776567,-1.3622164273463189,-1.157010519491136
1772534764762797300,6.44679736328125,9.587167875641583,-1.4303532672442496,-1.106645702322945
1772534764772813300,6.456813232421875,9.407774016043543,-1.4317495439082384,-1.1492987030047923
1772534764782830600,6.46683056640625,9.33869814172983,-1.678733130915463,-1.2382822969026863
1772534764792847400,6.476847412109375,8.970879559338092,-1.8465743537552655,-1.3289479256033896
1772534764802864400,6.486864501953125,8.601342482590676,-2.0074897228546438,-1.4154653485834598
1772534764812882200,6.496882080078125,8.267781559109688,-2.278660679526627,-1.2359100148133932
1772534764822899200,6.506899169921875,8.026461112430692,-2.2855877023108304,-0.8255128121502697
1772534764832916000,6.516916015625,8.104628640216589,-1.904420831915736,-0.369988839102909
1772534764842933200,6.526933349609375,8.080057678061722,-1.5351210710555314,-0.03304170724973082
1772534764852950000,6.536949951171875,8.082855784347652,-1.2935412427879869,0.16249766985476016
1772534764862967000,6.546967041015625,8.019146990025042,-1.0659465391226113,0.1074734825734049
1772534764872984000,6.556984130859375,7.972457719564438,-0.8874795851111411,-0.08986804858222604
1772534764883001000,6.5670009765625,7.733519784107804,-0.8492583563316612,-0.2711433380126953
1772534764893018400,6.577018310546875,7.610124875107407,-0.7560070950519293,-0.29011531111672517
1772534764903035100,6.58703515625,7.340897015327215,-0.6062818130087108,-0.21446473458781837
1772534764913052200,6.59705224609375,6.920359234660864,-0.8413108313933014,-0.29679223159737883
1772534764923069200,6.607069091796875,6.519927253434061,-0.9192971573933958,-0.3286414411269128
1772534764933086200,6.617086181640625,5.856601876145601,-0.7243436904180794,-0.22004348456822334
1772534764943103000,6.62710302734375,4.868030399256944,-0.8412256373278796,-0.07969597946219145
1772534764953120300,6.637120361328125,4.03622827770412,-1.369395379064977,-0.10103862722031771
1772534764963137000,6.647136962890625,2.718643457636237,-1.8554288374707102,-0.3464363332755864
1772534764973154000,6.657154052734375,0.6210404792666435,-2.3880678335763514,-0.6877134571570903
1772534764983171300,6.66717138671875,-2.0641876155018806,-2.683805076228082,-0.6503511832945048
1772534764993188000,6.67718798828125,-4.451909265989065,-3.135785458384454,-0.6414161816887557
1772534765003205000,6.687205078125,-5.397074147349596,-4.134115528221428,-0.5843747363008558
1772534765013222100,6.69722216796875,-6.040831485337018,-5.0968210347086185,0.4958042532484978
1772534765023239200,6.7072392578125,-8.758743706089257,-5.444398208582401,1.799861264027655
1772534765033256000,6.717255859375,-12.415731259155272,-4.570417279730737,2.2223208065368234
1772534765043273200,6.727273193359375,-15.391457380747795,-3.410644602049887,2.0361526304982602
1772534765053290200,6.737290283203125,-17.625395998233557,-2.75904356482476,2.281904045362025
1772534765063307000,6.74730712890625,-18.66158496634364,-1.7392153644070028,2.5576453786894677
1772534765073324300,6.75732421875,-19.255916302382946,-0.5818433181270957,2.499794370484352
1772534765083341000,6.767341064453125,-19.419592952889204,0.3845239257380366,2.6048507819786666
1772534765093358000,6.777358154296875,-19.3100500436306,0.9991361255228519,3.048012190124392
1772534765103375000,6.787375,-17.930010228693483,1.043850442648679,3.339097076925635
1772534765113391000,6.79739111328125,-16.1650884683609,1.2295774507910013,3.4981232712775467
1772534765123408100,6.807408203125,-14.167260453951357,1.7306543106801806,3.730581197065115
1772534765133425200,6.817425048828125,-11.4616535880208,2.3233717817820607,3.8493864401876925
1772534765143442200,6.827442138671875,-8.681611951091885,2.6645968101501465,3.162890030670166
1772534765153459200,6.837459228515625,-6.081258188271522,2.1073738462775946,1.2101973352774977
1772534765163476200,6.847476318359375,-2.2425100464761254,3.010680530595779,-1.2668480277821421
1772534765173493200,6.8574931640625,-0.9013467824220657,3.975507559281587,-2.8987931040376425
1772534765183510000,6.867510009765625,0.3606967676877975,3.404041258262098,-2.7857383872658015
1772534765193527300,6.87752734375,1.9319810390144585,2.5333324829488992,-2.382536795195192
1772534765203544000,6.8875439453125,2.154959773316979,2.4065730659514664,-1.9692692977927624
1772534765213561000,6.89756103515625,-0.7256745736956596,0.9241519039481878,-1.8214847745537757
1772534765223578000,6.907578125,-2.4543203210324047,0.2398050736799836,-0.5208625605288892
1772534765233595100,6.91759521484375,-2.7502959024846554,0.0957930547170341,1.0875151045911013
1772534765243612200,6.927612060546875,-3.250451994267106,0.1751854481227696,1.3599988974273205
1772534765253629200,6.937629150390625,-1.833947950285673,-0.017619462516531348,1.8638862846925854
1772534765263646200,6.947646240234375,0.5992682079195976,-0.6634559448655695,2.1471134437307713
1772534765273663000,6.9576630859375,2.347634554770589,0.031149317631870507,1.6060111551843583
1772534765283680300,6.96768017578125,4.358585670125485,0.8307853457257152,0.671751990980655
1772534765293697000,6.977697021484375,6.312454131299257,1.0669552777737379,-0.12603176031000912
1772534765303714000,6.987714111328125,7.7716732814133165,0.7718389434993267,-0.17135861984360962
1772534765313731000,6.99773095703125,8.583254452714323,0.4074734241709113,0.1987185551298782
1772534765323748000,7.007748046875,8.520365742602944,0.5747965414207429,0.28652561606168747
1772534765333765000,7.01776513671875,7.962222741276025,0.3581071895860135,0.40251813985109325
1772534765343782100,7.0277822265625,7.673643699815869,0.10991371533237397,1.0106786062132567
1772534765353799200,7.037799072265625,7.757439588877558,-0.02336443590931594,1.833240240407735
1772534765363816000,7.04781591796875,7.356289230248332,-0.20771927891559896,2.6430145084172487
1772534765373833200,7.057833251953125,6.211766728669405,-0.734422162970528,2.8539640744909645
1772534765383850000,7.06785009765625,5.642504367434978,-0.76114628457129,2.478070906715095
1772534765393867000,7.077866943359375,5.570083274346589,-0.3170460612054914,1.5275094270080327
1772534765403884300,7.08788427734375,5.6092216910362245,0.08064904240332543,0.6373684406679123
1772534765413901000,7.097901123046875,6.336979500746726,0.3297216375790536,0.06184519240781664
1772534765423918300,7.10791845703125,7.005319491326809,0.7655543833371251,-0.23678766208756713
1772534765433934300,7.117934326171875,7.443788650003075,1.2019822454441338,-0.17809669592697172
1772534765443951000,7.127951171875,8.31826028498113,1.139277513597533,0.04784575615250505
1772534765453968100,7.137968017578125,8.695847397193312,0.9672557171374558,0.26511045105662195
1772534765463985200,7.147985107421875,8.835603073886036,0.4169397561743855,0.280007831665501
1772534765474002200,7.158002197265625,8.555741007366777,-0.16799641340151428,0.34857853293605146
1772534765484019000,7.16801904296875,7.4052540444254875,-1.0713403609901666,0.9634816054262221
1772534765494036200,7.1780361328125,5.698803762283921,-2.1109213096261024,1.6020904746092854
1772534765504053000,7.188052978515625,5.022726455450058,-1.8140747905582189,0.896539966662228
1772534765514070000,7.198070068359375,4.862561027935147,-0.20685235988795755,-0.11507318045478314
1772534765524087300,7.20808740234375,5.163024568456411,1.1886672021232545,-0.9098422235667705
1772534765534104000,7.21810400390625,5.4549564274758096,1.766194264486432,-1.5229682764470576
1772534765544121000,7.22812109375,5.385119505661725,1.5759826582759617,-1.7791972461834549
1772534765554138000,7.23813818359375,4.696654426419735,0.5375853664666413,-1.9402035084366798
1772534765564155100,7.248155029296875,2.1767788064152,-0.9667525899209082,-1.9830860800907015
1772534765574172000,7.258171875,-1.1562228762447833,-2.3098478449508546,-1.86934703431651
1772534765584189200,7.268189208984375,-2.8953187059253453,-3.0038547762289642,-1.404527628853172
1772534765594206200,7.278206298828125,-4.11444548985064,-2.7227777809619904,-1.1017093418993056
1772534765604223200,7.28822314453125,-6.170814540556073,-1.745337938940525,-2.4951643725961445
1772534765614240300,7.298240234375,-7.742880317649245,-0.6503827474765479,-2.37591036279276
1772534765624257000,7.308257080078125,-8.454379650998115,0.20998072104156015,-2.0997966890215873
1772534765634274300,7.3182744140625,-8.471881405419111,0.6392778544858098,-2.5861130560219285
1772534765644291000,7.328291015625,-8.12265880242586,-0.3775663616850972,-2.751355932931602
1772534765654308000,7.33830810546875,-7.5396742053091526,-2.2998132115401324,-2.4143536368250844
1772534765664325000,7.3483251953125,-8.260993506404757,-4.084434966990352,-1.9046312597960233
1772534765674342100,7.358342041015625,-9.683139940187335,-4.623303943526745,-1.2401514517754315
1772534765684359200,7.368359130859375,-11.020361773139237,-3.6338825718104837,-0.8459023239020258
1772534765694376200,7.378376220703125,-10.845256550645828,-1.9849170949101447,-1.0791545418724418
1772534765704393200,7.388393310546875,-11.1450905610919,-0.6677944855265319,-1.5970765919700265
1772534765714410000,7.398409912109375,-12.094099258399009,0.49905456028133627,-1.9295038352459668
1772534765724427300,7.40842724609375,-12.473951977455615,1.7704206500098107,-1.6270279319889842
1772534765734443300,7.418443359375,-11.923175705504416,2.0659297829940915,-0.8419853696539997
1772534765744460000,7.4284599609375,-9.467257301625608,1.5706204005904494,-0.2214487482562661
1772534765754477000,7.43847705078125,-5.706279797253012,1.262722033893317,-0.3161491123657673
1772534765764494000,7.448494140625,-1.7753893783330916,0.7190867197379469,-1.195311827769503
1772534765774511000,7.458510986328125,1.6207956134706734,-0.5966147708013654,-2.557810506123304
1772534765784528100,7.468528076171875,3.787075237703323,-2.15300410920456,-3.3060616532862186
1772534765794545200,7.478545166015625,3.872623523390293,-2.9095763638585805,-3.1368238615214823
1772534765804562200,7.488562255859375,3.3111960935652256,-2.51663912230134,-3.26044088883996
1772534765814578400,7.498578369140625,3.5047120020180937,-1.5092964555777608,-2.0827138906650244
1772534765824595700,7.508595703125,2.953729393839836,-0.6848012229721993,-0.596059767267108
1772534765834612500,7.518612548828125,2.150042775180936,0.0030633330933749676,0.7888052758693694
1772534765844629500,7.52862939453125,0.6658680475085973,0.6374309845101088,1.6043799007207153
1772534765854646800,7.538646728515625,-0.12657879973351954,1.0782622692078352,2.153229296262562
1772534765864663600,7.54866357421875,0.4346808723092079,1.393972478699684,2.7636761930614706
1772534765874680600,7.5586806640625,1.194552899160981,1.26771925765872,3.2401042032539844
1772534765884697600,7.568697509765625,2.293498475435376,0.40613114271648226,3.3257568260982633
1772534765894714600,7.578714599609375,3.7899879102796312,-0.613394932949543,2.9006016147643328
1772534765904731400,7.5887314453125,5.280548539596796,-1.2204741068810223,2.3495732677482066
1772534765914748700,7.598748779296875,6.453752945780754,-1.7673866891413925,1.871372110403329
1772534765924765700,7.608765625,7.257154317757487,-2.085403860401362,1.5021056672908364
1772534765934782500,7.618782470703125,7.783643120670318,-2.0478329852893946,1.5891494522325693
1772534765944799700,7.6287998046875,8.19925747345984,-2.0032048851422966,2.056780554115772
1772534765954816500,7.63881640625,8.307977375897766,-1.3947823337778449,2.5683155335247516
1772534765964833500,7.64883349609375,7.6081018448472015,-1.9717757276557384,3.526539510683715
1772534765974850600,7.6588505859375,6.8130719953745595,-2.69980139452219,4.79121896225512
1772534765984867600,7.66886767578125,6.71827423530519,-2.729620194202661,5.3983782156854865
1772534765994884600,7.678884521484375,7.012469363081455,-2.281748270278424,4.7294466889530415
1772534766004901600,7.688901611328125,6.632236120274663,-1.6421262785300612,3.5924762101888654
1772534766014918700,7.698918701171875,5.6948290134340525,-1.1049667362600564,2.6710996161729095
1772534766024935400,7.708935302734375,5.431267508852481,-0.980612626838684,1.8266284210525452
1772534766034952700,7.71895263671875,4.954311675393581,-1.2336787486299872,1.0653314759641885
1772534766044968700,7.72896875,4.455955911031365,-1.5401238477788866,0.9151935214668512
1772534766054985500,7.7389853515625,4.87704664940536,-1.6314806736141443,0.7767043575786053
1772534766065002800,7.749002685546875,5.692993030178546,-1.340868665021658,0.5924089166093617
1772534766075019500,7.75901953125,6.0035173614650965,-0.7542036258265375,0.40809038702547545
1772534766085036500,7.76903662109375,6.129692841094732,-0.21763408533893525,0.3936327495407313
1772534766095053600,7.779053466796875,5.365705780139566,0.05138615957256406,0.5980968260526657
1772534766105070600,7.789070556640625,4.441429373028874,-0.1415534468296915,0.9293145474083722
1772534766115087600,7.799087646484375,4.20355585193336,-0.6505420296914876,1.0917543495960533
1772534766125104600,7.809104736328125,3.267081642028689,-0.6757988552186638,0.6695276659946888
1772534766135121700,7.81912158203125,1.60084646589756,-0.2007647105373442,-0.08039532337058335
1772534766145138400,7.829138427734375,-0.06896949132978916,0.02602488729022443,-1.1377203472834079
1772534766155155700,7.83915576171875,-2.3711989702314136,0.0038206542667001482,-2.194012411419302
1772534766165172500,7.84917236328125,-4.197182809770107,-0.26920878975354134,-2.4713430597648025
1772534766175189500,7.859189453125,-6.184155668166279,-0.39653322022259235,-1.2337979910954833
1772534766185206500,7.86920654296875,-7.913558955872058,-0.7629853365667164,0.38411771955732255
1772534766195223600,7.8792236328125,-8.985760317605733,-1.0634320720836519,0.8450825319517403
1772534766205240600,7.889240478515625,-9.516593287202715,-0.47377165046483277,-0.17892061606310308
1772534766215257600,7.899257568359375,-10.450905350637436,-0.042672143773734565,-1.733157671803236
1772534766225274600,7.909274658203125,-11.513566146087646,-0.3110822574302554,-3.2627821912690997
1772534766235291400,7.91929150390625,-11.787514020127057,-0.5407277561455964,-3.911986104224622
1772534766245308700,7.92930859375,-12.883164061987399,0.07220131285786628,-3.4770343060195446
1772534766255325400,7.939325439453125,-13.293451666796207,0.6046091305561363,-2.156696680112183
1772534766265342500,7.949342529296875,-13.483539354366064,0.14170958723947405,-0.21815471167955547
1772534766275359700,7.95935986328125,-13.919381087148189,-0.47114057130888104,1.2623282122701405
1772534766285376500,7.96937646484375,-14.631678292876481,-0.3512266362920403,1.5705414901353418
1772534766295393800,7.979393798828125,-15.33623993591666,0.5069657717972994,1.0573412078626454
1772534766305410600,7.98941064453125,-14.913880785042046,1.3141446164861321,0.3921104353442788
1772534766315427600,7.999427490234375,-13.77109139086604,1.2908905821487306,-0.12484781122244894
1772534766325443600,8.009443603515624,-12.01850888762474,0.7814569589331746,-0.4350524821005761
1772534766335460600,8.019460693359376,-9.445162958717345,0.25349910638108847,-0.9185726425111294
1772534766345477600,8.0294775390625,-6.8779352204293005,-0.28282281602099535,-1.6408952754303812
1772534766355494400,8.039494384765625,-4.671002683290839,-0.6727918554224074,-2.0136796635359526
1772534766365511700,8.04951171875,-2.540744220510125,-0.8232206095598638,-2.153296808540821
1772534766375528400,8.059528564453124,-0.6823965729832648,-0.7566961732946336,-1.9857405401222408
1772534766385545500,8.06954541015625,0.7313233932375908,-0.8106720936320722,-1.5728842538692056
1772534766395562800,8.079562744140626,1.6949176652580498,-0.432586238117516,-0.7475592193759978
1772534766405579500,8.08957958984375,2.2061223897993565,0.3029727468632161,0.41363676910623903
1772534766415596500,8.099596435546875,2.416452654930949,0.5952686168894171,1.2592149025551973
1772534766425613600,8.109613525390625,2.366440962049365,0.36095687992870806,1.9780776042789219
1772534766435630600,8.119630615234374,2.3429630558282137,-0.07803235709890723,2.4885671662881967
1772534766445647400,8.1296474609375,2.73447172588706,-0.49597412992268797,2.6881965891852975
1772534766455664600,8.13966455078125,3.203361741790175,-0.6475961854979395,2.5488807652145624
1772534766465681700,8.149681640625,3.753340725883841,-0.5536521196484565,2.1087569711990652
1772534766475698700,8.15969873046875,4.551332932293414,-0.3181093795880675,1.549173415675014
1772534766485715700,8.1697158203125,5.582759800568223,-0.12853519449830053,1.1001761409826576
1772534766495732500,8.179732421875,6.465578992652893,-0.07738872543312608,1.0389321293383835
1772534766505749800,8.189749755859374,7.149881691518425,0.024509733486920593,1.4790842726655304
1772534766515766500,8.1997666015625,7.544074486094713,0.26257870408929884,1.8587601738505064
1772534766525783600,8.209783447265625,7.694878795546293,0.43548239795044064,1.9031455512829123
1772534766535800600,8.219800537109375,7.914460288625955,0.42568033118657767,1.8643799134284256
1772534766545817600,8.229817626953125,8.31546685487032,0.28803923549503085,1.819847674871236
1772534766555834600,8.239834716796874,8.667695653942227,0.16014277729168533,1.8741624717742205
1772534766565851600,8.2498515625,8.759182682028412,0.09032163756862283,1.8797776813074945
1772534766575868700,8.25986865234375,8.572099436971545,0.18478344368189573,1.910654611738771
1772534766585885400,8.269885498046875,8.093727891495824,0.1400587512925267,1.8900182125538587
1772534766595901400,8.2799013671875,7.5601307178825135,0.06580825081989168,1.6151635989330708
1772534766605918700,8.289918701171874,7.351157128056883,0.02835501073822379,0.9687047469019889
1772534766615935500,8.299935546875,7.89216428566575,0.176599260443449,0.331934272127226
1772534766625952500,8.309952392578126,8.422865153315662,0.36693697725161906,0.017056202610582112
1772534766635969500,8.319969482421875,8.679692965728044,0.4937802731402218,-0.09587912556529045
1772534766645986600,8.329986572265625,8.790338283270597,0.5938404837824404,-0.09563888706862926
1772534766656003600,8.340003662109375,8.740262292981146,0.7502326763689517,0.013617862192355095
1772534766666020600,8.3500205078125,8.439484864205122,0.969554933990538,0.18132256263829766
1772534766676037600,8.36003759765625,8.118566564676165,1.2100617261990905,0.4314126277608797
1772534766686054700,8.3700546875,7.912843501079082,1.3797270957261323,0.6040412310076877
1772534766696071700,8.38007177734375,7.80033063609898,1.2758319830961524,0.6513211243052035
1772534766706088400,8.39008837890625,7.633949987331032,1.0221829468503594,0.6495631016567349
1772534766716105700,8.400105712890625,6.742979637494683,0.7874943394012749,0.40137795684002336
1772534766726122500,8.41012255859375,4.882219083607197,0.6489028841823339,-0.1793516644241288
1772534766736139500,8.420139404296876,3.562618832063675,0.8645233646765351,-0.5751455375215039
1772534766746156800,8.43015673828125,3.8005011209875343,1.127952913441509,-1.0657441484183072
1772534766756173600,8.440173583984375,1.397333479565382,1.3908257051065562,-2.0678338630497453
1772534766766190600,8.450190673828125,-0.8561468737363814,1.383472711995244,-2.4287976111106575
1772534766776207600,8.46020751953125,-3.925840734314918,0.707165395797789,-1.3311691087841986
1772534766786224600,8.470224609375,-8.112771614661812,-0.5017027367025614,0.40739213909562677
1772534766796241400,8.480241455078126,-11.761396413052081,-1.2929251567162572,1.3601596409469843
1772534766806258700,8.4902587890625,-13.669790240252016,-0.86042995788306,0.5273757052825764
1772534766816275700,8.500275634765625,-14.719415028518437,0.21329685985222457,-1.6141772182442247
1772534766826292700,8.510292724609375,-14.20455528860092,0.7467562324300407,-3.1928201817706223
1772534766836309800,8.520309814453125,-13.730201746594904,0.6227738789305091,-3.704728670667112
1772534766846326800,8.530326904296874,-15.055357294178009,0.5817036173954606,-3.241775935858488
1772534766856342800,8.5403427734375,-17.812493271815775,0.950944049283862,-2.029375829839706
1772534766866359800,8.55035986328125,-19.54497874344587,1.6375021258607505,-1.0117172285459934
1772534766876376800,8.560376953125,-19.261008657085895,2.2979140999205407,-0.39074294638335705
1772534766886393900,8.570393798828125,-17.54553043435812,2.480770813323557,-0.4615313237033784
1772534766896410600,8.58041064453125,-14.768728802263736,2.3527045515112577,-0.9221693518288433
1772534766906428000,8.590427978515624,-11.724354091858864,1.9412246681779621,-1.0337368987828492
1772534766916444700,8.600444580078126,-8.772174265548585,1.3477243761353195,-1.005202512889728
1772534766926461700,8.610461669921875,-5.96628390161395,0.9858141410045325,-0.9694190326511859
1772534766936479000,8.62047900390625,-3.695347386598587,0.8148935107193886,-1.0842628247968853
1772534766946495700,8.630495849609375,-2.203853860345483,0.7200951661281287,-1.1417213996183126
1772534766956512800,8.6405126953125,-1.0705722992271185,0.18687252491563558,-1.04130492288433
1772534766966529800,8.65052978515625,0.09367080186605453,-0.538997132960707,-0.9805056593328714
1772534766976546800,8.660546875,1.0200532413452863,-0.9326749637521803,-0.9068214144408703
1772534766986563600,8.6705634765625,1.6195920828998087,-0.8221930200777947,-0.6972445980250835
1772534766996580900,8.680580810546875,1.2553700636953116,-0.7225611909154802,-0.31424013693928715
1772534767006597600,8.69059765625,1.0828419982135296,-0.873723081633076,0.1722232373163104
1772534767016614700,8.70061474609375,1.3863339466452598,-0.9123628280855715,0.6229691092416644
1772534767026632000,8.7106318359375,1.7513538382291793,-0.8950866991139947,0.8306533899091184
1772534767036648700,8.720648681640625,2.7121909204959866,-0.9857343537665904,0.7361901224911213
1772534767046665700,8.730665771484375,4.051685959076881,-1.2744079416424035,0.7953447606407106
1772534767056682800,8.740682861328125,5.238594480964541,-1.3750535509571433,1.1347073561377823
1772534767066699800,8.75069970703125,6.119236913532018,-1.1740605846218763,1.4311974629834294
1772534767076716500,8.760716552734374,6.827289321297407,-1.0360103966727852,1.5280885420702397
1772534767086733800,8.77073388671875,7.671163573437929,-0.9076268125396222,1.7145318817883728
1772534767096750800,8.780750732421875,8.268143378159403,-0.7698925586719065,2.172927976205945
1772534767106767600,8.790767578125,8.476187578180431,-0.9480464281462132,2.4708435858100652
1772534767116783900,8.800783935546875,8.552220432025194,-1.2634972560495137,2.518681441783905
1772534767126801000,8.81080078125,8.204695865121483,-1.334670248772949,2.3772160385638474
1772534767136817700,8.820817626953126,7.912225661441683,-1.4962814911819993,2.4203819572038947
1772534767146835000,8.8308349609375,7.719673629584908,-1.657387852808833,2.5535429118067023
1772534767156851700,8.840851806640625,7.497829452270269,-1.7619544349595904,2.5836276689469813
1772534767166868700,8.85086865234375,7.385288530239462,-1.853067222905904,2.367415506169945
1772534767176885800,8.8608857421875,7.355621706250309,-1.9611456125698983,1.939856302434206
1772534767186902800,8.87090283203125,7.7324658911406985,-1.9652214837066828,1.680549240426719
1772534767196919600,8.88091943359375,8.12801185389161,-1.8240625160872934,1.2897137934543192
1772534767206936800,8.890936767578125,8.228281907892226,-1.737891568457335,0.7137867136336863
1772534767216953900,8.900953857421875,8.281815345159172,-1.8953062359593809,0.20371450025364754
1772534767226970600,8.910970703125,8.297795004579424,-1.8639868224576115,-0.07738090745285153
1772534767236988000,8.92098779296875,7.920434686860442,-1.8391745988927781,-0.1589876159071922
1772534767247004700,8.931004638671874,6.930736836290359,-1.834164515645802,0.1727976762033999
1772534767257021700,8.941021728515626,5.992290449529886,-1.7773994029812514,0.9416150799244641
1772534767267038700,8.951038818359375,5.932593813458085,-1.736855649538338,1.570414356624335
1772534767277055700,8.9610556640625,5.974814998593926,-1.6490477483563124,1.4603389479242264
1772534767287072800,8.97107275390625,5.097988909444212,-1.5324533131510019,0.5501044371042401
1772534767297089800,8.98108984375,3.9005169079661366,-1.2052615593757479,-0.24655096774362026
1772534767307106800,8.99110693359375,2.1521827098190784,-0.7137799916319548,-0.3990061496747657
1772534767317123600,9.00112353515625,0.1325321551799774,-0.2429287221258506,-0.26781183723611757
1772534767327140900,9.011140869140625,-0.9319184462964534,0.004227152708359062,-0.4761954800782725
1772534767337157600,9.02115771484375,-2.4802269157052037,-0.08111116175604983,-1.2776945620976388
1772534767347174700,9.031174560546875,-4.217120266905427,-0.42163317468762396,-1.8490820987924932
1772534767357191700,9.041191650390624,-6.581355243343115,-0.8093329539828003,-1.5583159225516021
1772534767367207700,9.051207763671876,-8.925474483469127,-1.1425462330698966,-1.32277420540452
1772534767377224700,9.061224609375,-11.11873797621727,-0.45345191601365803,-1.9790315440028905
1772534767387241700,9.07124169921875,-12.08488368628621,1.165554256756976,-2.9158818937435744
1772534767397258800,9.0812587890625,-13.342584238755702,1.685075777940452,-3.681620182280242
1772534767407275800,9.09127587890625,-15.979416259145736,0.97832385831438,-4.654765249717236
1772534767417292800,9.101292724609374,-17.9645531342864,1.1032602246031165,-4.760957094982266
1772534767427309800,9.111309814453126,-19.74338183941841,2.0495681385189295,-3.6185295198559757
1772534767437326600,9.12132666015625,-20.12777980068922,2.5117706394821404,-2.0121371102690695
1772534767447343900,9.13134375,-18.38662470039129,2.5739444793224333,-0.5377645954910666
1772534767457360600,9.141360595703125,-16.86498796480894,2.538679689195752,0.4500789324492216
1772534767467377700,9.151377685546874,-15.735488260316847,2.4656606302142143,1.341328976009786
1772534767477395000,9.16139501953125,-14.537219555503128,2.0895847993478176,1.9583815546840428
1772534767487411700,9.17141162109375,-12.916736661243437,1.8064996791288255,2.4547379619225858
1772534767497428700,9.1814287109375,-9.98013025164008,1.681173363674432,2.1978683561950922
1772534767507445800,9.19144580078125,-6.7005509470880025,1.4100684579759835,1.0441690801437944
1772534767517462800,9.201462890625,-3.7924586843073365,1.0155458469234406,-0.009852481776848434
1772534767527479600,9.2114794921875,-1.0468675985127687,0.5535732091933488,-0.4420692289948463
1772534767537496800,9.221496826171874,1.013006245443225,-0.09383929030075669,-0.6758399909466505
1772534767547513600,9.231513671875,2.561862996384501,-0.7929172412328421,-0.9642151803977786
1772534767557530600,9.241530517578125,3.7990509221792217,-1.0856768563132733,-0.874171190726757
1772534767567548000,9.2515478515625,4.78415150808692,-0.7366749103333801,-0.2267284422248602
1772534767577564700,9.261564697265625,5.1813031524688,-0.5715147432710975,0.1822160774119198
1772534767587582000,9.27158203125,5.235386040312052,-0.5616510825131088,0.34174233024045825
1772534767597598000,9.281597900390626,4.987802441585064,-0.6822856599546968,0.5022238379672169
1772534767607614700,9.29161474609375,4.819634909400343,-0.995438586179167,0.6908180721089243
1772534767617631700,9.3016318359375,5.201636915445327,-1.2712415865659712,0.8771125048756598
1772534767627648800,9.311648681640625,5.8296630158156155,-1.3316352649912238,0.9881358619503676
1772534767637665800,9.321665771484374,5.824081416290998,-1.433167594012618,1.0269302875079214
1772534767647682600,9.3316826171875,6.43594899354279,-1.503512903740257,1.106230180324614
1772534767657699800,9.341699951171876,7.06438016758263,-1.331352210266143,1.3345388774782418
1772534767667716900,9.351716796875,7.450721664136648,-1.2904459071211516,1.6387424813106655
1772534767677733600,9.361733642578125,7.573592841523885,-1.284213296341896,2.0691282867744563
1772534767687751000,9.3717509765625,7.885715840178728,-1.2556390898950398,2.050921452824026
1772534767697767700,9.381767578125,8.504871236351132,-1.2729948599740861,1.7177536203138528
1772534767707784700,9.39178466796875,8.871862720268965,-1.3527527256913483,1.3406214122623203
1772534767717801700,9.4018017578125,8.910750377067924,-1.5209648276701568,0.9637629065856337
1772534767727818800,9.41181884765625,8.7313044950217,-1.6924506906226275,0.676334058073908
1772534767737835500,9.42183544921875,8.415639293715357,-1.795946720932424,0.534036003421992
1772534767747852800,9.431852783203125,7.998820241311192,-1.638875752301514,0.38993762134984133
1772534767757869800,9.441869873046874,7.274530984494089,-1.5866022519677876,0.44721762473396953
1772534767767886800,9.451886962890624,6.061713529846072,-2.2039454841516912,0.9615907501783222
1772534767777903900,9.46190380859375,5.763440777367353,-2.167916285523772,1.5664859311342239
1772534767787920600,9.471920654296875,6.552600858023762,-1.3964010210208595,1.697448352779448
1772534767797938000,9.48193798828125,7.492047946259379,-0.6638664984278381,1.2282425489254296
1772534767807954700,9.49195458984375,8.135708253613114,-0.33195283069722353,0.7206202859807759
1772534767817971200,9.50197119140625,8.340770222952962,-0.23448621674478054,0.19468086057901382
1772534767827988200,9.51198828125,8.026530670535564,-0.0627913872167468,-0.23874036705791948
1772534767838004200,9.522004150390625,7.828218175455928,0.2943125436108559,-0.015898374344967305
1772534767848021000,9.53202099609375,7.666397381949424,0.6353155267260968,0.5388482990745455
1772534767858038300,9.542038330078125,7.428293559229373,0.645471156167984,0.9835301217205822
1772534767868055000,9.552054931640624,7.054061602663993,0.3479885311536491,1.08547541545704
1772534767878072000,9.562072021484376,6.356975994592904,-0.08685191563144326,0.6788857883833348
1772534767888089000,9.572089111328125,5.402319646787643,-0.46522893611229954,-0.01789972249632701
1772534767898106000,9.582106201171875,4.132305556190014,-0.6267331379503012,-0.48144054112490264
1772534767908123100,9.592123046875,2.3884885432064533,-0.6615384938716888,-0.27931973980348557
1772534767918140200,9.60214013671875,0.9778735572636127,-0.35156905652154236,0.47254353344198313
1772534767928157200,9.6121572265625,-0.32302024024426934,-0.17961042495816945,1.129546173982322
1772534767938174200,9.62217431640625,-2.876122422546148,-0.41822851734329014,1.16276572201699
1772534767948191200,9.632191162109375,-6.000602935323119,-0.41102293334603307,0.5837805697999894
1772534767958208000,9.6422080078125,-9.211440712082386,0.07729319263678043,-0.3410027273869142
1772534767968225300,9.652225341796875,-11.787241632926463,1.0555442414432763,-0.8606168587572872
1772534767978242000,9.662241943359374,-14.407685997617245,2.2788804597571493,0.4702942566778511
1772534767988259000,9.672259033203124,-13.526611603373288,1.8765274473398923,0.13477489260546863
1772534767998276400,9.6822763671875,-12.70893445328474,1.5506161618292331,-1.3451958805710076
1772534768008293000,9.692293212890625,-11.758405999064445,0.9394958958134054,-3.0642525463074444
1772534768018310100,9.70231005859375,-10.78652379117012,0.008720774333178997,-4.44026091377139
1772534768028327200,9.7123271484375,-10.91774544827342,0.13730704143159092,-4.453986656785011
1772534768038344200,9.72234423828125,-13.121424536573887,2.023967833316326,-2.7524133330300447
1772534768048361000,9.73236083984375,-15.495448501098155,3.709827162849903,-0.4691612340599298
1772534768058378200,9.742378173828126,-14.931410596513746,4.0856232999920845,1.3654282289996742
1772534768068395300,9.752395263671875,-11.84921965793371,3.851320623120665,2.1759422094605863
1772534768078412000,9.762412109375,-11.871848838371038,3.8572210793361066,2.329948383693397
1772534768088429300,9.77242919921875,-4.6707367258310315,2.2411337896868586,-1.1456937373153864
1772534768098446000,9.782446044921874,-2.057742677146196,0.6259993437830358,-1.5369859881445764
1772534768108463000,9.792463134765624,0.42345454489588735,-0.28146267011631276,-1.0261571111783385
1772534768118480100,9.802480224609376,0.6532330223411321,-0.815769051444903,-0.9526406240686773
1772534768128497200,9.8124970703125,-1.063057101291418,-1.1711997883632779,-0.6488499849513173
1772534768138513200,9.82251318359375,-1.6134604482769965,-1.3733894171372054,0.21237740691974757
1772534768148530200,9.8325302734375,-1.0391361274778843,-1.795647591855377,0.8856165677182376
1772534768158547200,9.842547119140624,0.10857844814062118,-2.230208344916254,0.9421355966672301
1772534768168564000,9.85256396484375,1.2704974902004003,-2.356520748798549,0.5417056612670421
1772534768178581200,9.862581298828125,1.2573083382815122,-2.439965047943592,0.5903440199688077
1772534768188598300,9.872598388671875,3.124050889188051,-1.2880885303400456,1.7087465763852
1772534768198615000,9.882614990234375,3.8440748897761106,-0.8661265620894729,2.5521125867426395
1772534768208632300,9.89263232421875,4.851635144773125,-0.8536880824074149,2.8945447989434
1772534768218649000,9.902649169921874,5.511011492174863,-1.365710260811448,2.8414570596173405
1772534768228666000,9.912666015625,5.526301415765285,-1.3960212279230355,2.7558973757535217
1772534768238683100,9.92268310546875,6.027928749144077,-2.111598478235304,3.37043914065063
1772534768248700200,9.9327001953125,6.179124103739857,-2.2178327013373376,3.4918516436621543
1772534768258717200,9.94271728515625,6.296095117172598,-2.2983260417222975,3.4657428044155236
1772534768268734200,9.952734130859374,6.545917434737086,-2.289622803045809,3.321379633927345
1772534768278751200,9.962751220703124,6.823277747568488,-2.351181433597207,3.0112936940580606
1772534768288768000,9.97276806640625,6.963738942182063,-2.453680854085088,2.479454177767038
1772534768298785300,9.982785400390625,7.233315761530399,-2.454377604177594,2.0169372040271756
1772534768308802000,9.992802001953125,7.617660531309246,-2.629092950570583,1.8323944372333585
1772534768318819000,10.002819091796875,7.691273464530706,-2.809424967801571,1.8533986468173562
1772534768328836000,10.012836181640624,7.4667299651294945,-2.7141902776196596,2.062266438180953
1772534768338853000,10.02285302734375,7.074564876988529,-2.295007710954547,2.3359970162078736
1772534768348870100,10.0328701171875,6.891908216202259,-1.830470483433455,2.4327403573870656
1772534768358886100,10.04288623046875,7.054600531846284,-1.4053309080600738,2.232773957620561
1772534768368903200,10.052903076171875,7.183260229507089,-1.0839731942005455,1.898276045550406
1772534768378920200,10.062920166015624,7.174881692740321,-1.074391711384803,1.565967167957127
1772534768388937200,10.072937255859374,7.0222039906322955,-1.2434738741964102,1.2041924688395111
1772534768398954200,10.082954345703126,6.816326613256335,-1.3604483947604893,0.8826782492440194
1772534768408971000,10.092970947265625,6.441110321828723,-1.23439157307446,0.5761981518469751
1772534768418988300,10.10298828125,5.409637860846519,-0.7886948012322187,0.4318382692944258
1772534768429005000,10.113005126953125,3.6451755347192285,-0.2901387285249308,0.6193536952234804
1772534768439022000,10.12302197265625,1.8058131581693886,-0.2508818365547806,0.8020011497899889
1772534768449039000,10.1330390625,0.9282306976944208,-0.7443328046754002,0.5850675408706069
1772534768459056000,10.14305615234375,-0.41144788075983524,-1.2162367615722118,0.021607472706772386
1772534768469073200,10.1530732421875,-2.475958152344823,-1.2904181423313914,-0.5146981926802545
1772534768479090200,10.163090087890625,-3.7066368423759934,-1.247972646920383,-0.9128225545518099
1772534768489107200,10.173107177734375,-4.195478343939781,-1.5080137222908436,-1.2070770112998783
1772534768499124000,10.1831240234375,-4.422634071666002,-2.018138104249537,-1.2354988036639987
1772534768509141200,10.193141357421876,-4.426220113459229,-1.90085115673542,-1.279513740348816
1772534768519158000,10.203157958984375,-7.160577857577801,-1.3737955137200653,-0.6569776156969368
1772534768529175000,10.213175048828125,-9.97216906350255,-0.4287319738421589,-1.4358007189951836
1772534768539192300,10.2231923828125,-12.090102297717332,0.48964353866167365,-2.6922227759614583
1772534768549209000,10.233208984375,-13.692429942083358,0.5992564444165677,-2.8132039018183943
1772534768559226000,10.24322607421875,-15.37575946087837,-0.4394942639403045,-1.9163176059365272
1772534768569243100,10.2532431640625,-17.03110090255141,-0.8087034239076077,-0.9551380669075995
1772534768579260200,10.26326025390625,-17.899056287503242,0.26901304798573256,-0.6282311944883316
1772534768589276200,10.273276123046875,-17.81067423969507,1.5715645495727657,-0.613539455986768
1772534768599293200,10.283293212890625,-17.050114230579137,2.2977461960077283,-0.5610184836979956
1772534768609310200,10.293310302734374,-15.75389134749174,2.6802362778306006,-0.46557716502808033
1772534768619327000,10.303326904296876,-14.40744985077381,2.5792113138094543,-0.19778584085702894
1772534768629344300,10.31334423828125,-12.707364427489042,2.177695190607756,0.1396759625200182
1772534768639361000,10.323361083984375,-10.389316617208719,1.973302937223017,0.2517440063420683
1772534768649378000,10.3333779296875,-7.624016622337699,1.6794971010252833,-0.16420008985847234
1772534768659395300,10.343395263671875,-4.901203770062327,1.2853307560645042,-0.8185630660776049
1772534768669412000,10.353412109375,-2.6491443894743916,0.7699224423535168,-1.3528940338581799
1772534768679429000,10.36342919921875,-0.5892062481105327,0.2615622205231339,-1.5680083183959126
1772534768689446100,10.373446044921875,0.7475649184644222,-0.07732771596089005,-1.5381744672767816
1772534768699463200,10.383463134765625,1.3542185604602097,-0.16942074711620805,-1.2722820355296134
1772534768709480000,10.39347998046875,2.0406647010952232,0.011921616201102733,-0.7594589160062373
1772534768719497200,10.403497314453125,2.891936077749729,0.29371399319581687,-0.12110475223660469
1772534768729514200,10.41351416015625,3.7141082011699673,0.38374910544063895,0.2850024981476366
1772534768739531000,10.423531005859376,4.461026638424396,0.04164703850969672,0.23221812568232417
1772534768749548300,10.43354833984375,4.885881697767973,-0.11185494906064122,0.05578779206499457
1772534768759565000,10.44356494140625,4.988999542415142,-0.07056293453369289,0.013532120137661694
1772534768769582000,10.45358203125,5.433198769176006,0.16709544597379863,0.3798750770188868
1772534768779599000,10.46359912109375,6.015809856805205,0.27861023982726035,1.0110948588639497
1772534768789616000,10.4736162109375,6.56254591345489,0.08999317279923706,1.635066277015954
1772534768799632100,10.483632080078126,7.107415007188916,-0.3010904037153348,1.968584676529467
1772534768809649700,10.493649658203125,7.60584851296246,-0.8090154855314642,1.9812373834840953
1772534768819666700,10.503666748046875,7.969646753796934,-1.1521437171723692,1.8941759167551993
1772534768829683700,10.51368359375,7.704105473574995,-1.3166533844366668,1.2263332081727683
1772534768839700700,10.52370068359375,7.192298691487312,-1.3016937157139181,0.8080692176572978
1772534768849717500,10.533717529296876,6.941447615396976,-1.3899202806994317,0.910017434003204
1772534768859734800,10.54373486328125,7.198130466380715,-1.4264078906193374,1.126508413721621
1772534768869751800,10.553751708984375,7.6930813907355065,-1.2564805091552436,1.1627261206589639
1772534768879768600,10.5637685546875,8.03724086512029,-1.0362561150621623,1.0033502360865474
1772534768889785900,10.573785888671875,8.369546820104121,-1.066680114094168,0.6899426775138825
1772534768899802600,10.583802734375,8.654744402432442,-1.2334393869161606,0.37724933162517843
1772534768909819600,10.593819580078126,8.582547181227802,-1.3592929411150514,0.17507051650620997
1772534768919836700,10.603836669921876,8.12803289667964,-1.3089381338842212,0.1022118357181549
1772534768929853700,10.613853759765625,8.131898339936138,-1.2694152479216456,0.030423341444879768
1772534768939870700,10.62387060546875,7.69221746738255,-0.6188190038248896,0.6601738544549792
1772534768949887700,10.6338876953125,7.903803870055079,-0.32365342358127236,0.9777548993200064
1772534768959904800,10.64390478515625,8.107430838155746,-0.1672377405213192,1.1359298106048255
1772534768969921800,10.653921875,8.041660435128211,-0.10052859533894806,1.061921375259757
1772534768979938800,10.663938720703126,7.674009610518812,-0.056074609649740155,0.7912934394232928
1772534768989955600,10.67395556640625,7.246858549192547,0.15849964972715824,0.487192711443454
1772534768999972900,10.683972900390625,6.980631040272116,0.5274425965063274,0.35084355525858696
1772534769009989600,10.69398974609375,6.865507700532675,0.8244662257067858,0.4606882239427417
1772534769020005600,10.704005615234376,6.607490386074781,0.8636841373734175,0.5522155109740794
1772534769030022700,10.714022705078126,6.0056491127967835,0.9286492884326726,0.5463967051601037
1772534769040039700,10.724039794921875,5.0072915704309935,0.9443827910721302,0.6797285958830267
1772534769050056700,10.734056640625,3.774598033446073,0.3186005971711129,0.5967467266179621
1772534769060073700,10.74407373046875,2.544256028023362,-0.7359500301249324,-0.2679008489601314
1772534769070090800,10.7540908203125,1.0340852738291024,-1.4050138049349188,-1.246568771471828
1772534769080107800,10.764107666015626,-0.36924832293391224,-0.4166027793049812,-1.4516723879963158
1772534769090124500,10.77412451171875,-0.34004677836894986,0.7958532946847379,-1.3677584255129098
1772534769100141800,10.784141845703125,-0.582922637796402,0.9866562178518623,-0.5203275038041174
1772534769110158600,10.79415869140625,-2.2945962075442075,0.46764659171327944,-0.1407743156833574
1772534769120175600,10.804175537109375,-2.7065666508734223,-0.41196299067512154,-0.5025728706005961
1772534769130192600,10.814192626953124,-2.7273446504861116,-0.3628882863827049,-0.7591586178854107
1772534769140209700,10.824209716796876,-9.025609512913226,0.8661679900784045,-0.6503849394336343
1772534769150227000,10.83422705078125,-5.025552618786692,0.690816903065145,-0.12932839070260524
1772534769160243700,10.84424365234375,-3.189904294323921,1.078545323932916,0.7092363568529486
1772534769170260700,10.8542607421875,-4.54142119461,1.62703129298985,2.4784967309117314
1772534769180277800,10.86427783203125,-4.523108123806119,1.570842080517113,2.6315952887803316
1772534769190294800,10.874294677734374,-10.73861170091629,2.2397814982950686,4.74287841745615
1772534769200311600,10.8843115234375,-14.332704698652028,2.5878701288223267,3.4582182541295885
1772534769210327600,10.89432763671875,-15.364737716126442,2.7891192618757485,1.3092160740427672
1772534769220344800,10.9043447265625,-13.482621654999255,2.0705936831519005,-0.24757041045185177
1772534769230361600,10.914361572265625,-13.482030118846893,2.0567039817482233,-0.20793781703710554
