time,seconds_elapsed,z,y,x
1772534507681985500,0.061985595703125,0.010908347505331038,0.0048149990662932395,0.4135540592588484
1772534507692002600,0.07200244140625,0.12870353680253027,0.05974661269336939,0.46074528789222235
1772534507702018600,0.0820185546875,0.12602934915721417,0.06921645182818174,0.4693586197955534
1772534507712035600,0.09203564453125,0.3309685689002275,0.10420885475426912,0.5401454262129962
1772534507722052600,0.102052490234375,0.3298503785252571,0.10836422086805104,0.5481616324733942
1772534507732068600,0.112068603515625,0.32762451916933055,0.1167620468571782,0.5805446200860664
1772534507742085600,0.122085693359375,0.40948680981993674,0.22488106079250572,0.47693172193095085
1772534507752101600,0.1321015625,0.4080979858100414,0.22971213421076536,0.481807693936862
1772534507762118700,0.14211865234375,0.7023486431658268,0.2796069227144122,0.49791364661790427
1772534507772134700,0.152134765625,0.7028244439840317,0.278477041901648,0.5085923500858247
1772534507782151700,0.162151611328125,0.8555261114895343,0.1350920687958598,0.607120601920411
1772534507792167700,0.172167724609375,0.8168260862171649,0.1354167707055807,0.5623780816134065
1772534507802184700,0.182184814453125,0.8193196565985679,0.12768266932219266,0.585542391840741
1772534507812200400,0.192200439453125,0.7434814485430717,0.10283873544484376,0.395764756600745
1772534507822217500,0.202217529296875,0.7478121712237596,0.08846855704784393,0.4232251565868035
1772534507832233700,0.212233642578125,0.7617834134310484,0.009395020332932472,0.15129001974244602
1772534507842250500,0.22225048828125,0.6945224795848131,-0.14022563229203222,0.22629980501662939
1772534507852266500,0.2322666015625,0.6992875020295382,-0.15681465578228235,0.24275146586280313
1772534507862283500,0.242283447265625,0.46417467781901356,-0.06744914989471436,0.6026345060149207
1772534507872299800,0.2522998046875,0.46750586806833744,-0.07946019794493914,0.6190213214639574
1772534507882316500,0.262316650390625,0.8573650173544883,0.46703357438147064,0.7341694303184747
1772534507892332500,0.27233251953125,0.979282839539647,0.6227212719604373,0.5339343331458046
1772534507902349600,0.282349609375,0.9825292741149664,0.611220219258964,0.5365558772884309
1772534507912365600,0.292365478515625,1.0716145017564296,0.3809998432651162,0.3740324519379064
1772534507922382600,0.302382568359375,1.0742986262738703,0.37179596159011125,0.36685660549178717
1772534507932398600,0.312398681640625,1.0523480757504702,-0.09351122739017009,0.7956122524704784
1772534507942415400,0.322415283203125,0.9940519541263579,-0.21364655007272956,1.0319173552054912
1772534507952431600,0.332431640625,0.9981745870143175,-0.22875702544301746,1.0404876151520759
1772534507962448600,0.34244873046875,0.8768442093282938,-0.3667494918555021,1.1078780936621129
1772534507972464600,0.352464599609375,0.8804594772160053,-0.3819938227385282,1.1456524554569274
1772534507982481400,0.3624814453125,1.143522969147563,-0.14999708472192286,0.8352396217208355
1772534507992497700,0.37249755859375,1.0599544591009615,-0.1506499956727028,0.8081131298642605
1772534508002514700,0.3825146484375,1.0635703115105628,-0.17108868032842872,0.8683913652162999
1772534508012530700,0.39253076171875,0.8098252675443888,-0.1957961283445358,0.8301998009227216
1772534508022547500,0.40254736328125,0.5451309595406055,-0.14061521613150835,0.9996968281455337
1772534508032563700,0.412563720703125,0.21083470752239225,-0.018009703943133355,1.1953779518082737
1772534508042580500,0.42258056640625,-0.21312369524240493,0.04184431464746594,1.2599807723611594
1772534508052596500,0.432596435546875,-0.21389818674623964,0.03112915162667632,1.317874742925167
1772534508062613500,0.442613525390625,-0.6062526599794625,0.11627777047157287,1.3102948091901838
1772534508072629800,0.452629638671875,-0.5981143617093563,0.2280658283084631,1.1758733331322668
1772534508082646500,0.462646484375,-0.4802607202231884,0.25557401295900345,1.0123871636968105
1772534508092662500,0.47266259765625,-0.2504126846730709,0.2547648885332048,0.7260852733884007
1772534508102679600,0.482679443359375,-0.25259353584349153,0.2532489310123026,0.755153035505861
1772534508112696600,0.492696533203125,-0.12771277219951152,0.3673815061487257,0.5075307852689176
1772534508122712600,0.502712646484375,-0.2215764662891626,0.1938457249291241,0.4026004843723029
1772534508132729600,0.5127294921875,-0.07209843700528144,0.1031076155140996,0.48322424620389937
1772534508142745600,0.52274560546875,0.09947276614308356,0.1955941760316491,0.6074876816671342
1772534508152762600,0.5327626953125,0.10195113895535468,0.17513605602309107,0.6349186363629996
1772534508162778600,0.542778564453125,-0.11710603798925875,0.2513485042184591,0.5157032780695706
1772534508172795600,0.552795654296875,-0.2544540690183639,0.2296327853642404,0.3358397551331669
1772534508182811400,0.562811279296875,-0.34884850898385045,0.08138590531051158,0.09968268256671727
1772534508192828700,0.57282861328125,-0.6624322278410196,-0.17670695860162378,-0.03764825119711458
1772534508202844700,0.5828447265625,-0.6621119098454713,-0.2025084854647517,0.00948269861638546
1772534508212861400,0.592861328125,-1.787119563615322,-0.9456796990148723,-0.112513011110574
1772534508222877400,0.60287744140625,-1.7936703004330397,-0.9425045761100947,-0.0688543405175209
1772534508232894700,0.612894775390625,-2.520636082983017,-1.7607459359526634,-0.045554275081306696
1772534508242910700,0.62291064453125,-2.6156127067506314,-2.0674637145631016,-0.1338539053030312
1772534508252927500,0.632927490234375,-2.6251491813808676,-2.037325035278499,-0.11843816337585449
1772534508262943500,0.642943603515625,-1.992331755080819,-2.0270997016012666,-0.2691135857507586
1772534508272960800,0.652960693359375,-1.7118921809345482,-1.8634145755276084,-0.16816709379330277
1772534508282976500,0.6629765625,-1.518575594446063,-1.646078231026232,-0.07641147789880633
1772534508292993500,0.67299365234375,-1.317151104825735,-1.4408004269786179,0.03361234674453735
1772534508303009500,0.683009521484375,-1.3078934471368788,-1.4637768134184181,0.007242226213216781
1772534508313026600,0.693026611328125,-1.1504068834424017,-0.9839210207343101,0.20353139877170323
1772534508323042600,0.70304248046875,-1.2912941945135592,-0.8451770053021609,0.1864338412374258
1772534508333059600,0.7130595703125,-1.2241811447054147,-0.7604501190006733,0.22432634951919317
1772534508343075600,0.72307568359375,-0.9037894993990659,-0.652516983026266,0.2369878973674029
1772534508353092600,0.733092529296875,-0.9003285452902317,-0.6641533525452017,0.231065375450626
1772534508363108600,0.743108642578125,-0.5518722504943608,-0.5742426338650286,0.4729097729384899
1772534508373125600,0.753125732421875,-0.5284896213412285,-0.5872141975104809,0.5818168685115873
1772534508383141600,0.7631416015625,-0.40729777534306044,-0.5381314560420811,0.7305936907235533
1772534508393158700,0.77315869140625,-0.41005613414049147,-0.5365937250807881,0.7492341668508946
1772534508403174700,0.783174560546875,-0.4515075039476156,-0.3780119134955108,0.8239597374893725
1772534508413191700,0.793191650390625,-0.4175660713791847,0.02744067237228155,0.6715550071038305
1772534508423207400,0.80320751953125,-0.12160218036472796,0.1836855654425919,0.5195901294402778
1772534508433224700,0.813224609375,0.16129121667444704,0.26547829798832534,0.5139066769763827
1772534508443240700,0.82324072265625,0.24525953969359396,0.23996347911208868,0.6837798440352082
1772534508453257500,0.833257568359375,0.2344213348150253,0.2804721612416208,0.6897226780876516
1772534508463274500,0.8432744140625,0.4723474628806114,0.2862472375117242,0.9261611979439854
1772534508473290800,0.853290771484375,0.5771551603108644,0.33236221521571274,0.9418193703249096
1772534508483306800,0.863306640625,0.4686661440193653,0.3519187102094292,0.9993206883095205
1772534508493323500,0.873323486328125,0.30073066702485085,0.3584294072777033,1.0907434189878404
1772534508503340500,0.883340576171875,0.2820236284673214,0.391973949483037,1.1539390030913055
1772534508513356800,0.893356689453125,0.32643326355814933,0.40016514698415995,1.044668042641878
1772534508523373600,0.90337353515625,-0.04425590583384037,0.13197335225343704,0.7907488111525773
1772534508533389600,0.9133896484375,0.10886252577900886,-0.04713555292338133,0.5780868882030248
1772534508543406600,0.923406494140625,0.1624392176657915,0.07674567828923463,0.2640792448453605
1772534508553422600,0.933422607421875,0.1483832197844982,0.09107640145868062,0.3151104900330305
1772534508563439600,0.943439697265625,0.286737212985754,0.20944033055454492,0.19303703889474272
1772534508573455600,0.95345556640625,0.3865905028790235,0.06355681863129138,0.3285303819678724
1772534508583472400,0.963472412109375,0.3574941722542047,-0.034739889469742775,0.38154315636157987
1772534508593488400,0.97348828125,0.3029524347275495,-0.020469079793989656,0.41737917050495743
1772534508603505700,0.983505615234375,0.3111310650080442,-0.04344575849473476,0.40901027834936976
1772534508613521700,0.993521728515625,-0.023238836768269537,-0.12478782466351986,0.572566078954935
1772534508623538400,1.003538330078125,-0.03030629093647003,-0.1755696251347661,0.5764106255538761
1772534508633554400,1.013554443359375,-0.2837789477020502,-0.23352847762852905,0.4890456458337605
1772534508643571700,1.02357177734375,-0.4415951817423105,-0.27039631903767586,0.4536537221960723
1772534508653587500,1.03358740234375,-0.4486632204324007,-0.27834230960607526,0.49775239164158697
1772534508663604500,1.0436044921875,-0.715945791363716,-0.40617081713974473,0.4135398846030235
1772534508673620500,1.053620361328125,-0.7352630707740784,-0.42744419905394315,0.44465661513954396
1772534508683637500,1.063637451171875,-0.7304378425747156,-0.35825025131851435,0.45613618666157124
1772534508693653500,1.073653564453125,-0.6963841818034648,-0.29336364538818593,0.4530521030411124
1772534508703670500,1.08367041015625,-0.7062947504431009,-0.28503070132881403,0.48525852851048107
1772534508713686500,1.0936865234375,-0.5263111082583666,-0.12361644279658794,0.5502765057355166
1772534508723703600,1.10370361328125,-0.4230757747113704,-0.07719751370996236,0.5637937205649912
1772534508733719600,1.113719482421875,-0.23934417816996573,-0.041638124550879,0.6611180765025317
1772534508743736600,1.123736572265625,-0.023703531670570373,0.014931027150154113,0.7446032921798527
1772534508753752600,1.133752685546875,-0.017478373545408248,0.012861819660663604,0.7207306875526904
1772534508763769600,1.14376953125,0.25965572931468484,0.03353402081131935,0.7121458145588636
1772534508773785600,1.15378564453125,0.3903963249027729,-0.03815115921795368,0.6032004328019916
1772534508783802600,1.163802734375,0.44936640026569363,-0.1015150856256485,0.48746173764318224
1772534508793818400,1.173818359375,0.45708092016577717,-0.167501761752367,0.4108393934726715
1772534508803835600,1.183835693359375,0.46249826903939245,-0.1813984774187207,0.4035796316027641
1772534508813851600,1.1938515625,0.5357499677330255,-0.24324264691323041,0.4282043697714805
1772534508823868400,1.203868408203125,0.47459436502456664,-0.26067104383707046,0.4166406270973384
1772534508833884400,1.213884521484375,0.34890579212903977,-0.2330845332533121,0.4991531983502209
1772534508843901700,1.223901611328125,0.295551218560338,-0.25875702690929175,0.5404566841192543
1772534508853917700,1.233917724609375,0.292099032279849,-0.2645738964945078,0.5621781020618974
1772534508863934500,1.2439345703125,0.47873102643787857,-0.2523871996164322,0.33913390130773186
1772534508873951500,1.253951416015625,0.4838531917572021,-0.24111060332059858,0.28553528985008597
1772534508883967700,1.2639677734375,0.4195452624976635,-0.2806526323750615,0.39638752814158795
1772534508893983500,1.2739833984375,0.3895049290210008,-0.3114163116902113,0.4957886903531849
1772534508904000500,1.28400048828125,0.3929401641666889,-0.3249531080029905,0.49634953910633917
1772534508914017500,1.294017578125,0.3335316973865032,-0.3714562082417309,0.576903085245937
1772534508924033500,1.304033447265625,0.3143716543644666,-0.42706557499989867,0.6939765361398458
1772534508934050600,1.314050537109375,0.27246377296149726,-0.4243953328773379,0.7797310119234026
1772534508944066600,1.324066650390625,0.17218787374198435,-0.41358007048293943,0.7805741847492754
1772534508954083300,1.334083251953125,0.17362462854683397,-0.42161432385668157,0.7832114013850688
1772534508964099600,1.344099609375,0.06581716477870941,-0.4191663461826741,0.8492913087531924
1772534508974116600,1.35411669921875,-0.029402035573124884,-0.36199966697990893,0.9213907686717808
1772534508984132600,1.364132568359375,-0.23122224651277065,-0.2941955661676824,0.9105372200936078
1772534508994149400,1.3741494140625,-0.3324456557154655,-0.3013007219977677,0.9060982147328555
1772534509004165600,1.38416552734375,-0.3298334273904562,-0.3190510443523526,0.9137506291821599
1772534509014182700,1.3941826171875,-0.6502104596495628,-0.26889453617259856,0.90183763467893
1772534509024198700,1.40419873046875,-0.775292298823595,-0.29849004849120975,1.0047934206321836
1772534509034215400,1.41421533203125,-0.8402624913841485,-0.27466961244270205,1.0598097899332641
1772534509044231700,1.424231689453125,-0.816829593348503,-0.28298326727971435,1.0667327210642397
1772534509054248400,1.43424853515625,-0.8105594270378351,-0.2965259088113904,1.0538561422258614
1772534509064264400,1.444264404296875,-0.7687941689759492,-0.2945155919022858,1.0476068725727499
1772534509074281500,1.454281494140625,-0.5969657761961221,-0.2937023758232593,1.0681997248768806
1772534509084297700,1.464297607421875,-0.4339706782132387,-0.2232781556405127,1.0737439150005579
1772534509094314500,1.474314453125,-0.31564766564965246,-0.06785948426127433,1.1132691390506924
1772534509104330500,1.48433056640625,-0.3083183456748724,-0.06950301368460059,1.0821201136797667
1772534509114347500,1.494347412109375,-0.2918810056149959,0.11489508394151926,1.1989587329044937
1772534509124363500,1.504363525390625,-0.40080373714864254,0.029603549494594334,1.2056484398014842
1772534509134380500,1.514380615234375,-0.601313450011611,-0.16070903287231922,1.0949605982914565
1772534509144396500,1.524396484375,-0.7609528078258037,-0.43679435733184213,0.8602820738449692
1772534509154413600,1.53441357421875,-0.7455950796961784,-0.47642727954015135,0.8295026124387979
1772534509164429300,1.54442919921875,-1.2014952656447886,-0.5771957845821977,0.24185908360034225
1772534509174446600,1.554446533203125,-1.6008733539044857,-0.3956865402653813,0.24005934070199728
1772534509184462600,1.564462646484375,-1.574415555089712,-0.027981647381186484,0.46500367598906156
1772534509194479400,1.574479248046875,-1.37201023773849,0.5245747859850526,0.7542166314385831
1772534509204495400,1.584495361328125,-1.3529004635989665,0.4950076229780912,0.6775051476798951
1772534509214512600,1.5945126953125,-0.7128525015234947,1.0360029440186918,1.510928148432821
1772534509224528600,1.604528564453125,-0.22246786217093467,0.8326941019564866,1.7152569811925291
1772534509234545400,1.61454541015625,0.19157529577910898,0.7369333420738577,1.718046173519641
1772534509244561400,1.6245615234375,0.5773784476727247,0.8510524732068181,1.6008075951918959
1772534509254578700,1.63457861328125,0.5696002148866653,0.9011341625846921,1.583370284309238
1772534509264594400,1.644594482421875,0.8068278392940759,1.0846440791994332,1.4740022932261228
1772534509274611500,1.654611572265625,0.7450286779850721,1.2085954530388117,1.4393908524416386
1772534509284628700,1.664628662109375,0.6356243004143237,1.3905179543316364,1.4056022723473607
1772534509294644500,1.67464453125,0.48196927770674225,1.5472244735643266,1.413493463988602
1772534509304661500,1.68466162109375,0.4788578676879406,1.5488327855437993,1.432043996810168
1772534509314677500,1.694677490234375,-0.14036884015500545,1.606957203862816,1.5322351403556764
1772534509324694500,1.704694580078125,-0.4438450064957142,1.531332200166583,1.5871633929818867
1772534509334710500,1.71471044921875,-0.6966723510950803,1.4787497800141571,1.6260890437036752
1772534509344727600,1.7247275390625,-0.8829875343888998,1.382073220460862,1.6684687804020941
1772534509354743600,1.73474365234375,-0.88188687967062,1.3650034277163445,1.6846389939583837
1772534509364760600,1.744760498046875,-0.9789397251904011,1.2672830581985413,1.708746284124255
1772534509374776600,1.754776611328125,-0.8919926786214113,1.2215643863357604,1.6411036574840545
1772534509384793600,1.764793701171875,-0.6910083339840173,1.246977644533664,1.5643194007501005
1772534509394809600,1.7748095703125,-0.6918634895086289,1.2476885692819952,1.5686211895972488
1772534509404826600,1.78482666015625,-0.5221387910097837,1.2429251542724669,1.6092970449872315
1772534509414842600,1.794842529296875,-0.34234862557053564,1.4856145512171088,1.9426411108471453
1772534509424859600,1.804859619140625,-0.2762356927156448,1.5841871536500751,2.0853128211170433
1772534509434875400,1.81487548828125,-0.28703941080272194,1.6002601904422045,2.2516613211810586
1772534509444892700,1.824892578125,-0.3268850989788771,1.619848980270326,2.3706492273941633
1772534509454908700,1.83490869140625,-0.32036943347454067,1.5889786257103085,2.3685607306823133
1772534509464925400,1.844925537109375,-0.49396542044878006,1.6230084672145544,2.5300305187940597
1772534509474941400,1.85494140625,-0.5313982022643089,1.560383230344951,2.4705069012016057
1772534509484958700,1.864958740234375,-0.5248609094500541,1.4452365097299218,2.3385668666958805
1772534509494974700,1.874974609375,-0.5265589455395937,1.3300871587663887,2.2260708067201076
1772534509504991500,1.884991455078125,-0.5300894577533006,1.3188057401649653,2.2595617190420625
1772534509515007500,1.895007568359375,-0.5356570287525654,1.0026024864591658,2.0507005035497246
1772534509525024800,1.905024658203125,-0.5441355187624692,0.8287111698001622,1.989817726433277
1772534509535040500,1.91504052734375,-0.5243371778368949,0.6507547956593335,1.9639028023235499
1772534509545057500,1.9250576171875,-0.42955870698988435,0.5334205018721521,1.9138558919981121
1772534509555073500,1.935073486328125,-0.4278092329740524,0.5113825653262436,1.9261675304301082
1772534509565090600,1.945090576171875,-0.373241776484251,0.37208749188259244,1.9459110724285245
1772534509575106800,1.95510693359375,-0.43395021994709965,0.3082647157914936,1.9740882423818111
1772534509585123800,1.965123779296875,-0.4274357234865427,0.2756920873582363,1.9692684210099278
1772534509595139800,1.975139892578125,-0.40004736582338807,0.1975565621457994,2.0004343975156544
1772534509605156900,1.985156982421875,-0.39336744966804976,0.16845993926003575,1.9902593327209352
1772534509615172900,1.9951728515625,-0.26642215470969677,-0.03742737498804927,1.8898336497671901
1772534509625190000,2.00518994140625,-0.1855710869282484,-0.1885677845261991,1.8290537485033274
1772534509635205600,2.01520556640625,-0.18016718205809593,-0.20686916489228604,1.8149392984330652
1772534509645223000,2.025222900390625,0.02114332579374313,-0.30695918615087864,1.87588345034793
1772534509655239000,2.035239013671875,0.025858079355955122,-0.3220420428618789,1.862228142222017
1772534509665255700,2.045255615234375,0.12344050170779228,-0.22697262624427675,1.9820304335579275
1772534509675271700,2.055271728515625,0.14640402866601943,-0.17313231498524545,2.100675956074148
1772534509685289000,2.0652890625,0.14008593156039714,-0.15175357300043105,2.1613769468829034
1772534509695305700,2.0753056640625,-0.07742693855166435,-0.1641281936660409,2.134215968234837
1772534509705321700,2.08532177734375,-0.22299977709054947,-0.25612390192672607,2.1061974959746004
1772534509715339000,2.095339111328125,-0.26520751822292804,-0.3128890145912766,2.040508341489732
1772534509725355000,2.10535498046875,-0.32350363984704017,-0.28651553305909033,1.9310431736424565
1772534509735371800,2.115371826171875,-0.27931904568374155,-0.2889838228687644,1.798260112441331
1772534509745387800,2.1253876953125,-0.23316636631786822,-0.3164243491105735,1.6365372263513505
1772534509755405000,2.135405029296875,-0.233951963737607,-0.3094552407503128,1.6352321351021528
1772534509765420800,2.1454208984375,-0.4994692785620689,-0.22287468940615654,1.1111829804264008
1772534509775437800,2.155437744140625,-0.6897697320997714,-0.1770263998143375,0.7906424281686544
1772534509785453800,2.165453857421875,-0.6895405995190144,-0.17949483575448394,0.7914104899317026
1772534509795470600,2.175470703125,-1.160101178982854,-0.21375585566610097,0.323259601958096
1772534509805486800,2.18548681640625,-1.1608043588161467,-0.22112696895599365,0.33378187275528903
1772534509815504000,2.19550390625,-1.7621867824107407,-0.20124971757531165,0.19673472436890005
1772534509825519900,2.205519775390625,-1.9813965195685623,-0.12271715586930512,0.2069154882520437
1772534509835536600,2.21553662109375,-1.987236477768421,-0.10821385261192917,0.22856369482800362
1772534509845553000,2.225552978515625,-1.8388351378053425,0.2242313647121191,0.04052110321968794
1772534509855570000,2.23556982421875,-1.8457623067200182,0.26112989352047444,0.048434506692737335
1772534509865586000,2.2455859375,-1.0470283420324324,0.5874805933617055,-0.10671148522496222
1772534509875602700,2.255602783203125,-0.6744032361418009,0.7700969221375882,-0.14430617960393427
1772534509885619000,2.265618896484375,-0.678985303235054,0.80530019133538,-0.1507742065742612
1772534509895636000,2.275635986328125,-0.43731765055358407,1.0410381617069244,-0.1459784967303276
1772534509905651700,2.285651611328125,-0.4412035520762205,1.0599529977962374,-0.14199644135683775
1772534509915668700,2.295668701171875,-0.8207605030566454,1.0275808603711425,-0.2559187347434461
1772534509925685000,2.30568505859375,-0.9865431859314441,0.9226891379192471,-0.4777700724512338
1772534509935701800,2.31570166015625,-0.9878606982707977,0.9354901673033833,-0.48281508088111874
1772534509945717800,2.3257177734375,-1.1587906809061765,0.9092536100238561,-0.5613409205853939
1772534509955734800,2.33573486328125,-1.1592197199732064,0.931815716574341,-0.58169996413365
1772534509965751000,2.3457509765625,-0.7711404398411512,1.1083365049540996,-0.5092608969971537
1772534509975767800,2.355767822265625,-0.41534138106703755,1.2522848110310734,-0.5072413738682866
1772534509985783800,2.36578369140625,-0.41640404186248775,1.2891409620024263,-0.5422758623704313
1772534509995800800,2.37580078125,0.08328560145199299,1.5194544231072067,-0.44470732241347427
1772534510005816800,2.38581689453125,0.08087795578837394,1.5580017420358956,-0.4767718551941216
1772534510015833900,2.395833740234375,0.43880116710960865,1.6500645241834222,-0.41766748592704533
1772534510025849900,2.405849853515625,0.4356909261345863,1.685413047070801,-0.44417584588527675
1772534510035866600,2.41586669921875,0.41652620693743225,1.6383226484633981,-0.34572482400536536
1772534510045883000,2.4258828125,0.25530221028029915,1.4952813742287456,-0.31235286188796163
1772534510055900000,2.43589990234375,0.2503162385612726,1.5240943578675388,-0.3200967540130019
1772534510065916000,2.445916015625,0.1049783778220415,1.277155048393458,-0.49153454004004593
1772534510075932700,2.4559326171875,0.08915244765877724,1.1821418920077382,-0.5751807914979755
1772534510085950000,2.465949951171875,0.06496843899488448,1.065920820159465,-0.6611778438657522
1772534510095966000,2.475966064453125,0.17535422881841659,0.9422986782744527,-0.7121971063546836
1772534510105982700,2.485982666015625,0.2742377968966961,0.9412268112592399,-0.6869520443305372
1772534510115998700,2.495998779296875,0.28221535164713857,0.9202388221576809,-0.5894374265179038
1772534510126016000,2.50601611328125,0.31515257560908794,0.8443415773913264,-0.4622738126337528
1772534510136031700,2.51603173828125,0.3655781099885702,0.8039370862886309,-0.33339287343770263
1772534510146048800,2.526048828125,0.2688999430000782,0.7473705649361014,-0.2736277021743357
1772534510156064800,2.536064697265625,0.2569032157361507,0.6127025667712092,-0.24979762151464818
1772534510166081800,2.546081787109375,0.22931378254294393,0.541338581520319,-0.17072364640831947
1772534510176097800,2.556097900390625,0.25403905847668645,0.5098255451425909,-0.06637194911725819
1772534510186114800,2.56611474609375,0.29259529136419293,0.47943026074841616,-0.0018644786976277827
1772534510196130800,2.576130859375,0.3253711872845888,0.45647155609577894,0.04513941067010164
1772534510206147800,2.58614794921875,0.3199994311183691,0.36672801067605615,0.054523836543783545
1772534510216163800,2.596163818359375,0.3491021914839744,0.23242650773599743,-0.055564504703134295
1772534510226180900,2.606180908203125,0.4809136311739683,0.1015529334180057,-0.20804310404248536
1772534510236196900,2.61619677734375,0.627706951418519,-0.011538608232885599,-0.2969257948491722
1772534510246214000,2.6262138671875,0.7502665786385536,-0.1046563062608242,-0.2940122454900294
1772534510256230000,2.63622998046875,0.9242004192650317,-0.24013196754679084,-0.23948870120719074
1772534510266247000,2.646246826171875,1.0582447325736284,-0.29074674088805913,-0.2394803717702627
1772534510276262700,2.6562626953125,1.0989578512340783,-0.367237421502918,-0.21531177987121045
1772534510286280000,2.666280029296875,1.2108014386504888,-0.4168992780335247,-0.1777576366983354
1772534510296296000,2.6762958984375,1.2674410252392292,-0.4421881791993975,-0.15923896031975746
1772534510306312700,2.686312744140625,1.321250356838107,-0.5021140939824282,-0.14900135168284176
1772534510316328700,2.69632861328125,1.2898971871972083,-0.5872638818711042,-0.18742467890568076
1772534510326346000,2.706345947265625,1.253197980353236,-0.6658619100287556,-0.28359862269908187
1772534510336362000,2.716362060546875,1.1889905888587236,-0.7748797724999487,-0.4172907615691423
1772534510346378800,2.726378662109375,1.1393541590303182,-0.9133999160483479,-0.5440341042146086
1772534510356394800,2.736394775390625,1.0120686723321675,-0.9786793206885457,-0.6434826126992702
1772534510366412000,2.746412109375,0.8186305052906274,-1.0122671175137161,-0.5648210908513516
1772534510376427800,2.756427734375,0.6161059454739093,-1.0120055439680815,-0.4923480483800173
1772534510386444800,2.76644482421875,0.356660059517622,-0.9886816592648625,-0.4094694933589548
1772534510396460800,2.776460693359375,0.35587738470733166,-1.0003599682293831,-0.3834856687314808
1772534510406477800,2.786477783203125,0.21557518004775045,-1.009490638537705,-0.25433745690137144
1772534510416493800,2.796493896484375,0.19090777178108692,-1.0285755704969166,-0.3161267544034868
1772534510426510800,2.8065107421875,0.20430384444892405,-1.0335869689181447,-0.2589606597226113
1772534510436527600,2.816527587890625,0.20070961934924125,-1.0198086189344524,-0.24960034537687897
1772534510446544000,2.8265439453125,0.07947861038446426,-0.9341118646875023,-0.15456168922372163
1772534510456561000,2.836560791015625,0.03843172972500324,-0.9330473041959106,-0.07514474589861929
1772534510466577000,2.846576904296875,0.039682022047042846,-0.9134773651987314,-0.04161708176285028
1772534510476593700,2.85659375,-0.12380699693262576,-0.8076999459534883,0.06046900868378579
1772534510486610000,2.86660986328125,-0.12402969977259636,-0.804307965427637,0.0570767358969897
1772534510496627000,2.876626953125,-0.6227642343193293,-0.7234772097818553,0.26709661990515887
1772534510506643000,2.886642822265625,-0.9596399814367294,-0.6982368239328265,0.34693368833847343
1772534510516659700,2.89665966796875,-1.1386240911900996,-0.6511353194095194,0.45489904608204956
1772534510526676000,2.906676025390625,-1.1437345660716294,-0.6249554607532918,0.45590858845077453
1772534510536692700,2.916692626953125,-0.984728829985857,-0.658744186978042,0.05777786990366876
1772534510546708700,2.926708740234375,-1.0043810404390097,-0.4392269913062453,-0.12030183835588396
1772534510556725800,2.936725830078125,-0.7778361380875111,-0.47682621572986245,-0.15704057349264622
1772534510566742000,2.946741943359375,-0.575343142452836,-0.4823381110191345,-0.1340740508597344
1772534510576758500,2.956758544921875,-0.4179407499104738,-0.29994039342999457,-0.15108108056634664
1772534510586774500,2.9667744140625,-0.3848971429646015,-0.06191825764402747,-0.06659246000014245
1772534510596791600,2.97679150390625,-0.5458189418047666,0.12587781185731292,0.07890987058579921
1772534510606807600,2.9868076171875,-0.9385153603434562,0.11219415441974998,0.34166371204629536
1772534510616824600,2.996824462890625,-1.5754279470026493,-0.034442660088837146,0.7353304369218647
1772534510626840600,3.006840576171875,-1.9567174208641052,-0.10774784253537655,0.8993168109644204
1772534510636857600,3.016857666015625,-2.146625660213828,-0.015744243229180572,0.990386271225661
1772534510646873600,3.02687353515625,-2.206093163704872,0.14660028189048172,1.0684593256611377
1772534510656890600,3.036890625,-1.9681886629492042,0.3187994076788425,1.1037149095680563
1772534510666906600,3.04690673828125,-1.5297130745321512,0.5386670242235064,1.1036407483533024
1772534510676923400,3.05692333984375,-0.9301794936746358,0.7688510137297213,1.0953772162683308
1772534510686939400,3.066939453125,-0.9300842166066169,0.7904863608241081,1.050982851811871
1772534510696956700,3.076956787109375,0.3489110528260469,1.059260777748376,1.008876890553534
1772534510706972700,3.08697265625,0.6708131026953459,1.1957054301969707,1.0617314056456089
1772534510716989400,3.096989501953125,0.8769272114366292,1.291711397012323,1.056027933306992
1772534510727005400,3.10700537109375,1.0295628279685973,1.2992162196844816,1.0858872841935605
1772534510737022700,3.117022705078125,1.1371674626410007,1.306762981802225,1.0114513441514223
1772534510747038700,3.127038818359375,1.2194032627791165,1.3803703620657324,0.890040375509858
1772534510757055500,3.137055419921875,1.1648095028042793,1.418167301018536,0.8148838661082088
1772534510767071500,3.147071533203125,1.0395639975011348,1.4327436695121227,0.6991387412086129
1772534510777088800,3.1570888671875,0.8381722411066294,1.433393219462037,0.5093828428763896
1772534510787104500,3.1671044921875,0.7032365319162607,1.3127547695629298,0.2903178479515016
1772534510797121500,3.17712158203125,0.5853127478033304,1.2004176995411515,0.04440094032771885
1772534510807137500,3.187137451171875,0.5651812294006348,1.0682045471824706,-0.2032018745563924
1772534510817154600,3.197154541015625,0.6254086113482713,0.9312893546126783,-0.4024696975994855
1772534510827171600,3.207171630859375,0.7759732668250798,0.7932135938309133,-0.5620678466204554
1772534510837187600,3.2171875,0.872362095478177,0.7317777128763496,-0.6493136569403112
1772534510847204400,3.227204345703125,0.9102116414010524,0.6688551004953682,-0.5932558157622814
1772534510857220600,3.237220703125,1.0004296724647284,0.6016774610184132,-0.40171142657808956
1772534510867237600,3.247237548828125,0.9281769216805696,0.64571168692559,-0.1520294673323631
1772534510877253600,3.257253662109375,0.828847947922349,0.7546475702017545,0.13219963528998196
1772534510887270400,3.2672705078125,0.6483323908179998,0.8593795720472931,0.35807832881771023
1772534510897286700,3.27728662109375,0.29711773722469803,0.8684929989598691,0.45431079786531625
1772534510907303700,3.2873037109375,0.018654431587457655,0.7828587885551154,0.5383652647979558
1772534510917319400,3.2973193359375,-0.1971340989500284,0.7028733976922928,0.6470302952434868
1772534510927336400,3.30733642578125,-0.18375263932943342,0.6617300709210335,0.7040429529283195
1772534510937352700,3.317352783203125,-0.047772974044084544,0.6255499195151031,0.7023028312627225
1772534510947369500,3.327369384765625,0.06600128917396068,0.6089801852472126,0.6757029936287552
1772534510957385500,3.337385498046875,0.29927403847575185,0.5900885839030147,0.6639315264880656
1772534510967402500,3.347402587890625,0.4154401652663946,0.5415896336719394,0.5831161876071244
1772534510977418500,3.35741845703125,0.5069973359793424,0.4045592902898788,0.5265837146546691
1772534510987435500,3.367435546875,0.5105372005432843,0.21910335417389867,0.4944768771022558
1772534510997451500,3.377451416015625,0.48897477255463595,0.09392930667176842,0.4188084726557135
1772534511007468500,3.387468505859375,0.2828209163248539,-0.005138093540817499,0.36332185549437995
1772534511017484500,3.397484619140625,0.06156009185612201,-0.13184110417589545,0.3839884306218475
1772534511027501600,3.40750146484375,0.06439969919621943,-0.16251462098956107,0.41165407085642214
1772534511037517600,3.417517578125,0.009404372683167458,-0.29703488124683497,0.2750516705628484
1772534511047534600,3.42753466796875,0.12760112851858138,-0.31379765386879444,0.2958143264759332
1772534511057550300,3.43755029296875,0.1828226650029421,-0.3474646534100175,0.4110494560267776
1772534511067567600,3.447567626953125,0.3077583737045526,-0.3750027948074043,0.5502977677192539
1772534511077583600,3.45758349609375,0.4589017058521509,-0.39272242976278066,0.6395668274950236
1772534511087600400,3.467600341796875,0.39982641654908657,-0.42282399190738795,0.6422078435231
1772534511097616400,3.477616455078125,0.19732348404228686,-0.47161929473653436,0.5984796148251742
1772534511107633700,3.487633544921875,-0.007395955470204353,-0.5489473029583692,0.47443793235383924
1772534511117649700,3.497649658203125,-0.2869540706068277,-0.6064379534184933,0.3825376472916454
1772534511127666400,3.50766650390625,-0.5687368760555982,-0.686510438042879,0.323429770893231
1772534511137682400,3.517682373046875,-0.7123498126983642,-0.764220723580569,0.3035697629082948
1772534511147699700,3.52769970703125,-0.8725906435370445,-0.75987787207067,0.2314319437406957
1772534511157715500,3.537715576171875,-0.964981926986575,-0.7769767447791993,0.15822583775445817
1772534511167732500,3.547732421875,-1.0032453144073485,-0.7677582500569522,0.05855557627789676
1772534511177748500,3.55774853515625,-1.001222868669033,-0.7292766898408531,-0.08138619757145643
1772534511187765500,3.567765625,-0.956078489562869,-0.7282537765339017,-0.2218510454468429
1772534511197781500,3.577781494140625,-0.8873112428069114,-0.7495157602712511,-0.34504524424336847
1772534511207798500,3.587798583984375,-0.7338958740741014,-0.7398017371170222,-0.5057368145242334
1772534511217815600,3.597815673828125,-0.5418652357429266,-0.7627179178021848,-0.701718674699217
1772534511227831600,3.60783154296875,-0.34470424878597256,-0.7154255668818951,-0.8563916422776877
1772534511237848600,3.6178486328125,-0.34870939277410506,-0.7079648756124078,-0.8317617895424365
1772534511247864600,3.627864501953125,-0.28163316784501075,-0.7047815694011748,-1.1697201442647724
1772534511257881600,3.637881591796875,-0.3366933762878179,-0.691594609439373,-1.4081535642653702
1772534511267897600,3.647897705078125,-0.3686667236536741,-0.6823802063703537,-1.585431016231328
1772534511277914600,3.65791455078125,-0.4312923989146948,-0.7062552952155471,-1.5868400062464176
1772534511287930400,3.667930419921875,-0.43635085134804247,-0.6759837833315133,-1.5833160699039697
1772534511297947600,3.67794775390625,-0.2825011828511953,-0.72358490794003,-1.3309079736299811
1772534511307963600,3.687963623046875,-0.22914777832627295,-0.6082939565487205,-1.1910660799585282
1772534511317980400,3.69798046875,-0.13186287761628626,-0.4871718147858977,-1.051662869965285
1772534511327996400,3.707996337890625,-0.1362882928431034,-0.33906975003033873,-0.8977444470811635
1772534511338013700,3.718013671875,-0.13134849835336207,-0.35593028393834825,-0.9159102914340793
1772534511348029700,3.72802978515625,-0.3686678926974535,0.04108706653937697,-0.444816043484956
1772534511358046500,3.73804638671875,-0.9267746536672115,0.16834712653532624,-0.012559256517514586
1772534511368062500,3.7480625,-1.3038117307811974,0.02263531791716814,0.4939182203061878
1772534511378079700,3.758079833984375,-1.6350626237541437,-0.10772402326837181,0.8913419596277177
1772534511388095700,3.768095703125,-1.6356944919168948,-0.11290756338611245,0.9025470250573009
1772534511398112500,3.778112548828125,-1.9189713353157043,-0.06962050258442759,1.2053403237003832
1772534511408128500,3.78812841796875,-1.4603215583980083,0.15154226833730935,1.4068871975913644
1772534511418145500,3.7981455078125,-1.0753425823688507,0.34342750684842466,1.2975024015039205
1772534511428161500,3.80816162109375,-0.6907593276590108,0.5634324860371649,1.1143157985594123
1772534511438178600,3.818178466796875,-0.6887614318400621,0.5752905354827642,1.0822747927848249
1772534511448194600,3.828194580078125,-0.478127799847722,0.7854008742533624,0.9959694051202386
1772534511458211300,3.83821142578125,-0.5536047733753919,0.8443110361225903,0.9304142522785812
1772534511468227600,3.8482275390625,-0.6154080263376236,0.8506742875441908,0.7729711623996496
1772534511478244600,3.85824462890625,-0.5989098960012197,0.8552521168537437,0.5585721134591848
1772534511488260600,3.868260498046875,-0.6033703825414181,0.8729379956699908,0.5736732364792376
1772534511498277400,3.87827734375,-0.5787602574199437,0.7725299945034086,0.19876579180508852
1772534511508293600,3.888293701171875,-0.5988508592903614,0.6881678498610854,0.0894439048860222
1772534511518310700,3.898310546875,-0.5601829827219248,0.5977335456982255,0.02412840601913631
1772534511528326400,3.908326416015625,-0.5731137759655713,0.6434789594374597,0.06484342437572777
1772534511538343400,3.918343505859375,-0.4866495444774627,0.5601436736248433,-0.00292597044929862
1772534511548359700,3.928359619140625,-0.20735504871308802,0.3517905537851155,-0.2807932098895311
1772534511558376400,3.93837646484375,-0.12988134841024876,0.31450726344287394,-0.21441811896711588
1772534511568393000,3.94839306640625,0.043405426484346386,0.3034571693792939,-0.06276040755659341
1772534511578410200,3.95841015625,0.2742027255833149,0.3509790912717581,0.11599603092074394
1772534511588427000,3.968427001953125,0.28025661879479885,0.35409254711717364,0.06399674441851676
1772534511598443000,3.978443115234375,0.542220625051856,0.46392347953692076,0.3979707787450403
1772534511608459000,3.988458984375,0.7540209627360105,0.45660658065229653,0.4482851078350097
1772534511618476000,3.99847607421875,0.9970569811612368,0.40692163550704713,0.5404603373810649
1772534511628493000,4.0084931640625,1.1610475199222563,0.3168827604025602,0.595330576209724
1772534511638509000,4.018509033203125,1.1692279037684201,0.30761838071197267,0.5238948408968747
1772534511648526000,4.028526123046875,1.4412982934981584,0.1665836239941418,0.6297625687740743
1772534511658542000,4.0385419921875,1.4241086737662554,0.09552344399541617,0.5288428917583078
1772534511668559000,4.04855908203125,1.4353987140655518,-0.0017617489755153656,0.3600834580950439
1772534511678575000,4.0585751953125,1.5375526821166277,-0.11499299135804175,0.21126871502548455
1772534511688592000,4.068591796875,1.5342536405712366,-0.09296016937866806,0.19910437610968945
1772534511698607900,4.07860791015625,1.8355436950445174,-0.2471669807501137,-0.025789763360098004
1772534511708625200,4.088625244140625,2.0764047075182197,-0.29125732075870037,-0.11715272667519748
1772534511718641200,4.09864111328125,2.070539030355215,-0.2607975928261876,-0.1193408843692392
1772534511728658000,4.108657958984375,2.191169150817394,-0.36326749495863914,-0.13459193725399674
1772534511738674000,4.118673828125,2.226912079849839,-0.4719537873879075,-0.18983678154870867
1772534511748691200,4.128691162109375,2.1249714622884985,-0.7849070993870496,-0.359129737566784
1772534511758707000,4.13870703125,1.8754209474027155,-1.0268306265257299,-0.3739087890256196
1772534511768724000,4.148723876953125,1.6347691937655209,-1.2600411242462695,-0.31037703177034853
1772534511778740000,4.158739990234375,1.3140022854059934,-1.3957986712135373,-0.17676102687641979
1772534511788757000,4.168757080078125,1.3125251985907553,-1.3926649032324552,-0.16530520155616105
1772534511798773000,4.17877294921875,1.2065028646737337,-1.4704013461247085,0.014618600200116634
1772534511808790000,4.1887900390625,1.215661153641343,-1.4774353364147246,0.029468451872840522
1772534511818806000,4.198805908203125,1.1148217753201723,-1.474501474919915,0.04725720654167235
1772534511828823000,4.208822998046875,0.9141051417082547,-1.473683874926716,0.014915975711494684
1772534511838839000,4.218839111328125,0.9125514825254678,-1.4698613940291105,0.024752967658266425
1772534511848856000,4.22885595703125,0.23747896881997585,-1.4779663745515048,-0.04828326165378093
1772534511858872000,4.2388720703125,-0.23062661870718001,-1.4749645623870193,-0.08946326717361808
1772534511868889000,4.24888916015625,-0.6381991193383931,-1.4355088964417575,-0.1354701083280146
1772534511878905000,4.258905029296875,-0.9195920486867427,-1.310384679430723,-0.13334127960577608
1772534511888921900,4.268921875,-0.9252221635282039,-1.2909769452579318,-0.11539616533145308
1772534511898937900,4.278937744140625,-1.1286223371356725,-0.9880340090110897,-0.21767054489180446
1772534511908955100,4.288955078125,-1.2472516391694546,-0.9281292831465602,-0.2598323279906064
1772534511918971100,4.29897119140625,-1.2558861965239048,-0.8998983371794224,-0.2336631368588656
1772534511928988000,4.30898779296875,-1.5539596270382403,-0.5867486258253455,-0.4714302019052207
1772534511939004000,4.31900390625,-1.5606255146682262,-0.5697244257882237,-0.4426816618047654
1772534511949021200,4.329021240234375,-1.9232289927601813,-0.46543826801404353,-0.16086743830442427
1772534511959037200,4.339037109375,-2.024415577083826,-0.35248598870337006,0.0797631264142692
1772534511969054000,4.349053955078125,-2.0301941604852676,-0.3378415234096348,0.10230521309003233
1772534511979070000,4.359070068359375,-1.9413801510006188,0.04815481296852231,0.3453174122482538
1772534511989087200,4.369087158203125,-1.9483815541952847,0.07437076585143804,0.3530260138642043
1772534511999104000,4.37910400390625,-1.2640554744541643,0.22216960987672207,0.3900528452273458
1772534512009120000,4.3891201171875,-1.0132155042797326,0.3802956405185163,0.5095310922406614
1772534512019137000,4.399136962890625,-1.011976317873597,0.387494173720479,0.48156624986380336
1772534512029153000,4.409153076171875,-0.8102560601770877,0.4733550324879586,0.5811940604381263
1772534512039170000,4.419170166015625,-0.7669394810199737,0.5266166670762003,0.681704133739695
1772534512049186000,4.42918603515625,-0.9286649974584579,0.7071246253959834,1.0199300533570348
1772534512059203000,4.439203125,-1.1178244642674922,0.7218482934057712,1.1801245608359574
1772534512069219000,4.449218994140625,-1.1141057360053062,0.7006593749046325,1.1921959607712924
1772534512079236000,4.459236083984375,-1.3540905501663685,0.7821541474170982,1.3368114985853432
1772534512089252000,4.469252197265625,-1.3576865288317204,0.7860157912813126,1.3631670060694216
1772534512099269000,4.47926904296875,-0.9225386235326528,0.8995692513555288,0.8366246463384479
1772534512109285000,4.48928515625,-0.579608398681879,0.9936327058009803,0.6870099119976163
1772534512119302100,4.49930224609375,-0.5834650741100311,1.0116394871346652,0.6835238234475255
1772534512129318000,4.50931787109375,0.09033668900728226,1.1575853967696428,0.5527922879487276
1772534512139335200,4.519335205078125,0.09258476019501685,1.1549717071399093,0.5372685556024313
1772534512149351200,4.52935107421875,0.45180268750190733,1.2960202001221477,0.6518179679114371
1772534512159368000,4.539367919921875,0.32180618827939034,1.3544253350786863,0.6986478158865124
1772534512169384000,4.549384033203125,0.14724983184039592,1.272946929179132,0.736933780465275
1772534512179401200,4.559401123046875,0.08771393928825855,1.1412648149572313,0.7147185876563191
1772534512189417200,4.569417236328125,0.09256722453832626,1.1216634579084812,0.7103385459411888
1772534512199434000,4.57943408203125,0.04166238220930099,1.0281363022968173,0.5767334277674555
1772534512209450000,4.589449951171875,0.24021336221992967,1.0246526979647577,0.4960577896181494
1772534512219467000,4.599467041015625,0.24209143105149267,1.0173471972569823,0.493396680650115
1772534512229483000,4.60948291015625,0.6870347541779279,0.9326339010894298,0.39278643490970133
1772534512239500000,4.6195,0.6896890680789947,0.9170958479568362,0.4005662751309573
1772534512249516000,4.62951611328125,0.8826420819520949,0.6155328217610716,0.3360785323251039
1772534512259533000,4.639532958984375,0.7669657845050096,0.46888358616232867,0.2448843497056514
1772534512269549000,4.649549072265625,0.7690560347825288,0.44751068939641114,0.2688096343681216
1772534512279566000,4.659566162109375,0.6644266165286302,0.23465090578719972,0.13774747867546974
1772534512289582000,4.66958203125,0.6655681877791881,0.2233997361935675,0.14912607404105366
1772534512299598800,4.679598876953125,0.8458072660297155,0.12129501411169767,0.192929706062749
1772534512309615000,4.689614990234375,0.9617290626704692,0.11112944779768585,0.2791436160515994
1772534512319632100,4.699632080078125,0.9666279406279324,0.09284794117584824,0.2683428205739707
1772534512329648000,4.709648193359375,1.1088134748160838,0.09396656994223594,0.46438905122205615
1772534512339665000,4.719664794921875,1.1171353129595518,0.06388371249809861,0.44185478252656757
1772534512349681200,4.72968115234375,1.1253653811663389,0.04701470302268863,0.5924566282086074
1772534512359698200,4.7396982421875,1.0938485453963278,0.021756927647441623,0.5624200941242278
1772534512369714000,4.7497138671875,1.102328788971901,-0.008564122466742992,0.5332256368871778
1772534512379731000,4.75973095703125,0.7098644256234169,-0.2529739134632051,0.5286469307947903
1772534512389747200,4.769747314453125,0.5988958674758672,-0.4276772771574557,0.5096218392640351
1772534512399764000,4.779763916015625,0.6034983928352594,-0.440671052634716,0.48334969921447335
1772534512409780000,4.789780029296875,0.504491490638256,-0.5565447723500431,0.4827607934106141
1772534512419797000,4.799796875,0.5072510184794664,-0.5603617002896965,0.4567185896594077
1772534512429813200,4.809813232421875,0.37753918141722675,-0.5797375780194998,0.4774539191741496
1772534512439830000,4.819830078125,0.3800771754622459,-0.585103635097295,0.45633470490835604
1772534512449846000,4.829845947265625,0.11120879664421081,-0.7220761108122765,0.47392289550378913
1772534512459863000,4.839863037109375,-0.030049101305007934,-0.7409909469015896,0.5024610077239573
1772534512469879000,4.849879150390625,-0.02893207997381687,-0.7372726570308208,0.4761177021343261
1772534512479896000,4.85989599609375,0.012798106774687767,-0.6103004740655422,0.28956337632238865
1772534512489913000,4.8699130859375,0.04598024540841579,-0.5239643990017473,0.09472988246493041
1772534512499928800,4.8799287109375,-0.0564846882879734,-0.49815498109310863,0.006255187937244773
1772534512509946000,4.889946044921875,-0.25827918026447294,-0.5082403217777609,0.004355491795763373
1772534512519962000,4.899962158203125,-0.25846213561594483,-0.49805385880619285,-0.02920198295637965
1772534512529979000,4.909978759765625,-0.7319517542690038,-0.5544536452896893,-0.06217157481797039
1772534512539995000,4.919994873046875,-0.7329524557441472,-0.5407952684238553,-0.09786920340396463
1772534512550012200,4.93001220703125,-1.036008935368061,-0.4510385712616145,-0.17124949691332875
1772534512560028200,4.940028076171875,-0.9870710091978311,-0.4055912636861205,-0.24877112801112233
1772534512570045000,4.950044921875,-0.9899749139457941,-0.38445436763316393,-0.28522604123782364
1772534512580060400,4.960060302734375,-1.1856506307810544,-0.25733386223837734,-0.20754468953367322
1772534512590077400,4.970077392578125,-1.065127477824688,-0.34196839408129454,-0.23497891389885917
1772534512600093400,4.980093505859375,-1.1790852809160948,-0.30379049298688765,-0.2286216355603188
1772534512610110500,4.9901103515625,-1.3228846800416707,-0.21115122612565754,-0.23175313851907847
1772534512620126500,5.00012646484375,-1.3253227208435534,-0.1970360454030335,-0.25657266860753297
1772534512630143500,5.0101435546875,-1.4360457797974346,-0.24713337074145672,-0.25033483366388826
1772534512640159500,5.020159423828125,-1.6409405758768318,-0.23968436990976333,-0.10996357322293333
1772534512650176500,5.030176513671875,-1.748883064201474,-0.2605849729888141,-0.09459531456613912
1772534512660192500,5.040192626953125,-1.6439853504002093,-0.24841464272364971,-0.25809896485935896
1772534512670209300,5.050209228515625,-1.6465391265362501,-0.23544044872969389,-0.28467273647030816
1772534512680225300,5.060225341796875,-1.2992238184690474,-0.15952201504483818,-0.4492114654323086
1772534512690242600,5.07024267578125,-1.393148302835226,-0.14152195571288465,-0.3525028667729348
1772534512700258600,5.080258544921875,-1.4244652321189641,-0.07239712769091129,-0.22289971424955873
1772534512710275300,5.090275390625,-1.4107266296237706,0.0735218939371407,-0.11704007834726944
1772534512720291300,5.100291259765625,-1.4060679901629685,0.04668927046060562,-0.16285146999480202
1772534512730308600,5.11030859375,-1.451854758825898,0.24009777301624416,-0.05239190254900604
1772534512740324600,5.12032470703125,-1.3852718703716993,0.4932441204369068,0.08263046201150864
1772534512750341400,5.13034130859375,-1.095754671278596,0.6781589354135096,-0.17670622794926166
1772534512760357400,5.140357421875,-0.9115069419085979,0.817429458937794,-0.35945506053101267
1772534512770374700,5.150374755859375,-0.9180535870730876,0.8400899112962186,-0.4087245202105492
1772534512780390400,5.160390380859375,-0.5789993268728256,0.8427414487183094,-0.6450251659661531
1772534512790407400,5.170407470703125,-0.3220423351228237,0.931440015129745,-0.8328804183088242
1772534512800423400,5.18042333984375,-0.1829787323474884,1.0170454378314315,-0.9185885707326232
1772534512810440400,5.1904404296875,0.11190730030238628,1.0539392904646694,-0.9451703612532466
1772534512820456400,5.20045654296875,0.1037239938467741,1.0663828847132621,-1.0215054859802126
1772534512830473500,5.210473388671875,0.5205389545977115,1.2788010620348156,-1.0300411860700696
1772534512840489500,5.220489501953125,0.5498831225037575,1.34870681130141,-1.1470524584479629
1772534512850506500,5.230506591796875,0.5505956546872854,1.2974309437029063,-1.3847142364889382
1772534512860522500,5.2405224609375,0.5628975023776293,1.2242489492446182,-1.6375953571021555
1772534512870539500,5.25053955078125,0.5551847360432147,1.2502366463296115,-1.656845124234259
1772534512880555300,5.26055517578125,0.5508078361332416,1.1581254949957132,-1.8123009127534926
1772534512890572500,5.270572509765625,0.4577823464334011,1.1823683942399918,-1.8156209970869124
1772534512900588500,5.280588623046875,0.36035131525099273,1.1277233424693345,-1.8733425336934626
1772534512910605300,5.290605224609375,0.28069033403694627,0.9868199570462107,-1.9166437691509723
1772534512920621300,5.300621337890625,0.27730361420810223,1.0161936433076857,-1.8772692056179046
1772534512930638600,5.310638671875,0.5470008450657129,0.8467819562807679,-2.1196530437447128
1772534512941280300,5.3212802734375,0.5413713147461414,0.8776689697146415,-2.0970009208232163
1772534512951297500,5.331297607421875,0.7146580896407365,0.7209244565591215,-2.075749020088464
1772534512961313500,5.3413134765625,1.011681718841195,0.5423980274453759,-1.93804443070665
1772534512971330300,5.351330322265625,1.3107371461302042,0.463426928191632,-1.8013032795295119
1772534512981346300,5.36134619140625,1.5850503463506698,0.4011389604523778,-1.6317919315204024
1772534512991363600,5.371363525390625,1.67585699095726,0.3388127065293491,-1.4522136552661657
1772534513001379600,5.381379638671875,1.4554671041041611,0.3347515945702791,-1.2666855306968092
1772534513011396400,5.391396240234375,1.0556687446057795,0.221345434012264,-1.113053523538634
1772534513021412400,5.401412353515625,0.778257578369975,-0.04181640372723341,-1.1319530889935792
1772534513031429600,5.4114296875,0.5462111559927463,-0.256761907569319,-1.0709808800280094
1772534513041445400,5.4214453125,0.561933625781536,-0.32251462880969045,-0.9181591663394123
1772534513051462400,5.43146240234375,0.7383727272272109,-0.3297140387944877,-0.8014950999639928
1772534513061478400,5.441478515625,0.9679583124488591,-0.3186310653746128,-0.64704045131132
1772534513071495400,5.451495361328125,1.350137428626418,-0.3430878996305167,-0.5771269571296871
1772534513081511400,5.461511474609375,1.7315818007886408,-0.43312107564657926,-0.6614926089033484
1772534513091528400,5.471528564453125,1.9706144287914036,-0.5652884891673923,-0.792275655393675
1772534513101545500,5.48154541015625,2.1140900027900935,-0.747478555355221,-0.752110160678625
1772534513111561500,5.4915615234375,2.0522516785144806,-0.8879851965457201,-0.6337057534418999
1772534513121577500,5.501577392578125,1.5229086552143096,-0.9726809570565819,-0.5693923442896455
1772534513131594500,5.511594482421875,0.9188350928395986,-1.2560153758615256,-0.33396384172607213
1772534513141611500,5.521611572265625,0.02701075652241707,-1.5854840615928172,-0.186108828800451
1772534513151627500,5.53162744140625,-0.5231611197948456,-1.8811739579714835,-0.3482351628584787
1772534513161644500,5.54164453125,-0.44549394274652,-2.0380998190432784,-0.48739491948466745
1772534513171660500,5.55166064453125,-0.23470365888774394,-1.909675829834491,-0.5010227916143835
1772534513181677300,5.56167724609375,0.1786217061817646,-1.6046527263127266,-0.42601098791304975
1772534513191693600,5.571693603515625,0.591807370519638,-1.3918047792717814,-0.30959464922100305
1772534513201710300,5.58171044921875,0.92515494351089,-1.2915145592659711,-0.20089988122433422
1772534513211726300,5.591726318359375,1.095381161791086,-1.145742398762703,-0.21482976850792765
1772534513221743400,5.601743408203125,1.0785901859879492,-1.0072190403439103,-0.3483355910256505
1772534513231759600,5.611759521484375,0.9686942255079746,-0.9574820727504789,-0.41826848402749744
1772534513241776400,5.6217763671875,0.7246393854290246,-0.897789674462378,-0.46170324620418246
1772534513251792400,5.63179248046875,0.23253742076456546,-0.8161413188233971,-0.47678508000187575
1772534513261809400,5.641809326171875,-0.3163742263585329,-0.8489590080589056,-0.5619833832073956
1772534513271825700,5.65182568359375,-0.8608744867801665,-1.0028288425609468,-0.7745548513945192
1772534513281842400,5.661842529296875,-0.9835989491730928,-1.0366115774363278,-0.8786874991074204
1772534513291858400,5.6718583984375,-0.6229518658459187,-0.46908802269324656,-1.2220753315325825
1772534513301875500,5.68187548828125,-0.3157768449872732,-0.08842150303572416,-1.2415930288858712
1772534513311891500,5.691891357421875,0.04995031808316707,0.27223654007688164,-1.1876062948934734
1772534513321908500,5.701908447265625,0.2625374222308397,0.6067910046398639,-1.2811011556707321
1772534513331924500,5.711924560546875,0.18420973544716834,0.8376357961423695,-1.3784522534847259
1772534513341941200,5.721941162109375,-0.05966799449920654,0.9543922900415956,-1.4665116452097893
1772534513351957500,5.73195751953125,-0.533425324177742,0.9413456153333186,-1.5094212510012088
1772534513361974500,5.741974609375,-1.0163783522248266,0.7678074960261583,-1.485969502134621
1772534513371990500,5.751990478515625,-1.4456225864380596,0.5456980919040739,-1.414779558276385
1772534513382007300,5.76200732421875,-1.5256734437525272,0.4657046638652682,-1.3976385999917984
1772534513392023600,5.7720234375,-1.50565649164021,0.5924151271544397,-1.367089294079691
1772534513402040600,5.78204052734375,-1.4229203407645226,0.7298138654574752,-1.2366745694451033
1772534513412056300,5.792056396484375,-1.1030389830678702,0.9180991797804832,-1.081542825248465
1772534513422073300,5.8020732421875,-0.9303945977300405,1.20874319094643,-0.9354878292158245
1772534513432089600,5.812089599609375,-0.7220972997307777,1.309679015379399,-0.7403516260847449
1772534513442106400,5.8221064453125,-0.5932669216781854,1.291345047917962,-0.5784591190489009
1772534513452122400,5.832122314453125,-0.5666016175925731,1.3024727372623979,-0.3585026186443865
1772534513462139400,5.842139404296875,-0.5886585510998964,1.2402329925790427,-0.14686189196873456
1772534513472155600,5.85215576171875,-0.7995324215888977,1.1360345130883156,-0.01947619629912078
1772534513482172400,5.86217236328125,-0.9211983148396015,1.0180283113889395,0.11467270989511161
1772534513492189400,5.872189453125,-0.9530196865141392,0.9765357327885925,0.2343099468624219
1772534513502205400,5.882205322265625,-0.9627923079878091,1.0396284410394727,0.35247707474455237
1772534513512222500,5.892222412109375,-0.8441898939609527,1.112172868246585,0.5707490561282262
1772534513522238500,5.902238525390625,-0.6238496914684772,1.2189122643917798,0.6386916520956903
1772534513532255500,5.91225537109375,-0.4946428813189268,1.2760551243275404,0.5742601329891011
1772534513542271500,5.922271484375,-0.231398772123456,1.2621341510027646,0.4621538395158946
1772534513552288500,5.93228857421875,-0.11148995167315005,1.22093076460734,0.2244885543435812
1772534513562304500,5.942304443359375,0.022941315126419067,1.1652217368669808,-0.026536709269881248
1772534513572321500,5.952321533203125,0.0850409206867218,1.0655442419320345,-0.24600487816818056
1772534513582337800,5.962337890625,0.148005034121871,0.9416384608000516,-0.3067516808800399
1772534513592355000,5.97235498046875,0.24211890358030794,0.8788628556743263,-0.35077231665328146
1772534513602371000,5.98237109375,0.27757074071168897,0.8528808576777577,-0.3325852103166282
1772534513612387800,5.992387939453125,0.3273983091980219,0.7822117228232324,-0.2778394015852362
1772534513622403800,6.00240380859375,0.2288327210277319,0.7150232696913182,-0.25834654641225935
1772534513632421000,6.012421142578125,0.1725958700209856,0.6422679762125015,-0.17037264101356267
1772534513642436900,6.022436767578125,0.3357587257862091,0.5893281209245324,-0.04060235176235437
1772534513652454000,6.032453857421875,0.5135942500263452,0.6328980903208256,0.08055076966062187
1772534513662470000,6.042469970703125,0.7654483656793832,0.7319519003994762,0.2670774037480354
1772534513672487000,6.05248681640625,1.0314707074165343,0.8218990055672823,0.4352133717507124
1772534513682503000,6.0625029296875,1.1056500423491,0.8968941869273781,0.5647445915490389
1772534513692520000,6.07252001953125,1.0717413430064917,0.890245542693138,0.7461344472698866
1772534513702536000,6.082535888671875,0.8866770365566015,0.8205340008243918,0.7984247526079415
1772534513712553000,6.092552978515625,0.6850105548739432,0.6926181072682142,0.6866939779162406
1772534513722569000,6.10256884765625,0.39159634834229945,0.5216021999150514,0.5719769539553672
1772534513732586000,6.1125859375,-0.02200608010292053,0.34064065260887144,0.4883723496820777
1772534513742602000,6.12260205078125,-0.050504444834589955,0.11440569298937917,0.44363165600597854
1772534513752619000,6.132618896484375,-0.06000175649821758,0.06285232362374663,0.42285248734951014
1772534513762635000,6.142635009765625,-0.06509235763549805,0.12644129095897078,0.41897454993762073
1772534513772652000,6.152652099609375,0.1223456922084093,0.0629344489492476,0.41868645371124147
1772534513782667800,6.162667724609375,0.3227700648754835,0.060359776155650614,0.3349962900463491
1772534513792685000,6.17268505859375,0.37493864353001116,0.1362660810112953,0.21352694228105246
1772534513802701000,6.182701171875,0.28212007457911964,0.08375131926760077,0.1133865790747106
1772534513812717800,6.1927177734375,0.15302490811049937,-0.1023981520704925,0.06629552288018167
1772534513822733800,6.20273388671875,0.07555413041710853,-0.29081381477490065,0.04245309419557452
1772534513832750800,6.212750732421875,-0.0071522098422050475,-0.3778452516917139,0.04757978955954313
1772534513842767000,6.22276708984375,-0.13331482999026775,-0.46662937749475236,-0.018238325067237018
1772534513852783900,6.232783935546875,-0.17391688949167727,-0.6113000795621425,-0.07192519933022558
1772534513862800000,6.2427998046875,-0.2127887641996145,-0.6514787990849464,-0.07397540985830128
1772534513872817000,6.25281689453125,-0.40626141803264615,-0.5825375840015709,-0.008846446539461612
1772534513882833000,6.2628330078125,-0.47931730189323424,-0.5198971495628356,0.05890512036792934
1772534513892850000,6.272849853515625,-0.5303372950345278,-0.4546432446900755,-0.03278006063885987
1772534513902866000,6.282865966796875,-0.5549561879843473,-0.4385775144215673,-0.25448921339698133
1772534513912882700,6.292882568359375,-0.580048543664813,-0.5046587369639426,-0.4225320232234895
1772534513922899000,6.30289892578125,-0.6173252581357955,-0.5224179002121091,-0.5788241895016283
1772534513932916000,6.312916015625,-0.5887830542623996,-0.5169238328404724,-0.7280382340870797
1772534513942932000,6.322931884765625,-0.6034019467234611,-0.6035154170352965,-0.7658180027093738
1772534513952948700,6.33294873046875,-0.7220429391950368,-0.6659349021997303,-0.7916314392060041
1772534513962965000,6.342965087890625,-0.9434253442168236,-0.6973229970235377,-0.8587317025978117
1772534513972982000,6.35298193359375,-1.0121920064508914,-0.7717620788708329,-0.9255345174130052
1772534513982998000,6.362998046875,-1.2172545603126286,-0.7020213109076022,-0.9896537922326475
1772534513993014800,6.373014892578125,-1.3738298543810843,-0.635982393136993,-1.0227375850584357
1772534514003031000,6.383031005859375,-1.4347002104073763,-0.550611144517362,-0.9963257442772387
1772534514013047800,6.3930478515625,-1.533450507494807,-0.36745530203729865,-0.9807708861403167
1772534514023063800,6.403063720703125,-1.6622434761464595,-0.1256130234412849,-0.9881418532997369
1772534514033080800,6.413080810546875,-1.8293670522361993,0.05873129817098379,-0.9575609101403504
1772534514043097000,6.42309716796875,-1.929676853725314,0.2415675533078611,-0.9702023650486021
1772534514053113900,6.43311376953125,-1.953949709716439,0.4031105527862906,-1.1118259545050562
1772534514063129900,6.4431298828125,-1.8394541464865206,0.47292628568187356,-1.3467510010585189
1772534514073147000,6.45314697265625,-1.6206640960454939,0.4467237768024206,-1.457500363497436
1772534514083163100,6.4631630859375,-1.475531402489543,0.42189767084270713,-1.2936512790337205
1772534514093180000,6.473179931640625,-1.183657995659113,0.3360666226916015,-1.014638303624466
1772534514103196000,6.48319580078125,-0.917857187718153,0.26908129091635347,-0.7039882270663976
1772534514113213000,6.493212890625,-0.7019044065296649,0.2552703538373112,-0.36215500367209313
1772534514123229000,6.50322900390625,-0.5192758027940988,0.3177276867941022,-0.010814897068217396
1772534514133246000,6.513245849609375,-0.43012218609154224,0.49887730401828884,0.16614428272880613
1772534514143262000,6.523261962890625,-0.260511469361186,0.6827402718544006,0.19823234251551328
1772534514153278700,6.53327880859375,0.03169277685880661,0.8724366220191121,0.15737382403500377
1772534514163295000,6.543294921875,0.2265525011360645,1.1340066605225205,0.09432495492585002
1772534514173312000,6.55331201171875,0.3347942646682262,1.3408362240567802,0.009442293540760874
1772534514183328000,6.563327880859375,0.6844570126444101,1.3479606691092252,-0.1705132915932685
1772534514193344800,6.5733447265625,1.0284937374323606,1.3221639645516872,-0.30049305887669325
1772534514203361000,6.583361083984375,1.2833230695039033,1.344449446117878,-0.4044942622296512
1772534514213378000,6.5933779296875,1.4239227958053349,1.295326080378145,-0.45402518585696816
1772534514223394800,6.603394775390625,1.4885323383599518,1.1659335383981466,-0.5766465532016009
1772534514233410800,6.613410888671875,1.4924194089263676,0.9557122865989803,-0.8482966716926544
1772534514243428000,6.623427978515625,1.3622323555678129,0.7473265796639025,-1.1120801484618335
1772534514253443800,6.63344384765625,1.327805769830942,0.503892940223217,-1.3675930058181285
1772534514263460900,6.6434609375,1.2980074284166097,0.31502047366201874,-1.5937158833652734
1772534514273476900,6.653476806640625,0.9567758241772651,0.14672010887786746,-1.678531470863521
1772534514283494000,6.663493896484375,0.6502163048684597,0.0442041756466031,-1.5633119772732258
1772534514293510000,6.673510009765625,0.5035165081262588,-0.01760273057743907,-1.4695210561588405
1772534514303527000,6.68352685546875,0.5463520257681608,-0.06976151849031448,-1.292552524011582
1772534514313543000,6.69354296875,0.6232032102584838,-0.034534868416935205,-1.0334409845761954
1772534514323560000,6.703559814453125,0.7771008095502853,0.025236148065328597,-0.7846383654482663
1772534514333576000,6.713575927734375,0.9506821834772825,-0.01836114772930741,-0.5084583484426141
1772534514343593000,6.723593017578125,1.0657675292938946,-0.03376899861097336,-0.24867548561692238
1772534514353609000,6.73360888671875,1.2410709047079085,-0.017103548883646725,-0.14337313653752207
1772534514363626000,6.7436259765625,1.43489836332798,0.024179770880192516,-0.18795155232399702
1772534514373642000,6.75364208984375,1.7357827596098183,-0.04751534602120518,-0.3179579884186387
1772534514383659000,6.763658935546875,1.9266046066731213,-0.18777210410386322,-0.40243659904748197
1772534514393674800,6.7736748046875,2.11079505289793,-0.3200874016627669,-0.4161066663511097
1772534514403692000,6.783692138671875,2.198830479225516,-0.40162425975129007,-0.4030462553784251
1772534514413708000,6.7937080078125,2.1616063717246052,-0.5881807044550776,-0.25551731433570385
1772534514423724800,6.803724853515625,1.9549416433632372,-0.764905198713392,0.06009454934820532
1772534514433740800,6.81374072265625,1.698347055184841,-0.8698664792701601,0.3299424407228827
1772534514443758000,6.823758056640625,1.4777268667072057,-0.9843239024467766,0.42070831492766736
1772534514453774000,6.833774169921875,1.2425047369033098,-1.1058045022584497,0.478508323597908
1772534514463790800,6.843790771484375,1.1105904213607312,-1.2162765090607106,0.5278735352694988
1772534514473806800,6.853806884765625,1.0486153189629315,-1.3137407118603586,0.5425440117873251
1772534514483824000,6.86382421875,1.042432246413827,-1.374726657090336,0.475624146463722
1772534514493840000,6.87383984375,1.0267337420225142,-1.4470271925389766,0.47345790834054347
1772534514503857000,6.88385693359375,0.919412600466609,-1.5384994614474474,0.5455063687242567
1772534514513873000,6.893872802734375,0.9124825089424848,-1.6617460480183361,0.5715927038781344
1772534514523890000,6.903889892578125,0.9547925414055586,-1.7449693978890775,0.5458206953704356
1772534514533906000,6.913906005859375,0.863842688935995,-1.7221119616538285,0.5232840155221522
1772534514543923000,6.9239228515625,0.8055050662577152,-1.7430210403002797,0.5480427553340792
1772534514553939000,6.93393896484375,0.7168722585588693,-1.747967702922225,0.49152577221170063
1772534514563956000,6.9439560546875,0.5436556262910366,-1.699865350793302,0.34547640220224857
1772534514573971500,6.953971435546875,0.18433540765345097,-1.6953407129757105,0.2603689921505749
1772534514583988700,6.96398876953125,-0.1510363646417856,-1.734704462853819,0.16738529576584696
1772534514594004700,6.974004638671875,-0.5656751503974199,-1.7445961806625128,0.09445727606862783
1772534514604021500,6.984021484375,-0.9387105906546115,-1.6867881348162888,0.06988996717557311
1772534514614037500,6.99403759765625,-1.1930173601567744,-1.609781029111892,0.03413425172679126
1772534514624054800,7.0040546875,-1.4386089082837104,-1.4578224350586533,0.017953662906959652
1772534514634070500,7.014070556640625,-1.5573820027023553,-1.3123549565903843,-0.06165171566233039
1772534514644087600,7.024087646484375,-1.5716899295181035,-1.1974306465543807,-0.15883943960815666
1772534514654103600,7.034103515625,-1.5675380705356596,-1.178003769289702,-0.26639665494225917
1772534514664120600,7.04412060546875,-1.5411743797451256,-1.219125176490098,-0.3243521464351564
1772534514674136600,7.054136474609375,-1.4931979920834302,-1.1058427884422242,-0.37562158429287373
1772534514684153600,7.064153564453125,-1.4078233093976973,-0.8482984983235597,-0.3516155625443905
1772534514694169600,7.074169677734375,-1.3205401627421378,-0.6604470453731716,-0.2685300137091428
1772534514704186600,7.0841865234375,-1.1434113254666327,-0.4916409230239689,-0.29738427920639515
1772534514714202600,7.09420263671875,-0.9553916763424872,-0.18247487447857855,-0.4956374453142285
1772534514724219600,7.1042197265625,-0.7640016740024089,0.11609335381537675,-0.7306611299365758
1772534514734235600,7.114235595703125,-0.5421972441762686,0.29591274534910916,-0.9405014195941388
1772534514744252700,7.124252685546875,-0.4569540789157152,0.3432010046161711,-1.067672047740966
1772534514754268700,7.1342685546875,-0.3990793975740671,0.3005580869369209,-1.140281137682125
1772534514764285400,7.144285400390625,-0.42167350669801235,0.25164383390322326,-1.177659266700968
1772534514774301400,7.154301513671875,-0.5450368515163659,0.2056853619351983,-1.0400282540120185
1772534514784318700,7.164318603515625,-0.8332347847044468,0.21593948331549762,-0.8425568859316408
1772534514794334700,7.174334716796875,-1.2032388944417238,0.28595117717459795,-0.6688428986009209
1772534514804351500,7.1843515625,-1.370562961539626,0.46593613453358407,-0.6239524942558259
1772534514814367500,7.194367431640625,-1.4412415948748587,0.7513214945189655,-0.5871412784047424
1772534514824384800,7.204384765625,-1.354811265656352,1.0104184209071099,-0.5457463149599731
1772534514834400800,7.21440087890625,-1.2213912217259406,1.2195431096412241,-0.5060786136992276
1772534514844417500,7.22441748046875,-1.0930553491920232,1.402988874978572,-0.46551403666399416
1772534514854433500,7.23443359375,-1.0121019900798798,1.4798229622036219,-0.43525355763062834
1772534514864450800,7.244450927734375,-1.1001087748348712,1.4476498544819651,-0.36009207979291674
1772534514874466600,7.254466552734375,-1.181352641326189,1.451760796932131,-0.32150676694139835
1772534514884483600,7.264483642578125,-1.185188858488202,1.4299742047987878,-0.341241102720052
1772534514894499600,7.27449951171875,-1.1339280423283575,1.3786625352345405,-0.439825760916993
1772534514904516600,7.2845166015625,-1.0423773013561963,1.3880274526901542,-0.5465589465171098
1772534514914532600,7.29453271484375,-0.8329822712481021,1.4211615143984555,-0.5795752270646393
1772534514924549600,7.304549560546875,-0.46725510817766186,1.4402156128279864,-0.5715157661844045
1772534514934565600,7.314565673828125,-0.04153612548112869,1.4590005389273166,-0.5919725710187107
1772534514944582700,7.324582763671875,0.38956221216619014,1.4165426224261521,-0.5421908875007182
1772534514954598700,7.3345986328125,0.7293301735937595,1.3553367508351801,-0.39578539752997455
1772534514964615700,7.34461572265625,1.0064034861773252,1.292037852487713,-0.30073753515705465
1772534514974631400,7.35463134765625,1.07814127317667,1.2587906857937574,-0.20019662832580506
1772534514984648400,7.3646484375,1.2435346644729375,1.2514759788662195,-0.09975063323639333
1772534514994664700,7.374664794921875,1.472120132741332,1.172359479792416,0.04035539126396179
1772534515004681500,7.384681396484375,1.504133227595687,1.060562800257653,0.1704862574558705
1772534515014697500,7.394697509765625,1.5912965472638607,0.9327848538674414,0.2510168611112982
1772534515024714500,7.404714599609375,1.6717852114737033,0.842074509242177,0.3193636904980987
1772534515034730800,7.414730712890625,1.6687626487821339,0.7563891531720757,0.3291800049830228
1772534515044747500,7.42474755859375,1.677412403705716,0.5803340826079249,0.3892085764229297
1772534515054763500,7.434763427734375,1.6527952643215655,0.39537440557628867,0.39976913340389725
1772534515064780500,7.444780517578125,1.5744874512821434,0.2783835183992982,0.4461616128750145
1772534515074796800,7.454796875,1.3170195874005555,0.22249606535211205,0.48849948319308456
1772534515084813600,7.4648134765625,1.117431081035733,0.14279650569334626,0.45031697898879647
1772534515094829600,7.47482958984375,1.0433388398647307,0.039403205105662344,0.3161549575846642
1772534515104846600,7.4848466796875,0.9551204581856727,-0.040285687028616665,0.19625892355069516
1772534515114862600,7.494862548828125,0.8762655326575041,-0.11687266762480139,0.07901333096027374
1772534515124879600,7.504879638671875,0.5784697500407695,-0.10862389471754431,-0.07142762507162988
1772534515134895600,7.5148955078125,0.4293868575543165,-0.2447757016994059,-0.2141591027047485
1772534515144912400,7.524912353515625,0.2346487138301134,-0.511837031095475,-0.3040697483196854
1772534515154928600,7.5349287109375,-0.02360825460255146,-0.7143937396161257,-0.26218941251076755
1772534515164945700,7.544945556640625,-0.2659416777163744,-0.8671398307852447,-0.16803674541190267
1772534515174961700,7.554961669921875,-0.24509996521770952,-0.9495730531916021,-0.14212342873737216
1772534515184978400,7.564978515625,-0.23802666583061216,-0.8249239063464104,-0.1251163990307599
1772534515194994700,7.57499462890625,-0.3403320250511169,-0.6804967307113111,-0.08404416473433375
1772534515205011700,7.58501171875,-0.4251391369819641,-0.6367369378313422,-0.13775157032869756
1772534515215027500,7.59502734375,-0.6116197399705648,-0.5889752158336341,-0.24142814483717082
1772534515225044500,7.60504443359375,-0.7108031677782535,-0.5640935802944004,-0.2660842279922217
1772534515235060700,7.615060791015625,-0.7553641940385103,-0.5751617945365607,-0.23183694434501229
1772534515245077500,7.625077392578125,-0.9273539148598909,-0.4920465812154114,-0.17734072646051643
1772534515255093500,7.635093505859375,-1.0309744483321905,-0.4601113739028573,-0.16215915861539543
1772534515265110500,7.645110595703125,-1.1736439666450023,-0.4553717781603336,-0.1668839951802045
1772534515275126800,7.655126708984375,-1.3729524870246648,-0.4639364851489663,-0.15607523559182881
1772534515285143600,7.6651435546875,-1.554917073893547,-0.4974319275155663,-0.12852080064676702
1772534515295159600,7.67515966796875,-1.7502327252447605,-0.5102271116808057,-0.12394216761961578
1772534515305176600,7.685176513671875,-1.84590843719244,-0.4723699669733643,-0.1844593262940645
1772534515315192600,7.695192626953125,-1.9153104747205971,-0.3333271147251129,-0.2253966090992093
1772534515325209600,7.705209716796875,-1.8790110808491707,-0.30931071771308777,-0.19326617147549985
1772534515335225600,7.7152255859375,-1.8018284724473952,-0.34519027873724695,-0.12993885075114667
1772534515345242600,7.72524267578125,-1.6015595826029776,-0.3065120269052684,-0.042971418981254096
1772534515355259600,7.735259765625,-1.3769178835242986,-0.11219999963864684,0.09150069128535687
1772534515365275600,7.745275634765625,-1.1493635118693113,0.06945084510594605,0.25439269421994687
1772534515375292400,7.75529248046875,-1.0053098457217216,0.1333043085962534,0.4196508417639881
1772534515385308400,7.765308349609375,-0.856250334110856,0.16347630562856794,0.46136276220344
1772534515395325700,7.77532568359375,-0.6999491808086633,0.19129414075016973,0.35660321476384993
1772534515405341700,7.785341796875,-0.5563637166947126,0.21989275098592043,0.1743348957080394
1772534515415358500,7.7953583984375,-0.6026210254788399,0.24484657497853038,-0.06460369733572006
1772534515425374500,7.80537451171875,-0.7473597512811422,0.2294640046685934,-0.3028003129057586
1772534515435391700,7.815391845703125,-0.7460878316491841,0.17571765530332922,-0.5365256282806397
1772534515445407700,7.82540771484375,-0.8624807529330253,0.2858502010181546,-0.8170099914167076
1772534515455424500,7.835424560546875,-0.9086281716018915,0.3926647082261741,-0.8928305176850407
1772534515465440500,7.8454404296875,-0.75454410982728,0.4261098817102611,-0.9013091538254171
1772534515475457800,7.855457763671875,-0.5249713840872049,0.5902187861539423,-0.9198393745113164
1772534515485473500,7.8654736328125,-0.2845230440676212,0.8276676520965993,-0.9029955725423991
1772534515495490600,7.875490478515625,-0.009033201283216476,1.010210477244854,-0.8194318117361515
1772534515505506600,7.885506591796875,0.26401275548040865,1.0992537654407322,-0.7643494645267724
1772534515515523600,7.895523681640625,0.4327823452115059,1.1480996294133365,-0.7439537422299385
1772534515525539600,7.90553955078125,0.47986032272875306,1.1596266933389008,-0.7960872495710849
1772534515535556600,7.915556640625,0.45324704109132286,1.0629041026867925,-0.769208594995737
1772534515545572600,7.925572509765625,0.4967366387277841,0.9284716668434441,-0.7061443821869791
1772534515555589600,7.935589599609375,0.47262861790955063,0.8595696877919137,-0.6981414007343352
1772534515565605600,7.945605712890625,0.4710118303626775,0.766936120019108,-0.604857844620198
1772534515575622400,7.955622314453125,0.5466483783662319,0.6573395808771252,-0.5014748096982017
1772534515585638400,7.965638427734375,0.6095967097103595,0.4998562320530414,-0.4803304609911516
1772534515595655400,7.975655517578125,0.7529319984555244,0.32962679890245195,-0.5318904792932794
1772534515605671400,7.98567138671875,0.8924941984027623,0.18920622856020927,-0.6195340202264488
1772534515615688400,7.9956884765625,0.9295552242964505,0.030339900945127007,-0.6093406891226768
1772534515625704400,8.005704345703125,0.9017512715697288,-0.08958791646659374,-0.6040386006591841
1772534515635721500,8.015721435546874,0.9343108943909406,-0.09608458500951528,-0.6514340831603854
1772534515645737500,8.025737548828126,0.946227542155981,-0.03358604325950146,-0.6117933795044198
1772534515655754200,8.035754150390625,0.9940040233314037,-0.08928411121442914,-0.3904605127127841
1772534515665770500,8.0457705078125,0.9892056831389665,-0.1639534216210246,-0.29199188211094584
1772534515675787500,8.05578759765625,0.7836948009878396,-0.1884814214169979,-0.24501824175100773
1772534515685803500,8.065803466796876,0.5798410383939743,-0.24191183670088648,-0.25639581420328467
1772534515695820300,8.0758203125,0.487038836055994,-0.33199002090245483,-0.2714013496280648
1772534515705836300,8.085836181640625,0.553647443473339,-0.41257893061637874,-0.2972175991362892
1772534515715853600,8.095853515625,0.7493143924802541,-0.4984700383916497,-0.21277029696116223
1772534515725869300,8.105869384765626,1.0339058256089686,-0.5768751743257046,-0.14707590917875057
1772534515735886300,8.11588623046875,1.2595920653045176,-0.6543341154508292,-0.0626911234463565
1772534515745902300,8.12590234375,1.4070347893685102,-0.7518046018607915,0.036673277818271885
1772534515755919400,8.13591943359375,1.6239152067959308,-0.8173391503058374,-0.010887823023821692
1772534515765935400,8.145935302734374,1.7659598712086677,-0.8370521510355174,-0.0049624858121620485
1772534515775952400,8.155952392578126,1.8457745816797018,-0.787283326999098,-0.004989478850364684
1772534515785968400,8.165968505859375,1.950941760072112,-0.7970986185707152,-0.0471672541027423
1772534515795985400,8.1759853515625,1.8890204336881637,-0.8546190796472132,-0.042920245916442945
1772534515806001400,8.18600146484375,1.7690899859279392,-0.9119918028160929,0.01908419217369519
1772534515816018400,8.196018310546876,1.6251707598149776,-0.9379317152366041,0.05182730920249596
1772534515826034400,8.206034423828125,1.4673311448991297,-0.9766467919476329,0.07197584267207421
1772534515836051500,8.216051513671875,1.2539677956819533,-1.029977838510275,0.07049255444491281
1772534515846067500,8.2260673828125,1.0430278742194175,-1.0888422615416347,0.06591978490296752
1772534515856084200,8.236084228515624,0.8026935159683227,-1.1369275164052843,0.07539630950689315
1772534515866100200,8.246100341796875,0.42786359350979325,-1.1475554395340382,0.14037707826038823
1772534515876117500,8.256117431640625,0.07111644023060798,-1.113669390414655,0.2092866926291026
1772534515886133500,8.266133544921875,-0.4124707940667867,-1.0789077275045216,0.21936865404658018
1772534515896150300,8.276150390625,-0.8784013756424188,-1.074796492793411,0.15697779218843205
1772534515906166300,8.286166259765626,-1.2234528304308652,-1.0235027972772717,0.027388512926781548
1772534515916183600,8.29618359375,-1.55043554456532,-0.9457080483265221,-0.026418896143068558
1772534515926199600,8.306199462890625,-1.8547247808545826,-0.836575473434478,-0.01664346850767033
1772534515936216300,8.31621630859375,-1.9952900203645227,-0.6677246351607143,-0.061793466787156644
1772534515946232300,8.326232421875,-1.3661340391814707,-0.2990934212118387,-0.7154246900990605
1772534515956249600,8.33624951171875,-1.8234563668876886,-0.23119681981056928,-0.5477931644871831
1772534515966265300,8.346265380859375,-2.2566987308263777,-0.25662717527374623,-0.23956355654168873
1772534515976282400,8.356282470703125,-2.003773771071434,-0.16849574122577904,-0.56986661073789
1772534515986298400,8.36629833984375,-1.885899671319127,-0.018580489568412302,-0.9409810928698629
1772534515996315400,8.3763154296875,-2.0947230390191076,0.1676022995173931,-1.1547541188664734
1772534516006331400,8.386331298828125,-2.2235633539438244,0.3540035536594689,-1.171767870574817
1772534516016348400,8.396348388671875,-2.284379933956265,0.3866716052912175,-1.1194942971758544
1772534516026364400,8.406364501953124,-2.2094699466615912,0.30063641287013887,-1.0031823321737348
1772534516036381400,8.41638134765625,-2.470207625994086,0.25317089734002945,-0.7253501640468836
1772534516046397400,8.4263974609375,-2.7300702760577202,0.20372326808199284,-0.4790391790715977
1772534516056414500,8.43641455078125,-2.459444824439287,0.1702804326854646,-0.13421545035811142
1772534516066430200,8.44643017578125,-2.381698152413964,0.12517054037079214,0.21342466921666636
1772534516076447500,8.456447509765624,-2.3194933329135177,0.14940233369916678,0.5273555758100003
1772534516086463500,8.46646337890625,-2.0636714826732874,0.2321266480065882,0.7879756931774318
1772534516096480300,8.476480224609375,-1.7128186481297014,0.3945787251539528,0.8657420928165316
1772534516106496300,8.486496337890625,-1.1823626951515673,0.5668615837030112,0.814474993046373
1772534516116513500,8.496513427734374,-0.6366729326844215,0.7024892206802964,0.6084766561718657
1772534516126529500,8.506529541015626,-0.1329331371963024,0.7968084034524857,0.3265479759790003
1772534516136546300,8.51654638671875,0.3033545857876539,0.7917354841023683,0.14311908871121704
1772534516146562300,8.526562255859375,0.5196300230592489,0.6805430540710687,0.00030000585988163947
1772534516156579600,8.53657958984375,0.7152922958910465,0.5415704905800521,-0.023516338535398244
1772534516166595600,8.546595703125,0.9591869769722223,0.5267644049838185,0.01855900838896632
1772534516176612400,8.5566123046875,1.0860364103406668,0.616003946404159,0.007336809161491691
1772534516186628400,8.56662841796875,1.1132266150832175,0.6529489447027444,0.06770696058068425
1772534516196645400,8.576645263671875,0.8558996209770441,0.6510153462916612,0.12973996717818082
1772534516206661400,8.586661376953124,0.7771645224362611,0.6279254164747894,0.19435615866929293
1772534516216678400,8.596678466796876,1.000980292084813,0.6494364065371453,0.24981840857435017
1772534516226694400,8.6066943359375,1.046046345257759,0.6520880900897086,0.19902411394771188
1772534516236711400,8.61671142578125,1.0772352642476557,0.6438841792374849,0.2247451959857717
1772534516246727400,8.6267275390625,1.1812602868676185,0.6225049988612532,0.2869752229927108
1772534516256744400,8.636744384765626,1.259899523818493,0.5362552869066596,0.3189241300370544
1772534516266760400,8.646760498046875,1.3656266741812229,0.3962555723249912,0.3339241307701915
1772534516276777500,8.656777587890625,1.358278064984083,0.2665022342085838,0.28435700331833214
1772534516286793500,8.66679345703125,1.1951485269665718,0.17060484233424067,0.08010141845792532
1772534516296810500,8.676810546875,1.1909925763309002,0.21006620736792683,0.008841185842454432
1772534516306826200,8.686826171875,1.3058686633110046,0.33237010626122354,-0.0238123988725245
1772534516316843500,8.696843505859375,1.2209025614261626,0.3919634280890226,-0.18362177949137984
1772534516326859500,8.706859619140625,1.2118056472569703,0.4592794531233608,-0.2922992310270667
1772534516336876300,8.716876220703124,1.3439187002420425,0.5176337346754968,-0.27301687679961323
1772534516346892300,8.726892333984376,1.3165256664037703,0.5747717723056673,-0.2066027690410614
1772534516356909600,8.73690966796875,1.021803299883008,0.5228055843554437,-0.09466996897123753
1772534516366925600,8.746925537109375,0.67632572863698,0.4061484591774642,0.06004822598844766
1772534516376942300,8.7569423828125,0.622220044440031,0.3595658639617264,0.24739399443902074
1772534516386958300,8.766958251953126,0.6324672976881265,0.3564158754982054,0.3803438635744154
1772534516396975600,8.7769755859375,0.6781774939835071,0.3555456685349345,0.5114557766929269
1772534516406991400,8.786991455078125,0.5266892939209937,0.4330294518403709,0.5564429194107652
1772534516417008400,8.79700830078125,-0.04683949258625507,0.40361543356850743,0.4241108899127692
1772534516427024400,8.8070244140625,-0.026034604966640472,0.3123011317007243,0.41161351965032517
1772534516437041400,8.81704150390625,-0.21670973703563212,0.40489159098416566,0.4339991736553609
1772534516447057400,8.827057373046875,-0.22995266496837138,0.7274946287296712,0.3508429707366973
1772534516457074400,8.837074462890625,0.6144803900986909,0.9985878439903259,0.41920879708491265
1772534516467090400,8.84709033203125,1.1152975761383772,0.9413397701144218,0.48068742120265956
1772534516477107500,8.857107421875,1.1922662495285272,0.6770534583896398,0.48507681526802476
1772534516487123500,8.86712353515625,1.0616197619646788,0.29524960526525973,0.34514943527020514
1772534516497140500,8.877140380859375,0.8699602950334548,-0.15865268486440182,0.37255269824154674
1772534516507156500,8.887156494140624,0.9203034118264913,-0.5018241711251438,0.39509142391644414
1772534516517173500,8.897173583984374,1.0640163017123938,-0.6895316855601966,0.4027709455683827
1772534516527189500,8.907189453125,1.0902437989026308,-0.8322390516653656,0.3548917346708476
1772534516537206500,8.91720654296875,1.0613047046661377,-0.8512460960827767,0.29509499922543764
1772534516547222300,8.92722216796875,0.9627876318126917,-0.7318992934294044,0.1370079123545438
1772534516557239600,8.937239501953124,0.8548176709592342,-0.4529495194494724,-0.03070120853818953
1772534516567255600,8.947255615234376,0.47452246883213517,-0.08002645352557301,-0.15325557506121695
1772534516577273600,8.957273681640626,0.13754033873081206,0.21491101705059407,-0.20478512515984473
1772534516587289600,8.96728955078125,-0.2271802776455879,0.32019773016944525,-0.15199256938807665
1772534516597306400,8.977306396484375,-0.8241577442795037,0.17629983910545705,-0.08766213603578507
1772534516607322400,8.987322265625,-1.185588086938858,-0.04020575366020202,-0.0572063536260277
1772534516617339600,8.997339599609376,-1.4406699324667454,-0.15062544575333595,-0.039143458190932866
1772534516627355600,9.007355712890625,-1.6787006899505852,-0.2302957062523812,-0.09192768452577292
1772534516637372400,9.017372314453125,-1.7662188144057989,-0.30960612046308816,-0.1339496207624674
1772534516647388400,9.027388427734374,-1.9327759887844322,-0.3015216712720692,-0.21628741997033357
1772534516657405700,9.03740576171875,-2.0685440571457145,-0.2279875023752451,-0.35657033540755506
1772534516667421700,9.047421630859375,-2.1957547250419855,-0.1837928252093494,-0.4397837484061718
1772534516677438500,9.0574384765625,-2.636784674116969,-0.0028916297882795334,-0.4468675691872835
1772534516687454500,9.067454345703124,-2.7420781092375517,0.2471311787843704,-0.402729809840396
1772534516697471700,9.0774716796875,-2.5995102977335454,0.4374225722327828,-0.292166252297163
1772534516707487500,9.087487548828125,-2.5301497612595556,0.5307968753702939,-0.17382555794641374
1772534516717503500,9.09750341796875,-2.343613628691435,0.481770248003304,-0.0677992054414004
1772534516727520500,9.1075205078125,-2.223212056288123,0.3832546364545822,-0.16905958565361798
1772534516737537500,9.11753759765625,-2.088064165651798,0.3084116499815136,-0.44570955825857816
1772534516747553500,9.127553466796876,-1.9374048176288603,0.2847274075333029,-0.6800828161481768
1772534516757569500,9.137569580078125,-1.6835206574529409,0.208918425572291,-0.7874074648354202
1772534516767586600,9.147586669921875,-1.559132061240077,0.12837116304300725,-0.7530678267296403
1772534516777602600,9.1576025390625,-1.7567577430993317,0.0963061188057065,-0.6751055391922592
1772534516787619600,9.16761962890625,-1.9178274259775876,0.20809980266578496,-0.5342453353237361
1772534516797635600,9.177635498046875,-1.998228996425867,0.34938904560133816,-0.41059455186612903
1772534516807652400,9.18765234375,-2.04199507291615,0.43444655209667976,-0.31372773043774066
1772534516817668400,9.19766845703125,-2.1848013693511485,0.4971216925226152,-0.22333258924148974
1772534516827685600,9.207685546875,-2.0725760891407727,0.5430004503179341,-0.21913338398598134
1772534516837701600,9.21770166015625,-1.5711626907736063,0.6598832009453326,-0.19459625103548167
1772534516847718400,9.227718505859375,-1.0592296519577502,0.713893388878554,-0.17399258507639168
1772534516857734400,9.237734375,-0.5167594360589981,0.7040325045995414,-0.12176694247238337
1772534516867751700,9.247751708984374,0.0847223562568426,0.6474168834082782,-0.058476154366135596
1772534516877767700,9.257767578125,0.7231611295700073,0.5876334458358585,-0.09911766909509896
1772534516887784400,9.267784423828125,1.253500178170204,0.5586451056301593,-0.1965344525564462
1772534516897800400,9.277800537109375,1.5714152042299507,0.5509775666769594,-0.19668094835504887
1772534516907817700,9.287817626953125,1.5124205789476632,0.5255361783631146,-0.17116470470670608
1772534516917833500,9.29783349609375,1.4518033208996057,0.48479690234810113,-0.2194498660566285
1772534516927850500,9.3078505859375,1.6651976497769354,0.35637313233502205,-0.2741623205076903
1772534516938126600,9.318126708984375,1.6639888585090636,0.3617698768120259,-0.2616928976980969
1772534516947883500,9.327883544921875,1.6110335133910179,0.1746300061970949,-0.13397369575779886
1772534516957899500,9.3378994140625,1.2933715853095054,0.18345212201289832,-0.24979933854769915
1772534516967916500,9.34791650390625,0.9665478611290454,0.23032887786962092,-0.39654133046381174
1772534516977932500,9.3579326171875,0.8957990851670503,0.2477595398157835,-0.5243660386051983
1772534516987949600,9.367949462890625,1.2635066083997488,0.36094051331579685,-0.7175315261851996
1772534516997965600,9.377965576171874,1.721295969095826,0.4635045234724879,-0.9085066641140729
1772534517007982600,9.387982666015626,1.8905021966785192,0.5290704899691046,-1.0442389305096118
1772534517017998300,9.397998291015625,1.8729279615432022,0.4632020333945751,-1.0644095388136803
1772534517028015600,9.408015625,1.885616178202629,0.2534030986607075,-0.936224472927302
1772534517038031600,9.418031494140624,2.0849697067677972,0.12823811124786733,-0.7937244659624993
1772534517048048400,9.42804833984375,2.2516414474368096,0.1296354108251631,-0.6828838450435548
1772534517058064400,9.438064453125,2.1358289563894273,0.15737798875346778,-0.595186053172499
1772534517068081700,9.44808154296875,1.6160522183358668,0.11877002567872404,-0.5891962381731718
1772534517078097700,9.45809765625,1.144502043312788,0.10537687562033533,-0.5639719997413456
1772534517088114400,9.468114501953124,1.0636860468447207,0.07091960248425602,-0.49996984849534926
1772534517098130400,9.47813037109375,0.9150538207352161,-0.029145430463552474,-0.5508418845333158
1772534517108147700,9.488147705078125,0.8583060975968837,-0.1620962494470179,-0.6016110447186976
1772534517118163700,9.498163818359375,1.0333318251132964,-0.15775295954570173,-0.5418574908278883
1772534517128180500,9.508180419921874,1.215530805259943,-0.0776898272715509,-0.4970777072504162
1772534517138196500,9.518196533203126,1.3867577250152825,-0.016961802325397728,-0.4527146147150546
1772534517148213500,9.528213623046875,1.5100217011123895,-0.0820084211230278,-0.32610125512480737
1772534517158229500,9.5382294921875,1.6408651725530623,-0.24039207978770136,-0.18961641679629682
1772534517168246500,9.54824658203125,1.7574685217171906,-0.38502515325844283,-0.09560929564796387
1772534517178262500,9.558262451171874,1.7791683123499153,-0.5270103425689041,-0.046181320938467975
1772534517188279600,9.568279541015626,1.6549480584412812,-0.5794064463689923,0.03421498881280422
1772534517198295600,9.578295654296875,1.2665443686604498,-0.5733540144622326,0.16150968173071742
1772534517208312600,9.5883125,1.1082868205934762,-0.663026394341886,0.38718941862024364
1772534517218328600,9.59832861328125,1.0054355179280041,-0.6817404471620917,0.5217976494219154
1772534517228345600,9.608345703125,0.3324672830253839,-0.38028263490647074,0.4333901018463075
1772534517238361600,9.618361572265625,0.06610299598276614,-0.22644158810749648,0.38291802491135896
1772534517248378600,9.628378662109375,0.09908055195510387,-0.24573797086030244,0.34045046379901467
1772534517258394400,9.638394287109374,0.004583236137032509,-0.2981305675290525,0.2291257856901735
1772534517268411600,9.64841162109375,0.01736848343014717,-0.3225160901144147,0.08793269660547375
1772534517278427600,9.658427734375,0.15241583630144595,-0.40626536355540155,0.029504034642875192
1772534517288444400,9.6684443359375,0.09760288061797619,-0.5547480981916189,0.0758023330245167
1772534517298460400,9.67846044921875,-0.125016957244277,-0.6880255187809466,0.037621509320661425
1772534517308477700,9.688477783203124,-0.179622407656908,-0.8227990231469273,0.010218246349319815
1772534517318493700,9.69849365234375,-0.18941957904994486,-0.9880239260084926,0.024751067962124944
1772534517328510500,9.708510498046875,-0.3245511030733585,-1.0870844580888748,0.027403701362758874
1772534517338526500,9.7185263671875,-0.554009262523055,-1.1066237096868454,-0.08158931892812252
1772534517348543700,9.728543701171875,-0.7592968573123217,-1.093995552651584,-0.22493936685100197
1772534517358559500,9.7385595703125,-0.8938052810013294,-1.0605560782559216,-0.3236618260834366
1772534517368576500,9.748576416015625,-1.0697405245780944,-1.0209281244836748,-0.39923166552633044
1772534517378592500,9.758592529296875,-1.3614122713565826,-0.9227939134679735,-0.5531082220301031
1772534517388609500,9.768609619140625,-1.7133219214767217,-0.7258012688152492,-0.7454094209309667
1772534517398625500,9.77862548828125,-1.9313111769288778,-0.4767166178755462,-0.9189304429728538
1772534517408642600,9.788642578125,-1.8795459183782337,-0.1884348057962954,-1.0040763584040104
1772534517418658600,9.798658447265625,-1.799027443552017,0.07722104071602225,-0.9635707450143992
1772534517428675600,9.808675537109375,-1.7687118002653122,0.20825725824981928,-0.8106599648028612
1772534517438691600,9.818691650390624,-1.6460212401419878,0.2090641907185316,-0.7337459442093968
1772534517448708600,9.82870849609375,-1.438743932840228,0.1903122901059687,-0.7688735178224742
1772534517458724600,9.838724609375,-1.244253626397252,0.2291243974506855,-0.8395343963053077
1772534517468741600,9.84874169921875,-1.1018524036318063,0.2733157136157155,-0.855468097691983
1772534517478757600,9.858757568359374,-1.0831289984613657,0.29760508235022426,-0.7786709814764559
1772534517488774700,9.868774658203124,-1.3196692251265048,0.3312424174055457,-0.6090545656576752
1772534517498790400,9.878790283203125,-1.6529180139183997,0.22047420413568614,-0.2976317876940593
1772534517508807700,9.8888076171875,-1.923292705646157,0.02752572030723095,0.020206848661229012
1772534517518823700,9.89882373046875,-2.12164962438941,-0.00808539903908968,0.26692659710049627
1772534517528840400,9.90884033203125,-2.1992864062994717,0.20240151795893907,0.3294548764016479
1772534517538856400,9.9188564453125,-1.9898358466118573,0.5219714716188609,0.33499015256650744
1772534517548873500,9.92887353515625,-1.7709446738839147,0.7813426849037408,0.3275344297330826
1772534517558889700,9.9388896484375,-1.4986837300181388,0.9488707501411437,0.20248400861062107
1772534517568906500,9.948906494140624,-0.9448340419709682,0.9983217404000461,0.12654022128880024
1772534517578921700,9.958921630859376,-0.5437018035203218,1.0957400582313537,0.06437682977728545
1772534517588938800,9.968938720703125,-0.15288696094453333,1.015270829374343,0.07491495573073625
1772534517598954800,9.978954833984375,0.31514614586830136,0.870235897104442,0.1673949403770268
1772534517608971500,9.988971435546874,0.6303992592424154,0.7901150432936846,0.24501696310937404
1772534517618987800,9.99898779296875,0.7615437594562768,0.7647264811456203,0.24808044233322143
1772534517629004800,10.0090048828125,0.8429302492886781,0.7553270768985152,0.2399866042593494
1772534517639020800,10.019020751953125,1.1015946294784544,0.7698143058039247,0.23697617039699106
1772534517649037600,10.02903759765625,1.2841776405066252,0.738548083794117,0.20421083240322768
1772534517659053800,10.0390537109375,1.4162006771206854,0.6294837518326938,0.2310925191858783
1772534517669070800,10.04907080078125,1.6806284431427716,0.5336505112357437,0.2750136766400188
1772534517679086600,10.059086669921875,1.9541209746301174,0.49047144085317845,0.2906914305042475
1772534517689103600,10.069103515625,2.038664467188716,0.4585859179012477,0.33587066172808405
1772534517699119900,10.079119873046874,1.8688485832750796,0.42983869297504423,0.40717908086683596
1772534517709136600,10.08913671875,1.509851020720601,0.35284985357969995,0.451836882032454
1772534517719152600,10.099152587890625,1.3161392974346875,0.2777949048563838,0.4289472970932722
1772534517729169700,10.109169677734375,1.3487842604517937,0.2723201267071068,0.36652152831852436
1772534517739186000,10.11918603515625,1.3723597818285227,0.26271365558058024,0.26370807344540953
1772534517749202700,10.12920263671875,1.4346832592725753,0.2460888301245868,0.18415369441099463
1772534517759218700,10.13921875,1.3155869242489338,0.1712564381107688,0.17946641337759792
1772534517769235700,10.149235595703125,1.1351882715225219,0.055080885904654854,0.21755780523233115
1772534517779251700,10.159251708984375,1.1084744521200656,-0.03663783204555511,0.2739711087845266
1772534517789268700,10.169268798828124,1.1200953318089246,-0.03403115667849779,0.3399923447679728
1772534517799284700,10.17928466796875,0.9899106165379286,-0.00262413795851171,0.43315234756767745
1772534517809301500,10.189301513671875,0.9565139583706855,-0.014563070620596408,0.5021102945901453
1772534517819317800,10.19931787109375,1.0757342120349407,-0.013537600030377506,0.4841206105217337
1772534517829334800,10.209334716796874,1.0799421851187945,-0.05220964131727814,0.3974563264168799
1772534517839350800,10.219350830078126,1.093402555194497,-0.14439524612687527,0.3438964395344257
1772534517849367600,10.229367431640625,1.0491653540611265,-0.31782274466641247,0.2849463109809905
1772534517859383800,10.2393837890625,0.9457757067352532,-0.49320473827458916,0.2079361365366727
1772534517869400800,10.24940087890625,0.8653063317477703,-0.5864914361938833,0.18290223304517567
1772534517879416800,10.259416748046876,0.6124485920101403,-0.6189471602492034,0.2006410110924393
1772534517889433600,10.26943359375,0.31478549586236476,-0.5803768988363445,0.20652042451985178
1772534517899449900,10.279449951171875,0.18279577699601648,-0.48280426722615954,0.16359050659276544
1772534517909466600,10.289466552734375,0.020812486404180524,-0.4108547371722758,0.04228672465272248
1772534517919482600,10.299482666015624,-0.1120762271285057,-0.41470673642531036,-0.01734276446700096
1772534517929499600,10.309499755859376,-0.1850257280051708,-0.43653826367892323,0.01737031006105244
1772534517939515600,10.319515625,-0.29820611698329447,-0.4561271265722811,0.07380765207596122
1772534517949532700,10.32953271484375,-0.35339433571994305,-0.45085817319341004,0.14258680846542118
1772534517959548700,10.339548583984374,-0.3769990831911564,-0.4178057984191924,0.21024127167388795
1772534517969565700,10.349565673828126,-0.30634499977529045,-0.4168897064875811,0.164762107655406
1772534517979581700,10.359581787109375,-0.2409223872721195,-0.39061763950325545,0.06131985335946083
1772534517989598700,10.3695986328125,-0.3490180203318596,-0.39022118753157553,0.021676482822373506
1772534517999614700,10.37961474609375,-0.5402583850681781,-0.36797523425817485,0.03965703373625874
1772534518009631700,10.3896318359375,-0.7927297558367252,-0.3361552508231252,-0.027250191301479935
1772534518019647500,10.3996474609375,-1.0019307246774434,-0.3525880608383566,-0.06243650936447084
1772534518029664800,10.409664794921875,-1.2221394097447396,-0.3567690728500485,-0.10070004291571676
1772534518039680800,10.4196806640625,-1.4559832369327543,-0.30103995216973123,-0.21771284966357052
1772534518049697500,10.429697509765624,-1.661852431002259,-0.2523815735932439,-0.30761363147161896
1772534518059713500,10.439713623046876,-1.8839111278504133,-0.21224552416838705,-0.29234489679969844
1772534518069730800,10.449730712890625,-2.0876269432783126,-0.1311091366395354,-0.23696590473130344
1772534518079746800,10.459746826171875,-2.2340958538740874,-0.03738024791069328,-0.16377463098801673
1772534518089763600,10.469763671875,-2.2291414463371035,-0.07752842616476117,-0.053001083955913776
1772534518099779600,10.479779541015626,-2.077062879166007,-0.12158274501189589,-0.09742248254977166
1772534518109796900,10.489796875,-1.8950982922971247,-0.010373583041504025,-0.4496951207634061
1772534518119812600,10.4998125,-1.511343305104971,0.0028387305572628975,-0.7919017805799842
1772534518129829600,10.50982958984375,-1.3085989650577305,0.24867000572420656,-1.1072627382427453
1772534518139845600,10.519845703125,-1.4061942468911408,0.6579660422123969,-1.3923533530652523
1772534518149862700,10.529862548828126,-1.4297726908773183,0.7852692106977105,-1.3896549077615141
1772534518159878700,10.539878662109375,-1.604319110444188,0.6249681741043925,-1.2095090607523917
1772534518169895700,10.549895751953125,-1.7527841632932424,0.43177382575608786,-0.8285497686933726
1772534518179911700,10.55991162109375,-1.9616087000370024,0.38229105211943387,-0.48843730467706914
1772534518189928700,10.5699287109375,-2.024773304480314,0.36681525056809183,-0.23880948677137492
1772534518199944700,10.57994482421875,-1.950999627739191,0.2870120844043791,-0.0298996828969568
1772534518209961700,10.589961669921875,-1.735143877184391,0.29146431457288563,0.03364756418839097
1772534518219977700,10.599977783203125,-1.5811369722992181,0.39001865069679914,-0.006839636761695146
1772534518229994800,10.609994873046874,-1.5592589024901389,0.5628354699920862,-0.13432334944568575
1772534518240010800,10.6200107421875,-1.487987563958764,0.6926294323798269,-0.325274229716137
1772534518250027800,10.63002783203125,-1.2249164732426405,0.7398629657849669,-0.4993612150777131
1772534518260043500,10.64004345703125,-0.8353367254197597,0.8279454461246728,-0.6232681652534753
1772534518270060800,10.650060791015624,-0.5079582899659871,0.9466456945028155,-0.7006080831088125
1772534518280076800,10.660076904296876,-0.3764543087899685,1.0138567247927188,-0.6449647410158068
1772534518290093600,10.670093505859375,-0.34898820971548555,1.0390266757540405,-0.6646975424245
1772534518300109600,10.680109619140625,-0.05306406618952751,1.1176759957075117,-0.631986090042442
1772534518310126800,10.690126953125,0.4661696510285139,1.148331319277361,-0.5390093348551541
1772534518320142800,10.700142822265626,0.9584504793912172,1.109932980365306,-0.46554231291040776
1772534518330159600,10.71015966796875,1.2661305271625518,1.0037835860025137,-0.36883459103386845
1772534518340175600,10.720175537109375,1.5360715036481618,0.9473509201627224,-0.2758735083397478
1772534518350191600,10.730191650390625,1.7652619520723818,0.9032357379738241,-0.18200871827155352
1772534518360208600,10.740208740234374,1.9795131900399923,0.8371693476743995,-0.14539824915695934
1772534518370225700,10.7502255859375,2.0829566133797166,0.743213299126178,-0.07013137471601366
1772534518380241700,10.76024169921875,2.1772160287886857,0.5928507420927286,-0.07088765470972284
1772534518390257700,10.770257568359375,2.3237720331460237,0.4398739839728921,-0.06922576764579862
1772534518400274700,10.780274658203124,2.317734506547451,0.29300891366638243,-0.09563267652355134
1772534518410290700,10.790290771484376,1.9986650497555731,0.14793584134317933,-0.13204440819565205
1772534518420307700,10.8003076171875,1.6756120762854814,0.058754825177043675,-0.15157100124144926
1772534518430323700,10.81032373046875,1.4591536836624144,0.11145013111941515,-0.22630413413187486
1772534518440340700,10.8203408203125,1.169661034488678,0.19637378210201858,-0.4432991361159831
1772534518450356700,10.830356689453126,1.0055179355144501,0.15185491448305546,-0.680435355912894
1772534518460373800,10.840373779296876,1.1027660113453865,0.0983266648478806,-0.7394184368878602
1772534518470389500,10.850389404296875,1.1765753439217805,0.10894034025557339,-0.7153345275975763
1772534518480406800,10.86040673828125,1.2074936292767524,0.18632015172988176,-0.6053187035975978
1772534518490422800,10.8704228515625,1.319887251791358,0.21497619124129413,-0.48794765799660234
1772534518500439600,10.880439453125,1.4244962117791176,0.13520181278064847,-0.3632693581221625
1772534518510455600,10.89045556640625,1.5107342332959175,0.00938954044021666,-0.25774556657811626
1772534518520472800,10.900472900390625,1.48273563477993,-0.14027034821659326,-0.2863586254643276
1772534518530488800,10.91048876953125,2.242777757501602,-0.05457037909924984,-0.4396578935367986
1772534518540505600,10.920505615234376,2.1357629054158926,0.10899696581363677,-0.31963856191672385
1772534518550521600,10.930521484375,0.3387871336966753,-0.22695699028372762,0.3957607380127534
1772534518560539000,10.940538818359375,0.5734668271869421,-0.6078168405562638,0.6099470940506085
1772534518570554600,10.9505546875,1.3479215061426162,-0.6830882085092366,0.46414227338675407
1772534518580572000,10.960572021484374,1.410921859934926,-0.4107105063959956,0.030483218405954537
1772534518590588000,10.970587890625,1.1281202328324318,-0.2901638264335692,-0.4058873970884829
1772534518600604700,10.980604736328125,0.9325088134050369,-0.43102585693299766,-0.4147633254507556
1772534518610620700,10.99062060546875,0.7207119828522205,-0.556971034938097,-0.31558669271003453
