time,seconds_elapsed,z,y,x
1772534507664457500,0.04445751953125,-0.9603271484375,-0.2777557373046875,0.0435638427734375
1772534507674473500,0.054473388671875,-0.96124267578125,-0.27874755859375,0.0542755126953125
1772534507684490800,0.06449072265625,-0.958038330078125,-0.28375244140625,0.0596771240234375
1772534507694506800,0.0745068359375,-0.9465789794921875,-0.28033447265625,0.064056396484375
1772534507704523500,0.0845234375,-0.9356842041015625,-0.27740478515625,0.064117431640625
1772534507714539500,0.09453955078125,-0.9243011474609375,-0.2764739990234375,0.06939697265625
1772534507724556800,0.104556884765625,-0.9278411865234375,-0.2782440185546875,0.0760345458984375
1772534507734572500,0.114572509765625,-0.9258880615234375,-0.2769927978515625,0.074615478515625
1772534507744589600,0.124589599609375,-0.9162750244140625,-0.2677154541015625,0.0638275146484375
1772534507754605600,0.13460546875,-0.9019012451171875,-0.2537841796875,0.0583038330078125
1772534507764622600,0.14462255859375,-0.887786865234375,-0.2592010498046875,0.061981201171875
1772534507774638600,0.154638671875,-0.873291015625,-0.2736358642578125,0.0704193115234375
1772534507784655600,0.164655517578125,-0.869384765625,-0.2748870849609375,0.073028564453125
1772534507794671600,0.174671630859375,-0.873626708984375,-0.2747344970703125,0.0664520263671875
1772534507804688600,0.184688720703125,-0.870208740234375,-0.2714080810546875,0.061737060546875
1772534507814704600,0.19470458984375,-0.88067626953125,-0.2752685546875,0.046661376953125
1772534507824721700,0.2047216796875,-0.8848724365234375,-0.2794952392578125,0.026702880859375
1772534507834737700,0.214737548828125,-0.8817291259765625,-0.2807159423828125,0.0136566162109375
1772534507844754700,0.224754638671875,-0.887420654296875,-0.2946014404296875,0.0175323486328125
1772534507854770700,0.234770751953125,-0.904296875,-0.301483154296875,0.036895751953125
1772534507864787500,0.244787353515625,-0.91278076171875,-0.28826904296875,0.052215576171875
1772534507874803500,0.254803466796875,-0.902099609375,-0.2582244873046875,0.06402587890625
1772534507884820700,0.26482080078125,-0.8768463134765625,-0.231353759765625,0.0657501220703125
1772534507894836700,0.274836669921875,-0.86199951171875,-0.2119903564453125,0.0456695556640625
1772534507904853500,0.284853515625,-0.861968994140625,-0.2152252197265625,0.0301055908203125
1772534507914870500,0.29487060546875,-0.8533935546875,-0.230682373046875,0.026611328125
1772534507924886500,0.304886474609375,-0.853424072265625,-0.25762939453125,0.0408477783203125
1772534507934903600,0.314903564453125,-0.8553466796875,-0.27825927734375,0.067626953125
1772534507944919600,0.32491943359375,-0.8606719970703125,-0.28997802734375,0.0941009521484375
1772534507954936600,0.3349365234375,-0.8742218017578125,-0.2995147705078125,0.1042633056640625
1772534507964952600,0.34495263671875,-0.8758392333984375,-0.304443359375,0.1018218994140625
1772534507974969600,0.354969482421875,-0.858489990234375,-0.2905426025390625,0.084014892578125
1772534507984985600,0.364985595703125,-0.848175048828125,-0.278594970703125,0.0654296875
1772534507995002600,0.375002685546875,-0.85430908203125,-0.2755584716796875,0.0565032958984375
1772534508005018400,0.385018310546875,-0.8729095458984375,-0.2808837890625,0.0464019775390625
1772534508015035600,0.39503564453125,-0.881561279296875,-0.27630615234375,0.04486083984375
1772534508025051600,0.4050517578125,-0.906341552734375,-0.2696685791015625,0.0549163818359375
1772534508035068400,0.415068359375,-0.9408721923828125,-0.2545928955078125,0.070556640625
1772534508045084400,0.42508447265625,-0.982574462890625,-0.246337890625,0.07269287109375
1772534508055101700,0.435101806640625,-1.0242919921875,-0.236785888671875,0.0662078857421875
1772534508065117700,0.44511767578125,-1.0391387939453125,-0.2303924560546875,0.0578155517578125
1772534508075134500,0.455134521484375,-1.0280303955078125,-0.225433349609375,0.0474700927734375
1772534508085150500,0.465150390625,-1.0152740478515625,-0.2234344482421875,0.0267791748046875
1772534508095167700,0.475167724609375,-0.993988037109375,-0.2236175537109375,-0.005828857421875
1772534508105183500,0.48518359375,-0.97137451171875,-0.2197265625,-0.027679443359375
1772534508115200500,0.495200439453125,-0.9757537841796875,-0.21185302734375,-0.0364837646484375
1772534508125216500,0.505216552734375,-0.9868621826171875,-0.2269287109375,-0.04833984375
1772534508135233500,0.515233642578125,-0.97479248046875,-0.236907958984375,-0.044677734375
1772534508145249500,0.52524951171875,-0.9543609619140625,-0.22784423828125,-0.03363037109375
1772534508155266600,0.5352666015625,-0.958892822265625,-0.2161407470703125,-0.0362091064453125
1772534508165282600,0.545282470703125,-0.9749603271484375,-0.2166595458984375,-0.046539306640625
1772534508175299600,0.555299560546875,-0.9900360107421875,-0.2135467529296875,-0.0686187744140625
1772534508185315600,0.565315673828125,-0.999298095703125,-0.2244720458984375,-0.0980377197265625
1772534508195332600,0.57533251953125,-1.028167724609375,-0.245574951171875,-0.1187896728515625
1772534508205348600,0.5853486328125,-1.07550048828125,-0.269317626953125,-0.1317596435546875
1772534508215365600,0.59536572265625,-1.1396026611328125,-0.3154754638671875,-0.1378173828125
1772534508225381600,0.605381591796875,-1.1912841796875,-0.3671875,-0.13189697265625
1772534508235398700,0.615398681640625,-1.218963623046875,-0.4044342041015625,-0.1380767822265625
1772534508245414400,0.625414306640625,-1.2296905517578125,-0.438720703125,-0.149444580078125
1772534508255431700,0.635431640625,-1.2080535888671875,-0.45635986328125,-0.1623382568359375
1772534508265448400,0.645448486328125,-1.1687164306640625,-0.4463348388671875,-0.16729736328125
1772534508275464400,0.65546435546875,-1.1381072998046875,-0.431854248046875,-0.1558380126953125
1772534508285480400,0.66548046875,-1.1183624267578125,-0.4109344482421875,-0.144012451171875
1772534508295497700,0.675497802734375,-1.0990447998046875,-0.3885498046875,-0.130462646484375
1772534508305514500,0.685514404296875,-1.081268310546875,-0.3631134033203125,-0.116180419921875
1772534508315530500,0.695530517578125,-1.0802001953125,-0.337554931640625,-0.107147216796875
1772534508325547800,0.7055478515625,-1.095245361328125,-0.3183441162109375,-0.105377197265625
1772534508335563800,0.715563720703125,-1.0933380126953125,-0.306854248046875,-0.1001129150390625
1772534508345580500,0.72558056640625,-1.0631256103515625,-0.2946014404296875,-0.0982513427734375
1772534508355596500,0.735596435546875,-1.0274658203125,-0.286773681640625,-0.088531494140625
1772534508365613800,0.74561376953125,-1.0220947265625,-0.2829132080078125,-0.073822021484375
1772534508375629600,0.755629638671875,-1.0224151611328125,-0.2834014892578125,-0.0639190673828125
1772534508385646600,0.765646484375,-1.0091705322265625,-0.2796783447265625,-0.0500640869140625
1772534508395662600,0.77566259765625,-1.0105438232421875,-0.2653350830078125,-0.0428924560546875
1772534508405679400,0.785679443359375,-1.0204010009765625,-0.24554443359375,-0.0452880859375
1772534508415695600,0.795695556640625,-1.011810302734375,-0.2257080078125,-0.057342529296875
1772534508425712600,0.805712646484375,-0.9814300537109375,-0.2110748291015625,-0.0753326416015625
1772534508435728600,0.815728759765625,-0.9495697021484375,-0.205902099609375,-0.0784149169921875
1772534508445745400,0.825745361328125,-0.9381103515625,-0.21087646484375,-0.0628814697265625
1772534508455761700,0.83576171875,-0.9348907470703125,-0.215911865234375,-0.0445404052734375
1772534508465778700,0.84577880859375,-0.9146728515625,-0.216064453125,-0.0384521484375
1772534508475794400,0.85579443359375,-0.9008026123046875,-0.2144775390625,-0.0382843017578125
1772534508485811500,0.8658115234375,-0.907501220703125,-0.2160797119140625,-0.0363616943359375
1772534508495827700,0.87582763671875,-0.9249114990234375,-0.2193450927734375,-0.03228759765625
1772534508505844500,0.885844482421875,-0.905181884765625,-0.2103271484375,-0.0371856689453125
1772534508515860500,0.895860595703125,-0.9119415283203125,-0.2174224853515625,-0.048004150390625
1772534508525877500,0.90587744140625,-0.954193115234375,-0.2480926513671875,-0.0804443359375
1772534508535893800,0.915893798828125,-0.93975830078125,-0.270904541015625,-0.11138916015625
1772534508545910500,0.92591064453125,-0.9284820556640625,-0.2633056640625,-0.1505584716796875
1772534508555926500,0.935926513671875,-0.9323272705078125,-0.2467498779296875,-0.17877197265625
1772534508565943600,0.945943603515625,-0.9165802001953125,-0.2478790283203125,-0.1727752685546875
1772534508575959600,0.95595947265625,-0.90435791015625,-0.2630462646484375,-0.1591339111328125
1772534508585976600,0.9659765625,-0.9073486328125,-0.2739715576171875,-0.15252685546875
1772534508595992600,0.97599267578125,-0.91241455078125,-0.2710723876953125,-0.148040771484375
1772534508606009600,0.986009521484375,-0.9299774169921875,-0.2685394287109375,-0.1380462646484375
1772534508616025300,0.996025390625,-0.9474029541015625,-0.2749786376953125,-0.1305999755859375
1772534508626042600,1.006042724609375,-0.948516845703125,-0.2791900634765625,-0.130462646484375
1772534508636058600,1.01605859375,-0.9710540771484375,-0.282928466796875,-0.1405181884765625
1772534508646075400,1.026075439453125,-0.9898529052734375,-0.28631591796875,-0.1489105224609375
1772534508656091400,1.03609130859375,-1.001739501953125,-0.2891082763671875,-0.154388427734375
1772534508666108700,1.046108642578125,-1.015289306640625,-0.297515869140625,-0.163665771484375
1772534508676125400,1.05612548828125,-1.018829345703125,-0.301666259765625,-0.1652374267578125
1772534508686141400,1.066141357421875,-1.0160064697265625,-0.29583740234375,-0.1687164306640625
1772534508696158700,1.07615869140625,-1.011932373046875,-0.2897796630859375,-0.17303466796875
1772534508706174700,1.0861748046875,-1.004364013671875,-0.2828369140625,-0.1708831787109375
1772534508716191500,1.09619140625,-0.99383544921875,-0.274566650390625,-0.1686553955078125
1772534508726207500,1.10620751953125,-0.983001708984375,-0.269744873046875,-0.169403076171875
1772534508736224800,1.116224853515625,-0.965362548828125,-0.26702880859375,-0.158782958984375
1772534508746240500,1.126240478515625,-0.9437255859375,-0.2619781494140625,-0.14801025390625
1772534508756257500,1.136257568359375,-0.9267120361328125,-0.2574920654296875,-0.142303466796875
1772534508766273500,1.1462734375,-0.915130615234375,-0.258087158203125,-0.1447601318359375
1772534508776290600,1.15629052734375,-0.9029541015625,-0.26348876953125,-0.1525726318359375
1772534508786306600,1.166306640625,-0.896026611328125,-0.2687530517578125,-0.163055419921875
1772534508796323600,1.176323486328125,-0.8966522216796875,-0.2736663818359375,-0.170684814453125
1772534508806339600,1.186339599609375,-0.89044189453125,-0.278778076171875,-0.1710968017578125
1772534508816356600,1.196356689453125,-0.88922119140625,-0.2791290283203125,-0.168609619140625
1772534508826372600,1.20637255859375,-0.893646240234375,-0.2803192138671875,-0.170196533203125
1772534508836389600,1.2163896484375,-0.9070281982421875,-0.2769622802734375,-0.1636505126953125
1772534508846405600,1.226405517578125,-0.912322998046875,-0.2779083251953125,-0.160308837890625
1772534508856422400,1.23642236328125,-0.9116058349609375,-0.2795562744140625,-0.1717529296875
1772534508866438700,1.246438720703125,-0.896575927734375,-0.2772979736328125,-0.18463134765625
1772534508876455400,1.256455322265625,-0.8923492431640625,-0.2748260498046875,-0.192138671875
1772534508886471400,1.266471435546875,-0.8993072509765625,-0.2787322998046875,-0.1833648681640625
1772534508896488400,1.276488525390625,-0.9025115966796875,-0.28125,-0.172576904296875
1772534508906504700,1.286504638671875,-0.9053955078125,-0.2818756103515625,-0.1685028076171875
1772534508916521500,1.296521484375,-0.90911865234375,-0.28375244140625,-0.1642608642578125
1772534508926537500,1.306537353515625,-0.9117431640625,-0.2881927490234375,-0.153564453125
1772534508936554500,1.316554443359375,-0.915435791015625,-0.2872467041015625,-0.1435089111328125
1772534508946570800,1.32657080078125,-0.9256744384765625,-0.28472900390625,-0.142974853515625
1772534508956587500,1.33658740234375,-0.93145751953125,-0.2845001220703125,-0.14111328125
1772534508966603500,1.346603515625,-0.9373016357421875,-0.2837066650390625,-0.137176513671875
1772534508976620500,1.35662060546875,-0.94580078125,-0.2783050537109375,-0.1296234130859375
1772534508986636500,1.366636474609375,-0.965911865234375,-0.2689971923828125,-0.12994384765625
1772534508996653600,1.376653564453125,-0.978118896484375,-0.2674560546875,-0.1320953369140625
1772534509006669600,1.386669677734375,-0.9894561767578125,-0.263519287109375,-0.134124755859375
1772534509016686300,1.396686279296875,-1.0095672607421875,-0.2602081298828125,-0.134674072265625
1772534509026702600,1.40670263671875,-1.0247039794921875,-0.26190185546875,-0.124053955078125
1772534509036719600,1.4167197265625,-1.032501220703125,-0.25750732421875,-0.1172943115234375
1772534509046735600,1.426735595703125,-1.03076171875,-0.257049560546875,-0.1147918701171875
1772534509056752400,1.43675244140625,-1.030364990234375,-0.25732421875,-0.113006591796875
1772534509066769700,1.446769775390625,-1.0275726318359375,-0.2552490234375,-0.114837646484375
1772534509076785700,1.45678564453125,-1.013092041015625,-0.2557220458984375,-0.1110687255859375
1772534509086802400,1.466802490234375,-0.9960784912109375,-0.24908447265625,-0.10687255859375
1772534509096818400,1.476818359375,-0.984588623046875,-0.2342376708984375,-0.1011962890625
1772534509106835700,1.486835693359375,-0.976318359375,-0.2188568115234375,-0.0916748046875
1772534509116851500,1.4968515625,-0.9805450439453125,-0.21240234375,-0.0852508544921875
1772534509126868500,1.506868408203125,-0.99273681640625,-0.2181243896484375,-0.0822296142578125
1772534509136884500,1.516884521484375,-1.012786865234375,-0.234344482421875,-0.0886077880859375
1772534509146901500,1.526901611328125,-1.0319976806640625,-0.2600860595703125,-0.1075439453125
1772534509156917500,1.53691748046875,-1.0452728271484375,-0.27850341796875,-0.1438140869140625
1772534509166934500,1.5469345703125,-1.0755462646484375,-0.2706756591796875,-0.1658935546875
1772534509176950500,1.556950439453125,-1.121368408203125,-0.2459564208984375,-0.1641693115234375
1772534509186967600,1.566967529296875,-1.1261444091796875,-0.20343017578125,-0.1367950439453125
1772534509196983600,1.576983642578125,-1.1086883544921875,-0.143341064453125,-0.1006011962890625
1772534509207000600,1.58700048828125,-1.0884246826171875,-0.0923004150390625,-0.059722900390625
1772534509217016600,1.5970166015625,-1.0492095947265625,-0.0789031982421875,-0.0087432861328125
1772534509227033600,1.60703369140625,-0.9994049072265625,-0.0998992919921875,0.02313232421875
1772534509237049600,1.617049560546875,-0.9552764892578125,-0.1163787841796875,0.0306243896484375
1772534509247066600,1.627066650390625,-0.9160308837890625,-0.1120147705078125,0.024505615234375
1772534509257082400,1.637082275390625,-0.8862152099609375,-0.10137939453125,0.01458740234375
1772534509267099600,1.647099609375,-0.8858184814453125,-0.0966949462890625,0.01153564453125
1772534509277115600,1.65711572265625,-0.8914031982421875,-0.08892822265625,0.00830078125
1772534509287132400,1.66713232421875,-0.900238037109375,-0.0740814208984375,0.003448486328125
1772534509297148400,1.6771484375,-0.9146575927734375,-0.0599365234375,0.0016937255859375
1772534509307165700,1.687165771484375,-0.9384918212890625,-0.0478515625,0.0022125244140625
1772534509317181700,1.697181640625,-0.975433349609375,-0.050018310546875,0.0094451904296875
1772534509327198500,1.707198486328125,-1.0076751708984375,-0.05621337890625,0.0138702392578125
1772534509337214500,1.71721435546875,-1.0347442626953125,-0.0594940185546875,0.014801025390625
1772534509347231700,1.727231689453125,-1.054718017578125,-0.0656280517578125,0.017486572265625
1772534509357247500,1.73724755859375,-1.0630340576171875,-0.0713043212890625,0.020843505859375
1772534509367264500,1.747264404296875,-1.06585693359375,-0.0761260986328125,0.0199432373046875
1772534509377280500,1.757280517578125,-1.0591278076171875,-0.07958984375,0.0114288330078125
1772534509387297500,1.767297607421875,-1.0387420654296875,-0.0778656005859375,0.003143310546875
1772534509397313500,1.7773134765625,-1.0207977294921875,-0.078216552734375,0.0037994384765625
1772534509407330600,1.78733056640625,-1.0106964111328125,-0.073211669921875,0.02093505859375
1772534509417346600,1.7973466796875,-1.0020751953125,-0.0543060302734375,0.039154052734375
1772534509427363600,1.807363525390625,-0.9951629638671875,-0.0406036376953125,0.0544586181640625
1772534509437379600,1.817379638671875,-0.9964447021484375,-0.0356903076171875,0.072296142578125
1772534509447396600,1.827396728515625,-0.9998626708984375,-0.030792236328125,0.0860443115234375
1772534509457412600,1.83741259765625,-1.0120849609375,-0.0240936279296875,0.099517822265625
1772534509467429600,1.8474296875,-1.0190277099609375,-0.0246124267578125,0.1035919189453125
1772534509477446700,1.85744677734375,-1.02392578125,-0.0279083251953125,0.09674072265625
1772534509487462400,1.86746240234375,-1.02288818359375,-0.036346435546875,0.0817413330078125
1772534509497479400,1.8774794921875,-1.02313232421875,-0.0478363037109375,0.0663909912109375
1772534509507495700,1.88749560546875,-1.023345947265625,-0.0613555908203125,0.054595947265625
1772534509517512400,1.897512451171875,-1.0240325927734375,-0.07794189453125,0.041107177734375
1772534509527528400,1.907528564453125,-1.024261474609375,-0.094146728515625,0.0310821533203125
1772534509537545500,1.91754541015625,-1.022125244140625,-0.1106414794921875,0.0260467529296875
1772534509547561700,1.927561767578125,-1.013427734375,-0.1221160888671875,0.0193634033203125
1772534509557578500,1.93757861328125,-1.00750732421875,-0.1273345947265625,0.015960693359375
1772534509567594500,1.947594482421875,-1.006591796875,-0.13348388671875,0.0187225341796875
1772534509577612000,1.957612060546875,-1.0124969482421875,-0.137542724609375,0.021881103515625
1772534509587627800,1.967627685546875,-1.020111083984375,-0.1405029296875,0.0275421142578125
1772534509597644800,1.977644775390625,-1.011871337890625,-0.143341064453125,0.027496337890625
1772534509607660800,1.987660888671875,-1.011444091796875,-0.143310546875,0.0243377685546875
1772534509617677800,1.997677734375,-1.0003662109375,-0.15863037109375,0.018280029296875
1772534509627693800,2.00769384765625,-0.9919891357421875,-0.1736297607421875,0.0133209228515625
1772534509637710800,2.0177109375,-0.9856719970703125,-0.1788482666015625,0.0160675048828125
1772534509647726800,2.027726806640625,-0.97235107421875,-0.1827239990234375,0.019744873046875
1772534509657744000,2.037743896484375,-0.966156005859375,-0.1815185546875,0.0257110595703125
1772534509667759900,2.047759765625,-0.962860107421875,-0.1733245849609375,0.0332794189453125
1772534509677777000,2.05777685546875,-0.9609832763671875,-0.165008544921875,0.0460052490234375
1772534509687793000,2.06779296875,-0.96002197265625,-0.1605224609375,0.054412841796875
1772534509697810000,2.077809814453125,-0.9803924560546875,-0.1588897705078125,0.0541534423828125
1772534509707826000,2.087825927734375,-0.9981842041015625,-0.166015625,0.051422119140625
1772534509717843000,2.097843017578125,-1.0036163330078125,-0.1715087890625,0.0457916259765625
1772534509727858700,2.107858642578125,-1.00921630859375,-0.169342041015625,0.035400390625
1772534509737876000,2.1178759765625,-1.0058441162109375,-0.1690521240234375,0.0216522216796875
1772534509747892000,2.12789208984375,-0.999908447265625,-0.1722869873046875,0.00689697265625
1772534509757908700,2.13790869140625,-1.009552001953125,-0.170440673828125,-0.0165252685546875
1772534509767924700,2.1479248046875,-1.0254974365234375,-0.165496826171875,-0.0449676513671875
1772534509777942000,2.15794189453125,-1.0443572998046875,-0.16082763671875,-0.078216552734375
1772534509787958000,2.1679580078125,-1.0670318603515625,-0.1565399169921875,-0.1070709228515625
1772534509797974800,2.177974853515625,-1.0925140380859375,-0.1617889404296875,-0.1278228759765625
1772534509807990800,2.18799072265625,-1.1176605224609375,-0.165863037109375,-0.142578125
1772534509818008000,2.198008056640625,-1.1529693603515625,-0.160247802734375,-0.14642333984375
1772534509828023800,2.20802392578125,-1.1764373779296875,-0.153076171875,-0.146026611328125
1772534509838040800,2.218040771484375,-1.1812286376953125,-0.1398773193359375,-0.15423583984375
1772534509848056800,2.228056884765625,-1.16656494140625,-0.1231536865234375,-0.1661529541015625
1772534509858073900,2.238073974609375,-1.1289825439453125,-0.1079559326171875,-0.176727294921875
1772534509868089900,2.24808984375,-1.085418701171875,-0.093597412109375,-0.182373046875
1772534509878107000,2.25810693359375,-1.04571533203125,-0.07891845703125,-0.185791015625
1772534509888123600,2.26812353515625,-1.0217132568359375,-0.06756591796875,-0.1855316162109375
1772534509898139600,2.2781396484375,-1.0163421630859375,-0.057220458984375,-0.1859130859375
1772534509908157000,2.288156982421875,-1.0245208740234375,-0.0561065673828125,-0.1823577880859375
1772534509918173000,2.2981728515625,-1.0511322021484375,-0.060455322265625,-0.195404052734375
1772534509928189700,2.308189697265625,-1.07025146484375,-0.07171630859375,-0.2187347412109375
1772534509938205700,2.318205810546875,-1.0816650390625,-0.0760345458984375,-0.226593017578125
1772534509948223000,2.328222900390625,-1.08990478515625,-0.0776214599609375,-0.2266845703125
1772534509958238700,2.33823876953125,-1.0769500732421875,-0.07373046875,-0.2264404296875
1772534509968255700,2.348255859375,-1.052734375,-0.0641326904296875,-0.21832275390625
1772534509978271700,2.358271728515625,-1.016693115234375,-0.05169677734375,-0.2142333984375
1772534509988288800,2.368288818359375,-0.9893035888671875,-0.0417327880859375,-0.2082977294921875
1772534509998304800,2.3783046875,-0.9645538330078125,-0.032470703125,-0.201263427734375
1772534510008321800,2.38832177734375,-0.942230224609375,-0.0248870849609375,-0.1973876953125
1772534510018337800,2.398337890625,-0.9249267578125,-0.02508544921875,-0.192352294921875
1772534510028354800,2.408354736328125,-0.9261322021484375,-0.0328826904296875,-0.1812591552734375
1772534510038370800,2.418370849609375,-0.929840087890625,-0.043243408203125,-0.1709442138671875
1772534510048387800,2.428387939453125,-0.941375732421875,-0.050872802734375,-0.1733551025390625
1772534510058403800,2.43840380859375,-0.9510955810546875,-0.0622406005859375,-0.1796112060546875
1772534510068420900,2.4484208984375,-0.9567718505859375,-0.0784454345703125,-0.1903228759765625
1772534510078436900,2.458436767578125,-0.957244873046875,-0.0899810791015625,-0.198974609375
1772534510088454000,2.468453857421875,-0.95977783203125,-0.1035003662109375,-0.20672607421875
1772534510098469600,2.4784697265625,-0.95050048828125,-0.118988037109375,-0.2122650146484375
1772534510108487000,2.48848681640625,-0.9392547607421875,-0.122589111328125,-0.2091827392578125
1772534510118503000,2.4985029296875,-0.9365692138671875,-0.1261749267578125,-0.19805908203125
1772534510128519700,2.508519775390625,-0.9345703125,-0.1355133056640625,-0.1832427978515625
1772534510138535700,2.51853564453125,-0.9284820556640625,-0.140716552734375,-0.166839599609375
1772534510148553000,2.528552978515625,-0.9382781982421875,-0.146392822265625,-0.1569671630859375
1772534510158569000,2.53856884765625,-0.9404754638671875,-0.1598052978515625,-0.152557373046875
1772534510168585700,2.548585693359375,-0.943756103515625,-0.167205810546875,-0.1423187255859375
1772534510178601700,2.558601806640625,-0.9427642822265625,-0.1684112548828125,-0.1284637451171875
1772534510188619000,2.568618896484375,-0.939117431640625,-0.1700439453125,-0.1177825927734375
1772534510198634800,2.578634765625,-0.9368743896484375,-0.1698150634765625,-0.1094970703125
1772534510208651800,2.58865185546875,-0.9376068115234375,-0.1749725341796875,-0.104583740234375
1772534510218667800,2.598667724609375,-0.9361724853515625,-0.1867218017578125,-0.111572265625
1772534510228684800,2.608684814453125,-0.924835205078125,-0.199554443359375,-0.1248321533203125
1772534510238700800,2.61870068359375,-0.9100341796875,-0.2094573974609375,-0.13299560546875
1772534510248717800,2.6287177734375,-0.8982086181640625,-0.2169036865234375,-0.1318511962890625
1772534510258734800,2.63873486328125,-0.882354736328125,-0.2301025390625,-0.122344970703125
1772534510268750800,2.648750732421875,-0.867584228515625,-0.2336273193359375,-0.121002197265625
1772534510278767900,2.658767822265625,-0.8642425537109375,-0.2384185791015625,-0.1168365478515625
1772534510288784000,2.668783935546875,-0.8527984619140625,-0.2422637939453125,-0.1125946044921875
1772534510298801000,2.67880078125,-0.84820556640625,-0.241455078125,-0.1093597412109375
1772534510308817000,2.68881689453125,-0.8415069580078125,-0.2447357177734375,-0.1081695556640625
1772534510318834000,2.698833984375,-0.844879150390625,-0.2501983642578125,-0.11181640625
1772534510328850000,2.708849853515625,-0.849365234375,-0.2554779052734375,-0.1221771240234375
1772534510338867000,2.718866943359375,-0.855621337890625,-0.2634124755859375,-0.1378936767578125
1772534510348883000,2.728883056640625,-0.861053466796875,-0.2752227783203125,-0.1532135009765625
1772534510358899700,2.738899658203125,-0.87322998046875,-0.28070068359375,-0.1660614013671875
1772534510368915700,2.748915771484375,-0.892120361328125,-0.282379150390625,-0.1617431640625
1772534510378932700,2.7589326171875,-0.9132537841796875,-0.2810821533203125,-0.154510498046875
1772534510388949000,2.768948974609375,-0.9384918212890625,-0.276458740234375,-0.1497650146484375
1772534510398965800,2.7789658203125,-0.9565277099609375,-0.2768096923828125,-0.139495849609375
1772534510408981800,2.788981689453125,-0.95703125,-0.276947021484375,-0.1373443603515625
1772534510418998800,2.798998779296875,-0.9583740234375,-0.2787322998046875,-0.145660400390625
1772534510429015000,2.80901513671875,-0.9581756591796875,-0.2812347412109375,-0.142852783203125
1772534510439031800,2.81903173828125,-0.952728271484375,-0.2807159423828125,-0.1339874267578125
1772534510449047800,2.8290478515625,-0.9668731689453125,-0.2747344970703125,-0.1329803466796875
1772534510459064800,2.83906494140625,-0.97369384765625,-0.274688720703125,-0.126251220703125
1772534510469080800,2.849080810546875,-0.9721221923828125,-0.274139404296875,-0.122589111328125
1772534510479097900,2.859097900390625,-0.9864501953125,-0.2647857666015625,-0.112396240234375
1772534510489113900,2.86911376953125,-1.0077362060546875,-0.2595062255859375,-0.0988311767578125
1772534510499130600,2.879130615234375,-1.035736083984375,-0.255889892578125,-0.0906829833984375
1772534510509147000,2.88914697265625,-1.0701141357421875,-0.2540130615234375,-0.0831146240234375
1772534510519164000,2.899163818359375,-1.0905914306640625,-0.251678466796875,-0.0716400146484375
1772534510529180000,2.909179931640625,-1.0836639404296875,-0.2545013427734375,-0.0799407958984375
1772534510539196700,2.91919677734375,-1.0750885009765625,-0.259674072265625,-0.1082611083984375
1772534510549213000,2.929212890625,-1.07843017578125,-0.23992919921875,-0.1252593994140625
1772534510559230000,2.93922998046875,-1.057464599609375,-0.2444305419921875,-0.128021240234375
1772534510569245700,2.94924560546875,-1.0344696044921875,-0.249908447265625,-0.1221160888671875
1772534510579262500,2.959262451171875,-1.0175933837890625,-0.2351531982421875,-0.119598388671875
1772534510589278500,2.969278564453125,-1.0129852294921875,-0.213470458984375,-0.10797119140625
1772534510599295700,2.979295654296875,-1.027496337890625,-0.1918792724609375,-0.091064453125
1772534510609311500,2.9893115234375,-1.0631103515625,-0.18902587890625,-0.0648193359375
1772534510619328500,2.99932861328125,-1.1283416748046875,-0.20068359375,-0.0245361328125
1772534510629345500,3.009345458984375,-1.1720733642578125,-0.2074432373046875,-0.0066070556640625
1772534510639361500,3.019361572265625,-1.19207763671875,-0.195770263671875,-0.0013427734375
1772534510649378600,3.029378662109375,-1.2018890380859375,-0.17913818359375,0.0050201416015625
1772534510659394600,3.03939453125,-1.1815032958984375,-0.161224365234375,0.0092620849609375
1772534510669411600,3.04941162109375,-1.1380615234375,-0.140960693359375,0.009490966796875
1772534510679427600,3.059427490234375,-1.0787811279296875,-0.119110107421875,0.011199951171875
1772534510689444600,3.069444580078125,-1.0103607177734375,-0.10455322265625,0.008697509765625
1772534510699460600,3.079460693359375,-0.9467926025390625,-0.0926971435546875,0.01141357421875
1772534510709477400,3.089477294921875,-0.9111328125,-0.07855224609375,0.023193359375
1772534510719493600,3.09949365234375,-0.890045166015625,-0.06884765625,0.0302734375
1772534510729510700,3.1095107421875,-0.8743896484375,-0.065643310546875,0.0384521484375
1772534510739526400,3.1195263671875,-0.862945556640625,-0.065765380859375,0.038787841796875
1772534510749543400,3.12954345703125,-0.8547821044921875,-0.05914306640625,0.03021240234375
1772534510759559700,3.1395595703125,-0.858123779296875,-0.0546722412109375,0.02386474609375
1772534510769576400,3.149576416015625,-0.869720458984375,-0.0550384521484375,0.0137939453125
1772534510779592400,3.159592529296875,-0.88995361328125,-0.055694580078125,-0.0049896240234375
1772534510789609500,3.169609375,-0.903839111328125,-0.0684967041015625,-0.0302581787109375
1772534510799625700,3.179625732421875,-0.9156951904296875,-0.0811614990234375,-0.0590362548828125
1772534510809642500,3.189642578125,-0.918670654296875,-0.0969085693359375,-0.0899810791015625
1772534510819658500,3.199658447265625,-0.9120330810546875,-0.1121978759765625,-0.11669921875
1772534510829675500,3.209675537109375,-0.8970947265625,-0.1293182373046875,-0.13836669921875
1772534510839691500,3.21969140625,-0.88427734375,-0.137603759765625,-0.1519317626953125
1772534510849708500,3.22970849609375,-0.8810272216796875,-0.143951416015625,-0.150115966796875
1772534510859724500,3.239724609375,-0.871734619140625,-0.14990234375,-0.13238525390625
1772534510869741300,3.2497412109375,-0.8774566650390625,-0.1453399658203125,-0.1066741943359375
1772534510879757600,3.259757568359375,-0.88946533203125,-0.1312255859375,-0.0752105712890625
1772534510889774600,3.269774658203125,-0.9066009521484375,-0.1145782470703125,-0.0483856201171875
1772534510899790600,3.27979052734375,-0.9425201416015625,-0.1067047119140625,-0.035400390625
1772534510909807400,3.289807373046875,-0.973114013671875,-0.1102447509765625,-0.0263824462890625
1772534510919823600,3.29982373046875,-0.99755859375,-0.1147308349609375,-0.0131378173828125
1772534510929840600,3.309840576171875,-1.000152587890625,-0.116485595703125,-0.0040130615234375
1772534510939856600,3.319856689453125,-0.98638916015625,-0.117431640625,-0.0029449462890625
1772534510949873400,3.329873291015625,-0.976104736328125,-0.1196136474609375,-0.0041046142578125
1772534510959889700,3.3398896484375,-0.9534454345703125,-0.120452880859375,-0.00421142578125
1772534510969906700,3.34990673828125,-0.939178466796875,-0.124542236328125,-0.011688232421875
1772534510979922400,3.35992236328125,-0.93060302734375,-0.136962890625,-0.019195556640625
1772534510989939500,3.369939453125,-0.92816162109375,-0.1540374755859375,-0.0238494873046875
1772534510999955700,3.379955810546875,-0.9304046630859375,-0.16510009765625,-0.034210205078125
1772534511009972500,3.389972412109375,-0.948455810546875,-0.1724395751953125,-0.0438995361328125
1772534511019989500,3.399989501953125,-0.9738922119140625,-0.1822357177734375,-0.044158935546875
1772534511030005500,3.410005615234375,-0.9820098876953125,-0.1908721923828125,-0.048004150390625
1772534511040022500,3.4200224609375,-0.9821014404296875,-0.19378662109375,-0.05963134765625
1772534511050038500,3.43003857421875,-0.970703125,-0.19427490234375,-0.06024169921875
1772534511060055600,3.4400556640625,-0.9647979736328125,-0.196502685546875,-0.0484161376953125
1772534511070071600,3.450071533203125,-0.954071044921875,-0.198089599609375,-0.033172607421875
1772534511080088600,3.460088623046875,-0.938568115234375,-0.1971435546875,-0.0227813720703125
1772534511090104600,3.4701044921875,-0.941192626953125,-0.1972198486328125,-0.02117919921875
1772534511100121600,3.48012158203125,-0.9613494873046875,-0.198822021484375,-0.025390625
1772534511110137300,3.490137451171875,-0.9835052490234375,-0.20367431640625,-0.0377960205078125
1772534511120154600,3.500154541015625,-1.010284423828125,-0.206298828125,-0.0483551025390625
1772534511130170600,3.510170654296875,-1.0405426025390625,-0.2113494873046875,-0.0557708740234375
1772534511140187400,3.5201875,-1.056976318359375,-0.2177581787109375,-0.06024169921875
1772534511150203400,3.530203369140625,-1.0723724365234375,-0.217071533203125,-0.0690155029296875
1772534511160220700,3.540220703125,-1.08343505859375,-0.21710205078125,-0.0794677734375
1772534511170236700,3.550236572265625,-1.08758544921875,-0.2165374755859375,-0.091278076171875
1772534511180253400,3.56025341796875,-1.0880126953125,-0.212158203125,-0.1090850830078125
1772534511190269400,3.57026953125,-1.083465576171875,-0.2110443115234375,-0.12677001953125
1772534511200286700,3.58028662109375,-1.076080322265625,-0.2133026123046875,-0.142791748046875
1772534511210302500,3.590302490234375,-1.062042236328125,-0.2135009765625,-0.1605682373046875
1772534511220319500,3.600319580078125,-1.0413360595703125,-0.2161407470703125,-0.1830902099609375
1772534511230335500,3.61033544921875,-1.0201263427734375,-0.212554931640625,-0.20166015625
1772534511240352500,3.6203525390625,-1.0092315673828125,-0.21148681640625,-0.21807861328125
1772534511250368500,3.630368408203125,-1.010009765625,-0.2126617431640625,-0.2378387451171875
1772534511260385500,3.640385498046875,-1.0158233642578125,-0.213226318359375,-0.2647552490234375
1772534511270401500,3.650401611328125,-1.018524169921875,-0.2129974365234375,-0.287689208984375
1772534511280418600,3.66041845703125,-1.0241851806640625,-0.2184295654296875,-0.2910308837890625
1772534511290434600,3.6704345703125,-1.0230560302734375,-0.22686767578125,-0.2813568115234375
1772534511300451600,3.68045166015625,-1.0097503662109375,-0.228668212890625,-0.2657318115234375
1772534511310467600,3.690467529296875,-1.0034027099609375,-0.2186126708984375,-0.25030517578125
1772534511320484600,3.700484619140625,-0.994903564453125,-0.2073974609375,-0.2345428466796875
1772534511330500600,3.71050048828125,-0.99267578125,-0.19317626953125,-0.21710205078125
1772534511340517600,3.720517578125,-0.9991455078125,-0.1742706298828125,-0.197967529296875
1772534511350533400,3.730533447265625,-1.014373779296875,-0.1502532958984375,-0.1696014404296875
1772534511360550700,3.740550537109375,-1.068603515625,-0.1316375732421875,-0.1266937255859375
1772534511370566700,3.750566650390625,-1.11175537109375,-0.140472412109375,-0.075439453125
1772534511380583400,3.76058349609375,-1.143096923828125,-0.1536865234375,-0.0337677001953125
1772534511390600400,3.770600341796875,-1.1766357421875,-0.15167236328125,-0.0032196044921875
1772534511400616700,3.78061669921875,-1.1657867431640625,-0.143798828125,0.0156097412109375
1772534511410633500,3.790633544921875,-1.1344451904296875,-0.132232666015625,0.0208282470703125
1772534511420649500,3.8006494140625,-1.0968017578125,-0.1148529052734375,0.0143280029296875
1772534511430666500,3.81066650390625,-1.0558929443359375,-0.0947265625,-0.0031280517578125
1772534511440682800,3.820682861328125,-1.0312347412109375,-0.0800018310546875,-0.0095367431640625
1772534511450699500,3.830699462890625,-1.0304412841796875,-0.072174072265625,-0.0098876953125
1772534511460715500,3.840715576171875,-1.0385284423828125,-0.065826416015625,-0.014251708984375
1772534511470732500,3.850732666015625,-1.0446014404296875,-0.065032958984375,-0.027740478515625
1772534511480748500,3.86074853515625,-1.0437774658203125,-0.06573486328125,-0.04986572265625
1772534511490765600,3.870765625,-1.0391998291015625,-0.068389892578125,-0.0728759765625
1772534511500781600,3.880781494140625,-1.03997802734375,-0.076507568359375,-0.0914459228515625
1772534511510798300,3.89079833984375,-1.0416259765625,-0.0893707275390625,-0.1065521240234375
1772534511520814600,3.900814697265625,-1.0367584228515625,-0.1024169921875,-0.1160125732421875
1772534511530831600,3.91083154296875,-1.02801513671875,-0.1153564453125,-0.1269378662109375
1772534511540847600,3.92084765625,-1.0151214599609375,-0.129058837890625,-0.1454620361328125
1772534511550864400,3.930864501953125,-0.9976959228515625,-0.1417999267578125,-0.159454345703125
1772534511560880400,3.94088037109375,-0.988861083984375,-0.1495361328125,-0.155792236328125
1772534511570898200,3.950898193359375,-0.9729766845703125,-0.153411865234375,-0.1397552490234375
1772534511580914000,3.960913818359375,-0.9490203857421875,-0.150970458984375,-0.11920166015625
1772534511590931000,3.970930908203125,-0.9333038330078125,-0.141815185546875,-0.095458984375
1772534511600947200,3.980947265625,-0.922576904296875,-0.1385955810546875,-0.07757568359375
1772534511610964000,3.9909638671875,-0.90234375,-0.138427734375,-0.0634002685546875
1772534511620980000,4.00097998046875,-0.8790130615234375,-0.142059326171875,-0.0468292236328125
1772534511630997000,4.0109970703125,-0.861175537109375,-0.149139404296875,-0.0327911376953125
1772534511641013200,4.02101318359375,-0.84844970703125,-0.1574859619140625,-0.022857666015625
1772534511651030000,4.031030029296875,-0.833831787109375,-0.1638641357421875,-0.0148773193359375
1772534511661046000,4.0410458984375,-0.8346710205078125,-0.1706390380859375,-0.0185546875
1772534511671063000,4.05106298828125,-0.8354034423828125,-0.1810302734375,-0.0320281982421875
1772534511681079000,4.0610791015625,-0.8249969482421875,-0.1932525634765625,-0.0461273193359375
1772534511691096000,4.071095947265625,-0.81732177734375,-0.2036285400390625,-0.0555877685546875
1772534511701112000,4.081112060546875,-0.7964019775390625,-0.212738037109375,-0.0681915283203125
1772534511711128800,4.09112890625,-0.7705841064453125,-0.2201080322265625,-0.077850341796875
1772534511721145000,4.10114501953125,-0.7553558349609375,-0.2324066162109375,-0.0795440673828125
1772534511731162000,4.111162109375,-0.750823974609375,-0.245208740234375,-0.0855560302734375
1772534511741178000,4.12117822265625,-0.743316650390625,-0.25823974609375,-0.0965423583984375
1772534511751195000,4.13119482421875,-0.7568511962890625,-0.27716064453125,-0.1033782958984375
1772534511761211100,4.141211181640625,-0.784454345703125,-0.3006744384765625,-0.1066131591796875
1772534511771228200,4.151228271484375,-0.806915283203125,-0.3238677978515625,-0.102264404296875
1772534511781244200,4.161244140625,-0.8408966064453125,-0.3390045166015625,-0.091583251953125
1772534511791261000,4.171260986328125,-0.85369873046875,-0.3484039306640625,-0.079315185546875
1772534511801278200,4.1812783203125,-0.85443115234375,-0.349578857421875,-0.0724639892578125
1772534511811294000,4.1912939453125,-0.8525543212890625,-0.351226806640625,-0.07110595703125
1772534511821311000,4.20131103515625,-0.8599853515625,-0.3528900146484375,-0.069580078125
1772534511831327000,4.211326904296875,-0.879425048828125,-0.3541412353515625,-0.0728302001953125
1772534511841344000,4.221343994140625,-0.91082763671875,-0.354888916015625,-0.07427978515625
1772534511851360000,4.231360107421875,-0.947265625,-0.3549346923828125,-0.080169677734375
1772534511861377000,4.241376953125,-0.99310302734375,-0.3543548583984375,-0.08721923828125
1772534511871393000,4.25139306640625,-1.037017822265625,-0.3509521484375,-0.0933380126953125
1772534511881410000,4.26141015625,-1.0665740966796875,-0.3397674560546875,-0.095489501953125
1772534511891426000,4.271426025390625,-1.0807342529296875,-0.3242645263671875,-0.10003662109375
1772534511901443000,4.281443115234375,-1.087982177734375,-0.311187744140625,-0.1073760986328125
1772534511911459000,4.291458984375,-1.098175048828125,-0.30718994140625,-0.11346435546875
1772534511921476000,4.30147607421875,-1.1063995361328125,-0.299713134765625,-0.130706787109375
1772534511931492000,4.3114921875,-1.12640380859375,-0.2801666259765625,-0.1416778564453125
1772534511941509000,4.321509033203125,-1.1464385986328125,-0.269195556640625,-0.135528564453125
1772534511951524900,4.33152490234375,-1.1636505126953125,-0.2678375244140625,-0.1183929443359375
1772534511961542100,4.341542236328125,-1.1759033203125,-0.260528564453125,-0.0971221923828125
1772534511971558100,4.35155810546875,-1.1743621826171875,-0.2415618896484375,-0.08221435546875
1772534511981575000,4.361574951171875,-1.168121337890625,-0.2227020263671875,-0.0728302001953125
1772534511991591000,4.3715908203125,-1.1383209228515625,-0.215484619140625,-0.0679779052734375
1772534512001608200,4.381608154296875,-1.0997467041015625,-0.2098541259765625,-0.0677490234375
1772534512011624200,4.391624267578125,-1.0728607177734375,-0.1957855224609375,-0.05450439453125
1772534512021641000,4.401640869140625,-1.05224609375,-0.1859283447265625,-0.0411224365234375
1772534512031657000,4.411656982421875,-1.0462646484375,-0.177734375,-0.0293426513671875
1772534512041674200,4.42167431640625,-1.049407958984375,-0.16754150390625,-0.00836181640625
1772534512051690000,4.43168994140625,-1.0623626708984375,-0.1573333740234375,0.006805419921875
1772534512061707000,4.44170703125,-1.0806884765625,-0.1525115966796875,0.0230865478515625
1772534512071723000,4.451722900390625,-1.1015472412109375,-0.1498565673828125,0.0380859375
1772534512081740000,4.461739990234375,-1.1087188720703125,-0.1439056396484375,0.038421630859375
1772534512091756000,4.471756103515625,-1.096893310546875,-0.1370697021484375,0.017669677734375
1772534512101773000,4.48177294921875,-1.067138671875,-0.1326141357421875,-0.0147705078125
1772534512111789000,4.4917890625,-1.03240966796875,-0.126068115234375,-0.032196044921875
1772534512121806000,4.50180615234375,-0.989410400390625,-0.1177978515625,-0.045135498046875
1772534512131822000,4.511822021484375,-0.962066650390625,-0.1111907958984375,-0.0476837158203125
1772534512141839000,4.521839111328125,-0.935943603515625,-0.1080474853515625,-0.0365753173828125
1772534512151855000,4.531855224609375,-0.922698974609375,-0.097076416015625,-0.0335845947265625
1772534512161872100,4.5418720703125,-0.933319091796875,-0.087799072265625,-0.027252197265625
1772534512171888000,4.55188818359375,-0.953643798828125,-0.090728759765625,-0.02154541015625
1772534512181905200,4.5619052734375,-0.9600372314453125,-0.102630615234375,-0.02130126953125
1772534512191921000,4.5719208984375,-0.972076416015625,-0.1082763671875,-0.0293731689453125
1772534512201938200,4.581938232421875,-0.9692230224609375,-0.11175537109375,-0.03515625
1772534512211954200,4.5919541015625,-0.949951171875,-0.1116485595703125,-0.0431060791015625
1772534512221971000,4.601970947265625,-0.9250640869140625,-0.1113128662109375,-0.0469818115234375
1772534512231987000,4.611987060546875,-0.903167724609375,-0.117156982421875,-0.0532684326171875
1772534512242004200,4.622004150390625,-0.8881378173828125,-0.1324920654296875,-0.0560760498046875
1772534512252021000,4.63202099609375,-0.88201904296875,-0.14605712890625,-0.060943603515625
1772534512262037000,4.642037109375,-0.8928070068359375,-0.158355712890625,-0.0716400146484375
1772534512272054000,4.652053955078125,-0.9028778076171875,-0.1738433837890625,-0.0797576904296875
1772534512282070000,4.662070068359375,-0.9066314697265625,-0.1795806884765625,-0.087493896484375
1772534512292087000,4.672087158203125,-0.8960723876953125,-0.186431884765625,-0.093719482421875
1772534512302103000,4.68210302734375,-0.8883514404296875,-0.189788818359375,-0.0859832763671875
1772534512312120000,4.6921201171875,-0.8763427734375,-0.1890869140625,-0.07598876953125
1772534512322135800,4.7021357421875,-0.8724212646484375,-0.1898040771484375,-0.066436767578125
1772534512332153000,4.712153076171875,-0.8636016845703125,-0.187713623046875,-0.0544891357421875
1772534512342169000,4.722169189453125,-0.860992431640625,-0.18475341796875,-0.0463104248046875
1772534512352185900,4.732185791015625,-0.8616180419921875,-0.1861724853515625,-0.0367584228515625
1772534512362201900,4.742201904296875,-0.8647308349609375,-0.1847381591796875,-0.0355224609375
1772534512372219100,4.75221923828125,-0.8837738037109375,-0.18878173828125,-0.0379180908203125
1772534512382235100,4.762235107421875,-0.90484619140625,-0.2042694091796875,-0.0342559814453125
1772534512392252000,4.772251953125,-0.919281005859375,-0.220947265625,-0.0325164794921875
1772534512402268000,4.782267822265625,-0.921783447265625,-0.2319793701171875,-0.0362396240234375
1772534512412285200,4.79228515625,-0.9283294677734375,-0.2340545654296875,-0.0316009521484375
1772534512422301000,4.802301025390625,-0.9316253662109375,-0.23193359375,-0.0305023193359375
1772534512432318000,4.81231787109375,-0.94085693359375,-0.23443603515625,-0.0270233154296875
1772534512442334000,4.822333984375,-0.953094482421875,-0.24188232421875,-0.0218658447265625
1772534512452351000,4.83235107421875,-0.96771240234375,-0.2486114501953125,-0.022125244140625
1772534512462367000,4.842366943359375,-0.9839019775390625,-0.2500152587890625,-0.0172576904296875
1772534512472384000,4.852384033203125,-0.98907470703125,-0.2479705810546875,-0.0186614990234375
1772534512482400000,4.86239990234375,-0.9826202392578125,-0.239837646484375,-0.0299072265625
1772534512492417000,4.8724169921875,-0.9773406982421875,-0.2319183349609375,-0.0471038818359375
1772534512502433000,4.88243310546875,-0.9857330322265625,-0.2296142578125,-0.0545196533203125
1772534512512450000,4.892449951171875,-1.00531005859375,-0.231689453125,-0.0505828857421875
1772534512522466000,4.902466064453125,-1.02899169921875,-0.2350006103515625,-0.0532989501953125
1772534512532483000,4.912483154296875,-1.0553131103515625,-0.23895263671875,-0.0509185791015625
1772534512542499000,4.9224990234375,-1.0702362060546875,-0.2380523681640625,-0.0498809814453125
1772534512552516000,4.93251611328125,-1.08709716796875,-0.2321014404296875,-0.0529632568359375
1772534512562531800,4.94253173828125,-1.0830535888671875,-0.2289276123046875,-0.0589447021484375
1772534512572548400,4.95254833984375,-1.0912017822265625,-0.2216644287109375,-0.05303955078125
1772534512582564400,4.962564453125,-1.1022186279296875,-0.2176971435546875,-0.0463714599609375
1772534512592581600,4.97258154296875,-1.090545654296875,-0.226776123046875,-0.0475006103515625
1772534512602597400,4.982597412109375,-1.0986785888671875,-0.226959228515625,-0.04351806640625
1772534512612614400,4.992614501953125,-1.1137237548828125,-0.219512939453125,-0.040740966796875
1772534512622630400,5.00263037109375,-1.1222991943359375,-0.2162322998046875,-0.0431671142578125
1772534512632647400,5.0126474609375,-1.125518798828125,-0.223785400390625,-0.03875732421875
1772534512642663400,5.022663330078125,-1.1442108154296875,-0.2259368896484375,-0.0226593017578125
1772534512652680400,5.032680419921875,-1.1577911376953125,-0.2286224365234375,-0.0174407958984375
1772534512662696400,5.042696533203125,-1.1482696533203125,-0.2295074462890625,-0.0312347412109375
1772534512672713500,5.05271337890625,-1.1312103271484375,-0.224945068359375,-0.049560546875
1772534512682729500,5.0627294921875,-1.112030029296875,-0.222930908203125,-0.048004150390625
1772534512692746500,5.07274658203125,-1.1186981201171875,-0.219635009765625,-0.033416748046875
1772534512702762200,5.08276220703125,-1.1247100830078125,-0.211761474609375,-0.0148773193359375
1772534512712779500,5.092779541015625,-1.1224822998046875,-0.19598388671875,0.0011749267578125
1772534512722795500,5.10279541015625,-1.128814697265625,-0.1735382080078125,0.01531982421875
1772534512732812300,5.112812255859375,-1.135498046875,-0.1577911376953125,0.0337982177734375
1772534512742828300,5.122828369140625,-1.1253204345703125,-0.1467742919921875,0.0369720458984375
1772534512752845600,5.132845458984375,-1.0948333740234375,-0.1302642822265625,0.016510009765625
1772534512762862300,5.1428623046875,-1.0738677978515625,-0.1143798828125,0.0004119873046875
1772534512772878300,5.15287841796875,-1.0650787353515625,-0.11346435546875,-0.004638671875
1772534512782895600,5.1628955078125,-1.04107666015625,-0.1163330078125,-0.0168304443359375
1772534512792911600,5.17291162109375,-1.01171875,-0.1109161376953125,-0.030792236328125
1772534512802928400,5.182928466796875,-0.9986724853515625,-0.102691650390625,-0.034423828125
1772534512812944400,5.1929443359375,-0.9689483642578125,-0.100982666015625,-0.0303802490234375
1772534512822961700,5.202961669921875,-0.942291259765625,-0.0929107666015625,-0.02606201171875
1772534512832977400,5.212977294921875,-0.9218902587890625,-0.081146240234375,-0.0231170654296875
1772534512842994400,5.222994384765625,-0.9176177978515625,-0.0743408203125,-0.0282440185546875
1772534512853010400,5.233010498046875,-0.917327880859375,-0.0796356201171875,-0.0466766357421875
1772534512863027500,5.24302734375,-0.9137420654296875,-0.0897674560546875,-0.06927490234375
1772534512873043500,5.25304345703125,-0.913543701171875,-0.097076416015625,-0.085235595703125
1772534512883060500,5.263060546875,-0.9136810302734375,-0.1026458740234375,-0.086883544921875
1772534512893076500,5.273076416015625,-0.9218902587890625,-0.1023101806640625,-0.0879669189453125
1772534512903093200,5.28309326171875,-0.9322967529296875,-0.109283447265625,-0.0961761474609375
1772534512913109500,5.293109619140625,-0.9396820068359375,-0.1258087158203125,-0.1040802001953125
1772534512923126500,5.30312646484375,-0.9359283447265625,-0.13861083984375,-0.1187591552734375
1772534512933142500,5.313142578125,-0.9150238037109375,-0.1468505859375,-0.1327056884765625
1772534512943785500,5.323785400390625,-0.8972930908203125,-0.1642913818359375,-0.13311767578125
1772534512953801500,5.333801513671875,-0.8680572509765625,-0.1830291748046875,-0.1199188232421875
1772534512963818500,5.343818603515625,-0.8372344970703125,-0.1902008056640625,-0.1062164306640625
1772534512973834500,5.35383447265625,-0.8094635009765625,-0.1936492919921875,-0.0879974365234375
1772534512983851500,5.3638515625,-0.7973480224609375,-0.1956024169921875,-0.0701904296875
1772534512993867500,5.373867431640625,-0.8177642822265625,-0.1912384033203125,-0.0532684326171875
1772534513003884500,5.383884521484375,-0.859954833984375,-0.196258544921875,-0.036712646484375
1772534513013900500,5.393900634765625,-0.89031982421875,-0.2183685302734375,-0.04046630859375
1772534513023917300,5.403917236328125,-0.91571044921875,-0.24053955078125,-0.039215087890625
1772534513033933300,5.413933349609375,-0.918304443359375,-0.2480010986328125,-0.0264434814453125
1772534513043950600,5.42395068359375,-0.900115966796875,-0.250335693359375,-0.01702880859375
1772534513053966600,5.433966552734375,-0.8796539306640625,-0.2497406005859375,-0.0043487548828125
1772534513063983400,5.4439833984375,-0.8412017822265625,-0.250762939453125,0.000823974609375
1772534513073999400,5.453999267578125,-0.802703857421875,-0.258270263671875,-0.0106048583984375
1772534513084016600,5.4640166015625,-0.7772674560546875,-0.2680816650390625,-0.0292510986328125
1772534513094032600,5.47403271484375,-0.76275634765625,-0.281707763671875,-0.0338134765625
1772534513104049400,5.48404931640625,-0.766693115234375,-0.2916717529296875,-0.0302581787109375
1772534513114065400,5.4940654296875,-0.8169403076171875,-0.2938690185546875,-0.0357513427734375
1772534513124082700,5.504082763671875,-0.8793792724609375,-0.3160247802734375,-0.025543212890625
1772534513134098400,5.514098388671875,-0.9669342041015625,-0.34930419921875,-0.019439697265625
1772534513144115500,5.524115478515625,-1.032379150390625,-0.3811798095703125,-0.0422210693359375
1772534513154131500,5.53413134765625,-1.0274505615234375,-0.4048919677734375,-0.0648040771484375
1772534513164148500,5.5441484375,-1.0074615478515625,-0.401123046875,-0.068939208984375
1772534513174164500,5.55416455078125,-0.9651031494140625,-0.3756866455078125,-0.0610809326171875
1772534513184181500,5.564181396484375,-0.92193603515625,-0.3536376953125,-0.047576904296875
1772534513194197500,5.574197509765625,-0.8873748779296875,-0.34271240234375,-0.03387451171875
1772534513204214500,5.584214599609375,-0.8681793212890625,-0.32452392578125,-0.03076171875
1772534513214230500,5.59423046875,-0.8694915771484375,-0.3040771484375,-0.039825439453125
1772534513224247600,5.60424755859375,-0.8802337646484375,-0.291778564453125,-0.04595947265625
1772534513234263300,5.61426318359375,-0.903533935546875,-0.2801513671875,-0.0477752685546875
1772534513244280300,5.6242802734375,-0.9521484375,-0.266693115234375,-0.0515594482421875
1772534513254296600,5.634296630859375,-1.0084991455078125,-0.26654052734375,-0.0601806640625
1772534513264313300,5.644313232421875,-1.066131591796875,-0.2818756103515625,-0.0845794677734375
1772534513274329300,5.654329345703125,-1.0832977294921875,-0.2931060791015625,-0.098175048828125
1772534513284346400,5.664346435546875,-1.07879638671875,-0.2742767333984375,-0.1123199462890625
1772534513294362600,5.674362548828125,-1.048583984375,-0.2444000244140625,-0.134368896484375
1772534513304379400,5.68437939453125,-1.0163421630859375,-0.2122802734375,-0.1401519775390625
1772534513314395400,5.6943955078125,-0.9781951904296875,-0.1814117431640625,-0.133819580078125
1772534513324412400,5.704412353515625,-0.9515228271484375,-0.1510772705078125,-0.1418304443359375
1772534513334428700,5.7144287109375,-0.956268310546875,-0.1280364990234375,-0.15191650390625
1772534513344445400,5.724445556640625,-0.97845458984375,-0.1150054931640625,-0.1601409912109375
1772534513354461400,5.73446142578125,-1.0252227783203125,-0.1137237548828125,-0.1658477783203125
1772534513364478500,5.744478515625,-1.075653076171875,-0.1281890869140625,-0.1660614013671875
1772534513374494500,5.754494384765625,-1.120941162109375,-0.1501312255859375,-0.159759521484375
1772534513384511500,5.764511474609375,-1.1339569091796875,-0.15997314453125,-0.1612091064453125
1772534513394527500,5.774527587890625,-1.13177490234375,-0.14971923828125,-0.1624755859375
1772534513404544300,5.784544189453125,-1.1248016357421875,-0.1369476318359375,-0.154510498046875
1772534513414560500,5.794560546875,-1.09320068359375,-0.1219482421875,-0.1418609619140625
1772534513424577500,5.80457763671875,-1.073028564453125,-0.093597412109375,-0.131866455078125
1772534513434593500,5.814593505859375,-1.052459716796875,-0.0805816650390625,-0.1165313720703125
1772534513444610300,5.8246103515625,-1.036102294921875,-0.0826263427734375,-0.10302734375
1772534513454626600,5.83462646484375,-1.0339202880859375,-0.080810546875,-0.08477783203125
1772534513464643600,5.8446435546875,-1.0340576171875,-0.08306884765625,-0.0641632080078125
1772534513474659300,5.854659423828125,-1.055877685546875,-0.090484619140625,-0.0514984130859375
1772534513484676400,5.86467626953125,-1.0702972412109375,-0.099212646484375,-0.0393218994140625
1772534513494693600,5.874693603515625,-1.0752105712890625,-0.1013946533203125,-0.0259246826171875
1772534513504709400,5.88470947265625,-1.0768280029296875,-0.092254638671875,-0.0145111083984375
1772534513514726400,5.894726318359375,-1.0687713623046875,-0.083587646484375,0.008392333984375
1772534513524742400,5.904742431640625,-1.044891357421875,-0.0720062255859375,0.0179443359375
1772534513534759400,5.914759521484375,-1.0329437255859375,-0.0648193359375,0.01226806640625
1772534513544775400,5.924775390625,-1.0069732666015625,-0.06549072265625,-0.0005645751953125
1772534513554792400,5.93479248046875,-0.99078369140625,-0.0703582763671875,-0.0267486572265625
1772534513564808400,5.944808349609375,-0.978546142578125,-0.0762176513671875,-0.0557708740234375
1772534513574825500,5.954825439453125,-0.9706878662109375,-0.0862579345703125,-0.08447265625
1772534513584842000,5.964842041015625,-0.9647979736328125,-0.0985870361328125,-0.09613037109375
1772534513594859000,5.97485888671875,-0.95458984375,-0.1046600341796875,-0.104644775390625
1772534513604874800,5.984874755859375,-0.9510955810546875,-0.1055908203125,-0.10858154296875
1772534513614892000,5.99489208984375,-0.944488525390625,-0.109771728515625,-0.10687255859375
1772534513624908000,6.004907958984375,-0.95318603515625,-0.11553955078125,-0.1085968017578125
1772534513634924800,6.0149248046875,-0.96142578125,-0.1193084716796875,-0.103179931640625
1772534513644940800,6.02494091796875,-0.947509765625,-0.123687744140625,-0.09149169921875
1772534513654958000,6.0349580078125,-0.9299468994140625,-0.1178741455078125,-0.0793304443359375
1772534513664974000,6.04497412109375,-0.9063262939453125,-0.1053009033203125,-0.0582733154296875
1772534513674990800,6.054990966796875,-0.878570556640625,-0.0916595458984375,-0.038909912109375
1772534513685006800,6.0650068359375,-0.8691558837890625,-0.0799560546875,-0.0240478515625
1772534513695024000,6.075024169921875,-0.8730316162109375,-0.0737762451171875,-0.003173828125
1772534513705040000,6.085039794921875,-0.8902130126953125,-0.074981689453125,0.00469970703125
1772534513715057000,6.095056884765625,-0.9127197265625,-0.0806732177734375,-0.004791259765625
1772534513725073000,6.105072998046875,-0.9414215087890625,-0.0913848876953125,-0.0179290771484375
1772534513735090000,6.11508984375,-0.9850921630859375,-0.1046295166015625,-0.0286102294921875
1772534513745106000,6.12510595703125,-0.9937286376953125,-0.12445068359375,-0.035430908203125
1772534513755123000,6.135123046875,-0.9914703369140625,-0.131500244140625,-0.0404052734375
1772534513765139000,6.145138916015625,-0.99505615234375,-0.123260498046875,-0.0428619384765625
1772534513775156000,6.155156005859375,-0.977203369140625,-0.128509521484375,-0.045135498046875
1772534513785172000,6.165171875,-0.9563446044921875,-0.1292266845703125,-0.0550689697265625
1772534513795189000,6.17518896484375,-0.948089599609375,-0.1195068359375,-0.0691070556640625
1772534513805205000,6.185205078125,-0.9565582275390625,-0.1212615966796875,-0.08154296875
1772534513815222000,6.195221923828125,-0.96966552734375,-0.1354522705078125,-0.08843994140625
1772534513825238000,6.205238037109375,-0.979461669921875,-0.1529693603515625,-0.0919647216796875
1772534513835254800,6.2152548828125,-0.987152099609375,-0.1601104736328125,-0.0918121337890625
1772534513845270800,6.225270751953125,-0.9998626708984375,-0.1635284423828125,-0.0968475341796875
1772534513855288000,6.2352880859375,-1.0068511962890625,-0.1755218505859375,-0.1034088134765625
1772534513865304000,6.245303955078125,-1.010009765625,-0.1794281005859375,-0.1033477783203125
1772534513875320800,6.25532080078125,-1.02911376953125,-0.16998291015625,-0.095733642578125
1772534513885336800,6.2653369140625,-1.0380096435546875,-0.1621856689453125,-0.08697509765625
1772534513895354000,6.27535400390625,-1.04254150390625,-0.155059814453125,-0.09344482421875
1772534513905370000,6.2853701171875,-1.0479736328125,-0.151214599609375,-0.11383056640625
1772534513915387000,6.295386962890625,-1.04901123046875,-0.1583709716796875,-0.1319122314453125
1772534513925403000,6.30540283203125,-1.0528564453125,-0.1608734130859375,-0.1471710205078125
1772534513935420000,6.315419921875,-1.0500335693359375,-0.1618804931640625,-0.16192626953125
1772534513945436000,6.325435791015625,-1.050567626953125,-0.1699066162109375,-0.167724609375
1772534513955453000,6.335452880859375,-1.061248779296875,-0.178955078125,-0.1695098876953125
1772534513965469000,6.345468994140625,-1.0835723876953125,-0.18389892578125,-0.1772308349609375
1772534513975485700,6.355485595703125,-1.091217041015625,-0.19354248046875,-0.18499755859375
1772534513985502000,6.365501953125,-1.109283447265625,-0.1912384033203125,-0.193084716796875
1772534513995519000,6.37551904296875,-1.1271514892578125,-0.1864471435546875,-0.1974334716796875
1772534514005535000,6.385534912109375,-1.1336212158203125,-0.183349609375,-0.1960906982421875
1772534514015551700,6.3955517578125,-1.1416778564453125,-0.169952392578125,-0.1945953369140625
1772534514025568000,6.405568115234375,-1.1539764404296875,-0.1498260498046875,-0.1972808837890625
1772534514035585000,6.4155849609375,-1.17022705078125,-0.134521484375,-0.196990966796875
1772534514045600800,6.425600830078125,-1.179840087890625,-0.120635986328125,-0.1991424560546875
1772534514055617800,6.43561767578125,-1.1829833984375,-0.109039306640625,-0.2154541015625
1772534514065634000,6.445634033203125,-1.1721649169921875,-0.1067657470703125,-0.2424468994140625
1772534514075650800,6.45565087890625,-1.1486358642578125,-0.1147308349609375,-0.259033203125
1772534514085666800,6.465666748046875,-1.13330078125,-0.1232757568359375,-0.2464141845703125
1772534514095683800,6.475683837890625,-1.1037750244140625,-0.13641357421875,-0.2187957763671875
1772534514105700000,6.4857001953125,-1.073944091796875,-0.1491546630859375,-0.18756103515625
1772534514115716900,6.495716796875,-1.0515289306640625,-0.153533935546875,-0.1522674560546875
1772534514125732900,6.50573291015625,-1.0326080322265625,-0.150726318359375,-0.11309814453125
1772534514135750000,6.51575,-1.0228118896484375,-0.133056640625,-0.08990478515625
1772534514145766100,6.52576611328125,-1.007232666015625,-0.1135711669921875,-0.0827789306640625
1772534514155783000,6.535782958984375,-0.97900390625,-0.09454345703125,-0.0823211669921875
1772534514165799000,6.545798828125,-0.9568634033203125,-0.0682830810546875,-0.085418701171875
1772534514175816000,6.55581591796875,-0.9472198486328125,-0.0458831787109375,-0.0896148681640625
1772534514185832000,6.56583203125,-0.915435791015625,-0.0436553955078125,-0.1031494140625
1772534514195849000,6.575848876953125,-0.877899169921875,-0.0493621826171875,-0.1129913330078125
1772534514205865000,6.585864990234375,-0.8506011962890625,-0.04827880859375,-0.1221923828125
1772534514215881700,6.5958818359375,-0.83441162109375,-0.0541839599609375,-0.12542724609375
1772534514225899000,6.60589892578125,-0.827667236328125,-0.06878662109375,-0.134033203125
1772534514235915000,6.6159150390625,-0.8253021240234375,-0.09002685546875,-0.1617889404296875
1772534514245931800,6.625931884765625,-0.83837890625,-0.112335205078125,-0.1929168701171875
1772534514255947800,6.63594775390625,-0.842437744140625,-0.1373748779296875,-0.2236480712890625
1772534514265965000,6.645965087890625,-0.8435821533203125,-0.1573486328125,-0.2540283203125
1772534514275981000,6.65598095703125,-0.8732147216796875,-0.1745147705078125,-0.272613525390625
1772534514285997800,6.665997802734375,-0.9063262939453125,-0.184844970703125,-0.27142333984375
1772534514296013800,6.676013916015625,-0.922271728515625,-0.191619873046875,-0.270233154296875
1772534514306031000,6.686031005859375,-0.91937255859375,-0.196075439453125,-0.2619476318359375
1772534514316046800,6.696046875,-0.911407470703125,-0.19281005859375,-0.2412567138671875
1772534514326063900,6.70606396484375,-0.896240234375,-0.1834869384765625,-0.2184906005859375
1772534514336080000,6.716079833984375,-0.8779754638671875,-0.18524169921875,-0.1927947998046875
1772534514346097000,6.726096923828125,-0.867340087890625,-0.1842041015625,-0.165191650390625
1772534514356113000,6.73611279296875,-0.8499603271484375,-0.178863525390625,-0.151153564453125
1772534514366130000,6.7461298828125,-0.83251953125,-0.16900634765625,-0.1536407470703125
1772534514376146000,6.75614599609375,-0.80303955078125,-0.170074462890625,-0.1650238037109375
1772534514386163000,6.766162841796875,-0.784149169921875,-0.178802490234375,-0.1744537353515625
1772534514396179000,6.776178955078125,-0.765777587890625,-0.1878662109375,-0.176605224609375
1772534514406196000,6.786196044921875,-0.75628662109375,-0.1912078857421875,-0.1748046875
1772534514416212000,6.7962119140625,-0.7581787109375,-0.2041778564453125,-0.1632843017578125
1772534514426229000,6.80622900390625,-0.7782745361328125,-0.21868896484375,-0.1330413818359375
1772534514436245000,6.816244873046875,-0.8040313720703125,-0.22637939453125,-0.1056060791015625
1772534514446261800,6.82626171875,-0.827880859375,-0.2346343994140625,-0.0962066650390625
1772534514456277800,6.83627783203125,-0.8521575927734375,-0.2442169189453125,-0.0916595458984375
1772534514466295000,6.846294921875,-0.8673248291015625,-0.25335693359375,-0.086639404296875
1772534514476311000,6.85631103515625,-0.8742523193359375,-0.2637939453125,-0.08331298828125
1772534514486327800,6.866327880859375,-0.875091552734375,-0.269775390625,-0.0890655517578125
1772534514496343800,6.87634375,-0.875885009765625,-0.2776641845703125,-0.087799072265625
1772534514506361000,6.886361083984375,-0.88690185546875,-0.2868194580078125,-0.078155517578125
1772534514516377000,6.896377197265625,-0.8909454345703125,-0.3005523681640625,-0.0724639892578125
1772534514526393900,6.906393798828125,-0.88470458984375,-0.312164306640625,-0.071563720703125
1772534514536409900,6.916409912109375,-0.89312744140625,-0.3127288818359375,-0.072906494140625
1772534514546427100,6.92642724609375,-0.8995208740234375,-0.3159942626953125,-0.0684356689453125
1772534514556443000,6.93644287109375,-0.9091033935546875,-0.31964111328125,-0.07098388671875
1772534514566460000,6.9464599609375,-0.923187255859375,-0.3150177001953125,-0.08447265625
1772534514576475600,6.9564755859375,-0.9584808349609375,-0.3155517578125,-0.0930633544921875
1772534514586492400,6.966492431640625,-0.9930877685546875,-0.3206787109375,-0.101318359375
1772534514596508400,6.97650830078125,-1.0345916748046875,-0.32366943359375,-0.10833740234375
1772534514606525700,6.986525634765625,-1.07421875,-0.3191070556640625,-0.109832763671875
1772534514616541700,6.996541748046875,-1.100372314453125,-0.3127288818359375,-0.11279296875
1772534514626558500,7.006558349609375,-1.1264801025390625,-0.29931640625,-0.1123199462890625
1772534514636574500,7.016574462890625,-1.1398468017578125,-0.286224365234375,-0.1190948486328125
1772534514646591700,7.026591796875,-1.142822265625,-0.2755126953125,-0.1277313232421875
1772534514656607700,7.036607666015625,-1.1416168212890625,-0.2730560302734375,-0.13739013671875
1772534514666624500,7.04662451171875,-1.140106201171875,-0.279510498046875,-0.1424560546875
1772534514676640500,7.056640625,-1.134674072265625,-0.272491455078125,-0.14532470703125
1772534514686657800,7.06665771484375,-1.1251068115234375,-0.2494964599609375,-0.141082763671875
1772534514696673500,7.076673583984375,-1.1175689697265625,-0.232391357421875,-0.1279296875
1772534514706690600,7.086690673828125,-1.0998077392578125,-0.219940185546875,-0.1246337890625
1772534514716706600,7.09670654296875,-1.0811004638671875,-0.1939239501953125,-0.1385345458984375
1772534514726723600,7.1067236328125,-1.0617828369140625,-0.16461181640625,-0.1577301025390625
1772534514736739600,7.116739501953125,-1.0387725830078125,-0.14788818359375,-0.1745147705078125
1772534514746756600,7.126756591796875,-1.028564453125,-0.1444549560546875,-0.185546875
1772534514756772600,7.136772705078125,-1.02093505859375,-0.150146484375,-0.1885833740234375
1772534514766789600,7.14678955078125,-1.0226898193359375,-0.156097412109375,-0.1930084228515625
1772534514776805600,7.1568056640625,-1.03326416015625,-0.16168212890625,-0.1808013916015625
1772534514786822700,7.16682275390625,-1.0597686767578125,-0.162811279296875,-0.1617889404296875
1772534514796838400,7.17683837890625,-1.098968505859375,-0.156463623046875,-0.1446075439453125
1772534514806855700,7.186855712890625,-1.1184234619140625,-0.1417388916015625,-0.14068603515625
1772534514816871700,7.19687158203125,-1.126068115234375,-0.115142822265625,-0.1402130126953125
1772534514826888400,7.206888427734375,-1.1187286376953125,-0.08941650390625,-0.1369476318359375
1772534514836904400,7.216904541015625,-1.10406494140625,-0.07080078125,-0.1337127685546875
1772534514846921700,7.226921630859375,-1.08984375,-0.0522918701171875,-0.1294097900390625
1772534514856937700,7.236937744140625,-1.080718994140625,-0.044158935546875,-0.1260528564453125
1772534514866954500,7.24695458984375,-1.0873565673828125,-0.0459747314453125,-0.12054443359375
1772534514876970500,7.256970458984375,-1.0978546142578125,-0.044921875,-0.1171875
1772534514886987800,7.26698779296875,-1.0989990234375,-0.046630859375,-0.1208343505859375
1772534514897003800,7.277003662109375,-1.0932464599609375,-0.0519256591796875,-0.1334228515625
1772534514907020500,7.2870205078125,-1.084686279296875,-0.0522918701171875,-0.147247314453125
1772534514917036500,7.29703662109375,-1.06475830078125,-0.0503082275390625,-0.154754638671875
1772534514927053600,7.307053466796875,-1.0282440185546875,-0.04949951171875,-0.1575775146484375
1772534514937069600,7.317069580078125,-0.9849853515625,-0.0491943359375,-0.1614227294921875
1772534514947086600,7.327086669921875,-0.940185546875,-0.05413818359375,-0.1582794189453125
1772534514957102600,7.3371025390625,-0.90478515625,-0.060638427734375,-0.143157958984375
1772534514967119600,7.34711962890625,-0.8751068115234375,-0.06744384765625,-0.130828857421875
1772534514977135600,7.357135498046875,-0.8651885986328125,-0.0714111328125,-0.119842529296875
1772534514987152600,7.367152587890625,-0.85186767578125,-0.0706787109375,-0.1071319580078125
1772534514997168600,7.377168701171875,-0.82672119140625,-0.0771026611328125,-0.0911712646484375
1772534515007185700,7.387185546875,-0.8236083984375,-0.08648681640625,-0.07452392578125
1772534515017201700,7.39720166015625,-0.8155517578125,-0.097686767578125,-0.064208984375
1772534515027218700,7.40721875,-0.807403564453125,-0.10479736328125,-0.05340576171875
1772534515037234400,7.417234375,-0.807403564453125,-0.1099853515625,-0.050323486328125
1772534515047251500,7.42725146484375,-0.8072357177734375,-0.125335693359375,-0.0450286865234375
1772534515057267700,7.437267822265625,-0.81060791015625,-0.1411590576171875,-0.0431365966796875
1772534515067284500,7.447284423828125,-0.8166656494140625,-0.1526641845703125,-0.0396881103515625
1772534515077300500,7.457300537109375,-0.842041015625,-0.15802001953125,-0.03582763671875
1772534515087317500,7.4673173828125,-0.863677978515625,-0.16485595703125,-0.0414276123046875
1772534515097333800,7.477333740234375,-0.8719940185546875,-0.175140380859375,-0.0578765869140625
1772534515107350500,7.4873505859375,-0.880340576171875,-0.1826629638671875,-0.0733489990234375
1772534515117366500,7.497366455078125,-0.887847900390625,-0.1903533935546875,-0.0879669189453125
1772534515127383600,7.507383544921875,-0.915771484375,-0.1894989013671875,-0.10540771484375
1772534515137399600,7.517399658203125,-0.934356689453125,-0.1983184814453125,-0.12237548828125
1772534515147416600,7.52741650390625,-0.9525909423828125,-0.222900390625,-0.1345367431640625
1772534515157432600,7.5374326171875,-0.978668212890625,-0.242706298828125,-0.134124755859375
1772534515167449600,7.54744970703125,-1.004150390625,-0.2565765380859375,-0.1245269775390625
1772534515177465600,7.557465576171875,-1.0060272216796875,-0.265625,-0.1226043701171875
1772534515187482600,7.567482666015625,-1.0023040771484375,-0.2553558349609375,-0.121490478515625
1772534515197498600,7.57749853515625,-1.0146942138671875,-0.23956298828125,-0.1161651611328125
1772534515207515400,7.587515380859375,-1.0204315185546875,-0.2347869873046875,-0.1197662353515625
1772534515217531600,7.59753173828125,-1.0412750244140625,-0.23004150390625,-0.1296844482421875
1772534515227548700,7.607548583984375,-1.050628662109375,-0.22735595703125,-0.132080078125
1772534515237564700,7.617564697265625,-1.0564422607421875,-0.2293701171875,-0.1287384033203125
1772534515247581400,7.62758154296875,-1.07196044921875,-0.222076416015625,-0.122283935546875
1772534515257597700,7.63759765625,-1.0840301513671875,-0.217132568359375,-0.1205596923828125
1772534515267614700,7.64761474609375,-1.0967254638671875,-0.2169647216796875,-0.121307373046875
1772534515277630500,7.65763037109375,-1.117095947265625,-0.2179718017578125,-0.1208038330078125
1772534515287647500,7.6676474609375,-1.135955810546875,-0.220855712890625,-0.118194580078125
1772534515297663700,7.677663818359375,-1.1561737060546875,-0.2222747802734375,-0.1179351806640625
1772534515307680500,7.687680419921875,-1.166534423828125,-0.2203369140625,-0.123809814453125
1772534515317696500,7.697696533203125,-1.1750030517578125,-0.206298828125,-0.1289520263671875
1772534515327713500,7.707713623046875,-1.172576904296875,-0.2000885009765625,-0.1253814697265625
1772534515337729800,7.717729736328125,-1.16552734375,-0.203948974609375,-0.1159515380859375
1772534515347746600,7.72774658203125,-1.1466827392578125,-0.200408935546875,-0.104461669921875
1772534515357763600,7.737763671875,-1.125030517578125,-0.181640625,-0.0876007080078125
1772534515367779600,7.747779541015625,-1.1013031005859375,-0.16119384765625,-0.0664825439453125
1772534515377796600,7.757796630859375,-1.086334228515625,-0.153076171875,-0.0431976318359375
1772534515387812600,7.7678125,-1.0716705322265625,-0.1494903564453125,-0.0329742431640625
1772534515397829600,7.77782958984375,-1.0561370849609375,-0.1451568603515625,-0.0394439697265625
1772534515407845400,7.787845458984375,-1.0422515869140625,-0.1414947509765625,-0.0556182861328125
1772534515417862700,7.797862548828125,-1.04345703125,-0.1381378173828125,-0.0796661376953125
1772534515427878700,7.807878662109375,-1.058624267578125,-0.13983154296875,-0.1057281494140625
1772534515437895400,7.8178955078125,-1.0584716796875,-0.1482086181640625,-0.1318206787109375
1772534515447911400,7.827911376953125,-1.067413330078125,-0.1435546875,-0.163909912109375
1772534515457928700,7.8379287109375,-1.0740203857421875,-0.1354217529296875,-0.17620849609375
1772534515467944700,7.84794482421875,-1.060089111328125,-0.1368255615234375,-0.1781158447265625
1772534515477961500,7.85796142578125,-1.03533935546875,-0.1277008056640625,-0.1787109375
1772534515487977500,7.8679775390625,-1.010528564453125,-0.1091766357421875,-0.174560546875
1772534515497994800,7.877994873046875,-0.982025146484375,-0.0927886962890625,-0.1635894775390625
1772534515508010800,7.8880107421875,-0.9536285400390625,-0.085113525390625,-0.151763916015625
1772534515518027500,7.898027587890625,-0.9353485107421875,-0.0834503173828125,-0.14398193359375
1772534515528043500,7.90804345703125,-0.92889404296875,-0.0825653076171875,-0.1424102783203125
1772534515538060500,7.918060546875,-0.931121826171875,-0.0919647216796875,-0.1362152099609375
1772534515548076500,7.92807666015625,-0.9270782470703125,-0.1065216064453125,-0.125518798828125
1772534515558093600,7.938093505859375,-0.9298095703125,-0.11431884765625,-0.121124267578125
1772534515568109600,7.948109619140625,-0.929595947265625,-0.1251220703125,-0.1107940673828125
1772534515578126300,7.958126220703125,-0.9225616455078125,-0.1370697021484375,-0.097991943359375
1772534515588142300,7.968142333984375,-0.9153900146484375,-0.1541290283203125,-0.09344482421875
1772534515598159400,7.978159423828125,-0.9019775390625,-0.1724395751953125,-0.098236083984375
1772534515608175600,7.988175537109375,-0.88720703125,-0.18914794921875,-0.107635498046875
1772534515618192400,7.9981923828125,-0.8811492919921875,-0.205413818359375,-0.10888671875
1772534515628208400,8.00820849609375,-0.8837738037109375,-0.219757080078125,-0.1068878173828125
1772534515638225400,8.018225341796875,-0.88201904296875,-0.221710205078125,-0.109893798828125
1772534515648241400,8.028241455078126,-0.880523681640625,-0.2130126953125,-0.1074066162109375
1772534515658258400,8.038258544921876,-0.876495361328125,-0.215667724609375,-0.083892822265625
1772534515668274400,8.0482744140625,-0.8761138916015625,-0.22137451171875,-0.0680084228515625
1772534515678291200,8.058291259765625,-0.8957061767578125,-0.221160888671875,-0.0606689453125
1772534515688307500,8.068307373046874,-0.918243408203125,-0.223388671875,-0.0586395263671875
1772534515698324500,8.078324462890626,-0.9302215576171875,-0.230377197265625,-0.056549072265625
1772534515708340500,8.088340576171875,-0.9253387451171875,-0.2360992431640625,-0.0560302734375
1772534515718357200,8.098357177734375,-0.907012939453125,-0.2452239990234375,-0.0430145263671875
1772534515728373500,8.10837353515625,-0.8780670166015625,-0.2535552978515625,-0.0302581787109375
1772534515738390500,8.118390625,-0.8550872802734375,-0.26092529296875,-0.0170135498046875
1772534515748406500,8.128406494140625,-0.8393402099609375,-0.27252197265625,0.0004119873046875
1772534515758423300,8.13842333984375,-0.817108154296875,-0.2830810546875,0.0013275146484375
1772534515768439600,8.148439453125,-0.800201416015625,-0.287200927734375,0.003997802734375
1772534515778456600,8.15845654296875,-0.792083740234375,-0.2850189208984375,0.007476806640625
1772534515788472300,8.168472412109375,-0.7808380126953125,-0.288330078125,0.0059967041015625
1772534515798489300,8.1784892578125,-0.783782958984375,-0.2953338623046875,0.0074615478515625
1772534515808505300,8.18850537109375,-0.79547119140625,-0.3023223876953125,0.0136871337890625
1772534515818522400,8.1985224609375,-0.8097991943359375,-0.3062591552734375,0.018157958984375
1772534515828538400,8.208538330078126,-0.82598876953125,-0.3102569580078125,0.0202484130859375
1772534515838555400,8.218555419921875,-0.847076416015625,-0.315338134765625,0.022003173828125
1772534515848571400,8.2285712890625,-0.8679351806640625,-0.32159423828125,0.0223846435546875
1772534515858588400,8.23858837890625,-0.891876220703125,-0.32647705078125,0.023345947265625
1772534515868604400,8.2486044921875,-0.9290008544921875,-0.3271942138671875,0.02947998046875
1772534515878621400,8.258621337890625,-0.9652862548828125,-0.3247833251953125,0.0372467041015625
1772534515888637200,8.26863720703125,-1.0124053955078125,-0.3196258544921875,0.037353515625
1772534515898654500,8.278654541015625,-1.0622406005859375,-0.3195343017578125,0.0299530029296875
1772534515908670500,8.28867041015625,-1.0977630615234375,-0.31512451171875,0.01458740234375
1772534515918687200,8.298687255859376,-1.132080078125,-0.307525634765625,0.0035858154296875
1772534515928703200,8.308703125,-1.162841796875,-0.2972412109375,0.0000457763671875
1772534515938720500,8.318720458984375,-1.1826019287109375,-0.282958984375,-0.0038909912109375
1772534515948736500,8.328736572265624,-1.1211090087890625,-0.247222900390625,-0.06964111328125
1772534515958753300,8.338753173828126,-1.1530914306640625,-0.2357635498046875,-0.068115234375
1772534515968769300,8.348769287109375,-1.2067413330078125,-0.23883056640625,-0.0316314697265625
1772534515978786600,8.35878662109375,-1.186004638671875,-0.2282562255859375,-0.065093994140625
1772534515988802600,8.368802490234375,-1.169830322265625,-0.2104949951171875,-0.1078338623046875
1772534515998819300,8.3788193359375,-1.19049072265625,-0.188018798828125,-0.13494873046875
1772534516008835300,8.38883544921875,-1.20574951171875,-0.1651153564453125,-0.1407012939453125
1772534516018852400,8.398852294921875,-1.213287353515625,-0.155548095703125,-0.136993408203125
1772534516028868400,8.408868408203125,-1.2074432373046875,-0.1587677001953125,-0.1268157958984375
1772534516038885400,8.418885498046874,-1.2274932861328125,-0.161285400390625,-0.09881591796875
1772534516048901400,8.4289013671875,-1.26129150390625,-0.1605377197265625,-0.0745391845703125
1772534516058918400,8.43891845703125,-1.238311767578125,-0.159820556640625,-0.0418853759765625
1772534516068934400,8.448934326171875,-1.22796630859375,-0.15826416015625,-0.006927490234375
1772534516078951400,8.458951416015625,-1.2243804931640625,-0.1512451171875,0.0256195068359375
1772534516088967400,8.468967529296876,-1.200653076171875,-0.1369781494140625,0.052001953125
1772534516098984400,8.478984375,-1.168121337890625,-0.116119384765625,0.061737060546875
1772534516109000400,8.48900048828125,-1.1164093017578125,-0.0936279296875,0.0560302734375
1772534516119017500,8.499017578125,-1.06036376953125,-0.0747833251953125,0.0363922119140625
1772534516129033200,8.509033203125,-1.0086517333984375,-0.060546875,0.0068206787109375
1772534516139050500,8.519050537109376,-0.964080810546875,-0.057159423828125,-0.0150299072265625
1772534516149066500,8.52906640625,-0.9398193359375,-0.0638275146484375,-0.0308380126953125
1772534516159083300,8.539083251953125,-0.92083740234375,-0.0769195556640625,-0.0383758544921875
1772534516169099300,8.549099365234374,-0.894866943359375,-0.078369140625,-0.036529541015625
1772534516179116500,8.559116455078126,-0.8814849853515625,-0.0687103271484375,-0.040802001953125
1772534516189132500,8.569132568359375,-0.8757476806640625,-0.063201904296875,-0.0370025634765625
1772534516199149300,8.5791494140625,-0.8986968994140625,-0.0621185302734375,-0.031982421875
1772534516209165300,8.589165283203124,-0.91314697265625,-0.0646820068359375,-0.02813720703125
1772534516219182600,8.5991826171875,-0.890380859375,-0.0634613037109375,-0.023590087890625
1772534516229198300,8.6091982421875,-0.8833160400390625,-0.0630340576171875,-0.0287322998046875
1772534516239215400,8.61921533203125,-0.881439208984375,-0.0661468505859375,-0.02752685546875
1772534516249231400,8.6292314453125,-0.870269775390625,-0.0692596435546875,-0.022308349609375
1772534516259248400,8.639248291015624,-0.862091064453125,-0.08038330078125,-0.022369384765625
1772534516269264400,8.649264404296876,-0.8509063720703125,-0.097015380859375,-0.022796630859375
1772534516279281400,8.659281494140625,-0.84857177734375,-0.1128692626953125,-0.0312957763671875
1772534516289297400,8.66929736328125,-0.8639984130859375,-0.1254730224609375,-0.0568695068359375
1772534516299314400,8.679314453125,-0.866668701171875,-0.125823974609375,-0.0742034912109375
1772534516309330400,8.689330322265626,-0.853179931640625,-0.115631103515625,-0.08453369140625
1772534516319347500,8.699347412109375,-0.85821533203125,-0.1104736328125,-0.107025146484375
1772534516329363500,8.709363525390625,-0.8611602783203125,-0.1049041748046875,-0.1262664794921875
1772534516339380500,8.71938037109375,-0.847015380859375,-0.09942626953125,-0.1307220458984375
1772534516349396500,8.729396484375,-0.846771240234375,-0.0936431884765625,-0.1288909912109375
1772534516359413500,8.73941357421875,-0.8731231689453125,-0.0970611572265625,-0.119964599609375
1772534516369429200,8.74942919921875,-0.91064453125,-0.106719970703125,-0.10687255859375
1772534516379446500,8.759446533203125,-0.9199371337890625,-0.11163330078125,-0.089385986328125
1772534516389462500,8.769462646484374,-0.91778564453125,-0.1102752685546875,-0.07611083984375
1772534516399479300,8.779479248046876,-0.9150238037109375,-0.1090850830078125,-0.063201904296875
1772534516409495300,8.789495361328125,-0.9234771728515625,-0.1021881103515625,-0.0567779541015625
1772534516419512600,8.7995126953125,-0.9822845458984375,-0.1032562255859375,-0.0693817138671875
1772534516429528600,8.809528564453124,-0.986907958984375,-0.115692138671875,-0.074249267578125
1772534516439545300,8.81954541015625,-0.998504638671875,-0.11114501953125,-0.07086181640625
1772534516449561300,8.829561279296875,-1.0101470947265625,-0.085052490234375,-0.081939697265625
1772534516459578600,8.83957861328125,-0.928466796875,-0.0567626953125,-0.0779266357421875
1772534516469594400,8.849594482421875,-0.87005615234375,-0.06005859375,-0.069976806640625
1772534516479611400,8.859611328125,-0.8589935302734375,-0.08551025390625,-0.06317138671875
1772534516489627400,8.86962744140625,-0.8713226318359375,-0.1197357177734375,-0.072296142578125
1772534516499644400,8.87964453125,-0.8920745849609375,-0.16180419921875,-0.0648040771484375
1772534516509660400,8.889660400390625,-0.892364501953125,-0.1944427490234375,-0.05560302734375
1772534516519677400,8.899677490234374,-0.8787384033203125,-0.21142578125,-0.0493011474609375
1772534516529693400,8.909693359375,-0.8753662109375,-0.2227020263671875,-0.0492095947265625
1772534516539710500,8.91971044921875,-0.8781890869140625,-0.2227630615234375,-0.0534210205078125
1772534516549726500,8.9297265625,-0.88775634765625,-0.2104339599609375,-0.0672454833984375
1772534516559743500,8.939743408203125,-0.8982086181640625,-0.182647705078125,-0.0860595703125
1772534516569759500,8.949759521484374,-0.93402099609375,-0.1414337158203125,-0.1004486083984375
1772534516579777500,8.959777587890626,-0.9706573486328125,-0.108428955078125,-0.1076507568359375
1772534516589793500,8.96979345703125,-1.0051727294921875,-0.0937347412109375,-0.1046142578125
1772534516599810600,8.979810546875,-1.0644073486328125,-0.1031646728515625,-0.09814453125
1772534516609826600,8.98982666015625,-1.1063690185546875,-0.1240997314453125,-0.0946044921875
1772534516619843600,8.999843505859374,-1.1320648193359375,-0.1373443603515625,-0.091461181640625
1772534516629859300,9.009859375,-1.1571044921875,-0.14599609375,-0.095062255859375
1772534516639876600,9.019876708984375,-1.1680145263671875,-0.1551971435546875,-0.0988311767578125
1772534516649892600,9.029892578125,-1.1820831298828125,-0.158050537109375,-0.1069793701171875
1772534516659909400,9.039909423828124,-1.1984405517578125,-0.1521148681640625,-0.1221160888671875
1772534516669925400,9.04992529296875,-1.2076568603515625,-0.1482696533203125,-0.133056640625
1772534516679942700,9.059942626953125,-1.250701904296875,-0.1330108642578125,-0.135894775390625
1772534516689958700,9.069958740234375,-1.268524169921875,-0.1073455810546875,-0.133941650390625
1772534516699975400,9.079975341796874,-1.2533721923828125,-0.0870361328125,-0.12237548828125
1772534516709991400,9.089991455078126,-1.246612548828125,-0.07513427734375,-0.11138916015625
1772534516720007700,9.100007568359375,-1.2294464111328125,-0.0770721435546875,-0.0981903076171875
1772534516730024700,9.110024658203125,-1.216217041015625,-0.085174560546875,-0.102752685546875
1772534516740041500,9.12004150390625,-1.2029266357421875,-0.0911407470703125,-0.1274566650390625
1772534516750057500,9.130057373046874,-1.188385009765625,-0.09161376953125,-0.1496734619140625
1772534516760073500,9.140073486328125,-1.1649017333984375,-0.09674072265625,-0.160552978515625
1772534516770090500,9.150090576171875,-1.147796630859375,-0.1032562255859375,-0.1575164794921875
1772534516780106500,9.1601064453125,-1.1661834716796875,-0.105133056640625,-0.1497955322265625
1772534516790123500,9.17012353515625,-1.1844024658203125,-0.09344482421875,-0.1359710693359375
1772534516800139500,9.180139404296876,-1.1929168701171875,-0.075042724609375,-0.12359619140625
1772534516810156500,9.190156494140625,-1.19854736328125,-0.0627288818359375,-0.115753173828125
1772534516820172500,9.200172607421875,-1.2121734619140625,-0.0550079345703125,-0.1072998046875
1772534516830189600,9.210189453125,-1.206817626953125,-0.049163818359375,-0.1067962646484375
1772534516840205300,9.220205322265626,-1.158233642578125,-0.0367431640625,-0.104034423828125
1772534516850222600,9.23022265625,-1.105865478515625,-0.0302886962890625,-0.10101318359375
1772534516860238600,9.240238525390625,-1.05126953125,-0.0309906005859375,-0.093963623046875
1772534516870255400,9.25025537109375,-0.9908905029296875,-0.0353240966796875,-0.0825958251953125
1772534516880271400,9.260271240234376,-0.926727294921875,-0.041473388671875,-0.0809478759765625
1772534516890288600,9.27028857421875,-0.87060546875,-0.0437774658203125,-0.0861663818359375
1772534516900304600,9.2803046875,-0.8346710205078125,-0.04302978515625,-0.0828399658203125
1772534516910321400,9.2903212890625,-0.8372650146484375,-0.0439605712890625,-0.074462890625
1772534516920337400,9.30033740234375,-0.846954345703125,-0.04541015625,-0.07635498046875
1772534516930354700,9.310354736328126,-0.8274383544921875,-0.055511474609375,-0.082672119140625
1772534516940370400,9.320370361328125,-0.82647705078125,-0.077972412109375,-0.07232666015625
1772534516950387500,9.330387451171875,-0.8562469482421875,-0.0837249755859375,-0.0838470458984375
1772534516960403500,9.340403564453124,-0.8901519775390625,-0.0847930908203125,-0.10528564453125
1772534516970420500,9.35042041015625,-0.90130615234375,-0.09283447265625,-0.1241607666015625
1772534516980436500,9.3604365234375,-0.8669281005859375,-0.091949462890625,-0.1494140625
1772534516990453500,9.37045361328125,-0.8159332275390625,-0.092010498046875,-0.17364501953125
1772534517000469500,9.380469482421875,-0.7938690185546875,-0.094024658203125,-0.1937255859375
1772534517010486500,9.390486572265624,-0.792083740234375,-0.108245849609375,-0.201385498046875
1772534517020502500,9.40050244140625,-0.790985107421875,-0.135009765625,-0.1921539306640625
1772534517030519600,9.41051953125,-0.7710723876953125,-0.1544342041015625,-0.1776885986328125
1772534517040535600,9.42053564453125,-0.75238037109375,-0.1576385498046875,-0.166015625
1772534517050552600,9.430552490234374,-0.7589111328125,-0.1548004150390625,-0.15399169921875
1772534517060568600,9.440568603515626,-0.8092041015625,-0.158447265625,-0.1504364013671875
1772534517070585600,9.450585693359375,-0.861114501953125,-0.1599884033203125,-0.1469879150390625
1772534517080601300,9.460601318359375,-0.872833251953125,-0.16119384765625,-0.13916015625
1772534517090618600,9.47061865234375,-0.885955810546875,-0.1702423095703125,-0.1414947509765625
1772534517100634600,9.480634521484374,-0.895721435546875,-0.1843719482421875,-0.1474609375
1772534517110651400,9.4906513671875,-0.878814697265625,-0.1865692138671875,-0.1414642333984375
1772534517120667400,9.50066748046875,-0.8602447509765625,-0.180999755859375,-0.1346435546875
1772534517130684700,9.5106845703125,-0.8412017822265625,-0.1777191162109375,-0.1286163330078125
1772534517140700700,9.52070068359375,-0.827972412109375,-0.1842498779296875,-0.1166229248046875
1772534517150717400,9.530717529296876,-0.8154144287109375,-0.2022705078125,-0.100372314453125
1772534517160733400,9.5407333984375,-0.802032470703125,-0.2182769775390625,-0.0889892578125
1772534517170750700,9.550750732421875,-0.79840087890625,-0.232025146484375,-0.0826873779296875
1772534517180766500,9.560766357421874,-0.8091583251953125,-0.237701416015625,-0.0738677978515625
1772534517190783500,9.570783447265624,-0.84674072265625,-0.233673095703125,-0.059906005859375
1772534517200799500,9.580799560546875,-0.8712158203125,-0.236328125,-0.0372314453125
1772534517210816500,9.59081640625,-0.873992919921875,-0.24176025390625,-0.0178985595703125
1772534517220832500,9.60083251953125,-0.942047119140625,-0.20989990234375,-0.025421142578125
1772534517230849500,9.610849609375,-0.9770355224609375,-0.191070556640625,-0.0309295654296875
1772534517240865500,9.620865478515626,-0.972259521484375,-0.192230224609375,-0.03521728515625
1772534517250882600,9.630882568359375,-0.9813995361328125,-0.200592041015625,-0.0446624755859375
1772534517260898600,9.640898681640625,-0.9820556640625,-0.2049560546875,-0.060028076171875
1772534517270915600,9.65091552734375,-0.968780517578125,-0.21368408203125,-0.0659332275390625
1772534517280931600,9.660931640625,-0.9698638916015625,-0.231353759765625,-0.061676025390625
1772534517290948600,9.670948486328125,-0.992828369140625,-0.2460479736328125,-0.0629425048828125
1772534517300964600,9.680964599609375,-0.9998779296875,-0.2604827880859375,-0.065277099609375
1772534517310981600,9.690981689453125,-1.0007171630859375,-0.2766876220703125,-0.063568115234375
1772534517320997400,9.700997314453126,-1.012176513671875,-0.2876129150390625,-0.0629119873046875
1772534517331014700,9.7110146484375,-1.035247802734375,-0.290069580078125,-0.0716094970703125
1772534517341030700,9.72103076171875,-1.05755615234375,-0.2863922119140625,-0.0870819091796875
1772534517351047400,9.73104736328125,-1.0731048583984375,-0.2825775146484375,-0.0970611572265625
1772534517361063400,9.7410634765625,-1.0894775390625,-0.277008056640625,-0.10369873046875
1772534517371080700,9.751080810546876,-1.1183319091796875,-0.2673797607421875,-0.117279052734375
1772534517381096700,9.7610966796875,-1.154205322265625,-0.2477569580078125,-0.13726806640625
1772534517391113500,9.771113525390625,-1.1795806884765625,-0.223846435546875,-0.15338134765625
1772534517401129500,9.78112939453125,-1.17596435546875,-0.1953125,-0.1628875732421875
1772534517411146800,9.791146728515624,-1.1663970947265625,-0.1696319580078125,-0.1581573486328125
1772534517421162500,9.80116259765625,-1.1635284423828125,-0.1561279296875,-0.1426239013671875
1772534517431179500,9.811179443359375,-1.1523895263671875,-0.157012939453125,-0.130889892578125
1772534517441195500,9.821195556640625,-1.13140869140625,-0.1607666015625,-0.13323974609375
1772534517451212500,9.831212646484374,-1.111572265625,-0.156890869140625,-0.139556884765625
1772534517461228500,9.841228515625,-1.0970001220703125,-0.15032958984375,-0.141845703125
1772534517471245600,9.85124560546875,-1.093353271484375,-0.1448822021484375,-0.1351470947265625
1772534517481261600,9.861261474609375,-1.1146392822265625,-0.1366729736328125,-0.1203155517578125
1772534517491278600,9.871278564453124,-1.1486968994140625,-0.140167236328125,-0.0919036865234375
1772534517501294600,9.881294677734376,-1.1791229248046875,-0.154510498046875,-0.0616302490234375
1772534517511311600,9.8913115234375,-1.1997222900390625,-0.1560211181640625,-0.0393218994140625
1772534517521327600,9.90132763671875,-1.2105560302734375,-0.1318206787109375,-0.0350341796875
1772534517531344600,9.9113447265625,-1.1936492919921875,-0.0952911376953125,-0.038482666015625
1772534517541360600,9.921360595703124,-1.1695709228515625,-0.0646514892578125,-0.0414276123046875
1772534517551377400,9.93137744140625,-1.14581298828125,-0.0437469482421875,-0.0538177490234375
1772534517561393400,9.941393310546875,-1.0904541015625,-0.035614013671875,-0.06219482421875
1772534517571410700,9.95141064453125,-1.0478668212890625,-0.0240631103515625,-0.0670166015625
1772534517581425700,9.96142578125,-1.0108184814453125,-0.02789306640625,-0.0638885498046875
1772534517591443000,9.97144287109375,-0.9624176025390625,-0.0410308837890625,-0.0521087646484375
1772534517601458700,9.981458740234375,-0.9282684326171875,-0.0475006103515625,-0.041107177734375
1772534517611475700,9.991475830078125,-0.912750244140625,-0.050048828125,-0.036468505859375
1772534517621491700,10.00149169921875,-0.9061431884765625,-0.0496368408203125,-0.034881591796875
1772534517631508500,10.011508544921876,-0.8814544677734375,-0.047576904296875,-0.0312957763671875
1772534517641524700,10.021524658203125,-0.861083984375,-0.0509490966796875,-0.033233642578125
1772534517651541800,10.031541748046875,-0.8482208251953125,-0.06146240234375,-0.03076171875
1772534517661557800,10.041557861328124,-0.823028564453125,-0.071746826171875,-0.027130126953125
1772534517671574500,10.051574462890626,-0.7938232421875,-0.0777130126953125,-0.02581787109375
1772534517681590800,10.0615908203125,-0.7820892333984375,-0.0797576904296875,-0.0238494873046875
1772534517691607800,10.07160791015625,-0.7955474853515625,-0.082122802734375,-0.018829345703125
1772534517701623600,10.08162353515625,-0.8317413330078125,-0.088592529296875,-0.017303466796875
1772534517711640600,10.091640625,-0.85516357421875,-0.0969390869140625,-0.022857666015625
1772534517721656800,10.10165673828125,-0.8526458740234375,-0.0983734130859375,-0.0326690673828125
1772534517731673600,10.111673583984375,-0.848968505859375,-0.097991943359375,-0.0460205078125
1772534517741689600,10.121689697265625,-0.8439483642578125,-0.0997772216796875,-0.058380126953125
1772534517751706600,10.13170654296875,-0.852081298828125,-0.1049346923828125,-0.0612335205078125
1772534517761723000,10.141722900390626,-0.8726959228515625,-0.1145782470703125,-0.06072998046875
1772534517771739600,10.15173974609375,-0.87713623046875,-0.1235198974609375,-0.0572509765625
1772534517781755600,10.161755615234375,-0.8744964599609375,-0.1244964599609375,-0.0516357421875
1772534517791772700,10.171772705078125,-0.8867645263671875,-0.1195526123046875,-0.044219970703125
1772534517801789000,10.181788818359376,-0.8930816650390625,-0.120269775390625,-0.037933349609375
1772534517811805700,10.1918056640625,-0.8804779052734375,-0.1205291748046875,-0.040557861328125
1772534517821821700,10.20182177734375,-0.8782196044921875,-0.12445068359375,-0.0511322021484375
1772534517831838700,10.211838623046875,-0.8775634765625,-0.1319732666015625,-0.0605926513671875
1772534517841854700,10.221854736328124,-0.8794708251953125,-0.147491455078125,-0.0686187744140625
1772534517851871700,10.231871826171876,-0.89068603515625,-0.1637725830078125,-0.079803466796875
1772534517861887700,10.2418876953125,-0.89862060546875,-0.171356201171875,-0.08587646484375
1772534517871904500,10.251904541015625,-0.9213714599609375,-0.1718292236328125,-0.0865325927734375
1772534517881920800,10.261920654296874,-0.9541015625,-0.165313720703125,-0.086944580078125
1772534517891937800,10.271937744140626,-0.968902587890625,-0.1527557373046875,-0.0924072265625
1772534517901953800,10.281953857421875,-0.9849853515625,-0.1426239013671875,-0.1060028076171875
1772534517911970600,10.291970458984375,-0.9990234375,-0.139068603515625,-0.112518310546875
1772534517921986800,10.30198681640625,-1.0071258544921875,-0.1399993896484375,-0.109100341796875
1772534517932003800,10.31200390625,-1.0192413330078125,-0.139862060546875,-0.1021881103515625
1772534517942019600,10.32201953125,-1.0260772705078125,-0.138671875,-0.0932769775390625
1772534517952036600,10.33203662109375,-1.0286102294921875,-0.1339569091796875,-0.0840911865234375
1772534517962052900,10.342052978515625,-1.02264404296875,-0.130340576171875,-0.0871124267578125
1772534517972069600,10.352069580078124,-1.0159454345703125,-0.1262664794921875,-0.0945892333984375
1772534517982085600,10.362085693359376,-1.0251922607421875,-0.1243438720703125,-0.099151611328125
1772534517992102700,10.3721025390625,-1.0440216064453125,-0.1201934814453125,-0.09588623046875
1772534518002119000,10.382118896484375,-1.069122314453125,-0.113983154296875,-0.102325439453125
1772534518012135700,10.3921357421875,-1.091644287109375,-0.1135711669921875,-0.1074676513671875
1772534518022151700,10.402151611328126,-1.113739013671875,-0.1133880615234375,-0.1126251220703125
1772534518032168700,10.412168701171876,-1.1373748779296875,-0.1070709228515625,-0.12646484375
1772534518042184700,10.422184814453125,-1.158050537109375,-0.100860595703125,-0.1392822265625
1772534518052201700,10.43220166015625,-1.1800994873046875,-0.09759521484375,-0.1399078369140625
1772534518062217700,10.4422177734375,-1.200958251953125,-0.091796875,-0.136993408203125
1772534518072234800,10.45223486328125,-1.2165985107421875,-0.0830535888671875,-0.13214111328125
1772534518082250500,10.46225048828125,-1.2184906005859375,-0.0875244140625,-0.1224212646484375
1772534518092267800,10.472267822265625,-1.20343017578125,-0.0966033935546875,-0.1259918212890625
1772534518102283800,10.48228369140625,-1.1843414306640625,-0.0882720947265625,-0.159759521484375
1772534518112300500,10.492300537109376,-1.149139404296875,-0.0859222412109375,-0.1990966796875
1772534518122316500,10.502316650390625,-1.121917724609375,-0.0673980712890625,-0.2283477783203125
1772534518132333800,10.512333740234375,-1.1322479248046875,-0.0227203369140625,-0.2579498291015625
1772534518142349800,10.522349853515625,-1.1337738037109375,-0.0061187744140625,-0.2590789794921875
1772534518152366600,10.53236669921875,-1.15142822265625,-0.0184783935546875,-0.2396240234375
1772534518162382600,10.542382568359375,-1.16619873046875,-0.0399322509765625,-0.2002716064453125
1772534518172399900,10.55239990234375,-1.1876373291015625,-0.04766845703125,-0.1629486083984375
1772534518182415600,10.56241552734375,-1.195953369140625,-0.04931640625,-0.136993408203125
1772534518192432600,10.5724326171875,-1.190765380859375,-0.057586669921875,-0.11529541015625
1772534518202448600,10.58244873046875,-1.169403076171875,-0.0601654052734375,-0.1092681884765625
1772534518212465700,10.592465576171875,-1.1512451171875,-0.051544189453125,-0.1154632568359375
1772534518222481700,10.602481689453125,-1.1487579345703125,-0.033721923828125,-0.1300201416015625
1772534518232498700,10.612498779296875,-1.142608642578125,-0.017913818359375,-0.1509246826171875
1772534518242514700,10.6225146484375,-1.1179351806640625,-0.0122528076171875,-0.170379638671875
1772534518252531700,10.63253173828125,-1.0793304443359375,-0.002655029296875,-0.1823883056640625
1772534518262547700,10.642547607421875,-1.0449371337890625,0.011810302734375,-0.1875762939453125
1772534518272564700,10.652564697265625,-1.0294189453125,0.021087646484375,-0.1769866943359375
1772534518282580700,10.662580810546874,-1.0285186767578125,0.026214599609375,-0.169158935546875
1772534518292597800,10.67259765625,-1.0037078857421875,0.034088134765625,-0.1587066650390625
1772534518302613800,10.68261376953125,-0.9528350830078125,0.0384368896484375,-0.1395111083984375
1772534518312630500,10.692630615234375,-0.901458740234375,0.033782958984375,-0.1212615966796875
1772534518322646500,10.702646484375,-0.868927001953125,0.0223388671875,-0.101654052734375
1772534518332663800,10.712663818359376,-0.840911865234375,0.0118560791015625,-0.082244873046875
1772534518342679800,10.7226796875,-0.818206787109375,0.0044708251953125,-0.0638580322265625
1772534518352695800,10.73269580078125,-0.794708251953125,-0.00604248046875,-0.05279541015625
1772534518362712600,10.742712646484375,-0.782562255859375,-0.0196075439453125,-0.0413360595703125
1772534518372729900,10.752729736328124,-0.7744598388671875,-0.038787841796875,-0.036224365234375
1772534518382745900,10.762745849609376,-0.7593994140625,-0.058380126953125,-0.0350494384765625
1772534518392761600,10.77276171875,-0.755523681640625,-0.076446533203125,-0.035736083984375
1772534518402778600,10.782778564453125,-0.783935546875,-0.09429931640625,-0.03955078125
1772534518412794600,10.792794677734374,-0.8196868896484375,-0.1067047119140625,-0.041473388671875
1772534518422811600,10.802811767578126,-0.840911865234375,-0.1046905517578125,-0.0464019775390625
1772534518432827600,10.81282763671875,-0.8701019287109375,-0.098724365234375,-0.0667877197265625
1772534518442844700,10.8228447265625,-0.88934326171875,-0.103424072265625,-0.088897705078125
1772534518452860700,10.832860595703124,-0.88214111328125,-0.1107940673828125,-0.09307861328125
1772534518462877700,10.842877685546876,-0.8730926513671875,-0.112457275390625,-0.0854644775390625
1772534518472893700,10.852893798828125,-0.869842529296875,-0.10540771484375,-0.0681610107421875
1772534518482910700,10.86291064453125,-0.8583221435546875,-0.101715087890625,-0.04693603515625
1772534518492926700,10.8729267578125,-0.849334716796875,-0.108428955078125,-0.0263671875
1772534518502943700,10.88294384765625,-0.8384246826171875,-0.1215667724609375,-0.005889892578125
1772534518512959700,10.892959716796875,-0.841766357421875,-0.1351165771484375,0.000518798828125
1772534518522976500,10.9029765625,-0.7795257568359375,-0.1318511962890625,-0.00445556640625
1772534518532992500,10.912992431640625,-0.7531585693359375,-0.1135101318359375,0.0054473876953125
1772534518543009800,10.923009765625,-0.942840576171875,-0.1463775634765625,0.07574462890625
1772534518553025800,10.93302587890625,-0.94317626953125,-0.18914794921875,0.10430908203125
1772534518563042600,10.94304248046875,-0.859039306640625,-0.205963134765625,0.0867462158203125
1772534518573058600,10.95305859375,-0.84454345703125,-0.1814117431640625,0.044586181640625
1772534518583075800,10.963075927734375,-0.871429443359375,-0.16510009765625,-0.0065765380859375
1772534518593091800,10.973091796875,-0.8936309814453125,-0.17523193359375,-0.01275634765625
1772534518603108900,10.98310888671875,-0.9132537841796875,-0.188079833984375,-0.0019378662109375
1772534518613124900,10.993124755859375,-0.9653167724609375,-0.192474365234375,0.0105133056640625
