time,seconds_elapsed,z,y,x
1772534507681985500,0.061985595703125,0.10316352546215057,-0.08504921197891235,0.0933859646320343
1772534507692002600,0.07200244140625,0.12353416532278061,-0.06137828528881073,0.103413425385952
1772534507702018600,0.0820185546875,0.14389535784721375,-0.043120186775922775,0.08945154398679733
1772534507712035600,0.09203564453125,0.16687725484371185,-0.03248997777700424,0.055183518677949905
1772534507722052600,0.102052490234375,0.20515699684619904,-0.02579345926642418,0.03211228922009468
1772534507732068600,0.112068603515625,0.24134398996829987,0.0028382521122694016,0.03545036166906357
1772534507742085600,0.122085693359375,0.2548600435256958,0.02076105959713459,0.05508052185177803
1772534507752101600,0.1321015625,0.2410116046667099,0.02393397130072117,0.03166061267256737
1772534507762118700,0.14211865234375,0.2610659897327423,-0.013879453763365746,-0.002612672746181488
1772534507772134700,0.152134765625,0.31112319231033325,-0.039936840534210205,-0.028516575694084167
1772534507782151700,0.162151611328125,0.36913883686065674,-0.05843568965792656,-0.04784366860985756
1772534507792167700,0.172167724609375,0.4157741069793701,-0.10033287107944489,-0.06702195107936859
1772534507802184700,0.182184814453125,0.4476960599422455,-0.12948836386203766,-0.1073605865240097
1772534507812200400,0.192200439453125,0.47224658727645874,-0.15401911735534668,-0.14356353878974915
1772534507822217500,0.202217529296875,0.4713171422481537,-0.13935495913028717,-0.1634616106748581
1772534507832233700,0.212233642578125,0.44666796922683716,-0.10117118805646896,-0.17156687378883362
1772534507842250500,0.22225048828125,0.4231903553009033,-0.05603167787194252,-0.17942851781845093
1772534507852266500,0.2322666015625,0.4074990749359131,-0.05340639874339104,-0.1650720238685608
1772534507862283500,0.242283447265625,0.39339467883110046,-0.06334478408098221,-0.1305513232946396
1772534507872299800,0.2522998046875,0.39951592683792114,-0.04906096309423447,-0.12160801887512207
1772534507882316500,0.262316650390625,0.42580530047416687,0.00820712000131607,-0.1262485831975937
1772534507892332500,0.27233251953125,0.434583455324173,0.07087405025959015,-0.12161202728748322
1772534507902349600,0.282349609375,0.42156219482421875,0.11491527408361435,-0.11108775436878204
1772534507912365600,0.292365478515625,0.3783285915851593,0.16284266114234924,-0.0944591611623764
1772534507922382600,0.302382568359375,0.3316739797592163,0.18545636534690857,-0.09363837540149689
1772534507932398600,0.312398681640625,0.2959820032119751,0.15288585424423218,-0.1122787818312645
1772534507942415400,0.322415283203125,0.27689963579177856,0.060852594673633575,-0.1446809321641922
1772534507952431600,0.332431640625,0.27114665508270264,-0.09838135540485382,-0.16526131331920624
1772534507962448600,0.34244873046875,0.2689266502857208,-0.2587776780128479,-0.1600271314382553
1772534507972464600,0.352464599609375,0.2650355100631714,-0.3832423985004425,-0.15336169302463531
1772534507982481400,0.3624814453125,0.26260989904403687,-0.47638246417045593,-0.16577495634555817
1772534507992497700,0.37249755859375,0.2732149660587311,-0.5436712503433228,-0.19205263257026672
1772534508002514700,0.3825146484375,0.30196884274482727,-0.5622388124465942,-0.22328858077526093
1772534508012530700,0.39253076171875,0.3621429204940796,-0.5086074471473694,-0.2507478594779968
1772534508022547500,0.40254736328125,0.4582289755344391,-0.4449573755264282,-0.2510354816913605
1772534508032563700,0.412563720703125,0.581275463104248,-0.4092976450920105,-0.20471003651618958
1772534508042580500,0.42258056640625,0.7191030979156494,-0.4077543616294861,-0.11939194798469543
1772534508052596500,0.432596435546875,0.8478646874427795,-0.40949246287345886,-0.009011106565594673
1772534508062613500,0.442613525390625,0.9537290334701538,-0.402677446603775,0.08657719939947128
1772534508072629800,0.452629638671875,1.02194082736969,-0.33867520093917847,0.14325426518917084
1772534508082646500,0.462646484375,1.0757520198822021,-0.22819264233112335,0.15865212678909302
1772534508092662500,0.47266259765625,1.1415461301803589,-0.07804197072982788,0.11817672848701477
1772534508102679600,0.482679443359375,1.205571174621582,0.0682944655418396,0.06316034495830536
1772534508112696600,0.492696533203125,1.2525966167449951,0.1649920791387558,0.05643293261528015
1772534508122712600,0.502712646484375,1.298322319984436,0.1641625016927719,0.056983403861522675
1772534508132729600,0.5127294921875,1.3284293413162231,0.1238057091832161,0.01838023215532303
1772534508142745600,0.52274560546875,1.33047354221344,0.08305960893630981,-0.04723712429404259
1772534508152762600,0.5327626953125,1.3226763010025024,0.0027834579814225435,-0.12030401080846786
1772534508162778600,0.542778564453125,1.322117567062378,-0.12029639631509781,-0.18833738565444946
1772534508172795600,0.552795654296875,1.3123594522476196,-0.23272672295570374,-0.22841289639472961
1772534508182811400,0.562811279296875,1.288493037223816,-0.2603420913219452,-0.23127207159996033
1772534508192828700,0.57282861328125,1.2598572969436646,-0.22277845442295074,-0.1735832840204239
1772534508202844700,0.5828447265625,1.2251403331756592,-0.17822270095348358,-0.05397805571556091
1772534508212861400,0.592861328125,1.1944875717163086,-0.18645671010017395,0.10625648498535156
1772534508222877400,0.60287744140625,1.1471397876739502,-0.17961344122886658,0.2725439965724945
1772534508232894700,0.612894775390625,1.0689536333084106,-0.1349651962518692,0.40502509474754333
1772534508242910700,0.62291064453125,0.934292197227478,-0.029576724395155907,0.45576444268226624
1772534508252927500,0.632927490234375,0.7607133984565735,0.1202961727976799,0.4181508719921112
1772534508262943500,0.642943603515625,0.5747853517532349,0.2616170644760132,0.3210546672344208
1772534508272960800,0.652960693359375,0.4128901958465576,0.3295001983642578,0.17277665436267853
1772534508282976500,0.6629765625,0.29202398657798767,0.3416737914085388,-0.0038966508582234383
1772534508292993500,0.67299365234375,0.23059917986392975,0.33472591638565063,-0.1604747474193573
1772534508303009500,0.683009521484375,0.22449573874473572,0.3359459340572357,-0.2575240731239319
1772534508313026600,0.693026611328125,0.23959428071975708,0.3278703987598419,-0.28573086857795715
1772534508323042600,0.70304248046875,0.25643929839134216,0.26998552680015564,-0.25597670674324036
1772534508333059600,0.7130595703125,0.2653893232345581,0.2032962143421173,-0.18643909692764282
1772534508343075600,0.72307568359375,0.27594608068466187,0.1465197652578354,-0.1157393604516983
1772534508353092600,0.733092529296875,0.29255440831184387,0.11057059466838837,-0.06025626137852669
1772534508363108600,0.743108642578125,0.3277275860309601,0.034090735018253326,-0.02020285278558731
1772534508373125600,0.753125732421875,0.37290245294570923,-0.05681493133306503,0.014532501809298992
1772534508383141600,0.7631416015625,0.42557471990585327,-0.09705236554145813,0.04867635667324066
1772534508393158700,0.77315869140625,0.473679780960083,-0.08336112648248672,0.10367348045110703
1772534508403174700,0.783174560546875,0.5126609802246094,-0.054358236491680145,0.18899689614772797
1772534508413191700,0.793191650390625,0.5427471995353699,-0.007333780638873577,0.289357453584671
1772534508423207400,0.80320751953125,0.571490466594696,0.077435702085495,0.39128783345222473
1772534508433224700,0.813224609375,0.6037173271179199,0.1547929346561432,0.47247788310050964
1772534508443240700,0.82324072265625,0.6448993682861328,0.1449863761663437,0.5136295557022095
1772534508453257500,0.833257568359375,0.7035638689994812,0.05860515683889389,0.5226550102233887
1772534508463274500,0.8432744140625,0.7806591987609863,-0.0203397274017334,0.5116119384765625
1772534508473290800,0.853290771484375,0.8757216930389404,-0.08584987372159958,0.5013293027877808
1772534508483306800,0.863306640625,0.9824324250221252,-0.1750127673149109,0.5063597559928894
1772534508493323500,0.873323486328125,1.0955407619476318,-0.3126002848148346,0.5276890397071838
1772534508503340500,0.883340576171875,1.1996961832046509,-0.40144041180610657,0.5340630412101746
1772534508513356800,0.893356689453125,1.3100658655166626,-0.5129949450492859,0.5136393904685974
1772534508523373600,0.90337353515625,1.3873577117919922,-0.5759987235069275,0.49779170751571655
1772534508533389600,0.9133896484375,1.4254964590072632,-0.4745127856731415,0.48335543274879456
1772534508543406600,0.923406494140625,1.4032460451126099,-0.267389178276062,0.44962331652641296
1772534508553422600,0.933422607421875,1.3387585878372192,-0.04958784580230713,0.3945283591747284
1772534508563439600,0.943439697265625,1.2685267925262451,0.16047440469264984,0.3129924237728119
1772534508573455600,0.95345556640625,1.2240482568740845,0.3287172317504883,0.2003326416015625
1772534508583472400,0.963472412109375,1.2007060050964355,0.41373199224472046,0.08592937141656876
1772534508593488400,0.97348828125,1.1810897588729858,0.4411028027534485,0.004992518108338118
1772534508603505700,0.983505615234375,1.157466173171997,0.3879402279853821,-0.024743273854255676
1772534508613521700,0.993521728515625,1.146281361579895,0.25795289874076843,-0.010243820957839489
1772534508623538400,1.003538330078125,1.1416975259780884,0.14424124360084534,0.02335461974143982
1772534508633554400,1.013554443359375,1.130582332611084,0.010909294709563255,0.0664120689034462
1772534508643571700,1.02357177734375,1.1178772449493408,-0.11969691514968872,0.11667230725288391
1772534508653587500,1.03358740234375,1.1029664278030396,-0.21767015755176544,0.17894652485847473
1772534508663604500,1.0436044921875,1.0887789726257324,-0.27313685417175293,0.24700947105884552
1772534508673620500,1.053620361328125,1.0807584524154663,-0.27023035287857056,0.2975684106349945
1772534508683637500,1.063637451171875,1.0728896856307983,-0.21864518523216248,0.3269513249397278
1772534508693653500,1.073653564453125,1.0663330554962158,-0.11955197155475616,0.3399736285209656
1772534508703670500,1.08367041015625,1.0704339742660522,0.018602434545755386,0.3433883488178253
1772534508713686500,1.0936865234375,1.0853694677352905,0.17630280554294586,0.33921903371810913
1772534508723703600,1.10370361328125,1.115002989768982,0.32573622465133667,0.32974377274513245
1772534508733719600,1.113719482421875,1.1597294807434082,0.47013407945632935,0.31443238258361816
1772534508743736600,1.123736572265625,1.2170708179473877,0.5756973028182983,0.28965726494789124
1772534508753752600,1.133752685546875,1.280261516571045,0.6344140768051147,0.25531089305877686
1772534508763769600,1.14376953125,1.3420615196228027,0.6375123858451843,0.20973168313503265
1772534508773785600,1.15378564453125,1.3978551626205444,0.6135793328285217,0.1701914668083191
1772534508783802600,1.163802734375,1.4352566003799438,0.5680973529815674,0.15441516041755676
1772534508793818400,1.173818359375,1.4601165056228638,0.5141186714172363,0.1699371337890625
1772534508803835600,1.183835693359375,1.486488699913025,0.4400092661380768,0.19447976350784302
1772534508813851600,1.1938515625,1.5110208988189697,0.3623032867908478,0.2189243882894516
1772534508823868400,1.203868408203125,1.5334851741790771,0.28947702050209045,0.23583386838436127
1772534508833884400,1.213884521484375,1.5633357763290405,0.22655244171619415,0.256412148475647
1772534508843901700,1.223901611328125,1.600902795791626,0.19693408906459808,0.2892172336578369
1772534508853917700,1.233917724609375,1.642260193824768,0.20788484811782837,0.3337854743003845
1772534508863934500,1.2439345703125,1.6669152975082397,0.28075534105300903,0.3547850251197815
1772534508873951500,1.253951416015625,1.670660138130188,0.35648247599601746,0.3481431305408478
1772534508883967700,1.2639677734375,1.6756980419158936,0.40672194957733154,0.31323176622390747
1772534508893983500,1.2739833984375,1.6899728775024414,0.43128761649131775,0.2719248831272125
1772534508904000500,1.28400048828125,1.699366807937622,0.45014944672584534,0.23625077307224274
1772534508914017500,1.294017578125,1.7050724029541016,0.4595660865306854,0.2278919816017151
1772534508924033500,1.304033447265625,1.7121628522872925,0.45637163519859314,0.24466191232204437
1772534508934050600,1.314050537109375,1.7122068405151367,0.44062116742134094,0.27457478642463684
1772534508944066600,1.324066650390625,1.7043144702911377,0.41431552171707153,0.30302318930625916
1772534508954083300,1.334083251953125,1.6991231441497803,0.40161073207855225,0.3214251399040222
1772534508964099600,1.344099609375,1.7068849802017212,0.40066078305244446,0.3188634514808655
1772534508974116600,1.35411669921875,1.7242952585220337,0.3793635070323944,0.29537254571914673
1772534508984132600,1.364132568359375,1.7444199323654175,0.3381199240684509,0.26639363169670105
1772534508994149400,1.3741494140625,1.7748292684555054,0.3411337435245514,0.242304727435112
1772534509004165600,1.38416552734375,1.8092961311340332,0.3944539725780487,0.2316398322582245
1772534509014182700,1.3941826171875,1.8344494104385376,0.4610826373100281,0.22933074831962585
1772534509024198700,1.40419873046875,1.86431884765625,0.5194170475006104,0.23638306558132172
1772534509034215400,1.41421533203125,1.8783378601074219,0.5572091937065125,0.2502637803554535
1772534509044231700,1.424231689453125,1.8769035339355469,0.5829254388809204,0.2747874855995178
1772534509054248400,1.43424853515625,1.861772060394287,0.5865166187286377,0.3140881061553955
1772534509064264400,1.444264404296875,1.8384404182434082,0.5991900563240051,0.36448630690574646
1772534509074281500,1.454281494140625,1.8149524927139282,0.6502399444580078,0.40619614720344543
1772534509084297700,1.464297607421875,1.7932546138763428,0.7157345414161682,0.4181550443172455
1772534509094314500,1.474314453125,1.7859249114990234,0.7516636252403259,0.4015081524848938
1772534509104330500,1.48433056640625,1.7897568941116333,0.7589660286903381,0.3542972505092621
1772534509114347500,1.494347412109375,1.8125407695770264,0.7359573841094971,0.28411436080932617
1772534509124363500,1.504363525390625,1.8290427923202515,0.6917944550514221,0.20811228454113007
1772534509134380500,1.514380615234375,1.784754753112793,0.6399844288825989,0.1381770819425583
1772534509144396500,1.524396484375,1.709367275238037,0.6562129259109497,0.02142542600631714
1772534509154413600,1.53441357421875,1.6728864908218384,0.7768639326095581,-0.1711060106754303
1772534509164429300,1.54442919921875,1.7173962593078613,0.9347872734069824,-0.3565206229686737
1772534509174446600,1.554446533203125,1.8595495223999023,1.008259892463684,-0.4177013635635376
1772534509184462600,1.564462646484375,1.9980602264404297,1.093472957611084,-0.3112465441226959
1772534509194479400,1.574479248046875,2.0808017253875732,1.1894787549972534,-0.08054561913013458
1772534509204495400,1.584495361328125,2.1094307899475098,1.226418375968933,0.19279751181602478
1772534509214512600,1.5945126953125,2.0760104656219482,1.1807291507720947,0.4600316882133484
1772534509224528600,1.604528564453125,2.042938470840454,1.0619114637374878,0.6603155136108398
1772534509234545400,1.61454541015625,2.02457332611084,0.8676337003707886,0.7673436403274536
1772534509244561400,1.6245615234375,1.9998588562011719,0.6684601306915283,0.812585175037384
1772534509254578700,1.63457861328125,1.963579535484314,0.5167311429977417,0.8053674697875977
1772534509264594400,1.644594482421875,1.9422552585601807,0.3991052210330963,0.7535351514816284
1772534509274611500,1.654611572265625,1.936381459236145,0.32052651047706604,0.6611847281455994
1772534509284628700,1.664628662109375,1.9382323026657104,0.26400119066238403,0.5340589880943298
1772534509294644500,1.67464453125,1.970132827758789,0.24795988202095032,0.38784587383270264
1772534509304661500,1.68466162109375,2.0346217155456543,0.2549589276313782,0.24108120799064636
1772534509314677500,1.694677490234375,2.1180672645568848,0.25354883074760437,0.13142484426498413
1772534509324694500,1.704694580078125,2.1897850036621094,0.2726343870162964,0.07814615964889526
1772534509334710500,1.71471044921875,2.229022741317749,0.300324946641922,0.08252466470003128
1772534509344727600,1.7247275390625,2.249971866607666,0.31388524174690247,0.13495111465454102
1772534509354743600,1.73474365234375,2.2482457160949707,0.3090941905975342,0.21769484877586365
1772534509364760600,1.744760498046875,2.2173986434936523,0.297301709651947,0.30092209577560425
1772534509374776600,1.754776611328125,2.155194044113159,0.3060162663459778,0.3547222912311554
1772534509384793600,1.764793701171875,2.0710091590881348,0.35291239619255066,0.36078232526779175
1772534509394809600,1.7748095703125,1.9830600023269653,0.4141392111778259,0.30897924304008484
1772534509404826600,1.78482666015625,1.91427481174469,0.4529001712799072,0.21981900930404663
1772534509414842600,1.794842529296875,1.8724526166915894,0.48435190320014954,0.12498310953378677
1772534509424859600,1.804859619140625,1.865378737449646,0.5078074336051941,0.04914400354027748
1772534509434875400,1.81487548828125,1.8940720558166504,0.5008367896080017,-0.0024261134676635265
1772534509444892700,1.824892578125,1.9442015886306763,0.4584156274795532,-0.020253047347068787
1772534509454908700,1.83490869140625,2.0005342960357666,0.3712981641292572,0.002266174415126443
1772534509464925400,1.844925537109375,2.064710855484009,0.26856115460395813,0.059821344912052155
1772534509474941400,1.85494140625,2.1224966049194336,0.1724252849817276,0.13138554990291595
1772534509484958700,1.864958740234375,2.1675851345062256,0.10155830532312393,0.19990281760692596
1772534509494974700,1.874974609375,2.1911373138427734,0.06793703138828278,0.24401335418224335
1772534509504991500,1.884991455078125,2.193804979324341,0.06210976839065552,0.25917288661003113
1772534509515007500,1.895007568359375,2.168907642364502,0.06766920536756516,0.2512723505496979
1772534509525024800,1.905024658203125,2.119110107421875,0.08661599457263947,0.22683650255203247
1772534509535040500,1.91504052734375,2.052323341369629,0.12402825802564621,0.19267188012599945
1772534509545057500,1.9250576171875,1.9714394807815552,0.18962803483009338,0.14805513620376587
1772534509555073500,1.935073486328125,1.8816657066345215,0.24883252382278442,0.0942285880446434
1772534509565090600,1.945090576171875,1.8001842498779297,0.30437782406806946,0.03459322452545166
1772534509575106800,1.95510693359375,1.738612174987793,0.33605530858039856,-0.01595783606171608
1772534509585123800,1.965123779296875,1.7087770700454712,0.36075082421302795,-0.030002815648913383
1772534509595139800,1.975139892578125,1.6993530988693237,0.3871819078922272,-0.013602135702967644
1772534509605156900,1.985156982421875,1.6949151754379272,0.3873180150985718,0.024379868060350418
1772534509615172900,1.9951728515625,1.689095139503479,0.4024648666381836,0.06146291643381119
1772534509625190000,2.00518994140625,1.66024649143219,0.4112258851528168,0.0885549858212471
1772534509635205600,2.01520556640625,1.6122596263885498,0.40525609254837036,0.10860799998044968
1772534509645223000,2.025222900390625,1.561668872833252,0.39351552724838257,0.11509466171264648
1772534509655239000,2.035239013671875,1.508661150932312,0.36766761541366577,0.10143417119979858
1772534509665255700,2.045255615234375,1.4718836545944214,0.34903186559677124,0.07815414667129517
1772534509675271700,2.055271728515625,1.468587040901184,0.3429505527019501,0.05669260025024414
1772534509685289000,2.0652890625,1.4930429458618164,0.3390897512435913,0.04338531568646431
1772534509695305700,2.0753056640625,1.5304152965545654,0.2949015200138092,0.052031535655260086
1772534509705321700,2.08532177734375,1.5599689483642578,0.2632586359977722,0.10122144967317581
1772534509715339000,2.095339111328125,1.5742356777191162,0.25409698486328125,0.17961007356643677
1772534509725355000,2.10535498046875,1.581588625907898,0.23869459331035614,0.2628926932811737
1772534509735371800,2.115371826171875,1.588046908378601,0.2304685115814209,0.32298168540000916
1772534509745387800,2.1253876953125,1.5897358655929565,0.23872670531272888,0.34323182702064514
1772534509755405000,2.135405029296875,1.5694655179977417,0.24191130697727203,0.3252088725566864
1772534509765420800,2.1454208984375,1.52578866481781,0.23332421481609344,0.28032049536705017
1772534509775437800,2.155437744140625,1.4501662254333496,0.212676540017128,0.23284779489040375
1772534509785453800,2.165453857421875,1.3543435335159302,0.17195281386375427,0.18249353766441345
1772534509795470600,2.175470703125,1.2650171518325806,0.10439321398735046,0.13793858885765076
1772534509805486800,2.18548681640625,1.1835824251174927,0.02427947334945202,0.12508216500282288
1772534509815504000,2.19550390625,1.1044868230819702,-0.04996710643172264,0.16477859020233154
1772534509825519900,2.205519775390625,1.0325915813446045,-0.08607850223779678,0.2635480463504791
1772534509835536600,2.21553662109375,0.9708664417266846,-0.07125195115804672,0.389446496963501
1772534509845553000,2.225552978515625,0.9282942414283752,0.0021516920533031225,0.5053353309631348
1772534509855570000,2.23556982421875,0.904695451259613,0.1068291887640953,0.582507848739624
1772534509865586000,2.2455859375,0.8888586759567261,0.1950455904006958,0.6006106734275818
1772534509875602700,2.255602783203125,0.8707594275474548,0.22094765305519104,0.5575442314147949
1772534509885619000,2.265618896484375,0.834120512008667,0.18676652014255524,0.4772869646549225
1772534509895636000,2.275635986328125,0.7825824618339539,0.11888027936220169,0.37580546736717224
1772534509905651700,2.285651611328125,0.7376434803009033,0.05871787294745445,0.29062798619270325
1772534509915668700,2.295668701171875,0.6950348615646362,0.04429963231086731,0.2478943169116974
1772534509925685000,2.30568505859375,0.6506157517433167,0.11154311895370483,0.2361026257276535
1772534509935701800,2.31570166015625,0.6078463792800903,0.21027825772762299,0.25949302315711975
1772534509945717800,2.3257177734375,0.5730322003364563,0.28328320384025574,0.30543282628059387
1772534509955734800,2.33573486328125,0.549863338470459,0.34271058440208435,0.3631129860877991
1772534509965751000,2.3457509765625,0.5386834144592285,0.40535080432891846,0.4185592234134674
1772534509975767800,2.355767822265625,0.5361192226409912,0.46045446395874023,0.4603421986103058
1772534509985783800,2.36578369140625,0.5482195615768433,0.47233590483665466,0.48851579427719116
1772534509995800800,2.37580078125,0.5702263116836548,0.4583408236503601,0.498920202255249
1772534510005816800,2.38581689453125,0.589939296245575,0.44302257895469666,0.49336352944374084
1772534510015833900,2.395833740234375,0.6137401461601257,0.4265923500061035,0.47596895694732666
1772534510025849900,2.405849853515625,0.6396934390068054,0.3794703781604767,0.45666930079460144
1772534510035866600,2.41586669921875,0.6558058261871338,0.31996265053749084,0.4345044195652008
1772534510045883000,2.4258828125,0.6631582975387573,0.24891483783721924,0.41133570671081543
1772534510055900000,2.43589990234375,0.6673193573951721,0.20144909620285034,0.3912304937839508
1772534510065916000,2.445916015625,0.6829310655593872,0.17775095999240875,0.36491286754608154
1772534510075932700,2.4559326171875,0.6990053653717041,0.18450935184955597,0.3470025956630707
1772534510085950000,2.465949951171875,0.7140823602676392,0.21846120059490204,0.33874067664146423
1772534510095966000,2.475966064453125,0.7218979597091675,0.28294286131858826,0.32995903491973877
1772534510105982700,2.485982666015625,0.6989812254905701,0.34551703929901123,0.31161144375801086
1772534510115998700,2.495998779296875,0.6618856191635132,0.3788963258266449,0.27559390664100647
1772534510126016000,2.50601611328125,0.6272935271263123,0.38842910528182983,0.21612952649593353
1772534510136031700,2.51603173828125,0.6050098538398743,0.3937814235687256,0.13992078602313995
1772534510146048800,2.526048828125,0.588440477848053,0.3880537748336792,0.060175348073244095
1772534510156064800,2.536064697265625,0.5787202715873718,0.4117174744606018,-0.008109429851174355
1772534510166081800,2.546081787109375,0.5792081356048584,0.4439118802547455,-0.0631662905216217
1772534510176097800,2.556097900390625,0.5887284874916077,0.4750891327857971,-0.10583239793777466
1772534510186114800,2.56611474609375,0.6138713955879211,0.505813717842102,-0.13447842001914978
1772534510196130800,2.576130859375,0.6538220643997192,0.505185604095459,-0.15226687490940094
1772534510206147800,2.58614794921875,0.7037885785102844,0.46502694487571716,-0.14553174376487732
1772534510216163800,2.596163818359375,0.7563305497169495,0.42928001284599304,-0.11666320264339447
1772534510226180900,2.606180908203125,0.7944249510765076,0.4259774386882782,-0.07327871024608612
1772534510236196900,2.61619677734375,0.8217630982398987,0.43112292885780334,-0.043647583574056625
1772534510246214000,2.6262138671875,0.8349377512931824,0.4189634621143341,-0.044425226747989655
1772534510256230000,2.63622998046875,0.8396387100219727,0.39400607347488403,-0.07533414661884308
1772534510266247000,2.646246826171875,0.8349225521087646,0.3575553894042969,-0.12986555695533752
1772534510276262700,2.6562626953125,0.8330682516098022,0.29862895607948303,-0.17850960791110992
1772534510286280000,2.666280029296875,0.8398654460906982,0.240883931517601,-0.21139325201511383
1772534510296296000,2.6762958984375,0.8558894395828247,0.18096034228801727,-0.22740903496742249
1772534510306312700,2.686312744140625,0.870073676109314,0.12131884694099426,-0.22867617011070251
1772534510316328700,2.69632861328125,0.8827316761016846,0.05063657835125923,-0.21689186990261078
1772534510326346000,2.706345947265625,0.8762112259864807,-0.00562323210760951,-0.19242514669895172
1772534510336362000,2.716362060546875,0.8490113019943237,-0.033664632588624954,-0.15667779743671417
1772534510346378800,2.726378662109375,0.801173210144043,-0.039387498050928116,-0.13618050515651703
1772534510356394800,2.736394775390625,0.7395306825637817,-0.036575332283973694,-0.1312929391860962
1772534510366412000,2.746412109375,0.6881460547447205,-0.05520813912153244,-0.12724760174751282
1772534510376427800,2.756427734375,0.666797399520874,-0.08587931841611862,-0.11772867292165756
1772534510386444800,2.76644482421875,0.671657919883728,-0.13332273066043854,-0.08154989778995514
1772534510396460800,2.776460693359375,0.6996974349021912,-0.1559721678495407,-0.006169519387185574
1772534510406477800,2.786477783203125,0.7342290878295898,-0.11557494103908539,0.08482110500335693
1772534510416493800,2.796493896484375,0.7573862671852112,-0.0503302700817585,0.1691262125968933
1772534510426510800,2.8065107421875,0.7714698314666748,0.009614023379981518,0.2238222062587738
1772534510436527600,2.816527587890625,0.7685834765434265,0.06908267736434937,0.24264754354953766
1772534510446544000,2.8265439453125,0.7511674761772156,0.09709353744983673,0.22782306373119354
1772534510456561000,2.836560791015625,0.7423264980316162,0.1257539689540863,0.19153743982315063
1772534510466577000,2.846576904296875,0.7419746518135071,0.1723576933145523,0.1509503275156021
1772534510476593700,2.85659375,0.7467770576477051,0.1830005645751953,0.12678533792495728
1772534510486610000,2.86660986328125,0.7623672485351562,0.16576698422431946,0.12905222177505493
1772534510496627000,2.876626953125,0.7782407999038696,0.1384166032075882,0.16777902841567993
1772534510506643000,2.886642822265625,0.7847639322280884,0.09811872243881226,0.24011820554733276
1772534510516659700,2.89665966796875,0.8035570383071899,0.10469557344913483,0.3289594054222107
1772534510526676000,2.906676025390625,0.8444546461105347,0.19937120378017426,0.41065987944602966
1772534510536692700,2.916692626953125,0.8815470337867737,0.33422431349754333,0.44850170612335205
1772534510546708700,2.926708740234375,0.8706139326095581,0.4262479841709137,0.4481688141822815
1772534510556725800,2.936725830078125,0.8195058107376099,0.5103636384010315,0.4119703769683838
1772534510566742000,2.946741943359375,0.7644883394241333,0.5549388527870178,0.349821537733078
1772534510576758500,2.956758544921875,0.7226983904838562,0.5509383678436279,0.2583012580871582
1772534510586774500,2.9667744140625,0.6900067329406738,0.5011876225471497,0.13544167578220367
1772534510596791600,2.97679150390625,0.6731928586959839,0.3852212131023407,-0.016627755016088486
1772534510606807600,2.9868076171875,0.6674542427062988,0.20580272376537323,-0.1753111481666565
1772534510616824600,2.996824462890625,0.6727147698402405,-0.007736737374216318,-0.28018689155578613
1772534510626840600,3.006840576171875,0.6900991201400757,-0.13455167412757874,-0.27722465991973877
1772534510636857600,3.016857666015625,0.7097488045692444,-0.13232001662254333,-0.16765642166137695
1772534510646873600,3.02687353515625,0.7391695380210876,-0.03173747658729553,0.0040567549876868725
1772534510656890600,3.036890625,0.7797977328300476,0.14472530782222748,0.17878873646259308
1772534510666906600,3.04690673828125,0.8320960402488708,0.355747789144516,0.2976379096508026
1772534510676923400,3.05692333984375,0.8820548057556152,0.559132993221283,0.3352663815021515
1772534510686939400,3.066939453125,0.9404587149620056,0.7250894904136658,0.28839635848999023
1772534510696956700,3.076956787109375,1.0032219886779785,0.838642418384552,0.1906731128692627
1772534510706972700,3.08697265625,1.0543330907821655,0.8785629272460938,0.1003517284989357
1772534510716989400,3.096989501953125,1.0953882932662964,0.8581365346908569,0.04831242188811302
1772534510727005400,3.10700537109375,1.1522045135498047,0.7975693345069885,0.0523977130651474
1772534510737022700,3.117022705078125,1.2161554098129272,0.7171593904495239,0.09005842357873917
1772534510747038700,3.127038818359375,1.2743651866912842,0.6031750440597534,0.14212428033351898
1772534510757055500,3.137055419921875,1.3312153816223145,0.44944748282432556,0.19238844513893127
1772534510767071500,3.147071533203125,1.385585904121399,0.26296815276145935,0.2280987650156021
1772534510777088800,3.1570888671875,1.432709813117981,0.05537252500653267,0.25349149107933044
1772534510787104500,3.1671044921875,1.4631664752960205,-0.11430492252111435,0.27382659912109375
1772534510797121500,3.17712158203125,1.463726282119751,-0.223582923412323,0.28317126631736755
1772534510807137500,3.187137451171875,1.423458456993103,-0.2712833285331726,0.28536438941955566
1772534510817154600,3.197154541015625,1.3342057466506958,-0.257770836353302,0.2802375853061676
1772534510827171600,3.207171630859375,1.1965283155441284,-0.17495211958885193,0.24596139788627625
1772534510837187600,3.2171875,1.0063616037368774,-0.03984116390347481,0.17321793735027313
1772534510847204400,3.227204345703125,0.7890384197235107,0.09293073415756226,0.05338473618030548
1772534510857220600,3.237220703125,0.5745105147361755,0.20897144079208374,-0.10423164069652557
1772534510867237600,3.247237548828125,0.3837261497974396,0.27124732732772827,-0.27450138330459595
1772534510877253600,3.257253662109375,0.24306660890579224,0.2830846905708313,-0.4304003119468689
1772534510887270400,3.2672705078125,0.16803550720214844,0.26362231373786926,-0.5270189642906189
1772534510897286700,3.27728662109375,0.1551196277141571,0.22286126017570496,-0.5344781279563904
1772534510907303700,3.2873037109375,0.1978423297405243,0.20167449116706848,-0.4681452214717865
1772534510917319400,3.2973193359375,0.2589489817619324,0.20005877315998077,-0.3442249298095703
1772534510927336400,3.30733642578125,0.33303651213645935,0.2168007493019104,-0.19732442498207092
1772534510937352700,3.317352783203125,0.40922725200653076,0.22451262176036835,-0.0697493702173233
1772534510947369500,3.327369384765625,0.4753948152065277,0.18997807800769806,0.009296983480453491
1772534510957385500,3.337385498046875,0.5330855846405029,0.13509544730186462,0.031148027628660202
1772534510967402500,3.347402587890625,0.5686603784561157,0.053323086351156235,-0.0021289694122970104
1772534510977418500,3.35741845703125,0.5879704356193542,-0.04460594058036804,-0.08132585138082504
1772534510987435500,3.367435546875,0.5876271724700928,-0.12793518602848053,-0.17197559773921967
1772534510997451500,3.377451416015625,0.5612174272537231,-0.17789237201213837,-0.25043147802352905
1772534511007468500,3.387468505859375,0.521399736404419,-0.2190755009651184,-0.2969225347042084
1772534511017484500,3.397484619140625,0.4821101427078247,-0.23267985880374908,-0.29879167675971985
1772534511027501600,3.40750146484375,0.442333459854126,-0.17517103254795074,-0.251932829618454
1772534511037517600,3.417517578125,0.3987313508987427,-0.06463702023029327,-0.1818832904100418
1772534511047534600,3.42753466796875,0.35487470030784607,0.058001019060611725,-0.12065029889345169
1772534511057550300,3.43755029296875,0.3155555725097656,0.11872659623622894,-0.10431446880102158
1772534511067567600,3.447567626953125,0.28793540596961975,0.12609422206878662,-0.1421784907579422
1772534511077583600,3.45758349609375,0.2721449136734009,0.1081753745675087,-0.21201948821544647
1772534511087600400,3.467600341796875,0.267992228269577,0.06417489051818848,-0.27657103538513184
1772534511097616400,3.477616455078125,0.26716339588165283,0.0068649956956505775,-0.3103042542934418
1772534511107633700,3.487633544921875,0.26377612352371216,-0.02600533701479435,-0.30770421028137207
1772534511117649700,3.497649658203125,0.2662219703197479,-0.06121072918176651,-0.2721736431121826
1772534511127666400,3.50766650390625,0.26948049664497375,-0.11727066338062286,-0.2152993083000183
1772534511137682400,3.517682373046875,0.27602800726890564,-0.17170022428035736,-0.14731958508491516
1772534511147699700,3.52769970703125,0.2748277187347412,-0.23544271290302277,-0.08485621213912964
1772534511157715500,3.537715576171875,0.2574223577976227,-0.2735224962234497,-0.039649780839681625
1772534511167732500,3.547732421875,0.24122262001037598,-0.2822677791118622,-0.012953988276422024
1772534511177748500,3.55774853515625,0.22719542682170868,-0.2817692756652832,0.0046433075331151485
1772534511187765500,3.567765625,0.21364286541938782,-0.27034273743629456,0.02381220832467079
1772534511197781500,3.577781494140625,0.1917935609817505,-0.2563369870185852,0.04037867486476898
1772534511207798500,3.587798583984375,0.15424272418022156,-0.24520523846149445,0.059102289378643036
1772534511217815600,3.597815673828125,0.09826640784740448,-0.23420485854148865,0.0706358477473259
1772534511227831600,3.60783154296875,0.025297660380601883,-0.23850293457508087,0.07390648126602173
1772534511237848600,3.6178486328125,-0.04622338339686394,-0.2779402434825897,0.08019386231899261
1772534511247864600,3.627864501953125,-0.11554653197526932,-0.3257059156894684,0.10881991684436798
1772534511257881600,3.637881591796875,-0.1867780089378357,-0.32306405901908875,0.15945592522621155
1772534511267897600,3.647897705078125,-0.28428593277931213,-0.24411968886852264,0.21930408477783203
1772534511277914600,3.65791455078125,-0.4106433391571045,-0.1492203325033188,0.2557317912578583
1772534511287930400,3.667930419921875,-0.5484488606452942,-0.06977130472660065,0.24064739048480988
1772534511297947600,3.67794775390625,-0.6904430389404297,-0.0032485583797097206,0.16838783025741577
1772534511307963600,3.687963623046875,-0.8324284553527832,0.018066318705677986,0.04748458415269852
1772534511317980400,3.69798046875,-0.9598144888877869,0.022257136180996895,-0.09839053452014923
1772534511327996400,3.707996337890625,-1.0609056949615479,0.018999556079506874,-0.2474287450313568
1772534511338013700,3.718013671875,-1.1354119777679443,0.00946812704205513,-0.3740999400615692
1772534511348029700,3.72802978515625,-1.1743899583816528,-0.03782348707318306,-0.4540179371833801
1772534511358046500,3.73804638671875,-1.1815192699432373,-0.17938388884067535,-0.46295878291130066
1772534511368062500,3.7480625,-1.149727463722229,-0.2718661427497864,-0.3935253620147705
1772534511378079700,3.758079833984375,-1.0946192741394043,-0.28033483028411865,-0.2626810669898987
1772534511388095700,3.768095703125,-1.0157467126846313,-0.2524600327014923,-0.10811199992895126
1772534511398112500,3.778112548828125,-0.9095869660377502,-0.15471524000167847,0.02576390467584133
1772534511408128500,3.78812841796875,-0.7853657007217407,-0.019733456894755363,0.10985054820775986
1772534511418145500,3.7981455078125,-0.6700866222381592,0.11286599934101105,0.13157090544700623
1772534511428161500,3.80816162109375,-0.5807240009307861,0.22272299230098724,0.0917971208691597
1772534511438178600,3.818178466796875,-0.5129690766334534,0.262264221906662,0.022657928988337517
1772534511448194600,3.828194580078125,-0.44750675559043884,0.20864465832710266,-0.029636166989803314
1772534511458211300,3.83821142578125,-0.38064002990722656,0.09872055053710938,-0.029766391962766647
1772534511468227600,3.8482275390625,-0.2968316674232483,-0.03164997324347496,0.02264248952269554
1772534511478244600,3.85824462890625,-0.2017083466053009,-0.1355661004781723,0.11293257772922516
1772534511488260600,3.868260498046875,-0.11832451075315475,-0.2263820320367813,0.2206406593322754
1772534511498277400,3.87827734375,-0.0668383464217186,-0.3012891709804535,0.322793185710907
1772534511508293600,3.888293701171875,-0.05191345885396004,-0.36363428831100464,0.403527170419693
1772534511518310700,3.898310546875,-0.07157748937606812,-0.4207916557788849,0.45335832238197327
1772534511528326400,3.908326416015625,-0.1287933737039566,-0.45446091890335083,0.4702773988246918
1772534511538343400,3.918343505859375,-0.2291146069765091,-0.40656739473342896,0.4410947859287262
1772534511548359700,3.928359619140625,-0.3571817874908447,-0.2544521391391754,0.36252060532569885
1772534511558376400,3.93837646484375,-0.4859314560890198,-0.06646563112735748,0.24671334028244019
1772534511568393000,3.94839306640625,-0.5951037406921387,0.13584034144878387,0.11728610843420029
1772534511578410200,3.95841015625,-0.6716809272766113,0.3320576846599579,-0.005299131385982037
1772534511588427000,3.968427001953125,-0.7140645980834961,0.4803059995174408,-0.10165788978338242
1772534511598443000,3.978443115234375,-0.7197287678718567,0.5792944431304932,-0.15902498364448547
1772534511608459000,3.988458984375,-0.6976495385169983,0.6624929308891296,-0.1771685630083084
1772534511618476000,3.99847607421875,-0.6516944169998169,0.7056073546409607,-0.17209047079086304
1772534511628493000,4.0084931640625,-0.5846006274223328,0.6807728409767151,-0.15876667201519012
1772534511638509000,4.018509033203125,-0.5023211240768433,0.596094012260437,-0.13191865384578705
1772534511648526000,4.028526123046875,-0.41452205181121826,0.47833651304244995,-0.08749952912330627
1772534511658542000,4.0385419921875,-0.33226150274276733,0.3416290879249573,-0.01988906040787697
1772534511668559000,4.04855908203125,-0.2549603283405304,0.2256537526845932,0.07044616341590881
1772534511678575000,4.0585751953125,-0.1818421185016632,0.13614296913146973,0.1703982651233673
1772534511688592000,4.068591796875,-0.11193467676639557,0.0666656345129013,0.26379504799842834
1772534511698607900,4.07860791015625,-0.056887462735176086,0.03806004673242569,0.325763463973999
1772534511708625200,4.088625244140625,-0.011327698826789856,0.030037276446819305,0.33629095554351807
1772534511718641200,4.09864111328125,0.022988593205809593,0.011330364271998405,0.2922413945198059
1772534511728658000,4.108657958984375,0.04352768883109093,-0.03866036608815193,0.20435787737369537
1772534511738674000,4.118673828125,0.04095053672790527,-0.06520193815231323,0.09855709224939346
1772534511748691200,4.128691162109375,0.03183746710419655,-0.10039827227592468,0.006583229172974825
1772534511758707000,4.13870703125,0.028669221326708794,-0.12238484621047974,-0.05169033259153366
1772534511768724000,4.148723876953125,0.03506959602236748,-0.12311694771051407,-0.05412872135639191
1772534511778740000,4.158739990234375,0.037478454411029816,-0.12459824234247208,-0.004884615074843168
1772534511788757000,4.168757080078125,0.04021751508116722,-0.09517617523670197,0.07576735317707062
1772534511798773000,4.17877294921875,0.04633006453514099,-0.05599343031644821,0.14920452237129211
1772534511808790000,4.1887900390625,0.06768035888671875,-0.016775986179709435,0.1796678900718689
1772534511818806000,4.198805908203125,0.0965774804353714,-0.00866181030869484,0.15192770957946777
1772534511828823000,4.208822998046875,0.13391180336475372,-0.042870912700891495,0.0876307487487793
1772534511838839000,4.218839111328125,0.17391997575759888,-0.09826499223709106,0.019988514482975006
1772534511848856000,4.22885595703125,0.2097429633140564,-0.12965142726898193,-0.020622827112674713
1772534511858872000,4.2388720703125,0.24385197460651398,-0.14912118017673492,-0.0024054027162492275
1772534511868889000,4.24888916015625,0.27019914984703064,-0.13564585149288177,0.06977638602256775
1772534511878905000,4.258905029296875,0.3055097460746765,-0.12142231315374374,0.1776779443025589
1772534511888921900,4.268921875,0.3467938005924225,-0.11817645281553268,0.2807566523551941
1772534511898937900,4.278937744140625,0.3889138102531433,-0.14157959818840027,0.3429175019264221
1772534511908955100,4.288955078125,0.4261234998703003,-0.1728227436542511,0.3539224863052368
1772534511918971100,4.29897119140625,0.45002326369285583,-0.1791900396347046,0.31364285945892334
1772534511928988000,4.30898779296875,0.45715761184692383,-0.19555729627609253,0.2533126473426819
1772534511939004000,4.31900390625,0.4592355787754059,-0.1966148465871811,0.19504854083061218
1772534511949021200,4.329021240234375,0.4688096344470978,-0.17583872377872467,0.16674873232841492
1772534511959037200,4.339037109375,0.48170292377471924,-0.14438284933567047,0.1828969419002533
1772534511969054000,4.349053955078125,0.4917880594730377,-0.10469375550746918,0.2333204299211502
1772534511979070000,4.359070068359375,0.49322691559791565,-0.03693206235766411,0.30419233441352844
1772534511989087200,4.369087158203125,0.4769075810909271,0.11231362074613571,0.34561166167259216
1772534511999104000,4.37910400390625,0.45535486936569214,0.2763541042804718,0.3110678791999817
1772534512009120000,4.3891201171875,0.4432121813297272,0.382286936044693,0.1994611918926239
1772534512019137000,4.399136962890625,0.43819767236709595,0.40966153144836426,0.04353450983762741
1772534512029153000,4.409153076171875,0.447313129901886,0.3821750581264496,-0.10647709667682648
1772534512039170000,4.419170166015625,0.4844040870666504,0.31887659430503845,-0.21259580552577972
1772534512049186000,4.42918603515625,0.5481465458869934,0.2190040647983551,-0.24593111872673035
1772534512059203000,4.439203125,0.6397395730018616,0.09276676177978516,-0.20484653115272522
1772534512069219000,4.449218994140625,0.7430813908576965,-0.02483256720006466,-0.097408227622509
1772534512079236000,4.459236083984375,0.8358817100524902,-0.08880443125963211,0.05227041244506836
1772534512089252000,4.469252197265625,0.8891553282737732,-0.05484379455447197,0.2038484811782837
1772534512099269000,4.47926904296875,0.9018487930297852,0.054878175258636475,0.30001896619796753
1772534512109285000,4.48928515625,0.8921220898628235,0.18431472778320312,0.31542134284973145
1772534512119302100,4.49930224609375,0.8773273825645447,0.2967481017112732,0.24482882022857666
1772534512129318000,4.50931787109375,0.8668529391288757,0.3505902886390686,0.12855041027069092
1772534512139335200,4.519335205078125,0.8613830208778381,0.38310521841049194,-0.002118723001331091
1772534512149351200,4.52935107421875,0.8549267649650574,0.3889857232570648,-0.11440478265285492
1772534512159368000,4.539367919921875,0.848939061164856,0.34504327178001404,-0.18008460104465485
1772534512169384000,4.549384033203125,0.8459075689315796,0.28276312351226807,-0.190887451171875
1772534512179401200,4.559401123046875,0.8558091521263123,0.2503373324871063,-0.15428194403648376
1772534512189417200,4.569417236328125,0.8602555990219116,0.23097988963127136,-0.08588479459285736
1772534512199434000,4.57943408203125,0.8746688961982727,0.23246565461158752,-0.02166346274316311
1772534512209450000,4.589449951171875,0.8987017869949341,0.2359570562839508,0.011503013782203197
1772534512219467000,4.599467041015625,0.9182732105255127,0.2217956781387329,0.004999107681214809
1772534512229483000,4.60948291015625,0.9304326772689819,0.16442745923995972,-0.04069248214364052
1772534512239500000,4.6195,0.9354149699211121,0.08297636359930038,-0.10316331684589386
1772534512249516000,4.62951611328125,0.9182642102241516,0.0007834897842258215,-0.15109221637248993
1772534512259533000,4.639532958984375,0.8659667372703552,-0.06632956862449646,-0.1544143110513687
1772534512269549000,4.649549072265625,0.7815424203872681,-0.07517605274915695,-0.11851783841848373
1772534512279566000,4.659566162109375,0.682396411895752,-0.028178494423627853,-0.06693226844072342
1772534512289582000,4.66958203125,0.5787197947502136,0.05295497551560402,-0.03849715739488602
1772534512299598800,4.679598876953125,0.48007631301879883,0.11639728397130966,-0.05632263422012329
1772534512309615000,4.689614990234375,0.39402079582214355,0.16629479825496674,-0.11510259658098221
1772534512319632100,4.699632080078125,0.3164079785346985,0.2062610685825348,-0.19164623320102692
1772534512329648000,4.709648193359375,0.25996866822242737,0.2639012038707733,-0.2636048495769501
1772534512339665000,4.719664794921875,0.23148445785045624,0.30168014764785767,-0.3097677528858185
1772534512349681200,4.72968115234375,0.22259989380836487,0.3291783630847931,-0.3229794204235077
1772534512359698200,4.7396982421875,0.2159002274274826,0.34791722893714905,-0.30923178791999817
1772534512369714000,4.7497138671875,0.20095562934875488,0.33539530634880066,-0.28086939454078674
1772534512379731000,4.75973095703125,0.18786045908927917,0.30152904987335205,-0.2304096668958664
1772534512389747200,4.769747314453125,0.16546781361103058,0.2898111343383789,-0.15738339722156525
1772534512399764000,4.779763916015625,0.14172112941741943,0.3096415102481842,-0.08855628222227097
1772534512409780000,4.789780029296875,0.11928879469633102,0.3015769422054291,-0.037269387394189835
1772534512419797000,4.799796875,0.10354746133089066,0.2758150100708008,-0.030936315655708313
1772534512429813200,4.809813232421875,0.08711469173431396,0.24201041460037231,-0.04459593817591667
1772534512439830000,4.819830078125,0.06586477160453796,0.22523678839206696,-0.05301026627421379
1772534512449846000,4.829845947265625,0.04703835770487785,0.2326744645833969,-0.040157318115234375
1772534512459863000,4.839863037109375,0.034039441496133804,0.2557707726955414,0.007767205126583576
1772534512469879000,4.849879150390625,0.014057211577892303,0.3015494644641876,0.07316538691520691
1772534512479896000,4.85989599609375,-0.009319868870079517,0.347198486328125,0.1242113709449768
1772534512489913000,4.8699130859375,-0.035567183047533035,0.362104207277298,0.13370074331760406
1772534512499928800,4.8799287109375,-0.054991114884614944,0.34904947876930237,0.12080405652523041
1772534512509946000,4.889946044921875,-0.07532195746898651,0.3347831964492798,0.10373346507549286
1772534512519962000,4.899962158203125,-0.1012604758143425,0.3287412226200104,0.0995812714099884
1772534512529979000,4.909978759765625,-0.13040132820606232,0.3347460925579071,0.12065353244543076
1772534512539995000,4.919994873046875,-0.16458936035633087,0.3451632857322693,0.1523825079202652
1772534512550012200,4.93001220703125,-0.21250256896018982,0.34417420625686646,0.1912316381931305
1772534512560028200,4.940028076171875,-0.264220654964447,0.3459717333316803,0.21106286346912384
1772534512570045000,4.950044921875,-0.3105681836605072,0.2905537486076355,0.2066209763288498
1772534512580060400,4.960060302734375,-0.35971808433532715,0.22365882992744446,0.18813350796699524
1772534512590077400,4.970077392578125,-0.40837404131889343,0.22909539937973022,0.15743206441402435
1772534512600093400,4.980093505859375,-0.45083051919937134,0.21938952803611755,0.1357213705778122
1772534512610110500,4.9901103515625,-0.49550506472587585,0.17289739847183228,0.13380922377109528
1772534512620126500,5.00012646484375,-0.550413191318512,0.13830460608005524,0.14266057312488556
1772534512630143500,5.0101435546875,-0.6058418154716492,0.11081918329000473,0.1445615440607071
1772534512640159500,5.020159423828125,-0.6461893916130066,0.03668658435344696,0.14176641404628754
1772534512650176500,5.030176513671875,-0.6962219476699829,-0.015203511342406273,0.14810340106487274
1772534512660192500,5.040192626953125,-0.7735637426376343,0.04174908250570297,0.1486314982175827
1772534512670209300,5.050209228515625,-0.8789897561073303,0.1688079535961151,0.10370955616235733
1772534512680225300,5.060225341796875,-0.991973876953125,0.2749633193016052,-0.004075207747519016
1772534512690242600,5.07024267578125,-1.0920642614364624,0.2883417010307312,-0.13994115591049194
1772534512700258600,5.080258544921875,-1.1608022451400757,0.2740914523601532,-0.2413712590932846
1772534512710275300,5.090275390625,-1.1905242204666138,0.2503533661365509,-0.27594494819641113
1772534512720291300,5.100291259765625,-1.177619218826294,0.2177768349647522,-0.23078158497810364
1772534512730308600,5.11030859375,-1.1273376941680908,0.1710953414440155,-0.11399052292108536
1772534512740324600,5.12032470703125,-1.054665446281433,0.1806432455778122,0.03866579383611679
1772534512750341400,5.13034130859375,-0.994513750076294,0.25281089544296265,0.17611393332481384
1772534512760357400,5.140357421875,-0.9465810656547546,0.31483134627342224,0.255169540643692
1772534512770374700,5.150374755859375,-0.9141400456428528,0.3266485929489136,0.28442275524139404
1772534512780390400,5.160390380859375,-0.912215530872345,0.3786766827106476,0.27409666776657104
1772534512790407400,5.170407470703125,-0.9221299290657043,0.4683935344219208,0.23296628892421722
1772534512800423400,5.18042333984375,-0.9114938974380493,0.5428271889686584,0.2021690309047699
1772534512810440400,5.1904404296875,-0.8649734854698181,0.6116198301315308,0.18939650058746338
1772534512820456400,5.20045654296875,-0.8010218143463135,0.6163103580474854,0.19374412298202515
1772534512830473500,5.210473388671875,-0.7263683676719666,0.5341118574142456,0.2084495723247528
1772534512840489500,5.220489501953125,-0.651210367679596,0.37873375415802,0.23284392058849335
1772534512850506500,5.230506591796875,-0.6001368165016174,0.23769326508045197,0.2724938690662384
1772534512860522500,5.2405224609375,-0.5737064480781555,0.1306370198726654,0.31519365310668945
1772534512870539500,5.25053955078125,-0.5519260764122009,0.01792246289551258,0.3355295658111572
1772534512880555300,5.26055517578125,-0.515845000743866,-0.13123154640197754,0.3201296925544739
1772534512890572500,5.270572509765625,-0.47435054183006287,-0.30683401226997375,0.29319339990615845
1772534512900588500,5.280588623046875,-0.4397149682044983,-0.44719648361206055,0.2927788496017456
1772534512910605300,5.290605224609375,-0.4133126437664032,-0.5150290727615356,0.3234845697879791
1772534512920621300,5.300621337890625,-0.4196876287460327,-0.4958827793598175,0.367672860622406
1772534512930638600,5.310638671875,-0.46830788254737854,-0.3992023169994354,0.377014696598053
1772534512941280300,5.3212802734375,-0.5520538687705994,-0.3042433261871338,0.31178268790245056
1772534512951297500,5.331297607421875,-0.645135760307312,-0.22578512132167816,0.16502445936203003
1772534512961313500,5.3413134765625,-0.729128360748291,-0.17112234234809875,-0.023563489317893982
1772534512971330300,5.351330322265625,-0.7949345111846924,-0.14146751165390015,-0.21122553944587708
1772534512981346300,5.36134619140625,-0.8339698910713196,-0.1664203256368637,-0.36610811948776245
1772534512991363600,5.371363525390625,-0.8599359393119812,-0.2612546980381012,-0.44556137919425964
1772534513001379600,5.381379638671875,-0.8840781450271606,-0.3906831443309784,-0.42673051357269287
1772534513011396400,5.391396240234375,-0.9127585291862488,-0.46090829372406006,-0.32193273305892944
1772534513021412400,5.401412353515625,-0.9302660226821899,-0.4967593252658844,-0.1667940765619278
1772534513031429600,5.4114296875,-0.9272021055221558,-0.4843178391456604,-0.0165324117988348
1772534513041445400,5.4214453125,-0.8973227143287659,-0.4652254283428192,0.08902670443058014
1772534513051462400,5.43146240234375,-0.8479687571525574,-0.47705304622650146,0.12143763899803162
1772534513061478400,5.441478515625,-0.7811902761459351,-0.5043655633926392,0.07215097546577454
1772534513071495400,5.451495361328125,-0.7122386693954468,-0.5429198741912842,-0.03675100579857826
1772534513081511400,5.461511474609375,-0.6495826244354248,-0.6132478713989258,-0.18602924048900604
1772534513091528400,5.471528564453125,-0.5778653025627136,-0.7310099005699158,-0.36040106415748596
1772534513101545500,5.48154541015625,-0.512708306312561,-0.9160193204879761,-0.5154938101768494
1772534513111561500,5.4915615234375,-0.4830673336982727,-1.1684621572494507,-0.5749307870864868
1772534513121577500,5.501577392578125,-0.5005805492401123,-1.3342022895812988,-0.4941812753677368
1772534513131594500,5.511594482421875,-0.5726848244667053,-1.40971839427948,-0.26076987385749817
1772534513141611500,5.521611572265625,-0.7063065767288208,-1.2463828325271606,0.06565340608358383
1772534513151627500,5.53162744140625,-0.8466817736625671,-0.8629100322723389,0.36960023641586304
1772534513161644500,5.54164453125,-0.9469756484031677,-0.4881290793418884,0.5413567423820496
1772534513171660500,5.55166064453125,-0.9982526898384094,-0.21264904737472534,0.5171778798103333
1772534513181677300,5.56167724609375,-0.9867213368415833,-0.05803264304995537,0.31215333938598633
1772534513191693600,5.571693603515625,-0.9155606031417847,0.028014089912176132,0.01150454767048359
1772534513201710300,5.58171044921875,-0.8034169673919678,0.10690322518348694,-0.28665417432785034
1772534513211726300,5.591726318359375,-0.6745223999023438,0.1790919303894043,-0.5215141177177429
1772534513221743400,5.601743408203125,-0.5311864018440247,0.20552293956279755,-0.6550442576408386
1772534513231759600,5.611759521484375,-0.3878577649593353,0.12906065583229065,-0.6692580580711365
1772534513241776400,5.6217763671875,-0.2675636410713196,-0.03255704417824745,-0.5523337125778198
1772534513251792400,5.63179248046875,-0.1791837066411972,-0.19932471215724945,-0.3205457925796509
1772534513261809400,5.641809326171875,-0.12200724333524704,-0.29698920249938965,-0.016471171751618385
1772534513271825700,5.65182568359375,-0.08415014296770096,-0.27716463804244995,0.30610793828964233
1772534513281842400,5.661842529296875,-0.059735726565122604,-0.20324084162712097,0.5676581859588623
1772534513291858400,5.6718583984375,-0.03401944413781166,-0.1157863512635231,0.6947999000549316
1772534513301875500,5.68187548828125,0.0074420650489628315,-0.06639856845140457,0.6778249144554138
1772534513311891500,5.691891357421875,0.0737563744187355,-0.013290872797369957,0.5351489782333374
1772534513321908500,5.701908447265625,0.1574203372001648,0.05657004565000534,0.31937146186828613
1772534513331924500,5.711924560546875,0.23097819089889526,0.10937812924385071,0.10564134269952774
1772534513341941200,5.721941162109375,0.28758150339126587,0.10203010588884354,-0.05994546785950661
1772534513351957500,5.73195751953125,0.313576340675354,0.005780001170933247,-0.15592287480831146
1772534513361974500,5.741974609375,0.2919563949108124,-0.12567739188671112,-0.16803131997585297
1772534513371990500,5.751990478515625,0.2195165455341339,-0.25385135412216187,-0.08862784504890442
1772534513382007300,5.76200732421875,0.11275047063827515,-0.31653130054473877,0.04102142155170441
1772534513392023600,5.7720234375,-0.002855757251381874,-0.38469117879867554,0.14782457053661346
1772534513402040600,5.78204052734375,-0.07567985355854034,-0.453559011220932,0.19513343274593353
1772534513412056300,5.792056396484375,-0.09488070756196976,-0.4684503376483917,0.17741595208644867
1772534513422073300,5.8020732421875,-0.08354178816080093,-0.450848251581192,0.11969146877527237
1772534513432089600,5.812089599609375,-0.0602676197886467,-0.3885137736797333,0.03936440497636795
1772534513442106400,5.8221064453125,-0.04611022770404816,-0.30483561754226685,-0.06299126148223877
1772534513452122400,5.832122314453125,-0.049950242042541504,-0.23637796938419342,-0.1837802678346634
1772534513462139400,5.842139404296875,-0.06918727606534958,-0.1705838441848755,-0.3035123348236084
1772534513472155600,5.85215576171875,-0.08619209378957748,-0.10837932676076889,-0.37932372093200684
1772534513482172400,5.86217236328125,-0.10371986031532288,-0.021904356777668,-0.3853834867477417
1772534513492189400,5.872189453125,-0.10515663027763367,0.05196933448314667,-0.33074313402175903
1772534513502205400,5.882205322265625,-0.0780414268374443,0.07360170781612396,-0.24242141842842102
1772534513512222500,5.892222412109375,-0.013093316927552223,0.05360535904765129,-0.1381450742483139
1772534513522238500,5.902238525390625,0.08302951604127884,0.001713355304673314,-0.04218510910868645
1772534513532255500,5.91225537109375,0.20679540932178497,-0.12497614324092865,0.032806310802698135
1772534513542271500,5.922271484375,0.3280964195728302,-0.2410247027873993,0.06867928057909012
1772534513552288500,5.93228857421875,0.4181149899959564,-0.3093489110469818,0.07257761061191559
1772534513562304500,5.942304443359375,0.45475858449935913,-0.31959155201911926,0.05075320973992348
1772534513572321500,5.952321533203125,0.45609575510025024,-0.34473714232444763,0.011079300194978714
1772534513582337800,5.962337890625,0.4386886656284332,-0.3649521768093109,-0.038526203483343124
1772534513592355000,5.97235498046875,0.4020180106163025,-0.36700519919395447,-0.09176305681467056
1772534513602371000,5.98237109375,0.34381720423698425,-0.36774611473083496,-0.151248961687088
1772534513612387800,5.992387939453125,0.26554346084594727,-0.33530479669570923,-0.20807655155658722
1772534513622403800,6.00240380859375,0.16250061988830566,-0.28088104724884033,-0.2471391260623932
1772534513632421000,6.012421142578125,0.04651649668812752,-0.18124765157699585,-0.2574508786201477
1772534513642436900,6.022436767578125,-0.05316871404647827,-0.03510844334959984,-0.2639397382736206
1772534513652454000,6.032453857421875,-0.11875491589307785,0.08880843967199326,-0.2884216606616974
1772534513662470000,6.042469970703125,-0.15103846788406372,0.17152276635169983,-0.3408827483654022
1772534513672487000,6.05248681640625,-0.1506885141134262,0.22553806006908417,-0.4236050546169281
1772534513682503000,6.0625029296875,-0.12285023182630539,0.2034900188446045,-0.516212522983551
1772534513692520000,6.07252001953125,-0.0737614706158638,0.12533536553382874,-0.5887747406959534
1772534513702536000,6.082535888671875,-0.01847146824002266,0.02576558291912079,-0.6217994093894958
1772534513712553000,6.092552978515625,0.03699126094579697,-0.04238896816968918,-0.603549599647522
1772534513722569000,6.10256884765625,0.07869534194469452,-0.11627324670553207,-0.5310532450675964
1772534513732586000,6.1125859375,0.0950908288359642,-0.20698077976703644,-0.40077269077301025
1772534513742602000,6.12260205078125,0.09200965613126755,-0.22093071043491364,-0.2532587945461273
1772534513752619000,6.132618896484375,0.07964140176773071,-0.2149931937456131,-0.1333603709936142
1772534513762635000,6.142635009765625,0.06282633543014526,-0.23085585236549377,-0.06240822747349739
1772534513772652000,6.152652099609375,0.06256747245788574,-0.2311250865459442,-0.054670680314302444
1772534513782667800,6.162667724609375,0.06763632595539093,-0.21088021993637085,-0.09708671271800995
1772534513792685000,6.17268505859375,0.05024348571896553,-0.18344326317310333,-0.16676460206508636
1772534513802701000,6.182701171875,0.011512551456689835,-0.1516406238079071,-0.2502349019050598
1772534513812717800,6.1927177734375,-0.039278723299503326,-0.1100844070315361,-0.32330670952796936
1772534513822733800,6.20273388671875,-0.08984821289777756,-0.06305838376283646,-0.3660432994365692
1772534513832750800,6.212750732421875,-0.1425257921218872,-0.02384147047996521,-0.37307778000831604
1772534513842767000,6.22276708984375,-0.19626235961914062,0.007512322161346674,-0.3491339385509491
1772534513852783900,6.232783935546875,-0.246258944272995,0.048652298748493195,-0.3045691251754761
1772534513862800000,6.2427998046875,-0.2873181700706482,0.08751024305820465,-0.2516585886478424
1772534513872817000,6.25281689453125,-0.30283185839653015,0.08588704466819763,-0.20328599214553833
1772534513882833000,6.2628330078125,-0.28259217739105225,0.07925015687942505,-0.15227892994880676
1772534513892850000,6.272849853515625,-0.22812974452972412,0.059670329093933105,-0.09379591792821884
1772534513902866000,6.282865966796875,-0.17489676177501678,0.058410078287124634,-0.02564042992889881
1772534513912882700,6.292882568359375,-0.14640387892723083,0.06386609375476837,0.037284739315509796
1772534513922899000,6.30289892578125,-0.14612668752670288,0.040126901119947433,0.08020970970392227
1772534513932916000,6.312916015625,-0.17465607821941376,-0.001687657437287271,0.09788110852241516
1772534513942932000,6.322931884765625,-0.22914820909500122,-0.04909052699804306,0.10000238567590714
1772534513952948700,6.33294873046875,-0.30366984009742737,-0.09818670153617859,0.10724005848169327
1772534513962965000,6.342965087890625,-0.39648669958114624,-0.14546312391757965,0.14297513663768768
1772534513972982000,6.35298193359375,-0.503568708896637,-0.1419679969549179,0.1993633210659027
1772534513982998000,6.362998046875,-0.6233076453208923,-0.1519772708415985,0.26058581471443176
1772534513993014800,6.373014892578125,-0.7444090247154236,-0.16542276740074158,0.3133355677127838
1772534514003031000,6.383031005859375,-0.8494359254837036,-0.1892167180776596,0.3464038670063019
1772534514013047800,6.3930478515625,-0.919339656829834,-0.24498730897903442,0.35515153408050537
1772534514023063800,6.403063720703125,-0.9542387127876282,-0.3263815939426422,0.35603275895118713
1772534514033080800,6.413080810546875,-0.9573913216590881,-0.4019317328929901,0.3699831962585449
1772534514043097000,6.42309716796875,-0.9407183527946472,-0.45944133400917053,0.40922242403030396
1772534514053113900,6.43311376953125,-0.9360098838806152,-0.47552764415740967,0.470380574464798
1772534514063129900,6.4431298828125,-0.9721323847770691,-0.43095046281814575,0.5239704251289368
1772534514073147000,6.45314697265625,-1.0460084676742554,-0.34540465474128723,0.5303452610969543
1772534514083163100,6.4631630859375,-1.1525849103927612,-0.2837635278701782,0.4683091640472412
1772534514093180000,6.473179931640625,-1.2664345502853394,-0.2243015468120575,0.34461891651153564
1772534514103196000,6.48319580078125,-1.3768514394760132,-0.15367279946804047,0.19038240611553192
1772534514113213000,6.493212890625,-1.4650253057479858,-0.08241352438926697,0.039126042276620865
1772534514123229000,6.50322900390625,-1.5215768814086914,-0.02808403968811035,-0.08878938108682632
1772534514133246000,6.513245849609375,-1.5345052480697632,-0.004503879230469465,-0.16913242638111115
1772534514143262000,6.523261962890625,-1.5111030340194702,0.03261634334921837,-0.1894039362668991
1772534514153278700,6.53327880859375,-1.4457696676254272,0.10472888499498367,-0.16642750799655914
1772534514163295000,6.543294921875,-1.3616684675216675,0.14951862394809723,-0.11738134920597076
1772534514173312000,6.55331201171875,-1.2700732946395874,0.1390894204378128,-0.041675932705402374
1772534514183328000,6.563327880859375,-1.1593044996261597,0.1543535441160202,0.036640316247940063
1772534514193344800,6.5733447265625,-1.026277780532837,0.16267699003219604,0.0936756357550621
1772534514203361000,6.583361083984375,-0.8809025883674622,0.12693586945533752,0.11767278611660004
1772534514213378000,6.5933779296875,-0.7297890186309814,0.02589208446443081,0.12030158936977386
1772534514223394800,6.603394775390625,-0.5885193943977356,-0.13412341475486755,0.11238562315702438
1772534514233410800,6.613410888671875,-0.4987919330596924,-0.31813642382621765,0.08509673923254013
1772534514243428000,6.623427978515625,-0.46959251165390015,-0.5424935817718506,0.04367732256650925
1772534514253443800,6.63344384765625,-0.5023030638694763,-0.7439633011817932,-0.01417824998497963
1772534514263460900,6.6434609375,-0.5831771492958069,-0.8941695690155029,-0.08628953993320465
1772534514273476900,6.653476806640625,-0.704579770565033,-1.0245304107666016,-0.14687325060367584
1772534514283494000,6.663493896484375,-0.8569031357765198,-1.082770586013794,-0.1882660835981369
1772534514293510000,6.673510009765625,-1.017325520515442,-1.0325106382369995,-0.21064463257789612
1772534514303527000,6.68352685546875,-1.154280185699463,-0.874920129776001,-0.24341456592082977
1772534514313543000,6.69354296875,-1.2488527297973633,-0.678780198097229,-0.29815346002578735
1772534514323560000,6.703559814453125,-1.3100212812423706,-0.45509466528892517,-0.3850729167461395
1772534514333576000,6.713575927734375,-1.3245656490325928,-0.2581976056098938,-0.49745991826057434
1772534514343593000,6.723593017578125,-1.2982255220413208,-0.14411959052085876,-0.5990826487541199
1772534514353609000,6.73360888671875,-1.2494657039642334,-0.1114327535033226,-0.6702181100845337
1772534514363626000,6.7436259765625,-1.193585991859436,-0.13185730576515198,-0.6973674893379211
1772534514373642000,6.75364208984375,-1.137473225593567,-0.1363135725259781,-0.691844642162323
1772534514383659000,6.763658935546875,-1.083027720451355,-0.14071866869926453,-0.663795530796051
1772534514393674800,6.7736748046875,-1.0449389219284058,-0.15584222972393036,-0.6314765214920044
1772534514403692000,6.783692138671875,-1.037542462348938,-0.19585230946540833,-0.6025044918060303
1772534514413708000,6.7937080078125,-1.0548588037490845,-0.24502411484718323,-0.5824575424194336
1772534514423724800,6.803724853515625,-1.0829797983169556,-0.3018563985824585,-0.5603005886077881
1772534514433740800,6.81374072265625,-1.1146131753921509,-0.32366660237312317,-0.5106001496315002
1772534514443758000,6.823758056640625,-1.1198657751083374,-0.28851208090782166,-0.4410994350910187
1772534514453774000,6.833774169921875,-1.0732576847076416,-0.22102387249469757,-0.362700492143631
1772534514463790800,6.843790771484375,-0.9919003248214722,-0.13047640025615692,-0.2784753441810608
1772534514473806800,6.853806884765625,-0.8867539167404175,-0.02828291244804859,-0.19009728729724884
1772534514483824000,6.86382421875,-0.7901213765144348,0.08315073698759079,-0.09469533711671829
1772534514493840000,6.87383984375,-0.7169406414031982,0.1695077270269394,-0.009732240810990334
1772534514503857000,6.88385693359375,-0.6554133892059326,0.18500342965126038,0.05759167671203613
1772534514513873000,6.893872802734375,-0.6060602068901062,0.17988082766532898,0.10015884041786194
1772534514523890000,6.903889892578125,-0.5600666403770447,0.1818939447402954,0.11568654328584671
1772534514533906000,6.913906005859375,-0.5194520950317383,0.15265803039073944,0.1254185289144516
1772534514543923000,6.9239228515625,-0.46992218494415283,0.1033683717250824,0.12196353822946548
1772534514553939000,6.93393896484375,-0.41542723774909973,0.058573998510837555,0.1092810332775116
1772534514563956000,6.9439560546875,-0.37248340249061584,0.03688345104455948,0.09060107171535492
1772534514573971500,6.953971435546875,-0.3241366446018219,0.024689367040991783,0.06968380510807037
1772534514583988700,6.96398876953125,-0.2791101038455963,0.05011344701051712,0.05997461453080177
1772534514594004700,6.974004638671875,-0.24252678453922272,0.08127322793006897,0.06945333629846573
1772534514604021500,6.984021484375,-0.20546765625476837,0.10183349996805191,0.09309805929660797
1772534514614037500,6.99403759765625,-0.15298767387866974,0.11810488253831863,0.11363982409238815
1772534514624054800,7.0040546875,-0.08101937174797058,0.11064201593399048,0.13321000337600708
1772534514634070500,7.014070556640625,0.014647233299911022,0.10934479534626007,0.15113574266433716
1772534514644087600,7.024087646484375,0.11732548475265503,0.12500925362110138,0.1749240905046463
1772534514654103600,7.034103515625,0.20802690088748932,0.17707565426826477,0.205523282289505
1772534514664120600,7.04412060546875,0.2601402699947357,0.2639496624469757,0.24444317817687988
1772534514674136600,7.054136474609375,0.2602185606956482,0.3594871163368225,0.28740665316581726
1772534514684153600,7.064153564453125,0.22988393902778625,0.43846097588539124,0.3241003155708313
1772534514694169600,7.074169677734375,0.20949849486351013,0.47428157925605774,0.34879422187805176
1772534514704186600,7.0841865234375,0.22290736436843872,0.49640175700187683,0.36365577578544617
1772534514714202600,7.09420263671875,0.24869075417518616,0.5279703736305237,0.3737369179725647
1772534514724219600,7.1042197265625,0.27621716260910034,0.5487889647483826,0.37123122811317444
1772534514734235600,7.114235595703125,0.3016516864299774,0.5265361070632935,0.3289330303668976
1772534514744252700,7.124252685546875,0.32219433784484863,0.43011239171028137,0.2568414807319641
1772534514754268700,7.1342685546875,0.3306000530719757,0.28933343291282654,0.1707257479429245
1772534514764285400,7.144285400390625,0.31154295802116394,0.13246293365955353,0.09270744770765305
1772534514774301400,7.154301513671875,0.2661624252796173,-0.008182861842215061,0.0447058342397213
1772534514784318700,7.164318603515625,0.1927429884672165,-0.13813965022563934,0.04825729876756668
1772534514794334700,7.174334716796875,0.08704293519258499,-0.23078703880310059,0.10866445302963257
1772534514804351500,7.1843515625,-0.03171612322330475,-0.23345325887203217,0.18789122998714447
1772534514814367500,7.194367431640625,-0.1288144290447235,-0.172943577170372,0.2397240698337555
1772534514824384800,7.204384765625,-0.1746271848678589,-0.10731013119220734,0.2339790314435959
1772534514834400800,7.21440087890625,-0.16876929998397827,-0.061811622232198715,0.17085784673690796
1772534514844417500,7.22441748046875,-0.12910866737365723,-0.04634043201804161,0.07241170108318329
1772534514854433500,7.23443359375,-0.07158280164003372,-0.06600148230791092,-0.022875141352415085
1772534514864450800,7.244450927734375,-0.021005909889936447,-0.12480221688747406,-0.07833466678857803
1772534514874466600,7.254466552734375,0.008382339030504227,-0.21030327677726746,-0.07638256996870041
1772534514884483600,7.264483642578125,0.014485878869891167,-0.295664519071579,-0.024123840034008026
1772534514894499600,7.27449951171875,-0.0017759150359779596,-0.3433428108692169,0.05143536627292633
1772534514904516600,7.2845166015625,-0.03351850435137749,-0.355146199464798,0.11912807077169418
1772534514914532600,7.29453271484375,-0.06979528814554214,-0.33289363980293274,0.15684933960437775
1772534514924549600,7.304549560546875,-0.10317917913198471,-0.2585260570049286,0.1572616696357727
1772534514934565600,7.314565673828125,-0.14071829617023468,-0.14628072082996368,0.12399106472730637
1772534514944582700,7.324582763671875,-0.18199558556079865,-0.034281641244888306,0.07506926357746124
1772534514954598700,7.3345986328125,-0.2463841587305069,0.05564451962709427,0.018220629543066025
1772534514964615700,7.34461572265625,-0.3309483230113983,0.12898370623588562,-0.03856195881962776
1772534514974631400,7.35463134765625,-0.4279707372188568,0.13829092681407928,-0.08986669033765793
1772534514984648400,7.3646484375,-0.5151291489601135,0.13803498446941376,-0.13519148528575897
1772534514994664700,7.374664794921875,-0.5587503910064697,0.15734103322029114,-0.19465401768684387
1772534515004681500,7.384681396484375,-0.5497788786888123,0.14481818675994873,-0.25091663002967834
1772534515014697500,7.394697509765625,-0.4924573302268982,0.13011939823627472,-0.3024645149707794
1772534515024714500,7.404714599609375,-0.41088709235191345,0.10939083993434906,-0.32610079646110535
1772534515034730800,7.414730712890625,-0.3196850121021271,0.0655331090092659,-0.31255942583084106
1772534515044747500,7.42474755859375,-0.23746341466903687,0.006845888681709766,-0.2690318524837494
1772534515054763500,7.434763427734375,-0.17268815636634827,-0.0613374263048172,-0.214555025100708
1772534515064780500,7.444780517578125,-0.12837061285972595,-0.14625492691993713,-0.15904103219509125
1772534515074796800,7.454796875,-0.10879024863243103,-0.2610105276107788,-0.10861168056726456
1772534515084813600,7.4648134765625,-0.11451023072004318,-0.3447517156600952,-0.06086938828229904
1772534515094829600,7.47482958984375,-0.1296290010213852,-0.35511699318885803,-0.0277164988219738
1772534515104846600,7.4848466796875,-0.1334223747253418,-0.3179316222667694,-0.032048195600509644
1772534515114862600,7.494862548828125,-0.12807074189186096,-0.2558642625808716,-0.07998110353946686
1772534515124879600,7.504879638671875,-0.13452361524105072,-0.2427859604358673,-0.1573319286108017
1772534515134895600,7.5148955078125,-0.1488005518913269,-0.24352233111858368,-0.23384003341197968
1772534515144912400,7.524912353515625,-0.1671305000782013,-0.23427283763885498,-0.27892249822616577
1772534515154928600,7.5349287109375,-0.2054845541715622,-0.19721415638923645,-0.26071181893348694
1772534515164945700,7.544945556640625,-0.2655644118785858,-0.1559661477804184,-0.18105125427246094
1772534515174961700,7.554961669921875,-0.33974596858024597,-0.07544441521167755,-0.08497878909111023
1772534515184978400,7.564978515625,-0.41082775592803955,-0.017094571143388748,-0.01653602533042431
1772534515194994700,7.57499462890625,-0.4532037079334259,-0.01027608010917902,0.00456366827711463
1772534515205011700,7.58501171875,-0.4585227370262146,-0.015796350315213203,-0.009750084020197392
1772534515215027500,7.59502734375,-0.4480524957180023,-0.018980424851179123,-0.029895031824707985
1772534515225044500,7.60504443359375,-0.4285103976726532,0.0006028609350323677,-0.038796909153461456
1772534515235060700,7.615060791015625,-0.4071233570575714,0.02453216165304184,-0.03797106072306633
1772534515245077500,7.625077392578125,-0.39638352394104004,-0.011612165719270706,-0.030693985521793365
1772534515255093500,7.635093505859375,-0.41276195645332336,-0.07077162712812424,-0.015524888411164284
1772534515265110500,7.645110595703125,-0.44403624534606934,-0.12812986969947815,-0.015066895633935928
1772534515275126800,7.655126708984375,-0.48295512795448303,-0.16712947189807892,-0.03931470960378647
1772534515285143600,7.6651435546875,-0.5138930082321167,-0.17077744007110596,-0.07190978527069092
1772534515295159600,7.67515966796875,-0.5478976368904114,-0.14977574348449707,-0.09751608222723007
1772534515305176600,7.685176513671875,-0.596563458442688,-0.09622769802808762,-0.10865594446659088
1772534515315192600,7.695192626953125,-0.6649462580680847,-0.025470972061157227,-0.11677379906177521
1772534515325209600,7.705209716796875,-0.7388012409210205,0.061150647699832916,-0.1260213553905487
1772534515335225600,7.7152255859375,-0.8078447580337524,0.1569083333015442,-0.13672778010368347
1772534515345242600,7.72524267578125,-0.8665211796760559,0.26275697350502014,-0.1425805687904358
1772534515355259600,7.735259765625,-0.9133893847465515,0.3394823968410492,-0.14995220303535461
1772534515365275600,7.745275634765625,-0.9292246699333191,0.3636670410633087,-0.16730915009975433
1772534515375292400,7.75529248046875,-0.903683602809906,0.3096773028373718,-0.18577338755130768
1772534515385308400,7.765308349609375,-0.8289198875427246,0.20174787938594818,-0.18504446744918823
1772534515395325700,7.77532568359375,-0.7288596034049988,0.07793061435222626,-0.15143272280693054
1772534515405341700,7.785341796875,-0.6190792322158813,-0.04839692637324333,-0.08512359857559204
1772534515415358500,7.7953583984375,-0.5312324166297913,-0.19915342330932617,0.015829643234610558
1772534515425374500,7.80537451171875,-0.4874579906463623,-0.32786619663238525,0.14530101418495178
1772534515435391700,7.815391845703125,-0.5017319917678833,-0.3564924895763397,0.2801267206668854
1772534515445407700,7.82540771484375,-0.5892621278762817,-0.32493746280670166,0.38913410902023315
1772534515455424500,7.835424560546875,-0.7213871479034424,-0.2574300765991211,0.4522624909877777
1772534515465440500,7.8454404296875,-0.8578999638557434,-0.14525459706783295,0.46156829595565796
1772534515475457800,7.855457763671875,-0.9868808388710022,0.0016413710545748472,0.4254553020000458
1772534515485473500,7.8654736328125,-1.0931800603866577,0.1450451910495758,0.35216596722602844
1772534515495490600,7.875490478515625,-1.1597095727920532,0.26013505458831787,0.25934576988220215
1772534515505506600,7.885506591796875,-1.1840168237686157,0.33916449546813965,0.16512930393218994
1772534515515523600,7.895523681640625,-1.170690894126892,0.35935845971107483,0.08848593384027481
1772534515525539600,7.90553955078125,-1.1462171077728271,0.31947413086891174,0.03508695587515831
1772534515535556600,7.915556640625,-1.1111177206039429,0.2416459172964096,0.009648442268371582
1772534515545572600,7.925572509765625,-1.0636683702468872,0.15465323626995087,0.015001107007265091
1772534515555589600,7.935589599609375,-1.013038992881775,0.050840020179748535,0.04139542952179909
1772534515565605600,7.945605712890625,-0.9534035921096802,-0.03952029347419739,0.07912033051252365
1772534515575622400,7.955622314453125,-0.8877587914466858,-0.10378716886043549,0.117294080555439
1772534515585638400,7.965638427734375,-0.818615734577179,-0.16110074520111084,0.13576775789260864
1772534515595655400,7.975655517578125,-0.7734479904174805,-0.18763300776481628,0.12155633419752121
1772534515605671400,7.98567138671875,-0.7661319971084595,-0.19182948768138885,0.07356496900320053
1772534515615688400,7.9956884765625,-0.7958749532699585,-0.17048026621341705,0.007974773645401001
1772534515625704400,8.005704345703125,-0.8522980809211731,-0.12400753051042557,-0.06175889074802399
1772534515635721500,8.015721435546874,-0.9190520644187927,-0.05854703113436699,-0.13097073137760162
1772534515645737500,8.025737548828126,-0.9748741388320923,-0.00023308140225708485,-0.19568192958831787
1772534515655754200,8.035754150390625,-0.9844200015068054,0.03835958614945412,-0.25510719418525696
1772534515665770500,8.0457705078125,-0.9587695002555847,0.07869517803192139,-0.30979087948799133
1772534515675787500,8.05578759765625,-0.9155594110488892,0.10407456755638123,-0.33397582173347473
1772534515685803500,8.065803466796876,-0.8612840175628662,0.1441861242055893,-0.31273311376571655
1772534515695820300,8.0758203125,-0.7929126620292664,0.23101210594177246,-0.23874998092651367
1772534515705836300,8.085836181640625,-0.7184210419654846,0.3374529778957367,-0.1354464888572693
1772534515715853600,8.095853515625,-0.6282874345779419,0.4251130521297455,-0.0249258354306221
1772534515725869300,8.105869384765626,-0.5463159680366516,0.47941917181015015,0.06804218143224716
1772534515735886300,8.11588623046875,-0.48523080348968506,0.4802452623844147,0.1352856606245041
1772534515745902300,8.12590234375,-0.44287630915641785,0.41261744499206543,0.19122523069381714
1772534515755919400,8.13591943359375,-0.4272027909755707,0.33800819516181946,0.2305004596710205
1772534515765935400,8.145935302734374,-0.4273039400577545,0.24516448378562927,0.25008395314216614
1772534515775952400,8.155952392578126,-0.43021637201309204,0.1472986340522766,0.24578507244586945
1772534515785968400,8.165968505859375,-0.42327919602394104,0.08486441522836685,0.210755854845047
1772534515795985400,8.1759853515625,-0.40075764060020447,0.037941645830869675,0.15546303987503052
1772534515806001400,8.18600146484375,-0.3699018359184265,0.0029802685603499413,0.10988127440214157
1772534515816018400,8.196018310546876,-0.3375502824783325,-0.007926441729068756,0.07450970262289047
1772534515826034400,8.206034423828125,-0.3084007799625397,0.013490566983819008,0.03789373114705086
1772534515836051500,8.216051513671875,-0.2852930724620819,0.022930940613150597,-0.000925570260733366
1772534515846067500,8.2260673828125,-0.25952690839767456,0.017878681421279907,-0.03462953865528107
1772534515856084200,8.236084228515624,-0.24048955738544464,-0.0015573360724374652,-0.05118907615542412
1772534515866100200,8.246100341796875,-0.22711224853992462,-0.05554025620222092,-0.04619371145963669
1772534515876117500,8.256117431640625,-0.20948265492916107,-0.12415287643671036,-0.029130037873983383
1772534515886133500,8.266133544921875,-0.17851075530052185,-0.2271348088979721,-0.009551292285323143
1772534515896150300,8.276150390625,-0.14685429632663727,-0.326048344373703,0.011618174612522125
1772534515906166300,8.286166259765626,-0.12040505558252335,-0.36943507194519043,0.036372337490320206
1772534515916183600,8.29618359375,-0.09719720482826233,-0.36742252111434937,0.06345561891794205
1772534515926199600,8.306199462890625,-0.06720844656229019,-0.356439471244812,0.08695322275161743
1772534515936216300,8.31621630859375,-0.017700275406241417,-0.35156670212745667,0.10408347100019455
1772534515946232300,8.326232421875,-0.03154705464839935,-0.16628135740756989,0.048896390944719315
1772534515956249600,8.33624951171875,-0.00579668628051877,-0.1977788209915161,-0.06921747326850891
1772534515966265300,8.346265380859375,0.07552468031644821,-0.3697322905063629,-0.1930646002292633
1772534515976282400,8.356282470703125,0.1611599624156952,-0.413696825504303,-0.285138875246048
1772534515986298400,8.36629833984375,0.2109123021364212,-0.30993086099624634,-0.3457324206829071
1772534515996315400,8.3763154296875,0.1970127373933792,-0.20932167768478394,-0.3758716881275177
1772534516006331400,8.386331298828125,0.11942896246910095,-0.1295197457075119,-0.38929468393325806
1772534516016348400,8.396348388671875,0.02681940235197544,-0.05748017132282257,-0.40002748370170593
1772534516026364400,8.406364501953124,-0.0470019094645977,0.01114443689584732,-0.42588892579078674
1772534516036381400,8.41638134765625,-0.09293371438980103,-0.008434059098362923,-0.4735350012779236
1772534516046397400,8.4263974609375,-0.12165289372205734,-0.08616746962070465,-0.5217555165290833
1772534516056414500,8.43641455078125,-0.13117821514606476,-0.08890892565250397,-0.5655847787857056
1772534516066430200,8.44643017578125,-0.1133013665676117,-0.09430587291717529,-0.5911770462989807
1772534516076447500,8.456447509765624,-0.07696333527565002,-0.11984824389219284,-0.5930708050727844
1772534516086463500,8.46646337890625,-0.028498532250523567,-0.1291586011648178,-0.5655887722969055
1772534516096480300,8.476480224609375,0.03624344617128372,-0.125889852643013,-0.5237321257591248
1772534516106496300,8.486496337890625,0.11172247678041458,-0.09441912174224854,-0.46287110447883606
1772534516116513500,8.496513427734374,0.1901208758354187,-0.05785072222352028,-0.3929828405380249
1772534516126529500,8.506529541015626,0.267473042011261,-0.05516565591096878,-0.3243621587753296
1772534516136546300,8.51654638671875,0.3410860300064087,-0.0804414451122284,-0.2666722238063812
1772534516146562300,8.526562255859375,0.3956245183944702,-0.14620739221572876,-0.21735027432441711
1772534516156579600,8.53657958984375,0.4304855763912201,-0.22033941745758057,-0.1643693447113037
1772534516166595600,8.546595703125,0.4498141407966614,-0.2304404377937317,-0.12398991733789444
1772534516176612400,8.5566123046875,0.46743467450141907,-0.18957237899303436,-0.0889432430267334
1772534516186628400,8.56662841796875,0.49028679728507996,-0.1413174718618393,-0.05777287855744362
1772534516196645400,8.576645263671875,0.514758288860321,-0.13054153323173523,-0.014221671968698502
1772534516206661400,8.586661376953124,0.5399876236915588,-0.11014362424612045,0.04877393692731857
1772534516216678400,8.596678466796876,0.5717087984085083,-0.03725050389766693,0.11472072452306747
1772534516226694400,8.6066943359375,0.616645336151123,0.005378476809710264,0.17477546632289886
1772534516236711400,8.61671142578125,0.6730979681015015,-0.012238066643476486,0.23239561915397644
1772534516246727400,8.6267275390625,0.7313538193702698,-0.08414021879434586,0.2748791575431824
1772534516256744400,8.636744384765626,0.7748556137084961,-0.1900392770767212,0.299182265996933
1772534516266760400,8.646760498046875,0.7913826107978821,-0.30199897289276123,0.30249854922294617
1772534516276777500,8.656777587890625,0.7701915502548218,-0.4372158944606781,0.2918533384799957
1772534516286793500,8.66679345703125,0.7264650464057922,-0.6085753440856934,0.2792106568813324
1772534516296810500,8.676810546875,0.6452375650405884,-0.7098942995071411,0.26456567645072937
1772534516306826200,8.686826171875,0.5189195871353149,-0.6808043122291565,0.234832301735878
1772534516316843500,8.696843505859375,0.3751017153263092,-0.6213774681091309,0.18061593174934387
1772534516326859500,8.706859619140625,0.23480039834976196,-0.5728422403335571,0.11412126570940018
1772534516336876300,8.716876220703124,0.1185331791639328,-0.46872031688690186,0.03953224793076515
1772534516346892300,8.726892333984376,0.04237394034862518,-0.3195369243621826,-0.04686750844120979
1772534516356909600,8.73690966796875,0.015685338526964188,-0.1980762630701065,-0.12088020890951157
1772534516366925600,8.746925537109375,0.028290577232837677,-0.15761642158031464,-0.15733741223812103
1772534516376942300,8.7569423828125,0.0659298375248909,-0.12390799075365067,-0.14847388863563538
1772534516386958300,8.766958251953126,0.10971401631832123,-0.060578491538763046,-0.10879990458488464
1772534516396975600,8.7769755859375,0.1449338048696518,0.01140169333666563,-0.043868307024240494
1772534516406991400,8.786991455078125,0.17421981692314148,0.0550183430314064,0.027254004031419754
1772534516417008400,8.79700830078125,0.2057066410779953,-0.037756867706775665,0.1390036940574646
1772534516427024400,8.8070244140625,0.24150706827640533,-0.0839468315243721,0.28932082653045654
1772534516437041400,8.81704150390625,0.26945480704307556,-0.11828669905662537,0.41142597794532776
1772534516447057400,8.827057373046875,0.3239213824272156,-0.11025360971689224,0.40329793095588684
1772534516457074400,8.837074462890625,0.44053030014038086,0.08863365650177002,0.2814050316810608
1772534516467090400,8.84709033203125,0.6207838654518127,0.381816565990448,0.0804085060954094
1772534516477107500,8.857107421875,0.7766858339309692,0.6441174149513245,-0.125176340341568
1772534516487123500,8.86712353515625,0.8098177313804626,0.7837833166122437,-0.29263558983802795
1772534516497140500,8.877140380859375,0.7210798859596252,0.7837337851524353,-0.3747224807739258
1772534516507156500,8.887156494140624,0.556354820728302,0.6814873814582825,-0.381038099527359
1772534516517173500,8.897173583984374,0.3500879108905792,0.518939733505249,-0.3545476496219635
1772534516527189500,8.907189453125,0.14276035130023956,0.3075609803199768,-0.32544001936912537
1772534516537206500,8.91720654296875,-0.04213014617562294,0.0903349220752716,-0.28566089272499084
1772534516547222300,8.92722216796875,-0.16104021668434143,-0.07106247544288635,-0.2457588165998459
1772534516557239600,8.937239501953124,-0.21255800127983093,-0.14920973777770996,-0.21436548233032227
1772534516567255600,8.947255615234376,-0.2057286649942398,-0.1698690950870514,-0.20300929248332977
1772534516577273600,8.957273681640626,-0.15570971369743347,-0.12037743628025055,-0.189542755484581
1772534516587289600,8.96728955078125,-0.07948645204305649,-0.03510119765996933,-0.17571736872196198
1772534516597306400,8.977306396484375,-0.0010907116811722517,0.019024621695280075,-0.13432972133159637
1772534516607322400,8.987322265625,0.04762059077620506,0.0676654651761055,-0.06396759301424026
1772534516617339600,8.997339599609376,0.04075389727950096,0.08866448700428009,0.021586721763014793
1772534516627355600,9.007355712890625,-0.02995358221232891,0.052070003002882004,0.09654160588979721
1772534516637372400,9.017372314453125,-0.15045976638793945,-0.015720495954155922,0.13540245592594147
1772534516647388400,9.027388427734374,-0.30328500270843506,-0.12047668546438217,0.12621866166591644
1772534516657405700,9.03740576171875,-0.45510435104370117,-0.19904740154743195,0.0786340981721878
1772534516667421700,9.047421630859375,-0.5717636346817017,-0.21710285544395447,0.0365397185087204
1772534516677438500,9.0574384765625,-0.6417786478996277,-0.22320681810379028,-0.007400311063975096
1772534516687454500,9.067454345703124,-0.6679629683494568,-0.17474591732025146,-0.05606791749596596
1772534516697471700,9.0774716796875,-0.6498116254806519,-0.06730973720550537,-0.11514055728912354
1772534516707487500,9.087487548828125,-0.5859259963035583,0.0313936248421669,-0.1810251772403717
1772534516717503500,9.09750341796875,-0.514750063419342,0.11054250597953796,-0.2266390025615692
1772534516727520500,9.1075205078125,-0.4845007658004761,0.16294994950294495,-0.23969988524913788
1772534516737537500,9.11753759765625,-0.5226603746414185,0.18340063095092773,-0.2300717532634735
1772534516747553500,9.127553466796876,-0.6198017001152039,0.14984792470932007,-0.23092003166675568
1772534516757569500,9.137569580078125,-0.7439513802528381,0.08562979102134705,-0.26371684670448303
1772534516767586600,9.147586669921875,-0.8663954138755798,0.008830041624605656,-0.31700843572616577
1772534516777602600,9.1576025390625,-0.9724132418632507,-0.1171497255563736,-0.36262547969818115
1772534516787619600,9.16761962890625,-1.0735764503479004,-0.22451481223106384,-0.3778696656227112
1772534516797635600,9.177635498046875,-1.1605100631713867,-0.26674988865852356,-0.3626568913459778
1772534516807652400,9.18765234375,-1.2150179147720337,-0.2477133870124817,-0.3240949809551239
1772534516817668400,9.19766845703125,-1.2139960527420044,-0.22296728193759918,-0.25989654660224915
1772534516827685600,9.207685546875,-1.1678144931793213,-0.1713646501302719,-0.18135559558868408
1772534516837701600,9.21770166015625,-1.0881167650222778,-0.03954164311289787,-0.11308813095092773
1772534516847718400,9.227718505859375,-1.0010305643081665,0.11018785834312439,-0.07524919509887695
1772534516857734400,9.237734375,-0.9188171029090881,0.2355244755744934,-0.0738917887210846
1772534516867751700,9.247751708984374,-0.8539111614227295,0.33804845809936523,-0.10167735815048218
1772534516877767700,9.257767578125,-0.8114110827445984,0.41852810978889465,-0.14481283724308014
1772534516887784400,9.267784423828125,-0.7800596952438354,0.4602419137954712,-0.18942636251449585
1772534516897800400,9.277800537109375,-0.7494631409645081,0.41848647594451904,-0.2303093522787094
1772534516907817700,9.287817626953125,-0.7041500210762024,0.2578369975090027,-0.23736760020256042
1772534516917833500,9.29783349609375,-0.6270307302474976,0.046124473214149475,-0.1757279336452484
1772534516927850500,9.3078505859375,-0.5238130688667297,-0.11382991820573807,-0.05683305859565735
1772534516938126600,9.318126708984375,-0.4278702735900879,-0.22329196333885193,0.11783329397439957
1772534516947883500,9.327883544921875,-0.3860200345516205,-0.3537181317806244,0.3262227177619934
1772534516957899500,9.3378994140625,-0.39162781834602356,-0.5071281790733337,0.5573750734329224
1772534516967916500,9.34791650390625,-0.41996055841445923,-0.6314045786857605,0.7842147350311279
1772534516977932500,9.3579326171875,-0.4545725882053375,-0.6663785576820374,0.9595441818237305
1772534516987949600,9.367949462890625,-0.4961733818054199,-0.6028297543525696,1.04243004322052
1772534516997965600,9.377965576171874,-0.540311336517334,-0.5392752885818481,1.0168242454528809
1772534517007982600,9.387982666015626,-0.573106050491333,-0.49326077103614807,0.8930818438529968
1772534517017998300,9.397998291015625,-0.5769385695457458,-0.42114076018333435,0.7089714407920837
1772534517028015600,9.408015625,-0.5566366314888,-0.2707575559616089,0.49779626727104187
1772534517038031600,9.418031494140624,-0.5274547934532166,-0.07892526686191559,0.2886582314968109
1772534517048048400,9.42804833984375,-0.5105771422386169,0.07581543922424316,0.09632913768291473
1772534517058064400,9.438064453125,-0.5062271356582642,0.1348968744277954,-0.055221498012542725
1772534517068081700,9.44808154296875,-0.5105081796646118,0.09922400116920471,-0.13757017254829407
1772534517078097700,9.45809765625,-0.5224159359931946,0.057372696697711945,-0.1627945750951767
1772534517088114400,9.468114501953124,-0.5360671877861023,0.013915101997554302,-0.1358690857887268
1772534517098130400,9.47813037109375,-0.5402001738548279,-0.003655368462204933,-0.06705167144536972
1772534517108147700,9.488147705078125,-0.5340673923492432,0.017613429576158524,0.04277443885803223
1772534517118163700,9.498163818359375,-0.5058680176734924,0.04220372810959816,0.1516583114862442
1772534517128180500,9.508180419921874,-0.4701167345046997,0.04656492546200752,0.2301776111125946
1772534517138196500,9.518196533203126,-0.43506258726119995,0.040626075118780136,0.25276121497154236
1772534517148213500,9.528213623046875,-0.4196631908416748,0.03675861284136772,0.20614317059516907
1772534517158229500,9.5382294921875,-0.4205217957496643,0.04885601997375488,0.10534333437681198
1772534517168246500,9.54824658203125,-0.43324095010757446,0.05716119706630707,-0.039077289402484894
1772534517178262500,9.558262451171874,-0.4474515914916992,0.06863729655742645,-0.19807332754135132
1772534517188279600,9.568279541015626,-0.443771094083786,0.058046575635671616,-0.3040129542350769
1772534517198295600,9.578295654296875,-0.3828382194042206,0.08446434140205383,-0.34160107374191284
1772534517208312600,9.5883125,-0.26508501172065735,0.1386842280626297,-0.3122684061527252
1772534517218328600,9.59832861328125,-0.1678905487060547,0.08477971702814102,-0.2222927361726761
1772534517228345600,9.608345703125,-0.0965404212474823,0.01644187606871128,-0.0946168601512909
1772534517238361600,9.618361572265625,-0.027805568650364876,0.0005699687171727419,0.044598549604415894
1772534517248378600,9.628378662109375,0.03454544022679329,-0.0023494474589824677,0.1582387238740921
1772534517258394400,9.638394287109374,0.08429861813783646,0.022566821426153183,0.22676824033260345
1772534517268411600,9.64841162109375,0.14071370661258698,0.08518078178167343,0.24507580697536469
1772534517278427600,9.658427734375,0.1980574131011963,0.13939528167247772,0.21774724125862122
1772534517288444400,9.6684443359375,0.24636076390743256,0.14138971269130707,0.17264048755168915
1772534517298460400,9.67846044921875,0.28165194392204285,0.11882740259170532,0.10841576755046844
1772534517308477700,9.688477783203124,0.30875536799430847,0.11713520437479019,0.044430460780858994
1772534517318493700,9.69849365234375,0.329224169254303,0.12737399339675903,-0.014152958989143372
1772534517328510500,9.708510498046875,0.33101606369018555,0.10605177283287048,-0.06938964128494263
1772534517338526500,9.7185263671875,0.31879374384880066,0.07644807547330856,-0.115068718791008
1772534517348543700,9.728543701171875,0.30432793498039246,0.07860315591096878,-0.14301714301109314
1772534517358559500,9.7385595703125,0.29398927092552185,0.09471821039915085,-0.14343233406543732
1772534517368576500,9.748576416015625,0.28934749960899353,0.11233392357826233,-0.1185455396771431
1772534517378592500,9.758592529296875,0.289500892162323,0.12009251117706299,-0.062276147305965424
1772534517388609500,9.768609619140625,0.2969091236591339,0.14812332391738892,0.027456728741526604
1772534517398625500,9.77862548828125,0.3095008134841919,0.2060907632112503,0.12651433050632477
1772534517408642600,9.788642578125,0.3174361288547516,0.24093587696552277,0.20340313017368317
1772534517418658600,9.798658447265625,0.3283747732639313,0.21234230697155,0.24172547459602356
1772534517428675600,9.808675537109375,0.33295363187789917,0.16919660568237305,0.22829170525074005
1772534517438691600,9.818691650390624,0.32807791233062744,0.13499921560287476,0.17096716165542603
1772534517448708600,9.82870849609375,0.3032771944999695,0.12143126875162125,0.06929577887058258
1772534517458724600,9.838724609375,0.277906596660614,0.12035802006721497,-0.08223249018192291
1772534517468741600,9.84874169921875,0.2520159184932709,0.10498230904340744,-0.24931806325912476
1772534517478757600,9.858757568359374,0.2091193050146103,0.011880333535373211,-0.4013904333114624
1772534517488774700,9.868774658203124,0.15008991956710815,-0.12497875839471817,-0.5011022090911865
1772534517498790400,9.878790283203125,0.10969109833240509,-0.2630431652069092,-0.5525534152984619
1772534517508807700,9.8888076171875,0.09591982513666153,-0.3660380244255066,-0.5599729418754578
1772534517518823700,9.89882373046875,0.10405285656452179,-0.4278201460838318,-0.5255497694015503
1772534517528840400,9.90884033203125,0.13021761178970337,-0.4230160713195801,-0.46284615993499756
1772534517538856400,9.9188564453125,0.16001997888088226,-0.33296048641204834,-0.37768200039863586
1772534517548873500,9.92887353515625,0.19358611106872559,-0.1759684532880783,-0.27395907044410706
1772534517558889700,9.9388896484375,0.2344086468219757,0.040857866406440735,-0.186231330037117
1772534517568906500,9.948906494140624,0.2692616283893585,0.2090579867362976,-0.14751248061656952
1772534517578921700,9.958921630859376,0.3082684278488159,0.2992568612098694,-0.14974340796470642
1772534517588938800,9.968938720703125,0.36477574706077576,0.3525677025318146,-0.1749429851770401
1772534517598954800,9.978954833984375,0.4305321276187897,0.3821072280406952,-0.19387991726398468
1772534517608971500,9.988971435546874,0.4910372495651245,0.3823774755001068,-0.1750732660293579
1772534517618987800,9.99898779296875,0.5352917909622192,0.365134060382843,-0.10444356501102448
1772534517629004800,10.0090048828125,0.5579890608787537,0.34412410855293274,-0.012696344405412674
1772534517639020800,10.019020751953125,0.5655279159545898,0.29265159368515015,0.07067470997571945
1772534517649037600,10.02903759765625,0.5615997314453125,0.18009760975837708,0.10287313163280487
1772534517659053800,10.0390537109375,0.566642701625824,0.07130588591098785,0.0879913866519928
1772534517669070800,10.04907080078125,0.5873503684997559,-0.0008379673818126321,0.05479873716831207
1772534517679086600,10.059086669921875,0.6045160293579102,-0.06684760749340057,0.018286798149347305
1772534517689103600,10.069103515625,0.6132727265357971,-0.1625509262084961,-0.020247932523489
1772534517699119900,10.079119873046874,0.6104815006256104,-0.2666163444519043,-0.03528813272714615
1772534517709136600,10.08913671875,0.5866840481758118,-0.33171334862709045,-0.018304234370589256
1772534517719152600,10.099152587890625,0.5635848641395569,-0.31495675444602966,0.0005906263832002878
1772534517729169700,10.109169677734375,0.5369873046875,-0.2648783326148987,0.008903220295906067
1772534517739186000,10.11918603515625,0.5078150629997253,-0.21216265857219696,-0.011948797851800919
1772534517749202700,10.12920263671875,0.48297157883644104,-0.20428068935871124,-0.05290713906288147
1772534517759218700,10.13921875,0.46751779317855835,-0.21391573548316956,-0.09469879418611526
1772534517769235700,10.149235595703125,0.4533585011959076,-0.17647583782672882,-0.10218528658151627
1772534517779251700,10.159251708984375,0.43857821822166443,-0.10622750222682953,-0.07835212349891663
1772534517789268700,10.169268798828124,0.430532842874527,-0.07725489139556885,-0.03647711127996445
1772534517799284700,10.17928466796875,0.428774893283844,-0.0912223756313324,0.014919500797986984
1772534517809301500,10.189301513671875,0.43437299132347107,-0.13104309141635895,0.048903774470090866
1772534517819317800,10.19931787109375,0.4320504367351532,-0.17544864118099213,0.046909332275390625
1772534517829334800,10.209334716796874,0.4127586781978607,-0.2156682014465332,0.016183292493224144
1772534517839350800,10.219350830078126,0.37756767868995667,-0.2374669760465622,-0.05639823526144028
1772534517849367600,10.229367431640625,0.3357623815536499,-0.24317008256912231,-0.15606556832790375
1772534517859383800,10.2393837890625,0.29931142926216125,-0.2204567790031433,-0.252267986536026
1772534517869400800,10.24940087890625,0.2606443464756012,-0.19982357323169708,-0.3190124034881592
1772534517879416800,10.259416748046876,0.22041836380958557,-0.196671724319458,-0.338335782289505
1772534517889433600,10.26943359375,0.1808924525976181,-0.17302173376083374,-0.31320884823799133
1772534517899449900,10.279449951171875,0.14086434245109558,-0.11568892002105713,-0.263698011636734
1772534517909466600,10.289466552734375,0.09518390893936157,-0.025566698983311653,-0.21934907138347626
1772534517919482600,10.299482666015624,0.05720403790473938,0.06861972063779831,-0.1973702758550644
1772534517929499600,10.309499755859376,0.03797997534275055,0.13695834577083588,-0.17992109060287476
1772534517939515600,10.319515625,0.031942855566740036,0.1624264121055603,-0.16788014769554138
1772534517949532700,10.32953271484375,0.029103538021445274,0.15150190889835358,-0.1649705022573471
1772534517959548700,10.339548583984374,0.03382638841867447,0.14456915855407715,-0.17656190693378448
1772534517969565700,10.349565673828126,0.04171063378453255,0.15393662452697754,-0.1988341212272644
1772534517979581700,10.359581787109375,0.05214596539735794,0.150743767619133,-0.21588101983070374
1772534517989598700,10.3695986328125,0.045844241976737976,0.1319332867860794,-0.21691977977752686
1772534517999614700,10.37961474609375,0.011128074489533901,0.0559500977396965,-0.21164539456367493
1772534518009631700,10.3896318359375,-0.03472578898072243,-0.05463859811425209,-0.19864396750926971
1772534518019647500,10.3996474609375,-0.07526389509439468,-0.16867594420909882,-0.17466886341571808
1772534518029664800,10.409664794921875,-0.11320968717336655,-0.2516792118549347,-0.1395152062177658
1772534518039680800,10.4196806640625,-0.15715637803077698,-0.2703985571861267,-0.08938226848840714
1772534518049697500,10.429697509765624,-0.19302687048912048,-0.24421736598014832,-0.012830520048737526
1772534518059713500,10.439713623046876,-0.2142575979232788,-0.2068638652563095,0.08388616889715195
1772534518069730800,10.449730712890625,-0.21465300023555756,-0.19731177389621735,0.17747053503990173
1772534518079746800,10.459746826171875,-0.19193623960018158,-0.21576055884361267,0.2244580090045929
1772534518089763600,10.469763671875,-0.158835768699646,-0.2268618792295456,0.22213847935199738
1772534518099779600,10.479779541015626,-0.13264119625091553,-0.2193714678287506,0.19169881939888
1772534518109796900,10.489796875,-0.0931793600320816,-0.13570715487003326,0.13312968611717224
1772534518119812600,10.4998125,-0.08135199546813965,0.0028238145168870687,0.050072088837623596
1772534518129829600,10.50982958984375,-0.1494700014591217,0.12909138202667236,-0.035241205245256424
1772534518139845600,10.519845703125,-0.2642269432544708,0.22455105185508728,-0.09055319428443909
1772534518149862700,10.529862548828126,-0.39749234914779663,0.25814089179039,-0.10202396661043167
1772534518159878700,10.539878662109375,-0.5033999085426331,0.22796300053596497,-0.07209695875644684
1772534518169895700,10.549895751953125,-0.5846814513206482,0.13127103447914124,-0.01616697385907173
1772534518179911700,10.55991162109375,-0.6609339118003845,-0.0024598599411547184,0.02548273652791977
1772534518189928700,10.5699287109375,-0.718864917755127,-0.1522316187620163,0.01848454400897026
1772534518199944700,10.57994482421875,-0.7557523846626282,-0.2527686357498169,-0.01557941734790802
1772534518209961700,10.589961669921875,-0.7918767333030701,-0.3087799847126007,-0.060357410460710526
1772534518219977700,10.599977783203125,-0.8391968607902527,-0.3517671227455139,-0.11073695868253708
1772534518229994800,10.609994873046874,-0.9054034352302551,-0.3624962270259857,-0.15853695571422577
1772534518240010800,10.6200107421875,-0.9752438068389893,-0.2775581479072571,-0.21861787140369415
1772534518250027800,10.63002783203125,-1.0448570251464844,-0.06615886092185974,-0.27725711464881897
1772534518260043500,10.64004345703125,-1.1036295890808105,0.20601512491703033,-0.3268590271472931
1772534518270060800,10.650060791015624,-1.1703901290893555,0.45431315898895264,-0.3579018712043762
1772534518280076800,10.660076904296876,-1.1946229934692383,0.6262772083282471,-0.3316226005554199
1772534518290093600,10.670093505859375,-1.1866432428359985,0.7654668092727661,-0.2502996623516083
1772534518300109600,10.680109619140625,-1.1535061597824097,0.8894417881965637,-0.13121986389160156
1772534518310126800,10.690126953125,-1.0964773893356323,0.9738591313362122,-0.005146618466824293
1772534518320142800,10.700142822265626,-1.024420976638794,0.9860126972198486,0.10763426125049591
1772534518330159600,10.71015966796875,-0.951583981513977,0.9213165044784546,0.20657522976398468
1772534518340175600,10.720175537109375,-0.8786711692810059,0.7887251973152161,0.29001179337501526
1772534518350191600,10.730191650390625,-0.8098784685134888,0.6387410759925842,0.36290237307548523
1772534518360208600,10.740208740234374,-0.742179811000824,0.48100122809410095,0.4074014127254486
1772534518370225700,10.7502255859375,-0.6756622791290283,0.32181358337402344,0.41694337129592896
1772534518380241700,10.76024169921875,-0.612626314163208,0.19858752191066742,0.3850916922092438
1772534518390257700,10.770257568359375,-0.5607876777648926,0.1090606153011322,0.3339780271053314
1772534518400274700,10.780274658203124,-0.5187672972679138,0.013577500358223915,0.27483800053596497
1772534518410290700,10.790290771484376,-0.49027588963508606,-0.05789382755756378,0.22207355499267578
1772534518420307700,10.8003076171875,-0.47396138310432434,-0.04423926770687103,0.21576932072639465
1772534518430323700,10.81032373046875,-0.4900934100151062,0.0326102040708065,0.2178400456905365
1772534518440340700,10.8203408203125,-0.5212953090667725,0.13179218769073486,0.19460530579090118
1772534518450356700,10.830356689453126,-0.5359047055244446,0.30058708786964417,0.16521187126636505
1772534518460373800,10.840373779296876,-0.5526314973831177,0.4921876788139343,0.1377144604921341
1772534518470389500,10.850389404296875,-0.5724196434020996,0.6389017701148987,0.10696912556886673
1772534518480406800,10.86040673828125,-0.57060706615448,0.7234153151512146,0.07541972398757935
1772534518490422800,10.8704228515625,-0.5441388487815857,0.7710372805595398,0.030332736670970917
1772534518500439600,10.880439453125,-0.4991053342819214,0.7793692946434021,-0.027205124497413635
1772534518510455600,10.89045556640625,-0.43467977643013,0.7122217416763306,-0.09823182970285416
1772534518520472800,10.900472900390625,-0.3649960458278656,0.808805525302887,-0.044066593050956726
1772534518530488800,10.91048876953125,-0.3866416811943054,0.8273800015449524,0.2232426106929779
1772534518540505600,10.920505615234376,-0.47738462686538696,0.2247529923915863,0.31149762868881226
1772534518550521600,10.930521484375,-0.47771626710891724,-0.32364770770072937,0.33056074380874634
1772534518560539000,10.940538818359375,-0.35658425092697144,-0.46801021695137024,0.30309930443763733
1772534518570554600,10.9505546875,-0.2620890140533447,-0.40121766924858093,0.20344752073287964
1772534518580572000,10.960572021484374,-0.22724448144435883,-0.286635160446167,0.04009881615638733
1772534518590588000,10.970587890625,-0.22798065841197968,-0.12925583124160767,-0.11420931667089462
1772534518600604700,10.980604736328125,-0.2481711506843567,0.023364610970020294,-0.21461129188537598
1772534518610620700,10.99062060546875,-0.26915767788887024,0.05674401670694351,-0.22141925990581512
