time,seconds_elapsed,z,y,x
1772535174126064600,0.050064697265625,-0.999114990234375,-0.0184478759765625,0.0138702392578125
1772535174136080400,0.060080322265625,-0.998809814453125,-0.0186614990234375,0.0135040283203125
1772535174146096400,0.070096435546875,-0.9995574951171875,-0.0174560546875,0.0142059326171875
1772535174156112400,0.0801123046875,-0.9996490478515625,-0.0177001953125,0.012481689453125
1772535174166128600,0.090128662109375,-0.999725341796875,-0.0195465087890625,0.0138397216796875
1772535174176144600,0.10014453125,-0.9991455078125,-0.01812744140625,0.0138702392578125
1772535174186160600,0.11016064453125,-0.99945068359375,-0.0183258056640625,0.0139923095703125
1772535174196176600,0.1201767578125,-0.99847412109375,-0.01849365234375,0.0129852294921875
1772535174206192400,0.1301923828125,-0.998992919921875,-0.0178985595703125,0.0142059326171875
1772535174216210000,0.1402099609375,-0.998687744140625,-0.01812744140625,0.014801025390625
1772535174226226000,0.150225830078125,-0.9990386962890625,-0.0159759521484375,0.0134124755859375
1772535174236242000,0.160241943359375,-1.000396728515625,-0.0165252685546875,0.0142669677734375
1772535174246258000,0.1702578125,-0.9981231689453125,-0.0182952880859375,0.0141448974609375
1772535174256274000,0.18027392578125,-0.9998779296875,-0.0180206298828125,0.0127410888671875
1772535174266290000,0.1902900390625,-0.9994659423828125,-0.01885986328125,0.0142822265625
1772535174276306000,0.200305908203125,-0.9994354248046875,-0.0179901123046875,0.014923095703125
1772535174286322000,0.210322021484375,-1.0003814697265625,-0.017608642578125,0.013763427734375
1772535174296338000,0.220337890625,-0.998565673828125,-0.01849365234375,0.0133209228515625
1772535174306354000,0.23035400390625,-1.0001678466796875,-0.0182647705078125,0.0146026611328125
1772535174316370000,0.240369873046875,-0.999755859375,-0.018524169921875,0.0146942138671875
1772535174326386000,0.250385986328125,-0.9994049072265625,-0.0181732177734375,0.0134735107421875
1772535174336402000,0.26040185546875,-0.99951171875,-0.01800537109375,0.014495849609375
1772535174346418000,0.27041796875,-1.0001220703125,-0.0166473388671875,0.01483154296875
1772535174356434000,0.280433837890625,-0.99884033203125,-0.0186309814453125,0.0144500732421875
1772535174366450000,0.290449951171875,-0.9996795654296875,-0.018890380859375,0.01409912109375
1772535174376466000,0.3004658203125,-1.0004119873046875,-0.018402099609375,0.0152435302734375
1772535174386482000,0.31048193359375,-0.9989013671875,-0.0175628662109375,0.0139007568359375
1772535174396498000,0.320497802734375,-0.997711181640625,-0.0185546875,0.0141754150390625
1772535174406514000,0.330513916015625,-0.9988250732421875,-0.01800537109375,0.0136871337890625
1772535174416530000,0.340530029296875,-0.9992218017578125,-0.01800537109375,0.013336181640625
1772535174426546000,0.3505458984375,-0.998931884765625,-0.0181427001953125,0.0125579833984375
1772535174436563000,0.36056298828125,-0.9997711181640625,-0.0171051025390625,0.014129638671875
1772535174446579000,0.370578857421875,-0.9984130859375,-0.0176239013671875,0.0147857666015625
1772535174456595000,0.380594970703125,-0.9987945556640625,-0.0182037353515625,0.01409912109375
1772535174466611000,0.39061083984375,-0.999664306640625,-0.018310546875,0.0134124755859375
1772535174476627000,0.400626953125,-0.9988861083984375,-0.0179290771484375,0.013092041015625
1772535174486643000,0.410642822265625,-0.99945068359375,-0.0175323486328125,0.0144195556640625
1772535174496658700,0.42065869140625,-0.9990997314453125,-0.0181884765625,0.0137786865234375
1772535174506675000,0.430675048828125,-1.0000152587890625,-0.01788330078125,0.012725830078125
1772535174516691000,0.44069091796875,-0.999267578125,-0.0177154541015625,0.01458740234375
1772535174526707000,0.45070703125,-0.999603271484375,-0.017730712890625,0.014007568359375
1772535174536723000,0.460722900390625,-0.998443603515625,-0.017852783203125,0.0137481689453125
1772535174546739000,0.470739013671875,-0.9990692138671875,-0.01751708984375,0.013580322265625
1772535174556755000,0.4807548828125,-1.0001220703125,-0.017608642578125,0.0129852294921875
1772535174566771000,0.49077099609375,-0.9992828369140625,-0.0182037353515625,0.013702392578125
1772535174576787000,0.500786865234375,-0.998809814453125,-0.0177154541015625,0.0140838623046875
1772535174586803000,0.510802978515625,-1.000762939453125,-0.017852783203125,0.0129241943359375
1772535174596819000,0.52081884765625,-1.000030517578125,-0.017181396484375,0.013336181640625
1772535174606835000,0.5308349609375,-0.9998779296875,-0.01806640625,0.01324462890625
1772535174616851000,0.540850830078125,-0.9992523193359375,-0.0181427001953125,0.0142059326171875
1772535174626867000,0.550866943359375,-0.998046875,-0.0180206298828125,0.0135955810546875
1772535174636883000,0.560883056640625,-1.0002899169921875,-0.018157958984375,0.013580322265625
1772535174646899000,0.57089892578125,-0.99951171875,-0.0184173583984375,0.0133514404296875
1772535174656915000,0.5809150390625,-0.998626708984375,-0.018341064453125,0.0139617919921875
1772535174666932000,0.590931884765625,-1.00048828125,-0.018707275390625,0.01348876953125
1772535174676947700,0.60094775390625,-0.9986114501953125,-0.0189208984375,0.0132598876953125
1772535174686964000,0.6109638671875,-1.000396728515625,-0.0181121826171875,0.0141448974609375
1772535174696980000,0.62097998046875,-0.9998931884765625,-0.0186614990234375,0.0134124755859375
1772535174706996000,0.630995849609375,-1.0005340576171875,-0.0186004638671875,0.0136871337890625
1772535174717012000,0.641011962890625,-0.99981689453125,-0.0190277099609375,0.0134429931640625
1772535174727028000,0.651028076171875,-1.0001983642578125,-0.017303466796875,0.013641357421875
1772535174737044000,0.6610439453125,-1.0000457763671875,-0.0180511474609375,0.014190673828125
1772535174747059700,0.671059814453125,-0.9978790283203125,-0.0175933837890625,0.0134735107421875
1772535174757076000,0.681075927734375,-1.00042724609375,-0.0182037353515625,0.0141143798828125
1772535174767092000,0.691092041015625,-0.9996795654296875,-0.0189056396484375,0.0147552490234375
1772535174777108000,0.70110791015625,-0.9993896484375,-0.0177764892578125,0.0142059326171875
1772535174787124000,0.7111240234375,-0.9980316162109375,-0.0177154541015625,0.01470947265625
1772535174797140000,0.721139892578125,-1.00006103515625,-0.0189666748046875,0.0137786865234375
1772535174807156000,0.731156005859375,-1.0000457763671875,-0.0178985595703125,0.0135498046875
1772535174817171700,0.741171630859375,-0.9999237060546875,-0.0172119140625,0.0142059326171875
1772535174827188000,0.75118798828125,-0.999542236328125,-0.017974853515625,0.0150146484375
1772535174837204000,0.761203857421875,-0.9998779296875,-0.0186614990234375,0.013214111328125
1772535174847220000,0.771219970703125,-0.9990234375,-0.017547607421875,0.01324462890625
1772535174857236000,0.781236083984375,-1.0005340576171875,-0.01849365234375,0.0135040283203125
1772535174867252000,0.791251953125,-0.999603271484375,-0.0181732177734375,0.0133819580078125
1772535174877267700,0.801267822265625,-0.99835205078125,-0.017303466796875,0.0148162841796875
1772535174887285000,0.811284912109375,-0.99859619140625,-0.01739501953125,0.012481689453125
1772535174897301000,0.821301025390625,-0.9993896484375,-0.0169677734375,0.0132293701171875
1772535174907317000,0.83131689453125,-1.0001678466796875,-0.0174407958984375,0.014251708984375
1772535174917333000,0.8413330078125,-0.9991912841796875,-0.0179290771484375,0.0144805908203125
1772535174927348700,0.8513486328125,-0.9998321533203125,-0.0182952880859375,0.0140838623046875
1772535174937364700,0.86136474609375,-0.9995880126953125,-0.018157958984375,0.0143280029296875
1772535174947381000,0.871381103515625,-0.999114990234375,-0.0194549560546875,0.0139617919921875
1772535174957397000,0.88139697265625,-0.9994964599609375,-0.018585205078125,0.013916015625
1772535174967413000,0.8914130859375,-1.001190185546875,-0.01873779296875,0.013824462890625
1772535174977429000,0.901428955078125,-0.9996185302734375,-0.0186614990234375,0.0128173828125
1772535174987445000,0.911445068359375,-1.0007171630859375,-0.0186920166015625,0.0135498046875
1772535174997460700,0.921460693359375,-0.999542236328125,-0.0168914794921875,0.0148773193359375
1772535175007476700,0.931476806640625,-0.99847412109375,-0.017822265625,0.013916015625
1772535175017493000,0.941492919921875,-0.9974822998046875,-0.0174713134765625,0.0145111083984375
1772535175027509000,0.951509033203125,-0.9990997314453125,-0.01922607421875,0.0133514404296875
1772535175037525000,0.96152490234375,-1.0018768310546875,-0.01824951171875,0.0151214599609375
1772535175047541000,0.971541015625,-0.9998779296875,-0.0176849365234375,0.0153656005859375
1772535175057557000,0.981556884765625,-0.9983367919921875,-0.01690673828125,0.01312255859375
1772535175067572700,0.99157275390625,-1.0001373291015625,-0.0181884765625,0.0134735107421875
1772535175077589000,1.001589111328125,-0.9996490478515625,-0.0185394287109375,0.0142364501953125
1772535175087605000,1.01160498046875,-0.999603271484375,-0.0186614990234375,0.0144500732421875
1772535175097621000,1.02162109375,-0.998870849609375,-0.01849365234375,0.013702392578125
1772535175107637000,1.031636962890625,-0.9998779296875,-0.01812744140625,0.0132598876953125
1772535175117653000,1.041653076171875,-1.0004119873046875,-0.017608642578125,0.0134124755859375
1772535175127669800,1.051669677734375,-0.9987945556640625,-0.0172576904296875,0.013275146484375
1772535175137686000,1.06168603515625,-0.999786376953125,-0.0175323486328125,0.0125885009765625
1772535175147702000,1.071701904296875,-0.9992218017578125,-0.01788330078125,0.0139923095703125
1772535175157718000,1.081718017578125,-0.9990997314453125,-0.0183563232421875,0.0134429931640625
1772535175167734000,1.091734130859375,-0.9998626708984375,-0.0178375244140625,0.0141448974609375
1772535175177749800,1.101749755859375,-1.0002288818359375,-0.0182037353515625,0.0142364501953125
1772535175187765800,1.111765869140625,-0.9989776611328125,-0.0181732177734375,0.0139312744140625
1772535175197781800,1.12178173828125,-0.997528076171875,-0.018280029296875,0.01348876953125
1772535175207798000,1.131798095703125,-1.000091552734375,-0.01702880859375,0.014404296875
1772535175217814300,1.141814208984375,-0.9993896484375,-0.017822265625,0.0138702392578125
1772535175227830300,1.151830322265625,-0.998992919921875,-0.0184478759765625,0.0135345458984375
1772535175237846000,1.161845947265625,-0.9996185302734375,-0.0177154541015625,0.013702392578125
1772535175247862000,1.171862060546875,-0.9995574951171875,-0.0176239013671875,0.0128173828125
1772535175257878000,1.1818779296875,-0.9998016357421875,-0.0182342529296875,0.0134735107421875
1772535175267894000,1.19189404296875,-1.0005950927734375,-0.018035888671875,0.014068603515625
1772535175277910300,1.20191015625,-0.99859619140625,-0.0180816650390625,0.0135650634765625
1772535175287926300,1.21192626953125,-0.9984588623046875,-0.0168304443359375,0.013397216796875
1772535175297942300,1.2219423828125,-0.9996490478515625,-0.017791748046875,0.014251708984375
1772535175307958000,1.2319580078125,-1.0000152587890625,-0.01824951171875,0.01312255859375
1772535175317974000,1.24197412109375,-1.000244140625,-0.018157958984375,0.013031005859375
1772535175327990000,1.251989990234375,-0.9990386962890625,-0.019195556640625,0.0137176513671875
1772535175338006000,1.262006103515625,-0.9995269775390625,-0.0186614990234375,0.0137786865234375
1772535175348023300,1.272023193359375,-0.999908447265625,-0.018768310546875,0.0144500732421875
1772535175358039000,1.2820390625,-0.9996337890625,-0.017974853515625,0.0128326416015625
1772535175368055000,1.292054931640625,-0.999725341796875,-0.0182952880859375,0.014434814453125
1772535175378071000,1.302071044921875,-0.99835205078125,-0.0174713134765625,0.0142822265625
1772535175388087000,1.312087158203125,-0.9979400634765625,-0.017669677734375,0.012969970703125
1772535175398103300,1.322103271484375,-1.000885009765625,-0.0179901123046875,0.0136260986328125
1772535175408119300,1.332119384765625,-0.999114990234375,-0.017669677734375,0.0151824951171875
1772535175418135000,1.342135009765625,-0.9990234375,-0.0182647705078125,0.013580322265625
1772535175428151000,1.352151123046875,-0.999298095703125,-0.01873779296875,0.0130615234375
1772535175438167000,1.3621669921875,-0.9983062744140625,-0.017730712890625,0.01263427734375
1772535175448183000,1.37218310546875,-0.9991455078125,-0.01806640625,0.0142364501953125
1772535175458199000,1.382198974609375,-0.998870849609375,-0.0178680419921875,0.01336669921875
1772535175468215300,1.39221533203125,-0.999176025390625,-0.0163116455078125,0.014129638671875
1772535175478231300,1.402231201171875,-0.99908447265625,-0.018096923828125,0.0138702392578125
1772535175488247000,1.4122470703125,-1.0006561279296875,-0.0181121826171875,0.013092041015625
1772535175498263000,1.422262939453125,-0.998809814453125,-0.0178985595703125,0.014404296875
1772535175508279000,1.432279052734375,-0.999053955078125,-0.0175018310546875,0.0137786865234375
1772535175518295000,1.442294921875,-0.999298095703125,-0.018096923828125,0.014312744140625
1772535175528311000,1.45231103515625,-1.000701904296875,-0.017425537109375,0.0139923095703125
1772535175538327300,1.462327392578125,-0.9996490478515625,-0.0182952880859375,0.013336181640625
1772535175548343300,1.47234326171875,-1.000579833984375,-0.0172119140625,0.01409912109375
1772535175558359000,1.482359130859375,-0.9995269775390625,-0.0184783935546875,0.01373291015625
1772535175568375000,1.492375,-1.0000152587890625,-0.0175323486328125,0.01458740234375
1772535175578391000,1.50239111328125,-0.9995880126953125,-0.017669677734375,0.014739990234375
1772535175588408300,1.512408203125,-0.9996795654296875,-0.016693115234375,0.0134124755859375
1772535175598424300,1.52242431640625,-0.9981536865234375,-0.017913818359375,0.014892578125
1772535175608440000,1.532440185546875,-0.99969482421875,-0.018463134765625,0.0142364501953125
1772535175618456000,1.5424560546875,-0.9999847412109375,-0.0177154541015625,0.0133209228515625
1772535175628472000,1.55247216796875,-0.9998779296875,-0.0177459716796875,0.0130157470703125
1772535175638488000,1.562488037109375,-1.00030517578125,-0.018310546875,0.0129852294921875
1772535175648504000,1.572504150390625,-0.99957275390625,-0.018585205078125,0.01361083984375
1772535175658520300,1.582520263671875,-0.9993438720703125,-0.017730712890625,0.01446533203125
1772535175668536000,1.5925361328125,-0.998931884765625,-0.0181427001953125,0.0140228271484375
1772535175678552000,1.602552001953125,-0.9980010986328125,-0.0192413330078125,0.013885498046875
1772535175688568000,1.612568115234375,-0.998809814453125,-0.0190277099609375,0.0144195556640625
1772535175698584000,1.622583984375,-0.9998016357421875,-0.01800537109375,0.0137176513671875
1772535175708600000,1.63260009765625,-1.0005645751953125,-0.0184478759765625,0.012542724609375
1772535175718616000,1.642615966796875,-0.9993133544921875,-0.01806640625,0.0135650634765625
1772535175728632300,1.65263232421875,-0.9990997314453125,-0.0175628662109375,0.0141448974609375
1772535175738648000,1.66264794921875,-0.9996795654296875,-0.0191650390625,0.013519287109375
1772535175748664000,1.6726640625,-0.9997406005859375,-0.0177154541015625,0.013702392578125
1772535175758680000,1.68268017578125,-0.999176025390625,-0.018218994140625,0.01495361328125
1772535175768696000,1.692696044921875,-1.0007171630859375,-0.0181732177734375,0.0133514404296875
1772535175778712000,1.702712158203125,-0.9996337890625,-0.0180511474609375,0.0135345458984375
1772535175788728300,1.712728271484375,-0.9997100830078125,-0.017852783203125,0.0133056640625
1772535175798744300,1.722744384765625,-0.99981689453125,-0.0184783935546875,0.0132293701171875
1772535175808761000,1.732760986328125,-1.000091552734375,-0.0180816650390625,0.0144500732421875
1772535175818777000,1.742777099609375,-0.9995574951171875,-0.01776123046875,0.0143585205078125
1772535175828793000,1.75279296875,-0.9989776611328125,-0.0181121826171875,0.01324462890625
1772535175838809000,1.76280908203125,-0.9988555908203125,-0.0179595947265625,0.0130157470703125
1772535175848825300,1.772825439453125,-0.99969482421875,-0.0187530517578125,0.014617919921875
1772535175858841000,1.782841064453125,-0.999542236328125,-0.018280029296875,0.0138397216796875
1772535175868857000,1.792857177734375,-0.99993896484375,-0.0176849365234375,0.0144500732421875
1772535175878873000,1.802873046875,-0.99957275390625,-0.0184173583984375,0.0134735107421875
1772535175888889000,1.81288916015625,-1.0003509521484375,-0.0186767578125,0.0137786865234375
1772535175898905000,1.822905029296875,-1.000030517578125,-0.0182952880859375,0.0139923095703125
1772535175908921300,1.83292138671875,-0.9998779296875,-0.0171356201171875,0.0144500732421875
1772535175918937000,1.84293701171875,-0.998931884765625,-0.0174102783203125,0.0144805908203125
1772535175928953000,1.852953125,-1.0003509521484375,-0.018096923828125,0.01483154296875
1772535175938969000,1.862968994140625,-0.99847412109375,-0.0174560546875,0.014251708984375
1772535175948985000,1.872985107421875,-0.9996795654296875,-0.018402099609375,0.0137939453125
1772535175959001000,1.8830009765625,-0.998809814453125,-0.019195556640625,0.0133819580078125
1772535175969017000,1.89301708984375,-1.0001983642578125,-0.0171966552734375,0.014129638671875
1772535175979033300,1.903033447265625,-1.00030517578125,-0.0178070068359375,0.0141754150390625
1772535175989049000,1.913049072265625,-0.999359130859375,-0.0187835693359375,0.0139007568359375
1772535175999065000,1.923065185546875,-0.998992919921875,-0.0185089111328125,0.0144805908203125
1772535176009081000,1.9330810546875,-0.9999847412109375,-0.01727294921875,0.0125579833984375
1772535176019097000,1.94309716796875,-0.9998779296875,-0.016998291015625,0.013153076171875
1772535176029113000,1.953113037109375,-0.999755859375,-0.0182037353515625,0.013427734375
1772535176039129000,1.963129150390625,-0.999298095703125,-0.018646240234375,0.0127410888671875
1772535176049146000,1.97314599609375,-0.9981231689453125,-0.0188446044921875,0.0150299072265625
1772535176059162000,1.983162109375,-0.999053955078125,-0.01800537109375,0.01483154296875
1772535176069178000,1.99317822265625,-0.999725341796875,-0.0177154541015625,0.0140533447265625
1772535176079194000,2.003194091796875,-0.9999542236328125,-0.016632080078125,0.0136871337890625
1772535176089210000,2.013210205078125,-0.9985809326171875,-0.0187530517578125,0.012939453125
1772535176099226000,2.02322607421875,-0.9986724853515625,-0.0186004638671875,0.0133209228515625
1772535176109242000,2.0332421875,-0.9997100830078125,-0.01934814453125,0.0146331787109375
1772535176119258000,2.043258056640625,-0.9995574951171875,-0.0181121826171875,0.013763427734375
1772535176129274000,2.053274169921875,-1.000457763671875,-0.0182342529296875,0.013916015625
1772535176139290000,2.0632900390625,-0.9997406005859375,-0.0178985595703125,0.0139923095703125
1772535176149306000,2.07330615234375,-0.9981689453125,-0.01824951171875,0.01373291015625
1772535176159322000,2.083322021484375,-0.9995574951171875,-0.0169525146484375,0.0146942138671875
1772535176169338000,2.093338134765625,-1.0005035400390625,-0.0177001953125,0.0130157470703125
1772535176179354000,2.10335400390625,-0.9995880126953125,-0.0185394287109375,0.0134124755859375
1772535176189370000,2.1133701171875,-0.999053955078125,-0.0179901123046875,0.0131378173828125
1772535176199386000,2.12338623046875,-0.9988555908203125,-0.0179443359375,0.0122222900390625
1772535176209402000,2.133402099609375,-0.9998931884765625,-0.0176239013671875,0.014190673828125
1772535176219418400,2.14341845703125,-0.9989166259765625,-0.0174407958984375,0.0133819580078125
1772535176229434400,2.153434326171875,-0.999481201171875,-0.0183258056640625,0.014739990234375
1772535176239450000,2.1634501953125,-0.9992828369140625,-0.0172119140625,0.0132293701171875
1772535176249466000,2.173466064453125,-0.999603271484375,-0.0191192626953125,0.0126800537109375
1772535176259483400,2.1834833984375,-0.9996185302734375,-0.018218994140625,0.0133056640625
1772535176269499400,2.19349951171875,-0.999420166015625,-0.0177001953125,0.012115478515625
1772535176279515400,2.203515380859375,-0.999481201171875,-0.0174102783203125,0.0142059326171875
1772535176289531100,2.21353125,-0.9992218017578125,-0.0187835693359375,0.014617919921875
1772535176299547100,2.223547119140625,-0.9995269775390625,-0.018890380859375,0.0133819580078125
1772535176309563100,2.233563232421875,-1.000396728515625,-0.0179290771484375,0.0145416259765625
1772535176319579400,2.243579345703125,-1.0001373291015625,-0.0186767578125,0.0135650634765625
1772535176329595400,2.253595458984375,-1,-0.0180511474609375,0.0142364501953125
1772535176339611400,2.263611328125,-0.9996185302734375,-0.0181732177734375,0.01416015625
1772535176349627100,2.273627197265625,-0.9997100830078125,-0.017852783203125,0.0140380859375
1772535176359643100,2.28364306640625,-0.999969482421875,-0.018646240234375,0.01324462890625
1772535176369659100,2.2936591796875,-0.999725341796875,-0.0166015625,0.014404296875
1772535176379675100,2.303675048828125,-0.9996337890625,-0.016754150390625,0.013916015625
1772535176389691400,2.31369140625,-0.9994049072265625,-0.01849365234375,0.0141754150390625
1772535176399707400,2.323707275390625,-0.9985198974609375,-0.017333984375,0.01336669921875
1772535176409723400,2.333723388671875,-1.000732421875,-0.018524169921875,0.0140838623046875
1772535176419739100,2.3437392578125,-1.001220703125,-0.0180511474609375,0.0132904052734375
1772535176429755100,2.353755126953125,-0.999908447265625,-0.018798828125,0.01470947265625
1772535176439771100,2.363771240234375,-1.00018310546875,-0.01885986328125,0.0137939453125
1772535176449787100,2.373787109375,-1.0003509521484375,-0.0177764892578125,0.0140838623046875
1772535176459803400,2.383803466796875,-0.9989471435546875,-0.017974853515625,0.01336669921875
1772535176469819400,2.3938193359375,-0.999237060546875,-0.017822265625,0.0134429931640625
1772535176479835400,2.40383544921875,-0.9991607666015625,-0.0178680419921875,0.0138702392578125
1772535176489852200,2.41385205078125,-0.99993896484375,-0.0188140869140625,0.0139312744140625
1772535176499868200,2.4238681640625,-0.9999847412109375,-0.0173187255859375,0.0144805908203125
1772535176509884400,2.433884521484375,-0.9991302490234375,-0.01800537109375,0.014892578125
1772535176519900400,2.443900390625,-1.000823974609375,-0.01788330078125,0.0159454345703125
1772535176529916200,2.453916259765625,-1.00079345703125,-0.0172119140625,0.0132904052734375
1772535176539932200,2.46393212890625,-0.998687744140625,-0.01861572265625,0.013916015625
1772535176549948200,2.4739482421875,-0.998382568359375,-0.017059326171875,0.0143280029296875
1772535176559964200,2.483964111328125,-0.99932861328125,-0.017608642578125,0.013458251953125
1772535176569980200,2.493980224609375,-0.9997100830078125,-0.018218994140625,0.0140380859375
1772535176579996400,2.503996337890625,-0.999420166015625,-0.0178070068359375,0.012969970703125
1772535176590012400,2.514012451171875,-0.9984893798828125,-0.01715087890625,0.013519287109375
1772535176600028200,2.524028076171875,-1.0001983642578125,-0.0179901123046875,0.01348876953125
1772535176610044200,2.534044189453125,-0.9990692138671875,-0.017425537109375,0.012542724609375
1772535176620060200,2.54406005859375,-0.998443603515625,-0.0185394287109375,0.0144805908203125
1772535176630076200,2.554076171875,-0.999969482421875,-0.0181427001953125,0.0146636962890625
1772535176640092200,2.564092041015625,-1.0012969970703125,-0.017822265625,0.01409912109375
1772535176650108400,2.5741083984375,-0.9987945556640625,-0.0189056396484375,0.0138397216796875
1772535176660124400,2.58412451171875,-0.998565673828125,-0.018890380859375,0.013519287109375
1772535176670140200,2.59414013671875,-0.9987640380859375,-0.0192718505859375,0.0151824951171875
1772535176680156200,2.60415625,-0.9997406005859375,-0.01812744140625,0.012847900390625
1772535176690172200,2.614172119140625,-0.999847412109375,-0.01739501953125,0.01409912109375
1772535176700188200,2.624188232421875,-0.9997711181640625,-0.016998291015625,0.013824462890625
1772535176710204400,2.634204345703125,-0.998443603515625,-0.016815185546875,0.0132293701171875
1772535176720221200,2.64422119140625,-0.999969482421875,-0.0179595947265625,0.0138397216796875
1772535176730237200,2.6542373046875,-0.9980316162109375,-0.0183563232421875,0.0137939453125
1772535176740253200,2.664253173828125,-0.9994659423828125,-0.0182952880859375,0.01312255859375
1772535176750269200,2.674269287109375,-0.99951171875,-0.0184783935546875,0.014190673828125
1772535176760285200,2.68428515625,-0.9994964599609375,-0.017852783203125,0.0126495361328125
1772535176770301400,2.694301513671875,-0.9987640380859375,-0.017333984375,0.0137939453125
1772535176780317200,2.704317138671875,-0.999114990234375,-0.018798828125,0.0132598876953125
1772535176790333200,2.714333251953125,-0.9999237060546875,-0.0180511474609375,0.0137786865234375
1772535176800349200,2.72434912109375,-0.9982757568359375,-0.01824951171875,0.014373779296875
1772535176810365200,2.734365234375,-0.999420166015625,-0.0171966552734375,0.01409912109375
1772535176820381200,2.744381103515625,-0.9987335205078125,-0.0165863037109375,0.0138397216796875
1772535176830397400,2.7543974609375,-0.999755859375,-0.0182952880859375,0.0137786865234375
1772535176840413400,2.764413330078125,-0.999237060546875,-0.017333984375,0.014556884765625
1772535176850429200,2.77442919921875,-1.0004730224609375,-0.017974853515625,0.01397705078125
1772535176860445200,2.784445068359375,-1.0009002685546875,-0.0171356201171875,0.0134124755859375
1772535176870461200,2.794461181640625,-1.0010986328125,-0.0172271728515625,0.013580322265625
1772535176880477200,2.804477294921875,-0.9997100830078125,-0.0182342529296875,0.013519287109375
1772535176890493200,2.8144931640625,-1.0003204345703125,-0.01812744140625,0.014190673828125
1772535176900509400,2.824509521484375,-0.9991302490234375,-0.0168914794921875,0.0137481689453125
1772535176910525400,2.834525390625,-0.999664306640625,-0.017852783203125,0.0133209228515625
1772535176920541200,2.844541259765625,-0.9988555908203125,-0.0177001953125,0.0142364501953125
1772535176930557200,2.85455712890625,-0.9977569580078125,-0.01812744140625,0.012603759765625
1772535176940574200,2.86457421875,-0.9999237060546875,-0.0177764892578125,0.0131988525390625
1772535176950590200,2.874590087890625,-0.999053955078125,-0.0174407958984375,0.0131378173828125
1772535176960606500,2.8846064453125,-0.998443603515625,-0.018768310546875,0.0142669677734375
1772535176970622200,2.894622314453125,-1.00091552734375,-0.018341064453125,0.01470947265625
1772535176980638200,2.90463818359375,-0.99920654296875,-0.01806640625,0.0145721435546875
1772535176990654200,2.914654296875,-0.998931884765625,-0.017852783203125,0.0140380859375
1772535177000670200,2.924670166015625,-0.998809814453125,-0.0176849365234375,0.0133209228515625
1772535177010686200,2.934686279296875,-0.99932861328125,-0.0178985595703125,0.01361083984375
1772535177020702500,2.944702392578125,-1.0004730224609375,-0.017333984375,0.01470947265625
1772535177030718200,2.95471826171875,-1.0001373291015625,-0.0187530517578125,0.0134429931640625
1772535177040734200,2.964734130859375,-0.999908447265625,-0.0186004638671875,0.013641357421875
1772535177050750200,2.974750244140625,-1.0000762939453125,-0.0186614990234375,0.0131378173828125
1772535177060766200,2.98476611328125,-1.0001678466796875,-0.01812744140625,0.01470947265625
1772535177070782200,2.9947822265625,-0.998687744140625,-0.01776123046875,0.015167236328125
1772535177080798200,3.004798095703125,-0.9998321533203125,-0.019012451171875,0.013641357421875
1772535177090814500,3.014814453125,-0.9990997314453125,-0.0179901123046875,0.013427734375
1772535177100830200,3.024830322265625,-0.9996337890625,-0.01690673828125,0.0125732421875
1772535177110846200,3.03484619140625,-0.999420166015625,-0.017822265625,0.01324462890625
1772535177120862200,3.0448623046875,-1.0006561279296875,-0.0181121826171875,0.01312255859375
1772535177130878200,3.054878173828125,-0.998382568359375,-0.017242431640625,0.0130767822265625
1772535177140894200,3.064894287109375,-0.9984130859375,-0.0186920166015625,0.0131378173828125
1772535177150911200,3.0749111328125,-0.9996795654296875,-0.0191192626953125,0.0136260986328125
1772535177160927200,3.08492724609375,-0.99945068359375,-0.0176239013671875,0.0128936767578125
1772535177170943200,3.094943115234375,-0.9991455078125,-0.018280029296875,0.0134429931640625
1772535177180959200,3.104959228515625,-0.9991607666015625,-0.0185394287109375,0.0144195556640625
1772535177190975200,3.114975341796875,-0.999969482421875,-0.0190582275390625,0.0133514404296875
1772535177200991200,3.1249912109375,-0.999725341796875,-0.018157958984375,0.013336181640625
1772535177211007200,3.13500732421875,-1.0003814697265625,-0.0181732177734375,0.013153076171875
1772535177221022700,3.145022705078125,-1.000579833984375,-0.0182342529296875,0.014495849609375
1772535177231038500,3.15503857421875,-1.0006561279296875,-0.0182037353515625,0.014068603515625
1772535177241054700,3.1650546875,-0.9993743896484375,-0.01763916015625,0.0144500732421875
1772535177251070700,3.17507080078125,-1.0001678466796875,-0.01739501953125,0.0146331787109375
1772535177261086700,3.185086669921875,-1.000213623046875,-0.0180816650390625,0.0138397216796875
1772535177271102700,3.195102783203125,-1.00018310546875,-0.018463134765625,0.0130615234375
1772535177281118700,3.20511865234375,-0.9985198974609375,-0.0190277099609375,0.013092041015625
1772535177291134700,3.215134765625,-0.9997711181640625,-0.017974853515625,0.0124664306640625
1772535177301150500,3.225150390625,-0.999786376953125,-0.0184326171875,0.0128173828125
1772535177311166700,3.235166748046875,-0.999298095703125,-0.0189056396484375,0.0137786865234375
1772535177321182700,3.2451826171875,-0.999359130859375,-0.0183563232421875,0.0131683349609375
1772535177331198700,3.25519873046875,-0.9993438720703125,-0.01812744140625,0.014068603515625
1772535177341214700,3.265214599609375,-0.9983673095703125,-0.0177459716796875,0.01312255859375
1772535177351230700,3.275230712890625,-0.9991607666015625,-0.018218994140625,0.0145263671875
1772535177361246500,3.28524658203125,-0.99932861328125,-0.01873779296875,0.013916015625
1772535177371263700,3.295263671875,-0.9991912841796875,-0.017822265625,0.0125885009765625
1772535177381279700,3.30527978515625,-0.999420166015625,-0.01806640625,0.014556884765625
1772535177391295700,3.315295654296875,-0.9993896484375,-0.0186004638671875,0.013946533203125
1772535177401311700,3.325311767578125,-0.9987945556640625,-0.017852783203125,0.0151519775390625
1772535177411327500,3.335327392578125,-1.0013580322265625,-0.0182952880859375,0.014404296875
1772535177421343500,3.345343505859375,-0.99957275390625,-0.01806640625,0.01409912109375
1772535177431359700,3.35535986328125,-0.99859619140625,-0.0174713134765625,0.0144500732421875
1772535177441375700,3.365375732421875,-0.9983367919921875,-0.017425537109375,0.0136566162109375
1772535177451391700,3.375391845703125,-0.998809814453125,-0.0180206298828125,0.0150604248046875
1772535177461407700,3.38540771484375,-1.0003204345703125,-0.01800537109375,0.0146942138671875
1772535177471423700,3.395423828125,-1.000030517578125,-0.0178680419921875,0.0138702392578125
1772535177481439500,3.405439453125,-0.999847412109375,-0.016143798828125,0.013763427734375
1772535177491455500,3.41545556640625,-0.999664306640625,-0.017974853515625,0.0132598876953125
1772535177501471700,3.4254716796875,-0.9989776611328125,-0.0187530517578125,0.0141143798828125
1772535177511487700,3.43548779296875,-0.9997711181640625,-0.0181121826171875,0.0125885009765625
1772535177521503700,3.445503662109375,-0.998931884765625,-0.0180816650390625,0.012420654296875
1772535177531519700,3.455519775390625,-0.999267578125,-0.0174560546875,0.0130157470703125
1772535177541535500,3.465535400390625,-0.999237060546875,-0.01715087890625,0.0139312744140625
1772535177551551500,3.475551513671875,-0.9987640380859375,-0.01824951171875,0.0140533447265625
1772535177561567700,3.485567626953125,-0.9987945556640625,-0.0186614990234375,0.0136566162109375
1772535177571583700,3.495583740234375,-0.9990692138671875,-0.0172576904296875,0.0122222900390625
1772535177581599700,3.505599853515625,-0.9996490478515625,-0.0182647705078125,0.0137176513671875
1772535177591616500,3.515616455078125,-0.9990692138671875,-0.0185089111328125,0.0132904052734375
1772535177601632500,3.525632568359375,-0.99981689453125,-0.0167999267578125,0.0121307373046875
1772535177611648500,3.5356484375,-0.999969482421875,-0.017425537109375,0.0139312744140625
1772535177621664800,3.545664794921875,-0.999176025390625,-0.017059326171875,0.0146942138671875
1772535177631680800,3.5556806640625,-0.9986572265625,-0.0178375244140625,0.0133514404296875
1772535177641696800,3.56569677734375,-1.000244140625,-0.0174102783203125,0.013824462890625
1772535177651712800,3.575712646484375,-1.0000457763671875,-0.0180511474609375,0.0133514404296875
1772535177661728500,3.585728515625,-1.0007781982421875,-0.0192718505859375,0.01324462890625
1772535177671744500,3.59574462890625,-1.0001220703125,-0.0178680419921875,0.014739990234375
1772535177681760500,3.605760498046875,-0.9998626708984375,-0.0182037353515625,0.0133056640625
1772535177691776800,3.61577685546875,-1.00042724609375,-0.0194091796875,0.0149078369140625
1772535177701792800,3.625792724609375,-1.000335693359375,-0.017822265625,0.01397705078125
1772535177711808800,3.635808837890625,-0.9987945556640625,-0.017669677734375,0.0143280029296875
1772535177721824800,3.64582470703125,-1.000518798828125,-0.0169677734375,0.014373779296875
1772535177731840500,3.655840576171875,-0.9995574951171875,-0.0170135498046875,0.014862060546875
1772535177741856500,3.6658564453125,-0.9994964599609375,-0.0187530517578125,0.0137939453125
1772535177751872800,3.675872802734375,-1.0002593994140625,-0.01727294921875,0.013885498046875
1772535177761888800,3.685888671875,-0.9993438720703125,-0.019195556640625,0.0143890380859375
1772535177771904800,3.69590478515625,-0.999359130859375,-0.0175628662109375,0.015472412109375
1772535177781920800,3.705920654296875,-1.000244140625,-0.0174102783203125,0.013671875
1772535177791936500,3.7159365234375,-0.99981689453125,-0.0185394287109375,0.01263427734375
1772535177801953500,3.72595361328125,-0.9993438720703125,-0.01873779296875,0.01409912109375
1772535177811969800,3.7359697265625,-0.9999847412109375,-0.0189971923828125,0.013580322265625
1772535177821985800,3.74598583984375,-1.000518798828125,-0.018035888671875,0.0151519775390625
1772535177832001800,3.756001708984375,-0.999237060546875,-0.0174713134765625,0.013763427734375
1772535177842017500,3.766017578125,-0.9992828369140625,-0.017608642578125,0.0132293701171875
1772535177852033500,3.776033447265625,-0.99810791015625,-0.0185546875,0.01324462890625
1772535177862049500,3.786049560546875,-1.0001068115234375,-0.01861572265625,0.01446533203125
1772535177872065800,3.796065673828125,-0.999786376953125,-0.017608642578125,0.013397216796875
1772535177882081800,3.806081787109375,-0.9982147216796875,-0.0178070068359375,0.013885498046875
1772535177892097800,3.816097900390625,-0.9996185302734375,-0.0189361572265625,0.0149688720703125
1772535177902113800,3.82611376953125,-0.9997100830078125,-0.0181884765625,0.0139312744140625
1772535177912129500,3.836129638671875,-1.00006103515625,-0.0180206298828125,0.013092041015625
1772535177922145500,3.8461455078125,-0.9983978271484375,-0.0161285400390625,0.0146636962890625
1772535177932161500,3.85616162109375,-0.9998626708984375,-0.0183563232421875,0.014129638671875
1772535177942177800,3.866177734375,-0.9997406005859375,-0.0175323486328125,0.014312744140625
1772535177952193800,3.87619384765625,-0.998260498046875,-0.0183258056640625,0.014190673828125
1772535177962209800,3.886209716796875,-0.9990234375,-0.018890380859375,0.0144500732421875
1772535177972225800,3.896225830078125,-0.9998016357421875,-0.0177154541015625,0.014434814453125
1772535177982241500,3.906241455078125,-0.99810791015625,-0.018463134765625,0.0152130126953125
1772535177992257500,3.916257568359375,-1.0005645751953125,-0.0178680419921875,0.0145721435546875
1772535178002273500,3.9262734375,-0.99969482421875,-0.017303466796875,0.0133209228515625
1772535178012289800,3.936289794921875,-1,-0.017669677734375,0.0125274658203125
1772535178022305800,3.946305908203125,-1.000518798828125,-0.0175323486328125,0.0135345458984375
1772535178032322600,3.956322509765625,-0.9981842041015625,-0.01861572265625,0.01458740234375
1772535178042338600,3.966338623046875,-0.9987335205078125,-0.0181427001953125,0.0139617919921875
1772535178052354600,3.9763544921875,-1.000335693359375,-0.017303466796875,0.0135955810546875
1772535178062370800,3.986370849609375,-0.9995880126953125,-0.0197296142578125,0.0133056640625
1772535178072386800,3.99638671875,-0.998321533203125,-0.017974853515625,0.0134124755859375
1772535178082402800,4.00640283203125,-1.00006103515625,-0.0179290771484375,0.013641357421875
1772535178092418600,4.01641845703125,-0.9994964599609375,-0.018218994140625,0.01416015625
1772535178102434600,4.0264345703125,-0.9985809326171875,-0.0171051025390625,0.013336181640625
1772535178112450600,4.036450439453125,-0.9996185302734375,-0.0177459716796875,0.013671875
1772535178122466600,4.046466552734375,-0.999237060546875,-0.017974853515625,0.0142059326171875
1772535178132482800,4.05648291015625,-0.9993133544921875,-0.0177764892578125,0.01300048828125
1772535178142498800,4.066498779296875,-0.9987335205078125,-0.0175018310546875,0.0137176513671875
1772535178152514800,4.076514892578125,-0.9983978271484375,-0.0185394287109375,0.0137786865234375
1772535178162530600,4.086530517578125,-0.99993896484375,-0.0168609619140625,0.01434326171875
1772535178172546600,4.096546630859375,-0.9994659423828125,-0.017578125,0.0126190185546875
1772535178182562600,4.1065625,-0.99896240234375,-0.0186767578125,0.0126190185546875
1772535178192578600,4.11657861328125,-0.99908447265625,-0.0175628662109375,0.0137176513671875
1772535178202594800,4.1265947265625,-0.99896240234375,-0.019195556640625,0.01397705078125
1772535178212610800,4.13661083984375,-1.0004119873046875,-0.0178375244140625,0.014190673828125
1772535178222627600,4.146627685546875,-0.9992523193359375,-0.01715087890625,0.013519287109375
1772535178232643600,4.1566435546875,-0.999114990234375,-0.0181121826171875,0.0140228271484375
1772535178242659600,4.16665966796875,-0.999786376953125,-0.0188140869140625,0.0140228271484375
1772535178252676600,4.176676513671875,-0.999908447265625,-0.0179595947265625,0.0132293701171875
1772535178262692600,4.186692626953125,-0.999298095703125,-0.0172119140625,0.013458251953125
1772535178272708600,4.19670849609375,-0.9995269775390625,-0.019744873046875,0.0141754150390625
1772535178282724600,4.206724609375,-0.9996337890625,-0.0183563232421875,0.01373291015625
1772535178292740600,4.21674072265625,-0.9994354248046875,-0.018585205078125,0.0133819580078125
1772535178302756900,4.2267568359375,-0.999176025390625,-0.0178985595703125,0.0143280029296875
1772535178312772900,4.23677294921875,-0.9987945556640625,-0.0187530517578125,0.01470947265625
1772535178322788600,4.24678857421875,-0.999786376953125,-0.01800537109375,0.0142974853515625
1772535178332804600,4.2568046875,-0.9998321533203125,-0.01861572265625,0.0137481689453125
1772535178342820600,4.266820556640625,-0.999420166015625,-0.0177154541015625,0.0137176513671875
1772535178352836600,4.276836669921875,-0.9995574951171875,-0.01824951171875,0.01458740234375
1772535178362852600,4.2868525390625,-1.0011749267578125,-0.0178070068359375,0.0137176513671875
1772535178372868900,4.296868896484375,-1.000030517578125,-0.0178375244140625,0.013427734375
1772535178382884900,4.306884765625,-0.9991607666015625,-0.01922607421875,0.0133056640625
1772535178392900600,4.316900634765625,-0.99896240234375,-0.0170745849609375,0.0130462646484375
1772535178402916600,4.32691650390625,-0.998931884765625,-0.0187225341796875,0.0128021240234375
1772535178412932600,4.3369326171875,-0.999359130859375,-0.0182952880859375,0.013092041015625
1772535178422948600,4.346948486328125,-0.9991607666015625,-0.0182342529296875,0.013519287109375
1772535178432964600,4.356964599609375,-0.99908447265625,-0.0186004638671875,0.0137176513671875
1772535178442980900,4.36698095703125,-0.9989166259765625,-0.0177154541015625,0.01470947265625
1772535178452996600,4.37699658203125,-1.0001983642578125,-0.0180816650390625,0.0141143798828125
1772535178463013600,4.387013671875,-0.9998931884765625,-0.0177764892578125,0.013397216796875
1772535178473029600,4.397029541015625,-1.00067138671875,-0.0179290771484375,0.0136871337890625
1772535178483045600,4.407045654296875,-1.000244140625,-0.01788330078125,0.0139312744140625
1772535178493062000,4.417061767578125,-0.999237060546875,-0.01849365234375,0.0140533447265625
1772535178503077600,4.42707763671875,-0.999664306640625,-0.0184173583984375,0.0132904052734375
1772535178513093600,4.43709375,-0.9996795654296875,-0.018096923828125,0.0145263671875
1772535178523109600,4.447109619140625,-1.000335693359375,-0.018310546875,0.01336669921875
1772535178533125600,4.457125732421875,-0.9990386962890625,-0.0169219970703125,0.0153656005859375
1772535178543141600,4.4671416015625,-0.9996490478515625,-0.0175628662109375,0.012908935546875
1772535178553157600,4.47715771484375,-0.9994049072265625,-0.01800537109375,0.0132293701171875
1772535178563174000,4.487173828125,-0.999603271484375,-0.0166778564453125,0.0131988525390625
1772535178573189600,4.497189697265625,-0.9991455078125,-0.0179901123046875,0.0130157470703125
1772535178583205600,4.50720556640625,-1.0001983642578125,-0.0188751220703125,0.0133056640625
1772535178593221600,4.5172216796875,-0.9996185302734375,-0.0172576904296875,0.0139923095703125
1772535178603237600,4.527237548828125,-0.9986114501953125,-0.0180816650390625,0.0133209228515625
1772535178613253600,4.537253662109375,-0.9989471435546875,-0.0179901123046875,0.0142669677734375
1772535178623269600,4.54726953125,-1.0015869140625,-0.0170745849609375,0.014617919921875
1772535178633286000,4.557285888671875,-0.9978790283203125,-0.0187225341796875,0.0119781494140625
1772535178643301600,4.567301513671875,-0.99884033203125,-0.0169830322265625,0.0132598876953125
1772535178653317600,4.577317626953125,-0.9999847412109375,-0.0182037353515625,0.0135345458984375
1772535178663333600,4.587333740234375,-0.9993743896484375,-0.01739501953125,0.01416015625
1772535178673349600,4.597349609375,-1.0001373291015625,-0.0186920166015625,0.014007568359375
1772535178683366700,4.60736669921875,-0.9992218017578125,-0.01861572265625,0.014617919921875
1772535178693382700,4.617382568359375,-0.999053955078125,-0.0176239013671875,0.01361083984375
1772535178703398700,4.627398681640625,-0.9995574951171875,-0.0177459716796875,0.014404296875
1772535178713414700,4.63741455078125,-0.9998321533203125,-0.01837158203125,0.01239013671875
1772535178723430700,4.6474306640625,-1.0001373291015625,-0.01776123046875,0.0141448974609375
1772535178733446700,4.65744677734375,-0.9992828369140625,-0.018463134765625,0.0152740478515625
1772535178743462700,4.667462646484375,-0.9994354248046875,-0.017578125,0.0140380859375
1772535178753478700,4.677478759765625,-1.0010833740234375,-0.0189208984375,0.0134735107421875
1772535178763494700,4.68749462890625,-0.999267578125,-0.018890380859375,0.0119781494140625
1772535178773510700,4.6975107421875,-0.9980316162109375,-0.0184173583984375,0.01336669921875
1772535178783526700,4.707526611328125,-0.9990234375,-0.0178375244140625,0.0138092041015625
1772535178793542700,4.717542724609375,-0.9995880126953125,-0.0175628662109375,0.0135498046875
1772535178803558700,4.72755859375,-0.9987030029296875,-0.0170440673828125,0.0140533447265625
1772535178813574700,4.73757470703125,-0.999603271484375,-0.0175018310546875,0.013763427734375
1772535178823590700,4.747590576171875,-0.99853515625,-0.0179901123046875,0.013763427734375
1772535178833606700,4.757606689453125,-0.99981689453125,-0.0176239013671875,0.013641357421875
1772535178843622700,4.76762255859375,-0.998687744140625,-0.018035888671875,0.0141754150390625
1772535178853638700,4.777638671875,-0.998138427734375,-0.017181396484375,0.0131988525390625
1772535178863654700,4.787654541015625,-0.998992919921875,-0.0185089111328125,0.013580322265625
1772535178873670700,4.797670654296875,-0.9998779296875,-0.0183868408203125,0.0143585205078125
1772535178883686700,4.807686767578125,-1.0007781982421875,-0.0180206298828125,0.0141754150390625
1772535178893702700,4.81770263671875,-0.99859619140625,-0.01806640625,0.0129852294921875
1772535178903719700,4.8277197265625,-0.9999847412109375,-0.019500732421875,0.0139007568359375
1772535178913735700,4.837735595703125,-0.9999237060546875,-0.0182037353515625,0.0140838623046875
1772535178923751700,4.847751708984375,-0.9988555908203125,-0.0180511474609375,0.014068603515625
1772535178933767700,4.857767578125,-0.99957275390625,-0.0180816650390625,0.0132904052734375
1772535178943783700,4.86778369140625,-1.000091552734375,-0.017578125,0.0125732421875
1772535178953799700,4.877799560546875,-0.9987030029296875,-0.0181732177734375,0.013427734375
1772535178963815700,4.887815673828125,-0.999359130859375,-0.0174102783203125,0.0146636962890625
1772535178973831700,4.897831787109375,-0.9992828369140625,-0.01812744140625,0.0125732421875
1772535178983847700,4.90784765625,-0.998443603515625,-0.0179443359375,0.012847900390625
1772535178993863700,4.91786376953125,-0.9991912841796875,-0.0183563232421875,0.013458251953125
1772535179003879700,4.927879638671875,-1.0007476806640625,-0.018218994140625,0.0128021240234375
1772535179013895700,4.937895751953125,-1.00006103515625,-0.0178985595703125,0.0129852294921875
1772535179023911700,4.94791162109375,-0.998870849609375,-0.017242431640625,0.0139923095703125
1772535179033927700,4.957927734375,-0.9989166259765625,-0.0179595947265625,0.01385498046875
1772535179043943700,4.967943603515625,-1.00054931640625,-0.0176239013671875,0.014312744140625
1772535179053959700,4.977959716796875,-0.9992828369140625,-0.01837158203125,0.0142669677734375
1772535179063975700,4.9879755859375,-0.9990234375,-0.0179443359375,0.014251708984375
1772535179073991700,4.99799169921875,-0.9982452392578125,-0.017852783203125,0.013763427734375
1772535179084007700,5.008007568359375,-0.9998321533203125,-0.0181732177734375,0.0135498046875
1772535179094023700,5.018023681640625,-0.9987335205078125,-0.0184783935546875,0.014129638671875
1772535179104039700,5.028039794921875,-0.999725341796875,-0.0183258056640625,0.013519287109375
1772535179114055700,5.0380556640625,-1,-0.01824951171875,0.0137481689453125
1772535179124072400,5.048072509765625,-1.0003662109375,-0.0182037353515625,0.01422119140625
1772535179134088700,5.058088623046875,-0.9990081787109375,-0.0171966552734375,0.0136260986328125
1772535179144104700,5.068104736328125,-0.9988861083984375,-0.018341064453125,0.0141143798828125
1772535179154120700,5.07812060546875,-0.999664306640625,-0.0191497802734375,0.01287841796875
1772535179164136700,5.08813671875,-1.0001220703125,-0.0186004638671875,0.0147552490234375
1772535179174152700,5.098152587890625,-0.9987945556640625,-0.017669677734375,0.0149383544921875
1772535179184168700,5.108168701171875,-0.999725341796875,-0.01776123046875,0.0142669677734375
1772535179194184700,5.118184814453125,-1.0007781982421875,-0.0174102783203125,0.0146026611328125
1772535179204200700,5.12820068359375,-0.999053955078125,-0.01837158203125,0.0135650634765625
1772535179214216700,5.138216796875,-0.998687744140625,-0.017181396484375,0.0144500732421875
1772535179224232000,5.14823193359375,-0.9996185302734375,-0.0184326171875,0.01507568359375
1772535179234248000,5.158248046875,-0.997161865234375,-0.0174102783203125,0.013580322265625
1772535179244264000,5.168263916015625,-0.9995574951171875,-0.01678466796875,0.0126800537109375
1772535179254280200,5.1782802734375,-0.999298095703125,-0.0172271728515625,0.0146636962890625
1772535179264296000,5.1882958984375,-0.9987030029296875,-0.01837158203125,0.0131378173828125
1772535179274312000,5.19831201171875,-1.0004119873046875,-0.0172271728515625,0.013214111328125
1772535179284328000,5.208327880859375,-0.999359130859375,-0.017822265625,0.0139923095703125
1772535179294344000,5.218343994140625,-0.9983367919921875,-0.0190277099609375,0.014007568359375
1772535179304360000,5.22835986328125,-1.0003814697265625,-0.0185394287109375,0.014556884765625
1772535179314376200,5.238376220703125,-0.99859619140625,-0.01763916015625,0.0140380859375
1772535179324392200,5.24839208984375,-0.99755859375,-0.017547607421875,0.0126800537109375
1772535179334409000,5.258408935546875,-0.998748779296875,-0.0174560546875,0.013519287109375
1772535179344425000,5.268425048828125,-0.9999847412109375,-0.0177001953125,0.0137481689453125
1772535179354441000,5.27844091796875,-0.9990081787109375,-0.0181732177734375,0.013214111328125
1772535179364457000,5.28845703125,-0.9987335205078125,-0.017364501953125,0.01312255859375
1772535179374473200,5.29847314453125,-0.99969482421875,-0.0196075439453125,0.01446533203125
1772535179384489000,5.308489013671875,-0.9998016357421875,-0.0179290771484375,0.013519287109375
1772535179394587100,5.318587158203125,-0.998809814453125,-0.017242431640625,0.012786865234375
1772535179404521000,5.32852099609375,-0.9990081787109375,-0.0182647705078125,0.0139312744140625
1772535179414537000,5.338536865234375,-0.999908447265625,-0.01922607421875,0.0144500732421875
1772535179424553000,5.348552978515625,-0.9991455078125,-0.0190582275390625,0.0139007568359375
1772535179434569200,5.3585693359375,-0.9992828369140625,-0.01812744140625,0.013092041015625
1772535179444585000,5.3685849609375,-0.99871826171875,-0.0170440673828125,0.0140533447265625
1772535179454601000,5.37860107421875,-0.9990692138671875,-0.0168609619140625,0.0144195556640625
1772535179464617000,5.388616943359375,-0.9997406005859375,-0.017730712890625,0.01434326171875
1772535179474633000,5.398633056640625,-0.9995574951171875,-0.0171356201171875,0.0143280029296875
1772535179484649000,5.40864892578125,-0.999908447265625,-0.01763916015625,0.0144805908203125
1772535179494665000,5.4186650390625,-0.999755859375,-0.0187225341796875,0.014404296875
1772535179504681200,5.42868115234375,-1.0002593994140625,-0.0179443359375,0.0126800537109375
1772535179514697000,5.438697021484375,-0.998992919921875,-0.0181884765625,0.013763427734375
1772535179524713000,5.448712890625,-0.9998321533203125,-0.017822265625,0.0152740478515625
1772535179534729000,5.45872900390625,-1.0000457763671875,-0.0186920166015625,0.0138092041015625
1772535179544745000,5.468744873046875,-0.99981689453125,-0.018157958984375,0.0138397216796875
1772535179554761000,5.478760986328125,-0.999359130859375,-0.017608642578125,0.0138397216796875
1772535179564777000,5.48877685546875,-1.000640869140625,-0.0175933837890625,0.0130615234375
1772535179574794000,5.4987939453125,-0.99951171875,-0.018768310546875,0.01483154296875
1772535179584810000,5.50881005859375,-0.9988861083984375,-0.01824951171875,0.0130767822265625
1772535179594826000,5.518825927734375,-0.9994659423828125,-0.018341064453125,0.01300048828125
1772535179604842000,5.528842041015625,-0.999298095703125,-0.0189971923828125,0.013580322265625
1772535179614858000,5.53885791015625,-0.999114990234375,-0.01934814453125,0.013336181640625
1772535179624874200,5.548874267578125,-0.999298095703125,-0.0185394287109375,0.014678955078125
1772535179634890000,5.558889892578125,-0.999267578125,-0.018890380859375,0.01373291015625
1772535179644906000,5.568906005859375,-0.998504638671875,-0.0182342529296875,0.014434814453125
1772535179654922000,5.578921875,-0.9998626708984375,-0.01861572265625,0.0138702392578125
1772535179664938000,5.58893798828125,-0.9982452392578125,-0.0177764892578125,0.0142822265625
1772535179674954000,5.5989541015625,-0.999481201171875,-0.0176544189453125,0.013031005859375
1772535179684970000,5.608969970703125,-1.0001373291015625,-0.0178070068359375,0.01416015625
1772535179694986000,5.618986083984375,-1.000396728515625,-0.01751708984375,0.0141448974609375
1772535179705002000,5.629001953125,-1.0001678466796875,-0.019439697265625,0.0128021240234375
1772535179715018000,5.63901806640625,-0.9981689453125,-0.0184173583984375,0.013427734375
1772535179725034000,5.649033935546875,-0.9989013671875,-0.017608642578125,0.0140533447265625
1772535179735050000,5.659050048828125,-0.999755859375,-0.0178375244140625,0.0133819580078125
1772535179745066000,5.66906591796875,-0.9990234375,-0.017822265625,0.0145416259765625
1772535179755082000,5.67908203125,-0.9996795654296875,-0.0191497802734375,0.014923095703125
1772535179765098000,5.689097900390625,-0.9994964599609375,-0.018463134765625,0.0137176513671875
1772535179775114000,5.699114013671875,-0.9989166259765625,-0.0185546875,0.01373291015625
1772535179785130000,5.7091298828125,-1.0002288818359375,-0.0177459716796875,0.0144500732421875
1772535179795147000,5.71914697265625,-0.9990081787109375,-0.0180511474609375,0.014007568359375
1772535179805163000,5.7291630859375,-1.0004425048828125,-0.01751708984375,0.013885498046875
1772535179815179000,5.739178955078125,-0.9997100830078125,-0.016815185546875,0.0140533447265625
1772535179825195000,5.749195068359375,-1.0005950927734375,-0.0173492431640625,0.01397705078125
1772535179835211000,5.7592109375,-0.9991302490234375,-0.0175323486328125,0.013427734375
1772535179845227000,5.76922705078125,-1.0006866455078125,-0.01763916015625,0.01422119140625
1772535179855243000,5.779242919921875,-1,-0.0173797607421875,0.0125885009765625
1772535179865259000,5.789259033203125,-0.9998779296875,-0.0177459716796875,0.013763427734375
1772535179875275000,5.79927490234375,-1.0009765625,-0.017303466796875,0.015228271484375
1772535179885291000,5.809291015625,-1.000274658203125,-0.017486572265625,0.014892578125
1772535179895307000,5.81930712890625,-0.9996185302734375,-0.0186767578125,0.0143890380859375
1772535179905323000,5.829322998046875,-0.99871826171875,-0.0187530517578125,0.014739990234375
1772535179915339000,5.839339111328125,-1.0001678466796875,-0.01751708984375,0.01373291015625
1772535179925355000,5.84935498046875,-0.998626708984375,-0.018463134765625,0.0135955810546875
1772535179935371000,5.85937109375,-0.9999237060546875,-0.017333984375,0.0134429931640625
1772535179945387000,5.869386962890625,-0.9978179931640625,-0.0186004638671875,0.0135650634765625
1772535179955403000,5.879403076171875,-0.99908447265625,-0.018096923828125,0.014068603515625
1772535179965419000,5.8894189453125,-0.9992218017578125,-0.016754150390625,0.0124359130859375
1772535179975435000,5.89943505859375,-0.998931884765625,-0.01666259765625,0.014373779296875
1772535179985451000,5.909450927734375,-0.9997100830078125,-0.0171661376953125,0.0135345458984375
1772535179995467000,5.919467041015625,-0.999298095703125,-0.0170135498046875,0.0130615234375
1772535180005484000,5.929484130859375,-0.9983673095703125,-0.017547607421875,0.0140838623046875
1772535180015500000,5.9395,-0.998626708984375,-0.0179443359375,0.0140380859375
1772535180025516000,5.94951611328125,-1.0000152587890625,-0.017730712890625,0.0138702392578125
1772535180035532000,5.959531982421875,-0.999755859375,-0.0170440673828125,0.0123138427734375
1772535180045548000,5.969548095703125,-0.9987030029296875,-0.0175018310546875,0.013946533203125
1772535180055564000,5.97956396484375,-0.9991302490234375,-0.016845703125,0.01409912109375
1772535180065579800,5.989579833984375,-1.0004119873046875,-0.0166778564453125,0.0137176513671875
1772535180075596000,5.999595947265625,-0.99859619140625,-0.0169830322265625,0.0141754150390625
1772535180085612000,6.009612060546875,-1.0000762939453125,-0.0181732177734375,0.0125579833984375
1772535180095628000,6.0196279296875,-1.0003509521484375,-0.0172271728515625,0.013671875
1772535180105644000,6.02964404296875,-1.000946044921875,-0.01763916015625,0.013580322265625
1772535180115660000,6.039659912109375,-1.000091552734375,-0.018524169921875,0.01300048828125
1772535180125676000,6.049676025390625,-1.0004119873046875,-0.0169830322265625,0.0139007568359375
1772535180135692000,6.059692138671875,-0.99908447265625,-0.0172271728515625,0.01422119140625
1772535180145708000,6.0697080078125,-0.9993743896484375,-0.0167999267578125,0.013671875
1772535180155724000,6.07972412109375,-0.999755859375,-0.0176849365234375,0.0133056640625
1772535180165740000,6.089739990234375,-0.9994354248046875,-0.01824951171875,0.013427734375
1772535180175756000,6.099756103515625,-0.999725341796875,-0.017974853515625,0.0130767822265625
1772535180185772000,6.10977197265625,-1.000640869140625,-0.01727294921875,0.0139312744140625
1772535180195788000,6.1197880859375,-0.9990081787109375,-0.019561767578125,0.0144805908203125
1772535180205804000,6.129803955078125,-0.99951171875,-0.0178680419921875,0.0132904052734375
1772535180215821000,6.139821044921875,-0.9987030029296875,-0.017547607421875,0.0134124755859375
1772535180225836500,6.14983642578125,-0.999114990234375,-0.017120361328125,0.0142669677734375
1772535180235852800,6.159852783203125,-0.998443603515625,-0.0173187255859375,0.0145721435546875
1772535180245868800,6.169868896484375,-1.0001220703125,-0.0186920166015625,0.0148468017578125
1772535180255884500,6.179884521484375,-0.99981689453125,-0.0181732177734375,0.0140838623046875
1772535180265900500,6.189900634765625,-0.99896240234375,-0.01776123046875,0.01513671875
1772535180275916500,6.19991650390625,-0.9994964599609375,-0.0179290771484375,0.0136871337890625
1772535180285932500,6.2099326171875,-0.9995269775390625,-0.018402099609375,0.0142822265625
1772535180295948800,6.21994873046875,-0.9992828369140625,-0.0189056396484375,0.0153656005859375
1772535180305964800,6.22996484375,-1.0001373291015625,-0.0176239013671875,0.013763427734375
1772535180315980800,6.239980712890625,-0.9997406005859375,-0.01751708984375,0.014373779296875
1772535180325996500,6.24999658203125,-0.99896240234375,-0.0173797607421875,0.0143585205078125
1772535180336012500,6.260012451171875,-0.99981689453125,-0.0171051025390625,0.0143890380859375
1772535180346028500,6.270028564453125,-0.999267578125,-0.01788330078125,0.0143280029296875
1772535180356044500,6.28004443359375,-0.9991455078125,-0.0189361572265625,0.0139312744140625
1772535180366060800,6.290060791015625,-1.0005950927734375,-0.017547607421875,0.0137481689453125
1772535180376076800,6.300076904296875,-0.999725341796875,-0.01702880859375,0.01348876953125
1772535180386092500,6.310092529296875,-0.999969482421875,-0.01788330078125,0.0145263671875
1772535180396108500,6.320108642578125,-0.9999847412109375,-0.017852783203125,0.0153961181640625
1772535180406124500,6.33012451171875,-0.9996185302734375,-0.0179290771484375,0.0147857666015625
1772535180416141600,6.3401416015625,-0.9999542236328125,-0.019012451171875,0.0137939453125
1772535180426157800,6.35015771484375,-0.9996490478515625,-0.0172576904296875,0.01263427734375
1772535180436173600,6.360173583984375,-0.9995880126953125,-0.01678466796875,0.0136566162109375
1772535180446189600,6.370189453125,-0.9994354248046875,-0.0185089111328125,0.0140228271484375
1772535180456205600,6.38020556640625,-0.9991912841796875,-0.0196533203125,0.013824462890625
1772535180466221600,6.3902216796875,-0.998931884765625,-0.0189971923828125,0.0138397216796875
1772535180476237600,6.400237548828125,-0.9997711181640625,-0.0170745849609375,0.0129547119140625
1772535180486253800,6.41025390625,-0.9991455078125,-0.0167388916015625,0.0129241943359375
1772535180496269800,6.420269775390625,-0.999847412109375,-0.0164031982421875,0.0139923095703125
1772535180506285600,6.43028564453125,-0.9999847412109375,-0.0177459716796875,0.0155487060546875
1772535180516301600,6.440301513671875,-0.999481201171875,-0.0183563232421875,0.013824462890625
1772535180526317600,6.450317626953125,-0.99969482421875,-0.017608642578125,0.01416015625
1772535180536333600,6.46033349609375,-0.9999542236328125,-0.0184173583984375,0.01275634765625
1772535180546349600,6.470349609375,-0.999603271484375,-0.0178680419921875,0.0139923095703125
1772535180556365800,6.48036572265625,-0.9991912841796875,-0.0183868408203125,0.014892578125
1772535180566381600,6.490381591796875,-1.0001373291015625,-0.0195465087890625,0.0137481689453125
1772535180576397600,6.5003974609375,-1.000152587890625,-0.0181732177734375,0.0134735107421875
1772535180586413600,6.51041357421875,-0.99920654296875,-0.0175628662109375,0.0136566162109375
1772535180596429600,6.5204296875,-0.9987030029296875,-0.0187225341796875,0.0139312744140625
1772535180606445600,6.530445556640625,-1.0012359619140625,-0.017852783203125,0.014892578125
1772535180616461600,6.540461669921875,-0.99810791015625,-0.018341064453125,0.01409912109375
1772535180626478600,6.550478515625,-0.998779296875,-0.01806640625,0.013336181640625
1772535180636494600,6.56049462890625,-0.99951171875,-0.0187225341796875,0.0134735107421875
1772535180646510600,6.570510498046875,-0.998626708984375,-0.01763916015625,0.01361083984375
1772535180656526600,6.580526611328125,-0.99920654296875,-0.018646240234375,0.0133056640625
1772535180666542600,6.59054248046875,-1.0000762939453125,-0.018585205078125,0.0152587890625
1772535180676558800,6.600558837890625,-0.99981689453125,-0.0185394287109375,0.013519287109375
1772535180686574600,6.61057470703125,-1.0003204345703125,-0.018402099609375,0.015167236328125
1772535180696590600,6.620590576171875,-1.0005035400390625,-0.017974853515625,0.0139923095703125
1772535180706606600,6.630606689453125,-0.99957275390625,-0.017730712890625,0.0145721435546875
1772535180716622600,6.64062255859375,-0.9994049072265625,-0.017333984375,0.014251708984375
1772535180726638600,6.650638671875,-0.999114990234375,-0.0189971923828125,0.013275146484375
1772535180736654600,6.660654541015625,-1.00067138671875,-0.0188751220703125,0.0138702392578125
1772535180746670800,6.6706708984375,-1.00030517578125,-0.0181732177734375,0.013885498046875
1772535180756686600,6.6806865234375,-0.999114990234375,-0.0167694091796875,0.01416015625
1772535180766702600,6.69070263671875,-1.0008544921875,-0.0171356201171875,0.014862060546875
1772535180776718600,6.700718505859375,-0.9987335205078125,-0.0179290771484375,0.0134124755859375
1772535180786734600,6.710734619140625,-0.99932861328125,-0.0183563232421875,0.0130157470703125
1772535180796750600,6.72075048828125,-0.9990692138671875,-0.0190582275390625,0.0125274658203125
1772535180806766600,6.7307666015625,-0.999237060546875,-0.0186004638671875,0.015228271484375
1772535180816782600,6.740782470703125,-0.998931884765625,-0.0176849365234375,0.014678955078125
1772535180826799600,6.750799560546875,-0.9998016357421875,-0.017822265625,0.0137481689453125
1772535180836815600,6.760815673828125,-0.99957275390625,-0.0179443359375,0.0130767822265625
1772535180846831600,6.77083154296875,-0.9993133544921875,-0.017913818359375,0.01361083984375
1772535180856847600,6.78084765625,-1.0001678466796875,-0.0184326171875,0.0142974853515625
1772535180866863600,6.790863525390625,-0.99957275390625,-0.01751708984375,0.0142059326171875
1772535180876879600,6.800879638671875,-0.99981689453125,-0.0182952880859375,0.0136566162109375
1772535180886895600,6.8108955078125,-0.99969482421875,-0.0174407958984375,0.014556884765625
1772535180896911600,6.82091162109375,-0.99969482421875,-0.0181884765625,0.0138397216796875
1772535180906927600,6.830927734375,-0.999420166015625,-0.01873779296875,0.0135040283203125
1772535180916943600,6.840943603515625,-0.9997711181640625,-0.017181396484375,0.01348876953125
1772535180926959600,6.850959716796875,-1.0010986328125,-0.0171661376953125,0.013641357421875
1772535180936975600,6.8609755859375,-0.9988555908203125,-0.0186004638671875,0.0141754150390625
1772535180946991600,6.87099169921875,-0.9986114501953125,-0.0181427001953125,0.0136260986328125
1772535180957007600,6.881007568359375,-0.9998016357421875,-0.0171661376953125,0.01446533203125
1772535180967023600,6.891023681640625,-1.0004730224609375,-0.0189208984375,0.0133819580078125
1772535180977039600,6.90103955078125,-1.0002899169921875,-0.01806640625,0.0143890380859375
1772535180987055600,6.9110556640625,-0.999847412109375,-0.0180511474609375,0.014404296875
1772535180997071600,6.921071533203125,-0.9988250732421875,-0.01690673828125,0.0160675048828125
1772535181007087600,6.931087646484375,-0.99932861328125,-0.017852783203125,0.014373779296875
1772535181017104600,6.941104736328125,-1.00054931640625,-0.0182037353515625,0.014495849609375
1772535181027120600,6.95112060546875,-0.998779296875,-0.0174713134765625,0.0130767822265625
1772535181037136600,6.96113671875,-0.9987335205078125,-0.0180206298828125,0.0127410888671875
1772535181047152600,6.971152587890625,-0.99822998046875,-0.0169219970703125,0.014862060546875
1772535181057168600,6.981168701171875,-1,-0.0175933837890625,0.01361083984375
1772535181067184600,6.9911845703125,-0.9977264404296875,-0.01678466796875,0.0145111083984375
1772535181077200600,7.00120068359375,-1.0001068115234375,-0.017669677734375,0.01470947265625
1772535181087216600,7.011216552734375,-0.9987030029296875,-0.0184478759765625,0.01318359375
1772535181097232600,7.021232666015625,-1.0001068115234375,-0.01788330078125,0.013824462890625
1772535181107248600,7.03124853515625,-0.9998321533203125,-0.01898193359375,0.0139923095703125
1772535181117264400,7.041264404296875,-1.00030517578125,-0.0186614990234375,0.013702392578125
1772535181127280600,7.05128076171875,-1.000274658203125,-0.0169830322265625,0.0139617919921875
1772535181137296600,7.061296630859375,-0.99969482421875,-0.018402099609375,0.0143280029296875
1772535181147312600,7.071312744140625,-0.999908447265625,-0.0186614990234375,0.0123748779296875
1772535181157328600,7.08132861328125,-1.000244140625,-0.0183868408203125,0.0136871337890625
1772535181167344600,7.0913447265625,-1.001007080078125,-0.0172119140625,0.0134735107421875
1772535181177360600,7.101360595703125,-0.998443603515625,-0.0172576904296875,0.0128173828125
1772535181187376600,7.111376708984375,-0.9990081787109375,-0.0174713134765625,0.013519287109375
1772535181197392600,7.121392578125,-0.9989013671875,-0.0189361572265625,0.013946533203125
1772535181207408600,7.13140869140625,-0.9996185302734375,-0.01885986328125,0.014068603515625
1772535181217425700,7.14142578125,-0.9989013671875,-0.0181732177734375,0.013458251953125
1772535181227442000,7.15144189453125,-0.999786376953125,-0.0172576904296875,0.013458251953125
1772535181237458200,7.161458251953125,-0.99993896484375,-0.0175323486328125,0.01373291015625
1772535181247474200,7.17147412109375,-0.9989471435546875,-0.01812744140625,0.013671875
1772535181257490200,7.181490234375,-0.998931884765625,-0.017547607421875,0.0119171142578125
1772535181267506200,7.191506103515625,-1.0001068115234375,-0.0177154541015625,0.0139007568359375
1772535181277522200,7.201522216796875,-1.0000762939453125,-0.0185394287109375,0.01416015625
1772535181287538200,7.2115380859375,-0.9997406005859375,-0.0173797607421875,0.0133056640625
1772535181297554000,7.221553955078125,-0.9994964599609375,-0.0164337158203125,0.0123443603515625
1772535181307570200,7.231570068359375,-0.9996490478515625,-0.0171051025390625,0.0143890380859375
1772535181317586200,7.241586181640625,-0.9989776611328125,-0.017669677734375,0.0148773193359375
1772535181327602200,7.251602294921875,-1.0000457763671875,-0.0175018310546875,0.013397216796875
1772535181337618200,7.2616181640625,-0.9993743896484375,-0.0170440673828125,0.013763427734375
1772535181347634200,7.27163427734375,-0.9998626708984375,-0.017913818359375,0.0131378173828125
1772535181357650000,7.28164990234375,-1.000396728515625,-0.018157958984375,0.0138702392578125
1772535181367666200,7.291666259765625,-0.99969482421875,-0.0177764892578125,0.0142822265625
1772535181377682200,7.30168212890625,-0.99957275390625,-0.017578125,0.013153076171875
1772535181387698200,7.3116982421875,-0.998931884765625,-0.018646240234375,0.0142059326171875
1772535181397714200,7.321714111328125,-0.9989471435546875,-0.0188140869140625,0.0140228271484375
1772535181407731000,7.33173095703125,-1.0004730224609375,-0.017730712890625,0.0138397216796875
1772535181417747000,7.341746826171875,-0.9993896484375,-0.0179290771484375,0.0131988525390625
1772535181427763200,7.35176318359375,-0.999725341796875,-0.01812744140625,0.014190673828125
1772535181437779200,7.361779296875,-0.99981689453125,-0.0174407958984375,0.0129241943359375
1772535181447795200,7.371795166015625,-1.0008697509765625,-0.0167083740234375,0.013885498046875
1772535181457811200,7.381811279296875,-0.9998016357421875,-0.01800537109375,0.014129638671875
1772535181467827200,7.3918271484375,-0.9982452392578125,-0.0185394287109375,0.0132904052734375
1772535181477843000,7.401843017578125,-0.9987030029296875,-0.0184173583984375,0.0132904052734375
1772535181487859000,7.41185888671875,-1.0005645751953125,-0.01708984375,0.0135498046875
1772535181497875200,7.421875244140625,-1.000274658203125,-0.01629638671875,0.0136871337890625
1772535181507891200,7.43189111328125,-1.0003204345703125,-0.01788330078125,0.0129547119140625
1772535181517907200,7.4419072265625,-1.0001068115234375,-0.017120361328125,0.01483154296875
1772535181527923200,7.451923095703125,-1.0003662109375,-0.0173187255859375,0.014129638671875
1772535181537939000,7.46193896484375,-0.999420166015625,-0.0184326171875,0.0135650634765625
1772535181547955000,7.471954833984375,-1.00018310546875,-0.017974853515625,0.0145263671875
1772535181557971200,7.48197119140625,-0.999359130859375,-0.0177001953125,0.014068603515625
1772535181567987200,7.4919873046875,-0.9991607666015625,-0.0171356201171875,0.0146484375
1772535181578003200,7.502003173828125,-0.9986114501953125,-0.0174102783203125,0.014373779296875
1772535181588019200,7.512019287109375,-0.9988861083984375,-0.0176544189453125,0.014312744140625
1772535181598035200,7.52203515625,-0.9992523193359375,-0.0177764892578125,0.013641357421875
1772535181608052000,7.532052001953125,-0.9991302490234375,-0.0179595947265625,0.0140838623046875
1772535181618068200,7.542068115234375,-0.998870849609375,-0.0188751220703125,0.0133819580078125
1772535181628084200,7.552084228515625,-0.9997406005859375,-0.0186614990234375,0.0121917724609375
1772535181638100200,7.562100341796875,-0.999725341796875,-0.0188446044921875,0.01361083984375
1772535181648116200,7.5721162109375,-1.0006866455078125,-0.0183868408203125,0.01385498046875
1772535181658132000,7.582132080078125,-0.9991607666015625,-0.0186309814453125,0.0127716064453125
1772535181668148000,7.59214794921875,-0.9990386962890625,-0.0178375244140625,0.0138702392578125
1772535181678164200,7.602164306640625,-1.000732421875,-0.0173797607421875,0.012939453125
1772535181688180200,7.61218017578125,-0.99932861328125,-0.0182342529296875,0.0135498046875
1772535181698196200,7.6221962890625,-0.9992218017578125,-0.0183868408203125,0.0133056640625
1772535181708212200,7.632212158203125,-1.0003509521484375,-0.0187835693359375,0.014434814453125
1772535181718228200,7.642228271484375,-1.0004425048828125,-0.01800537109375,0.01446533203125
1772535181728244000,7.652243896484375,-0.9972381591796875,-0.017669677734375,0.013153076171875
1772535181738260000,7.662260009765625,-0.9991455078125,-0.01776123046875,0.014923095703125
1772535181748276200,7.672276123046875,-1.00115966796875,-0.01812744140625,0.0133056640625
1772535181758292200,7.682292236328125,-0.998382568359375,-0.0187530517578125,0.0127105712890625
1772535181768308200,7.69230810546875,-0.9990081787109375,-0.0174407958984375,0.014404296875
1772535181778324200,7.70232421875,-0.99908447265625,-0.017425537109375,0.0139923095703125
1772535181788340000,7.712340087890625,-0.9994354248046875,-0.018280029296875,0.0135498046875
1772535181798357000,7.72235693359375,-0.99951171875,-0.0175933837890625,0.0140380859375
1772535181808373200,7.732373291015625,-0.998779296875,-0.01788330078125,0.0143585205078125
1772535181818389200,7.74238916015625,-1.000030517578125,-0.0182342529296875,0.013275146484375
1772535181828405200,7.7524052734375,-1.00079345703125,-0.0184326171875,0.01397705078125
1772535181838421000,7.7624208984375,-0.9987335205078125,-0.0176849365234375,0.013885498046875
1772535181848437000,7.77243701171875,-0.999786376953125,-0.01873779296875,0.0150909423828125
1772535181858453000,7.782452880859375,-0.999176025390625,-0.0182037353515625,0.0145263671875
1772535181868469200,7.79246923828125,-0.999359130859375,-0.0181732177734375,0.0140228271484375
1772535181878485200,7.8024853515625,-0.999298095703125,-0.0182037353515625,0.0145721435546875
1772535181888501200,7.812501220703125,-0.99920654296875,-0.018096923828125,0.013458251953125
1772535181898517200,7.822517333984375,-0.9993896484375,-0.0165252685546875,0.0134735107421875
1772535181908533000,7.832532958984375,-0.9984283447265625,-0.0168304443359375,0.0142822265625
1772535181918549000,7.842549072265625,-0.9989776611328125,-0.0192718505859375,0.0135955810546875
1772535181928565000,7.85256494140625,-1.0002899169921875,-0.018218994140625,0.0149993896484375
1772535181938581200,7.862581298828125,-0.9994964599609375,-0.0184783935546875,0.0138397216796875
1772535181948597200,7.87259716796875,-0.99853515625,-0.0189971923828125,0.0134735107421875
1772535181958613200,7.88261328125,-0.9984893798828125,-0.01849365234375,0.0137481689453125
1772535181968629200,7.892629150390625,-1.000457763671875,-0.016876220703125,0.0137176513671875
1772535181978645000,7.90264501953125,-0.9994354248046875,-0.0175323486328125,0.0140533447265625
1772535181988662300,7.912662353515625,-0.9990997314453125,-0.0182037353515625,0.01409912109375
1772535181998678300,7.92267822265625,-0.9994354248046875,-0.017730712890625,0.0131988525390625
1772535182008694300,7.9326943359375,-0.9994659423828125,-0.0182647705078125,0.01287841796875
1772535182018710000,7.9427099609375,-0.9986419677734375,-0.01800537109375,0.0157012939453125
1772535182028726000,7.95272607421875,-0.999237060546875,-0.0183868408203125,0.0137481689453125
1772535182038742000,7.962741943359375,-0.999786376953125,-0.0176849365234375,0.0127105712890625
1772535182048758000,7.972758056640625,-0.9995574951171875,-0.0178070068359375,0.0140228271484375
1772535182058774300,7.982774169921875,-0.9990692138671875,-0.0182037353515625,0.013946533203125
1772535182068790300,7.992790283203125,-0.99884033203125,-0.019256591796875,0.0144195556640625
1772535182078806300,8.00280615234375,-1,-0.017791748046875,0.0136566162109375
1772535182088822000,8.012822021484375,-1.000274658203125,-0.01751708984375,0.013702392578125
1772535182098838000,8.022838134765625,-0.99945068359375,-0.01904296875,0.0136871337890625
1772535182108854000,8.03285400390625,-0.9994354248046875,-0.01812744140625,0.014678955078125
1772535182118870000,8.0428701171875,-0.999847412109375,-0.0175933837890625,0.01416015625
1772535182128886300,8.05288623046875,-0.9993438720703125,-0.01800537109375,0.0142822265625
1772535182138902300,8.06290234375,-0.99871826171875,-0.018829345703125,0.014312744140625
1772535182148918300,8.072918212890626,-0.9994049072265625,-0.018218994140625,0.01348876953125
1772535182158934000,8.08293408203125,-0.9993743896484375,-0.0172271728515625,0.0135498046875
1772535182168951000,8.092950927734375,-0.999053955078125,-0.0166778564453125,0.013397216796875
1772535182178967300,8.10296728515625,-1.000091552734375,-0.01776123046875,0.012725830078125
1772535182188983300,8.1129833984375,-1.0009613037109375,-0.0186767578125,0.01416015625
1772535182198999000,8.1229990234375,-1.000274658203125,-0.017669677734375,0.0146026611328125
1772535182209015000,8.13301513671875,-0.9990997314453125,-0.0177459716796875,0.01422119140625
1772535182219031000,8.143031005859376,-0.9989013671875,-0.0186767578125,0.01458740234375
1772535182229047000,8.153047119140625,-0.999847412109375,-0.018341064453125,0.015228271484375
1772535182239063000,8.16306298828125,-0.9990234375,-0.018157958984375,0.01287841796875
1772535182249079000,8.1730791015625,-1.0010986328125,-0.01849365234375,0.0133819580078125
1772535182259095000,8.183094970703126,-1.0001983642578125,-0.0171661376953125,0.0131683349609375
1772535182269111000,8.193111083984375,-0.9991302490234375,-0.017974853515625,0.01422119140625
1772535182279126800,8.203126708984374,-0.9982452392578125,-0.0185089111328125,0.013946533203125
1772535182289143000,8.21314306640625,-0.9996795654296875,-0.0171661376953125,0.014404296875
1772535182299159000,8.223158935546875,-0.99957275390625,-0.01788330078125,0.0135955810546875
1772535182309175000,8.233175048828125,-1.0003509521484375,-0.0174102783203125,0.0144195556640625
1772535182319191000,8.24319091796875,-0.9998016357421875,-0.0177154541015625,0.0136260986328125
1772535182329207000,8.25320703125,-0.99847412109375,-0.0178680419921875,0.0130767822265625
1772535182339222800,8.263222900390625,-1.000457763671875,-0.0172882080078125,0.0151519775390625
1772535182349239000,8.273239013671875,-0.9993743896484375,-0.0184326171875,0.013763427734375
1772535182359256000,8.283256103515624,-0.9989166259765625,-0.018798828125,0.0140380859375
1772535182369272000,8.29327197265625,-0.99993896484375,-0.016448974609375,0.013702392578125
1772535182379288000,8.3032880859375,-1.0007171630859375,-0.017669677734375,0.0130462646484375
1772535182389303800,8.3133037109375,-0.99871826171875,-0.0169219970703125,0.01397705078125
1772535182399319800,8.32331982421875,-0.9990997314453125,-0.01812744140625,0.01373291015625
1772535182409336000,8.333336181640625,-1.0005340576171875,-0.0189666748046875,0.0135345458984375
1772535182419352000,8.34335205078125,-1.00048828125,-0.017242431640625,0.01470947265625
1772535182429368000,8.3533681640625,-0.998687744140625,-0.0192108154296875,0.0142364501953125
1772535182439384000,8.363384033203126,-0.9989471435546875,-0.0182647705078125,0.013580322265625
1772535182449400000,8.373400146484375,-1.000030517578125,-0.0171966552734375,0.0141754150390625
1772535182459415800,8.383415771484374,-0.9986572265625,-0.017822265625,0.012298583984375
1772535182469432000,8.39343212890625,-0.9990386962890625,-0.017578125,0.0127716064453125
1772535182479448000,8.403447998046875,-0.999908447265625,-0.01873779296875,0.013336181640625
1772535182489464000,8.413464111328125,-0.9999237060546875,-0.0184173583984375,0.013214111328125
1772535182499480000,8.42347998046875,-1.0001373291015625,-0.0180206298828125,0.0142364501953125
1772535182509496000,8.43349609375,-1.0000152587890625,-0.0177154541015625,0.013885498046875
1772535182519512000,8.443511962890625,-0.9998321533203125,-0.0177154541015625,0.01458740234375
1772535182529527800,8.45352783203125,-0.999542236328125,-0.0190582275390625,0.0136260986328125
1772535182539545000,8.463545166015624,-0.999908447265625,-0.0169219970703125,0.0137481689453125
1772535182549561000,8.47356103515625,-0.999969482421875,-0.0183258056640625,0.0129547119140625
1772535182559577000,8.4835771484375,-0.9988555908203125,-0.018524169921875,0.0149078369140625
1772535182569592800,8.4935927734375,-0.99847412109375,-0.0178070068359375,0.014801025390625
1772535182579608800,8.50360888671875,-0.999908447265625,-0.018463134765625,0.013580322265625
1772535182589625000,8.513625,-0.99847412109375,-0.0184173583984375,0.0131072998046875
1772535182599641000,8.52364111328125,-0.9981536865234375,-0.019134521484375,0.0136566162109375
1772535182609657000,8.533656982421874,-0.998779296875,-0.0184173583984375,0.012939453125
1772535182619673000,8.543673095703125,-0.999725341796875,-0.0177001953125,0.0136871337890625
1772535182629689000,8.553689208984375,-0.999755859375,-0.0189056396484375,0.01373291015625
1772535182639704800,8.563704833984374,-0.9984588623046875,-0.017547607421875,0.0127105712890625
1772535182649720800,8.573720947265626,-0.9998931884765625,-0.019683837890625,0.0131988525390625
1772535182659737000,8.583737060546875,-0.998870849609375,-0.018951416015625,0.014373779296875
1772535182669753000,8.593753173828125,-0.9992828369140625,-0.0176239013671875,0.0145263671875
1772535182679769000,8.60376904296875,-0.9991607666015625,-0.017547607421875,0.0136260986328125
1772535182689785000,8.61378515625,-0.9994354248046875,-0.0185089111328125,0.013946533203125
1772535182699801000,8.623801025390625,-1.0004425048828125,-0.0180511474609375,0.013427734375
1772535182709816800,8.63381689453125,-1.0004119873046875,-0.0188751220703125,0.013824462890625
1772535182719834000,8.643834228515624,-0.9986724853515625,-0.0172576904296875,0.013885498046875
1772535182729850000,8.65385009765625,-0.9988555908203125,-0.017730712890625,0.013275146484375
1772535182739866000,8.6638662109375,-0.998565673828125,-0.01861572265625,0.0139312744140625
1772535182749881900,8.6738818359375,-0.999053955078125,-0.019012451171875,0.012664794921875
1772535182759897900,8.68389794921875,-0.999420166015625,-0.0172882080078125,0.0132598876953125
1772535182769913900,8.693913818359375,-0.9987030029296875,-0.0178985595703125,0.014373779296875
1772535182779930000,8.70393017578125,-1.000244140625,-0.0185699462890625,0.013763427734375
1772535182789946000,8.713946044921874,-0.99932861328125,-0.0184326171875,0.01361083984375
1772535182799962000,8.723962158203125,-1.000030517578125,-0.0192718505859375,0.01446533203125
1772535182809978000,8.73397802734375,-0.99951171875,-0.0173187255859375,0.013946533203125
1772535182819993900,8.743993896484374,-0.9992828369140625,-0.0174560546875,0.012481689453125
1772535182830009900,8.754009765625,-0.9996795654296875,-0.0186920166015625,0.0139617919921875
1772535182840025900,8.76402587890625,-0.99908447265625,-0.017791748046875,0.01397705078125
1772535182850042000,8.7740419921875,-0.9995574951171875,-0.016998291015625,0.0130462646484375
1772535182860058000,8.78405810546875,-0.9994049072265625,-0.0182342529296875,0.01422119140625
1772535182870074000,8.79407421875,-0.9991912841796875,-0.0170745849609375,0.0133514404296875
1772535182880090000,8.804090087890625,-0.9990692138671875,-0.01763916015625,0.0143890380859375
1772535182890105900,8.81410595703125,-1.0000457763671875,-0.0180816650390625,0.01416015625
1772535182900123100,8.824123046875,-0.9996185302734375,-0.017364501953125,0.0138702392578125
1772535182910139100,8.83413916015625,-0.9989471435546875,-0.0187225341796875,0.01361083984375
1772535182920155100,8.844155029296875,-1.000457763671875,-0.0178680419921875,0.012847900390625
1772535182930171100,8.854171142578124,-1.0001220703125,-0.018707275390625,0.01318359375
1772535182940187000,8.864186767578126,-0.99932861328125,-0.0180206298828125,0.0140533447265625
1772535182950203000,8.874202880859375,-0.9994964599609375,-0.016754150390625,0.014556884765625
1772535182960219000,8.884218994140625,-0.99835205078125,-0.01690673828125,0.0139007568359375
1772535182970235100,8.894235107421874,-1.00067138671875,-0.0177764892578125,0.013763427734375
1772535182980251100,8.904251220703125,-0.9995269775390625,-0.0169830322265625,0.0132904052734375
1772535182990267100,8.91426708984375,-1.0003509521484375,-0.0182037353515625,0.0133514404296875
1772535183000283000,8.924282958984374,-0.99945068359375,-0.0175933837890625,0.012939453125
1772535183010299000,8.934298828125,-0.9994354248046875,-0.01727294921875,0.01446533203125
1772535183020315000,8.94431494140625,-0.999755859375,-0.0175018310546875,0.013916015625
1772535183030331000,8.954330810546875,-1.0001373291015625,-0.01849365234375,0.01348876953125
1772535183040347100,8.96434716796875,-1.000244140625,-0.0183258056640625,0.0134429931640625
1772535183050363100,8.974363037109375,-0.9990234375,-0.017913818359375,0.0135345458984375
1772535183060379100,8.984379150390625,-1.0000762939453125,-0.0171051025390625,0.0145416259765625
1772535183070395000,8.994394775390624,-0.9990081787109375,-0.018035888671875,0.0143890380859375
1772535183080412000,9.004411865234376,-1.0005950927734375,-0.01690673828125,0.0128326416015625
1772535183090428200,9.01442822265625,-0.9990234375,-0.017669677734375,0.0135650634765625
1772535183100444200,9.024444091796875,-0.9991455078125,-0.0177001953125,0.012847900390625
1772535183110460200,9.034460205078124,-1.0001373291015625,-0.01629638671875,0.014251708984375
1772535183120476000,9.044475830078126,-0.9994049072265625,-0.01806640625,0.014373779296875
1772535183130492000,9.054491943359375,-1,-0.01837158203125,0.0126800537109375
1772535183140508000,9.0645078125,-0.9987945556640625,-0.0172271728515625,0.01409912109375
1772535183150524000,9.07452392578125,-0.9991607666015625,-0.0181884765625,0.01361083984375
1772535183160540200,9.0845400390625,-0.9995880126953125,-0.01837158203125,0.0133819580078125
1772535183170556200,9.09455615234375,-0.9983062744140625,-0.0164031982421875,0.0137176513671875
1772535183180572200,9.104572265625,-0.998931884765625,-0.017730712890625,0.01318359375
1772535183190588000,9.114587890625,-0.999969482421875,-0.0185546875,0.013458251953125
1772535183200604000,9.12460400390625,-1.0001373291015625,-0.01861572265625,0.0134735107421875
1772535183210620000,9.134619873046875,-0.999267578125,-0.0185699462890625,0.01385498046875
1772535183220636000,9.144635986328124,-1.000274658203125,-0.017669677734375,0.0141143798828125
1772535183230652200,9.154652099609375,-0.9982757568359375,-0.01715087890625,0.0158843994140625
1772535183240668200,9.164668212890625,-0.9991607666015625,-0.0181121826171875,0.01318359375
1772535183250684000,9.174683837890624,-0.9983673095703125,-0.0186767578125,0.013519287109375
1772535183260701000,9.184700927734376,-0.9992828369140625,-0.018402099609375,0.0145721435546875
1772535183270717000,9.194717041015625,-0.999114990234375,-0.01702880859375,0.014739990234375
1772535183280733200,9.204733154296875,-0.9984130859375,-0.0184478759765625,0.0146484375
1772535183290749200,9.214749267578124,-0.9993896484375,-0.0178070068359375,0.0140838623046875
1772535183300765000,9.224764892578126,-0.999053955078125,-0.0178070068359375,0.013763427734375
1772535183310781000,9.234781005859375,-0.998382568359375,-0.01800537109375,0.0143280029296875
1772535183320797000,9.244796875,-1.0007171630859375,-0.018280029296875,0.013763427734375
1772535183330813000,9.25481298828125,-0.9983978271484375,-0.0175933837890625,0.0132904052734375
1772535183340829000,9.264828857421875,-0.99847412109375,-0.01727294921875,0.01385498046875
1772535183350845200,9.27484521484375,-1.00018310546875,-0.01690673828125,0.013763427734375
1772535183360861200,9.284861083984374,-0.99969482421875,-0.0191802978515625,0.0148162841796875
1772535183370877000,9.294876953125,-0.9996795654296875,-0.0178375244140625,0.0131378173828125
1772535183380893000,9.304892822265625,-0.9990234375,-0.017791748046875,0.012451171875
1772535183390909000,9.314908935546875,-0.9998626708984375,-0.01800537109375,0.013427734375
1772535183401551000,9.325551025390626,-1.0005950927734375,-0.017547607421875,0.01458740234375
1772535183411566800,9.33556689453125,-0.9997406005859375,-0.0171661376953125,0.013702392578125
1772535183421582800,9.345582763671874,-1.0002899169921875,-0.0187530517578125,0.0142822265625
1772535183431598800,9.355598876953126,-0.99871826171875,-0.0188140869140625,0.0135345458984375
1772535183441616100,9.3656162109375,-0.999237060546875,-0.019287109375,0.014923095703125
1772535183451632000,9.375632080078125,-1.0000762939453125,-0.018310546875,0.013458251953125
1772535183461648000,9.38564794921875,-1.000885009765625,-0.0182037353515625,0.0131683349609375
1772535183471663900,9.395663818359376,-0.9982757568359375,-0.017974853515625,0.0135345458984375
1772535183481680000,9.405679931640625,-0.9997711181640625,-0.018463134765625,0.0146484375
1772535183491696000,9.415696044921875,-0.999481201171875,-0.017303466796875,0.0146026611328125
1772535183501712100,9.425712158203124,-0.9992523193359375,-0.0181732177734375,0.0138397216796875
1772535183511728000,9.43572802734375,-0.9998931884765625,-0.0180816650390625,0.0143585205078125
1772535183521744100,9.445744140625,-0.9986419677734375,-0.018341064453125,0.014404296875
1772535183531759900,9.455759765625,-0.9984893798828125,-0.018524169921875,0.013336181640625
1772535183541776000,9.46577587890625,-0.999908447265625,-0.017730712890625,0.0134429931640625
1772535183551791900,9.4757919921875,-1.0008392333984375,-0.0187835693359375,0.015411376953125
1772535183561808100,9.48580810546875,-1.00006103515625,-0.0178070068359375,0.0134429931640625
1772535183571824000,9.49582421875,-0.9991912841796875,-0.0169525146484375,0.014068603515625
1772535183581840100,9.505840087890626,-0.99993896484375,-0.0178375244140625,0.0144500732421875
1772535183591856000,9.515856201171875,-1.0002899169921875,-0.0173797607421875,0.0137939453125
1772535183601872000,9.525871826171874,-1.0006866455078125,-0.01715087890625,0.0141754150390625
1772535183611887900,9.535887939453126,-0.998809814453125,-0.0181427001953125,0.014190673828125
1772535183621904000,9.54590380859375,-0.9993438720703125,-0.01776123046875,0.0130767822265625
1772535183631921200,9.555921142578125,-1.0009002685546875,-0.0186920166015625,0.0130615234375
1772535183641937000,9.56593701171875,-0.9991455078125,-0.01824951171875,0.014556884765625
1772535183651953000,9.575952880859376,-0.9997406005859375,-0.018402099609375,0.0137786865234375
1772535183661969000,9.585968994140625,-1.0006103515625,-0.019561767578125,0.0142974853515625
1772535183671985000,9.59598486328125,-0.998291015625,-0.01806640625,0.013275146484375
1772535183682001200,9.606001220703124,-1.0001678466796875,-0.0183258056640625,0.01397705078125
1772535183692017200,9.61601708984375,-1.0001983642578125,-0.0182342529296875,0.01385498046875
1772535183702033200,9.626033203125,-1.000213623046875,-0.0177001953125,0.0142059326171875
1772535183712049000,9.636048828125,-0.9994354248046875,-0.018035888671875,0.013336181640625
1772535183722065000,9.64606494140625,-0.9987030029296875,-0.01904296875,0.014068603515625
1772535183732081000,9.656080810546875,-1.000274658203125,-0.01873779296875,0.0140838623046875
1772535183742097000,9.666096923828125,-1.0004730224609375,-0.0177764892578125,0.013885498046875
1772535183752113200,9.676113037109374,-0.9993743896484375,-0.018310546875,0.0142669677734375
1772535183762129200,9.686129150390625,-0.9998779296875,-0.0175323486328125,0.0125579833984375
1772535183772145200,9.696145263671875,-0.99853515625,-0.0176849365234375,0.013397216796875
1772535183782161000,9.706160888671874,-0.99981689453125,-0.017364501953125,0.01361083984375
1772535183792177000,9.716177001953126,-0.9997406005859375,-0.017913818359375,0.01422119140625
1772535183802194200,9.726194091796875,-0.999847412109375,-0.018096923828125,0.0138397216796875
1772535183812210200,9.736210205078125,-0.99981689453125,-0.018798828125,0.0139923095703125
1772535183822226000,9.746225830078124,-1.0004119873046875,-0.0176239013671875,0.0136260986328125
1772535183832242000,9.756241943359376,-0.9995269775390625,-0.0193023681640625,0.014495849609375
1772535183842258000,9.7662578125,-1.0002288818359375,-0.018768310546875,0.01361083984375
1772535183852274000,9.77627392578125,-0.9996337890625,-0.017578125,0.014404296875
1772535183862290000,9.7862900390625,-0.999176025390625,-0.018829345703125,0.0137176513671875
1772535183872306200,9.79630615234375,-1.0000457763671875,-0.018951416015625,0.0141754150390625
1772535183882322200,9.806322265625,-0.9995574951171875,-0.017791748046875,0.014007568359375
1772535183892338000,9.816337890625,-0.998260498046875,-0.018829345703125,0.013427734375
1772535183902354000,9.82635400390625,-0.999755859375,-0.0178680419921875,0.0143890380859375
1772535183912370000,9.836369873046875,-0.9990234375,-0.0169677734375,0.0143585205078125
1772535183922386000,9.846385986328125,-1.0007171630859375,-0.0175628662109375,0.0147705078125
1772535183932402000,9.85640185546875,-1.00006103515625,-0.01898193359375,0.0135498046875
1772535183942418200,9.866418212890625,-0.99957275390625,-0.0169219970703125,0.0143280029296875
1772535183952434200,9.87643408203125,-0.9994049072265625,-0.0186614990234375,0.015167236328125
1772535183962450000,9.886449951171874,-0.998504638671875,-0.018402099609375,0.0138702392578125
1772535183972467000,9.896467041015624,-0.999908447265625,-0.01800537109375,0.013824462890625
1772535183982483000,9.90648291015625,-0.9985809326171875,-0.01751708984375,0.0144500732421875
1772535183992499200,9.916499267578125,-0.99957275390625,-0.0180816650390625,0.012939453125
1772535184002515200,9.92651513671875,-1.0001678466796875,-0.0181884765625,0.013671875
1772535184012531000,9.936531005859376,-1.0002288818359375,-0.0183258056640625,0.0139312744140625
1772535184022547000,9.946546875,-0.9992523193359375,-0.0175628662109375,0.0153656005859375
1772535184032563000,9.95656298828125,-0.9990234375,-0.017578125,0.014251708984375
1772535184042579000,9.966578857421876,-0.998809814453125,-0.01751708984375,0.0140228271484375
1772535184052595000,9.976594970703125,-0.998016357421875,-0.017669677734375,0.0135955810546875
1772535184062611200,9.986611083984375,-0.9990234375,-0.017852783203125,0.01422119140625
1772535184072627000,9.996626953125,-1.0002288818359375,-0.017486572265625,0.0129241943359375
1772535184082643000,10.006642822265626,-1.0006103515625,-0.0184478759765625,0.013702392578125
1772535184092659000,10.016658935546875,-0.999420166015625,-0.0183563232421875,0.014312744140625
1772535184102675000,10.026675048828125,-1.0006866455078125,-0.01800537109375,0.0132904052734375
1772535184112691000,10.03669091796875,-0.99896240234375,-0.01812744140625,0.0139617919921875
1772535184122707000,10.04670703125,-1.0004730224609375,-0.018157958984375,0.01287841796875
1772535184132723200,10.05672314453125,-0.9990997314453125,-0.017578125,0.0142669677734375
1772535184142739000,10.066739013671874,-1.0000457763671875,-0.0179290771484375,0.01385498046875
1772535184152756000,10.076755859375,-0.9994659423828125,-0.017974853515625,0.0139007568359375
1772535184162772000,10.08677197265625,-0.999114990234375,-0.017822265625,0.0143890380859375
1772535184172788000,10.0967880859375,-1.0004425048828125,-0.01751708984375,0.0142822265625
1772535184182804200,10.10680419921875,-0.99981689453125,-0.0167999267578125,0.01300048828125
1772535184192820000,10.116820068359376,-0.9989471435546875,-0.0181121826171875,0.01434326171875
1772535184202836000,10.1268359375,-0.997894287109375,-0.0191802978515625,0.0133514404296875
1772535184212852000,10.13685205078125,-0.999237060546875,-0.017608642578125,0.0132293701171875
1772535184222868500,10.146868408203124,-1.000823974609375,-0.0187225341796875,0.0136566162109375
1772535184232884700,10.156884765625,-0.9993133544921875,-0.0180816650390625,0.0147705078125
1772535184242900700,10.166900634765625,-1.0001678466796875,-0.01666259765625,0.0139007568359375
1772535184252916500,10.17691650390625,-0.99957275390625,-0.0184478759765625,0.013336181640625
1772535184262932500,10.186932373046876,-0.999969482421875,-0.0186614990234375,0.0132904052734375
1772535184272948500,10.196948486328125,-0.999908447265625,-0.0173187255859375,0.013641357421875
1772535184282964500,10.206964599609375,-0.9995880126953125,-0.017974853515625,0.0132293701171875
1772535184292980500,10.21698046875,-0.9997406005859375,-0.0182037353515625,0.0131988525390625
1772535184302996700,10.226996826171876,-0.998748779296875,-0.017059326171875,0.0154571533203125
1772535184313012500,10.237012451171875,-0.9993438720703125,-0.01751708984375,0.0142822265625
1772535184323028500,10.247028564453124,-0.998077392578125,-0.0179901123046875,0.0143890380859375
1772535184333045500,10.25704541015625,-0.9995880126953125,-0.0183563232421875,0.014923095703125
1772535184343061500,10.2670615234375,-1.0007476806640625,-0.0177154541015625,0.012603759765625
1772535184353077800,10.277077880859375,-0.9991302490234375,-0.0188751220703125,0.014190673828125
1772535184363093500,10.287093505859374,-0.9998626708984375,-0.0182037353515625,0.013916015625
1772535184373109500,10.297109619140626,-1.0007476806640625,-0.0178680419921875,0.013824462890625
1772535184383125500,10.30712548828125,-0.9992828369140625,-0.018798828125,0.0135498046875
1772535184393141500,10.3171416015625,-0.9994964599609375,-0.017852783203125,0.01422119140625
1772535184403157500,10.327157470703124,-0.9993896484375,-0.018585205078125,0.01507568359375
1772535184413173500,10.337173583984375,-0.9997406005859375,-0.0170135498046875,0.013824462890625
1772535184423189800,10.347189697265625,-1.000396728515625,-0.01678466796875,0.0139007568359375
1772535184433205500,10.35720556640625,-0.9996337890625,-0.019378662109375,0.0145111083984375
1772535184443221500,10.367221435546876,-0.999114990234375,-0.0176849365234375,0.0140380859375
1772535184453237500,10.377237548828125,-0.999420166015625,-0.0174560546875,0.0149688720703125
1772535184463253500,10.38725341796875,-0.9993743896484375,-0.0174102783203125,0.0134124755859375
1772535184473269500,10.39726953125,-0.9993743896484375,-0.018218994140625,0.0133056640625
1772535184483285500,10.407285400390625,-0.9987030029296875,-0.0194854736328125,0.013671875
1772535184493301500,10.417301513671875,-0.999298095703125,-0.0174102783203125,0.0143280029296875
1772535184503317500,10.4273173828125,-1.0001220703125,-0.0179443359375,0.015228271484375
1772535184513334500,10.43733447265625,-0.999786376953125,-0.0180816650390625,0.0146942138671875
1772535184523350500,10.4473505859375,-0.99884033203125,-0.0184326171875,0.0129547119140625
1772535184533366500,10.457366455078125,-0.999298095703125,-0.01837158203125,0.0146942138671875
1772535184543382500,10.467382568359374,-1.00103759765625,-0.0188751220703125,0.0142059326171875
1772535184553398500,10.4773984375,-0.9993133544921875,-0.0180206298828125,0.0145263671875
1772535184563414500,10.48741455078125,-0.9990386962890625,-0.017913818359375,0.0135955810546875
1772535184573430500,10.497430419921875,-0.9993438720703125,-0.017578125,0.013519287109375
1772535184583446500,10.507446533203124,-0.9989776611328125,-0.017608642578125,0.0131378173828125
1772535184593462500,10.517462646484375,-0.9971160888671875,-0.0182952880859375,0.0150146484375
1772535184603478500,10.527478515625,-0.999176025390625,-0.019073486328125,0.01446533203125
1772535184613494500,10.53749462890625,-1.000335693359375,-0.018585205078125,0.0136260986328125
1772535184623510500,10.547510498046876,-0.999053955078125,-0.017333984375,0.014251708984375
1772535184633526500,10.557526611328125,-0.999420166015625,-0.0179290771484375,0.0134124755859375
1772535184643542500,10.56754248046875,-1.000335693359375,-0.018524169921875,0.01446533203125
1772535184653558500,10.57755859375,-1.000213623046875,-0.0188751220703125,0.014678955078125
1772535184663574500,10.587574462890625,-1.0003204345703125,-0.0179290771484375,0.0148162841796875
1772535184673590800,10.5975908203125,-1.00067138671875,-0.017669677734375,0.0151824951171875
1772535184683607600,10.607607666015625,-0.9997406005859375,-0.0183258056640625,0.01287841796875
1772535184693623600,10.61762353515625,-0.9999542236328125,-0.0191497802734375,0.0132598876953125
1772535184703639600,10.6276396484375,-1.001190185546875,-0.0182037353515625,0.0143890380859375
1772535184713655600,10.637655517578125,-1.0004425048828125,-0.0172119140625,0.013427734375
1772535184723671600,10.647671630859374,-0.999603271484375,-0.0185089111328125,0.0134124755859375
1772535184733687600,10.6576875,-0.99853515625,-0.0168914794921875,0.014984130859375
1772535184743703600,10.66770361328125,-0.9990997314453125,-0.0180511474609375,0.014312744140625
1772535184753719600,10.677719482421875,-0.9986724853515625,-0.017486572265625,0.0134735107421875
1772535184763735600,10.687735595703124,-0.9993438720703125,-0.0186614990234375,0.0137939453125
1772535184773751600,10.69775146484375,-1.0005645751953125,-0.018829345703125,0.0136871337890625
1772535184783767600,10.707767578125,-0.998291015625,-0.0183563232421875,0.0129241943359375
1772535184793783600,10.717783447265624,-1.00030517578125,-0.017852783203125,0.013214111328125
1772535184803799600,10.727799560546876,-1.000518798828125,-0.019256591796875,0.0138092041015625
1772535184813815600,10.737815673828125,-1.000091552734375,-0.018585205078125,0.0143890380859375
1772535184823831600,10.74783154296875,-0.999664306640625,-0.0188751220703125,0.0142669677734375
1772535184833847600,10.75784765625,-0.9998016357421875,-0.0182037353515625,0.013824462890625
1772535184843863600,10.767863525390625,-0.999420166015625,-0.0173187255859375,0.0148773193359375
1772535184853879600,10.777879638671875,-0.9988555908203125,-0.0184326171875,0.013397216796875
1772535184863896600,10.787896484375,-1.0010223388671875,-0.018463134765625,0.0134429931640625
1772535184873912600,10.79791259765625,-1.0001373291015625,-0.0171356201171875,0.0139007568359375
1772535184883928600,10.807928466796875,-1.0003204345703125,-0.0185546875,0.013824462890625
