time,seconds_elapsed,z,y,x
1772534318169100000,0.04310009765625,-1.009002685546875,-0.197540283203125,0.10540771484375
1772534318179116000,0.053115966796875,-1.015045166015625,-0.1947021484375,0.09808349609375
1772534318189133000,0.063133056640625,-1.0027618408203125,-0.1819915771484375,0.0813751220703125
1772534318199148800,0.073148681640625,-0.985321044921875,-0.1753997802734375,0.0649566650390625
1772534318209164800,0.083164794921875,-0.9789276123046875,-0.1748809814453125,0.0545196533203125
1772534318219181000,0.09318115234375,-0.97833251953125,-0.1714324951171875,0.0567779541015625
1772534318229198000,0.103197998046875,-0.9815521240234375,-0.1734771728515625,0.0615386962890625
1772534318239213800,0.1132138671875,-0.9857635498046875,-0.1783447265625,0.0636138916015625
1772534318249229800,0.123229736328125,-0.9914093017578125,-0.182342529296875,0.0680389404296875
1772534318259245800,0.133245849609375,-0.99200439453125,-0.178680419921875,0.068389892578125
1772534318269263000,0.14326318359375,-0.98907470703125,-0.179473876953125,0.0703582763671875
1772534318279279000,0.153279052734375,-0.9828338623046875,-0.1810302734375,0.07708740234375
1772534318289294800,0.163294921875,-0.97454833984375,-0.1834716796875,0.0778045654296875
1772534318299310800,0.173310791015625,-0.9654693603515625,-0.1821441650390625,0.073089599609375
1772534318309328000,0.183327880859375,-0.962921142578125,-0.1782379150390625,0.073150634765625
1772534318319344000,0.19334423828125,-0.966461181640625,-0.1768798828125,0.0769500732421875
1772534318329360100,0.203360107421875,-0.9665985107421875,-0.1747589111328125,0.074981689453125
1772534318339375900,0.2133759765625,-0.971405029296875,-0.1776885986328125,0.0748138427734375
1772534318349393000,0.223392822265625,-0.97882080078125,-0.1808624267578125,0.080169677734375
1772534318359409000,0.233408935546875,-0.9832000732421875,-0.1802215576171875,0.082427978515625
1772534318369425200,0.243425048828125,-0.9865264892578125,-0.1761474609375,0.07952880859375
1772534318379441000,0.25344091796875,-0.981231689453125,-0.174560546875,0.081268310546875
1772534318389458200,0.263458251953125,-0.9745330810546875,-0.17926025390625,0.0856170654296875
1772534318399474200,0.27347412109375,-0.9833221435546875,-0.18682861328125,0.094512939453125
1772534318409490200,0.283490234375,-0.9791412353515625,-0.1842803955078125,0.094635009765625
1772534318419507000,0.2935068359375,-0.974517822265625,-0.181304931640625,0.0911102294921875
1772534318429523000,0.30352294921875,-0.97686767578125,-0.1801300048828125,0.087371826171875
1772534318439539000,0.3135390625,-0.9752349853515625,-0.1780242919921875,0.0896453857421875
1772534318449555200,0.32355517578125,-0.97509765625,-0.1806793212890625,0.0901641845703125
1772534318459572000,0.333572021484375,-0.9793548583984375,-0.1836090087890625,0.0891265869140625
1772534318469588000,0.343587890625,-0.979461669921875,-0.1839599609375,0.0914154052734375
1772534318479604000,0.35360400390625,-0.9791107177734375,-0.1857147216796875,0.092010498046875
1772534318489620000,0.363619873046875,-0.9843597412109375,-0.186767578125,0.089111328125
1772534318499637200,0.37363720703125,-0.9885406494140625,-0.177886962890625,0.08563232421875
1772534318509653000,0.383653076171875,-0.9863433837890625,-0.1727752685546875,0.083221435546875
1772534318519669000,0.3936689453125,-0.987335205078125,-0.17999267578125,0.08331298828125
1772534318529685000,0.40368505859375,-0.989105224609375,-0.1829376220703125,0.084747314453125
1772534318539702300,0.413702392578125,-0.989471435546875,-0.1832427978515625,0.0859375
1772534318549718000,0.423718017578125,-0.9864501953125,-0.179901123046875,0.0831756591796875
1772534318559734000,0.433734130859375,-0.9834136962890625,-0.177276611328125,0.079559326171875
1772534318569751000,0.4437509765625,-0.9833984375,-0.177154541015625,0.0782623291015625
1772534318579767000,0.45376708984375,-0.98358154296875,-0.1743621826171875,0.07537841796875
1772534318589783300,0.463783203125,-0.9947357177734375,-0.1728363037109375,0.076324462890625
1772534318599799000,0.473799072265625,-1.0001068115234375,-0.1725921630859375,0.0771942138671875
1772534318609816000,0.483816162109375,-0.9949951171875,-0.1719207763671875,0.0771484375
1772534318619832000,0.49383203125,-0.98126220703125,-0.176300048828125,0.0741119384765625
1772534318629848000,0.50384814453125,-0.97296142578125,-0.176605224609375,0.0688323974609375
1772534318639864000,0.513864013671875,-0.976470947265625,-0.1740570068359375,0.0675506591796875
1772534318649881000,0.523881103515625,-0.9826507568359375,-0.16693115234375,0.069549560546875
1772534318659897000,0.53389697265625,-0.9857940673828125,-0.166046142578125,0.0688018798828125
1772534318669913000,0.5439130859375,-0.9882659912109375,-0.1715850830078125,0.068603515625
1772534318679929000,0.55392919921875,-0.9858245849609375,-0.171783447265625,0.0699462890625
1772534318689946000,0.563946044921875,-0.9858245849609375,-0.1715087890625,0.0743865966796875
1772534318699962000,0.573962158203125,-0.9848785400390625,-0.175048828125,0.0794525146484375
1772534318709978000,0.58397802734375,-0.9792633056640625,-0.1746673583984375,0.0785064697265625
1772534318719994000,0.593994140625,-0.972320556640625,-0.17047119140625,0.07513427734375
1772534318730011000,0.604010986328125,-0.9689483642578125,-0.1701202392578125,0.0755462646484375
1772534318740027100,0.614027099609375,-0.9720306396484375,-0.1687164306640625,0.0745391845703125
1772534318750043100,0.624043212890625,-0.9871673583984375,-0.16705322265625,0.0711212158203125
1772534318760059100,0.63405908203125,-0.994476318359375,-0.1617889404296875,0.0739288330078125
1772534318770076200,0.644076171875,-0.994903564453125,-0.1624755859375,0.07537841796875
1772534318780092000,0.654091796875,-0.990814208984375,-0.1696929931640625,0.0786590576171875
1772534318790108000,0.66410791015625,-0.98468017578125,-0.173431396484375,0.0791778564453125
1772534318800125200,0.674125244140625,-0.9798431396484375,-0.1728973388671875,0.079559326171875
1772534318810141200,0.68414111328125,-0.974884033203125,-0.16961669921875,0.0765838623046875
1772534318820157000,0.694156982421875,-0.968292236328125,-0.16680908203125,0.0756988525390625
1772534318830173000,0.7041728515625,-0.966094970703125,-0.1681365966796875,0.07574462890625
1772534318840190200,0.714190185546875,-0.96868896484375,-0.1670074462890625,0.0765533447265625
1772534318850206200,0.724206298828125,-0.96929931640625,-0.1667633056640625,0.0750579833984375
1772534318860222200,0.73422216796875,-0.9719085693359375,-0.165313720703125,0.0751800537109375
1772534318870238000,0.744238037109375,-0.970184326171875,-0.1692047119140625,0.073577880859375
1772534318880255000,0.7542548828125,-0.97467041015625,-0.1705169677734375,0.0717620849609375
1772534318890271200,0.764271240234375,-0.98162841796875,-0.171783447265625,0.0742340087890625
1772534318900287200,0.774287353515625,-0.991241455078125,-0.171783447265625,0.0775299072265625
1772534318910303200,0.78430322265625,-0.9932861328125,-0.174896240234375,0.0785369873046875
1772534318920320000,0.794320068359375,-0.99530029296875,-0.1766510009765625,0.0795440673828125
1772534318930336000,0.8043359375,-0.9943389892578125,-0.175872802734375,0.0778045654296875
1772534318940352000,0.81435205078125,-0.9950408935546875,-0.1739959716796875,0.0724639892578125
1772534318950368300,0.8243681640625,-0.992767333984375,-0.170166015625,0.06982421875
1772534318960385000,0.834385009765625,-0.9901885986328125,-0.167388916015625,0.0679931640625
1772534318970401000,0.844401123046875,-0.98388671875,-0.1682586669921875,0.0684356689453125
1772534318980417000,0.8544169921875,-0.978271484375,-0.1700897216796875,0.0685882568359375
1772534318990434000,0.86443408203125,-0.977386474609375,-0.1703948974609375,0.0696868896484375
1772534319000450000,0.874449951171875,-0.9861602783203125,-0.17327880859375,0.072113037109375
1772534319010466000,0.884466064453125,-0.9860687255859375,-0.1725921630859375,0.073089599609375
1772534319020482000,0.89448193359375,-0.9836578369140625,-0.1718902587890625,0.0713958740234375
1772534319030499000,0.9044990234375,-0.9796905517578125,-0.174072265625,0.072174072265625
1772534319040515000,0.91451513671875,-0.9787445068359375,-0.1757049560546875,0.0703125
1772534319050531000,0.924531005859375,-0.9784088134765625,-0.1740875244140625,0.0701141357421875
1772534319060547000,0.934547119140625,-0.979888916015625,-0.17376708984375,0.0713043212890625
1772534319070564000,0.944564208984375,-0.986724853515625,-0.1745147705078125,0.06793212890625
1772534319080580000,0.954580078125,-0.98974609375,-0.170501708984375,0.0678863525390625
1772534319090595800,0.964595947265625,-0.99029541015625,-0.167938232421875,0.06561279296875
1772534319100612000,0.974612060546875,-0.9843902587890625,-0.170166015625,0.0646820068359375
1772534319110629000,0.984629150390625,-0.9785003662109375,-0.17193603515625,0.063446044921875
1772534319120645000,0.99464501953125,-0.9771881103515625,-0.1733245849609375,0.062957763671875
1772534319130661000,1.0046611328125,-0.9796142578125,-0.1726531982421875,0.06378173828125
1772534319140676900,1.0146767578125,-0.97735595703125,-0.169952392578125,0.0650482177734375
1772534319150694100,1.024694091796875,-0.9798431396484375,-0.1694793701171875,0.063018798828125
1772534319160710100,1.034710205078125,-0.9898834228515625,-0.168182373046875,0.0643310546875
1772534319170726100,1.04472607421875,-0.9967803955078125,-0.167999267578125,0.06512451171875
1772534319180742100,1.0547421875,-0.998138427734375,-0.1683349609375,0.0659332275390625
1772534319190759200,1.06475927734375,-0.9932403564453125,-0.17169189453125,0.0702362060546875
1772534319200775200,1.074775146484375,-0.98785400390625,-0.17633056640625,0.071807861328125
1772534319210791200,1.084791259765625,-0.98663330078125,-0.1772308349609375,0.072601318359375
1772534319220807200,1.09480712890625,-0.983001708984375,-0.1744842529296875,0.077606201171875
1772534319230824000,1.104823974609375,-0.9756011962890625,-0.174041748046875,0.077911376953125
1772534319240840000,1.11483984375,-0.9642333984375,-0.1745147705078125,0.073211669921875
1772534319250856200,1.124856201171875,-0.9644775390625,-0.1728057861328125,0.068878173828125
1772534319260872200,1.1348720703125,-0.9701690673828125,-0.170562744140625,0.068572998046875
1772534319270889000,1.144888916015625,-0.9782257080078125,-0.1697235107421875,0.0697784423828125
1772534319280905000,1.154905029296875,-0.986846923828125,-0.1705780029296875,0.070831298828125
1772534319290921000,1.1649208984375,-0.996185302734375,-0.1768341064453125,0.0742950439453125
1772534319300938200,1.174938232421875,-0.9956207275390625,-0.1769561767578125,0.0726776123046875
1772534319310954000,1.1849541015625,-0.987823486328125,-0.175079345703125,0.07269287109375
1772534319320970000,1.194969970703125,-0.9784393310546875,-0.1758270263671875,0.070068359375
1772534319330986000,1.204986083984375,-0.9731292724609375,-0.1761932373046875,0.0660247802734375
1772534319341003300,1.215003173828125,-0.9697723388671875,-0.1732025146484375,0.062957763671875
1772534319351019300,1.225019287109375,-0.973052978515625,-0.16729736328125,0.06048583984375
1772534319361035000,1.235034912109375,-0.9758148193359375,-0.167083740234375,0.059600830078125
1772534319371051000,1.245051025390625,-0.98211669921875,-0.1715087890625,0.0603485107421875
1772534319381068000,1.255068115234375,-0.9932861328125,-0.17236328125,0.0644683837890625
1772534319391084500,1.26508447265625,-0.999481201171875,-0.17138671875,0.070068359375
1772534319401100300,1.275100341796875,-1.0015716552734375,-0.173309326171875,0.0772857666015625
1772534319411116300,1.2851162109375,-0.997467041015625,-0.175079345703125,0.0785064697265625
1772534319421133600,1.295133544921875,-0.9859466552734375,-0.1745147705078125,0.0729217529296875
1772534319431149600,1.305149658203125,-0.9840240478515625,-0.17730712890625,0.0732879638671875
1772534319441165600,1.31516552734375,-0.9775390625,-0.173309326171875,0.078338623046875
1772534319451181300,1.325181396484375,-0.97235107421875,-0.1724090576171875,0.0775299072265625
1772534319461198300,1.3351982421875,-0.9719696044921875,-0.1778106689453125,0.07684326171875
1772534319471214600,1.345214599609375,-0.9699859619140625,-0.17742919921875,0.0733489990234375
1772534319481230600,1.355230712890625,-0.97137451171875,-0.175872802734375,0.075531005859375
1772534319491246300,1.365246337890625,-0.9760589599609375,-0.173492431640625,0.0732879638671875
1772534319501263400,1.375263427734375,-0.9736785888671875,-0.172119140625,0.07061767578125
1772534319511279400,1.385279296875,-0.9805908203125,-0.172943115234375,0.0704193115234375
1772534319521295600,1.395295654296875,-0.984130859375,-0.173614501953125,0.07025146484375
1772534319531311600,1.4053115234375,-0.98809814453125,-0.172454833984375,0.0689849853515625
1772534319541328400,1.415328369140625,-0.9840850830078125,-0.1745758056640625,0.068939208984375
1772534319551344400,1.425344482421875,-0.981475830078125,-0.1774139404296875,0.064849853515625
1772534319561360400,1.4353603515625,-0.9818115234375,-0.1770782470703125,0.0616302490234375
1772534319571377400,1.44537744140625,-0.980743408203125,-0.1772918701171875,0.064178466796875
1772534319581393400,1.455393310546875,-0.9873046875,-0.1775054931640625,0.07000732421875
1772534319591409400,1.465409423828125,-0.986419677734375,-0.1778106689453125,0.0720367431640625
1772534319601425400,1.47542529296875,-0.9837188720703125,-0.1772613525390625,0.0717620849609375
1772534319611442700,1.485442626953125,-0.98150634765625,-0.1771392822265625,0.0692901611328125
1772534319621458400,1.49545849609375,-0.9766845703125,-0.17578125,0.066497802734375
1772534319631474400,1.505474365234375,-0.9779205322265625,-0.17559814453125,0.06396484375
1772534319641490400,1.515490478515625,-0.9836883544921875,-0.1765594482421875,0.0664825439453125
1772534319651507500,1.525507568359375,-0.983245849609375,-0.1742401123046875,0.0696258544921875
1772534319661523500,1.5355234375,-0.9745941162109375,-0.1761932373046875,0.072357177734375
1772534319671539500,1.54553955078125,-0.972198486328125,-0.181549072265625,0.07086181640625
1772534319681555500,1.555555419921875,-0.976287841796875,-0.1842803955078125,0.0735931396484375
1772534319691572500,1.565572509765625,-0.9820556640625,-0.1811981201171875,0.07391357421875
1772534319701588500,1.57558837890625,-0.9875335693359375,-0.177215576171875,0.0715789794921875
1772534319711604500,1.5856044921875,-0.9918365478515625,-0.1740570068359375,0.0673065185546875
1772534319721620500,1.595620361328125,-0.9922332763671875,-0.1737823486328125,0.068145751953125
1772534319731637500,1.605637451171875,-0.9912261962890625,-0.1777496337890625,0.0685882568359375
1772534319741653500,1.615653564453125,-0.9892120361328125,-0.182220458984375,0.072509765625
1772534319751669500,1.62566943359375,-0.992828369140625,-0.1816864013671875,0.07421875
1772534319761685200,1.635685302734375,-0.9947967529296875,-0.180877685546875,0.07183837890625
1772534319771702500,1.64570263671875,-0.9843597412109375,-0.1805572509765625,0.0714874267578125
1772534319781718500,1.655718505859375,-0.97283935546875,-0.18316650390625,0.068939208984375
1772534319791734500,1.665734619140625,-0.9693756103515625,-0.1834716796875,0.065521240234375
1772534319801750500,1.67575048828125,-0.971832275390625,-0.181915283203125,0.0680389404296875
1772534319811767300,1.685767333984375,-0.972686767578125,-0.1797943115234375,0.0716705322265625
1772534319821783600,1.695783447265625,-0.9739990234375,-0.181732177734375,0.0725860595703125
1772534319831799600,1.705799560546875,-0.9697113037109375,-0.1816864013671875,0.075103759765625
1772534319841815600,1.715815673828125,-0.9575958251953125,-0.1899871826171875,0.0768890380859375
1772534319851832300,1.725832275390625,-0.96331787109375,-0.189178466796875,0.0695037841796875
1772534319861848300,1.735848388671875,-0.9635467529296875,-0.1847076416015625,0.0720672607421875
1772534319871864600,1.745864501953125,-0.9777069091796875,-0.1811065673828125,0.0728607177734375
1772534319881880600,1.755880615234375,-0.9856414794921875,-0.1802520751953125,0.07513427734375
1772534319891897300,1.7658974609375,-0.9922027587890625,-0.1839599609375,0.077667236328125
1772534319901913300,1.775913330078125,-0.9948883056640625,-0.1886444091796875,0.0789947509765625
1772534319911929300,1.785929443359375,-0.9942779541015625,-0.1895751953125,0.0770111083984375
1772534319921946600,1.795946533203125,-0.98651123046875,-0.1864013671875,0.07257080078125
1772534319931962400,1.80596240234375,-0.9774169921875,-0.1853790283203125,0.0665283203125
1772534319941978400,1.815978271484375,-0.974517822265625,-0.183349609375,0.06207275390625
1772534319951994400,1.825994384765625,-0.9729766845703125,-0.18084716796875,0.0640411376953125
1772534319962011400,1.836011474609375,-0.974212646484375,-0.1822509765625,0.0679779052734375
1772534319972027600,1.846027587890625,-0.9801788330078125,-0.1820831298828125,0.067047119140625
1772534319982043400,1.85604345703125,-0.98504638671875,-0.1827850341796875,0.0685577392578125
1772534319992059400,1.866059326171875,-0.9861297607421875,-0.184661865234375,0.072265625
1772534320002076400,1.876076416015625,-0.9840850830078125,-0.18963623046875,0.0755767822265625
1772534320012092400,1.886092529296875,-0.980438232421875,-0.19134521484375,0.0763397216796875
1772534320022108700,1.896108642578125,-0.97845458984375,-0.1915740966796875,0.0770721435546875
1772534320032124400,1.90612451171875,-0.9912109375,-0.189849853515625,0.076080322265625
1772534320042141400,1.916141357421875,-1.0006866455078125,-0.1847991943359375,0.0777587890625
1772534320052157400,1.926157470703125,-1.0013427734375,-0.18060302734375,0.073883056640625
1772534320062173400,1.93617333984375,-1.0049285888671875,-0.181304931640625,0.0641326904296875
1772534320072189400,1.946189453125,-0.989410400390625,-0.181060791015625,0.062896728515625
1772534320082206500,1.95620654296875,-0.9733428955078125,-0.184417724609375,0.05889892578125
1772534320092222500,1.966222412109375,-0.9648895263671875,-0.18829345703125,0.060791015625
1772534320102238500,1.976238525390625,-0.9580535888671875,-0.1895751953125,0.0694122314453125
1772534320112254500,1.98625439453125,-0.9587249755859375,-0.19049072265625,0.0764312744140625
1772534320122271500,1.996271484375,-0.9642333984375,-0.1901092529296875,0.078582763671875
1772534320132287500,2.00628759765625,-0.96368408203125,-0.1887054443359375,0.0779266357421875
1772534320142303500,2.016303466796875,-0.95703125,-0.1966552734375,0.0759124755859375
1772534320152319500,2.026319580078125,-0.9714508056640625,-0.1970672607421875,0.0764312744140625
1772534320162336300,2.036336181640625,-0.9790191650390625,-0.1917572021484375,0.072967529296875
1772534320172352500,2.0463525390625,-0.9857330322265625,-0.18701171875,0.0608673095703125
1772534320182368500,2.056368408203125,-0.9851837158203125,-0.179168701171875,0.0546417236328125
1772534320192384500,2.066384521484375,-0.9942474365234375,-0.1813507080078125,0.055389404296875
1772534320202401300,2.0764013671875,-1.0158233642578125,-0.189117431640625,0.0648345947265625
1772534320212417300,2.086417236328125,-1.021209716796875,-0.1937255859375,0.0749359130859375
1772534320222433500,2.09643359375,-1.0136871337890625,-0.1999969482421875,0.081939697265625
1772534320232449500,2.106449462890625,-1.0100860595703125,-0.2086639404296875,0.087127685546875
1772534320242466600,2.116466552734375,-1.010650634765625,-0.2101593017578125,0.0885772705078125
1772534320252482300,2.126482421875,-0.990570068359375,-0.209503173828125,0.0709228515625
1772534320262498300,2.136498291015625,-0.9884796142578125,-0.1835479736328125,0.053009033203125
1772534320272514300,2.146514404296875,-0.9674072265625,-0.1808319091796875,0.05059814453125
1772534320282531600,2.156531494140625,-0.9640350341796875,-0.18634033203125,0.0308685302734375
1772534320292547600,2.166547607421875,-0.9727020263671875,-0.204498291015625,0.0264892578125
1772534320302563300,2.176563232421875,-1.016143798828125,-0.201568603515625,0.0427093505859375
1772534320312579300,2.186579345703125,-1.0119781494140625,-0.1990509033203125,0.1012725830078125
1772534320322596600,2.1965966796875,-1.0051422119140625,-0.221160888671875,0.1194305419921875
1772534320332612600,2.206612548828125,-0.9742584228515625,-0.2354888916015625,0.1115875244140625
1772534320342628400,2.21662841796875,-0.965576171875,-0.238006591796875,0.0791778564453125
1772534320352645400,2.226645263671875,-0.9769439697265625,-0.22808837890625,0.063201904296875
1772534320362661400,2.236661376953125,-0.9734954833984375,-0.2167510986328125,0.0698089599609375
1772534320372677600,2.246677734375,-0.964813232421875,-0.2149505615234375,0.0586090087890625
1772534320382693600,2.256693603515625,-0.9459075927734375,-0.2151336669921875,0.0392913818359375
1772534320392709600,2.266709716796875,-0.938018798828125,-0.214599609375,0.0235748291015625
1772534320402725600,2.2767255859375,-0.9181060791015625,-0.2055206298828125,0.017791748046875
1772534320412741600,2.28674169921875,-0.901702880859375,-0.2107696533203125,0.0152587890625
1772534320422757600,2.296757568359375,-0.9328765869140625,-0.218231201171875,0.0166015625
1772534320432774700,2.306774658203125,-0.9437255859375,-0.2271575927734375,0.048828125
1772534320442790700,2.316790771484375,-0.9523162841796875,-0.236114501953125,0.08795166015625
1772534320452806700,2.326806640625,-0.962982177734375,-0.258026123046875,0.1057891845703125
1772534320462822700,2.33682275390625,-0.9645843505859375,-0.2695770263671875,0.111236572265625
1772534320472839700,2.346839599609375,-0.9660186767578125,-0.2602081298828125,0.1077423095703125
1772534320482855700,2.356855712890625,-0.9654083251953125,-0.248748779296875,0.0900115966796875
1772534320492871700,2.36687158203125,-0.952667236328125,-0.2398834228515625,0.071075439453125
1772534320502887700,2.3768876953125,-0.967437744140625,-0.23382568359375,0.0650482177734375
1772534320512904700,2.38690478515625,-0.9668731689453125,-0.2286224365234375,0.0635986328125
1772534320522920700,2.396920654296875,-0.9454193115234375,-0.227813720703125,0.057464599609375
1772534320532936700,2.406936767578125,-0.9412994384765625,-0.230682373046875,0.048248291015625
1772534320542952700,2.41695263671875,-0.9409942626953125,-0.2285308837890625,0.052520751953125
1772534320552969700,2.4269697265625,-0.94158935546875,-0.2337646484375,0.059600830078125
1772534320562985700,2.43698583984375,-0.9583740234375,-0.2379150390625,0.0630645751953125
1772534320573001700,2.447001708984375,-0.968170166015625,-0.2393951416015625,0.06915283203125
1772534320583017500,2.457017578125,-0.9876861572265625,-0.2426605224609375,0.07080078125
1772534320593034800,2.46703466796875,-1.0015411376953125,-0.23944091796875,0.075775146484375
1772534320603050800,2.47705078125,-1.004486083984375,-0.23846435546875,0.0761566162109375
1772534320613066800,2.487066650390625,-1.0059814453125,-0.2400360107421875,0.0701904296875
1772534320623082800,2.497082763671875,-1.0002288818359375,-0.228485107421875,0.0640106201171875
1772534320633099800,2.507099853515625,-0.976165771484375,-0.2122955322265625,0.0508880615234375
1772534320643115800,2.51711572265625,-0.956573486328125,-0.215728759765625,0.0475311279296875
1772534320653131800,2.5271318359375,-0.9496002197265625,-0.2211151123046875,0.05352783203125
1772534320663147800,2.537147705078125,-0.95416259765625,-0.2269287109375,0.0591278076171875
1772534320673164500,2.54716455078125,-0.962249755859375,-0.2343292236328125,0.066680908203125
1772534320683180800,2.557180908203125,-0.967864990234375,-0.2330322265625,0.07305908203125
1772534320693196800,2.56719677734375,-0.977142333984375,-0.2376861572265625,0.07666015625
1772534320703212800,2.577212890625,-0.9830322265625,-0.242584228515625,0.0827178955078125
1772534320713229600,2.5872294921875,-0.9778289794921875,-0.23883056640625,0.0779571533203125
1772534320723245600,2.59724560546875,-0.9665985107421875,-0.231719970703125,0.0640716552734375
1772534320733261600,2.607261474609375,-0.9539947509765625,-0.225433349609375,0.0567626953125
1772534320743277800,2.61727783203125,-0.9478607177734375,-0.220855712890625,0.053802490234375
1772534320753294600,2.627294677734375,-0.95111083984375,-0.2200775146484375,0.0474853515625
1772534320763310600,2.637310546875,-0.965484619140625,-0.2209014892578125,0.0520172119140625
1772534320773326600,2.64732666015625,-0.980926513671875,-0.223846435546875,0.0582733154296875
1772534320783342600,2.657342529296875,-0.985443115234375,-0.2290496826171875,0.065582275390625
1772534320793360000,2.66735986328125,-0.9836578369140625,-0.2329254150390625,0.066314697265625
1772534320803375600,2.677375732421875,-0.9763336181640625,-0.2341766357421875,0.0659332275390625
1772534320813391600,2.6873916015625,-0.976806640625,-0.2364654541015625,0.0712127685546875
1772534320823407600,2.69740771484375,-0.9810333251953125,-0.231964111328125,0.072021484375
1772534320833425000,2.7074248046875,-0.987335205078125,-0.230560302734375,0.071136474609375
1772534320843441000,2.71744091796875,-0.984161376953125,-0.223846435546875,0.06549072265625
1772534320853456600,2.72745654296875,-0.9731597900390625,-0.2147979736328125,0.05535888671875
1772534320863472600,2.73747265625,-0.9661712646484375,-0.217742919921875,0.04962158203125
1772534320873489700,2.74748974609375,-0.96136474609375,-0.21905517578125,0.053253173828125
1772534320883505700,2.757505615234375,-0.958984375,-0.2245941162109375,0.0587921142578125
1772534320893521700,2.767521728515625,-0.962066650390625,-0.2331390380859375,0.0648040771484375
1772534320903538700,2.77753857421875,-0.96673583984375,-0.2312164306640625,0.0652313232421875
1772534320913554700,2.7875546875,-0.9722900390625,-0.227020263671875,0.0635528564453125
1772534320923570700,2.79757080078125,-0.974945068359375,-0.2252655029296875,0.0623626708984375
1772534320933586700,2.807586669921875,-0.9840240478515625,-0.2243194580078125,0.0609588623046875
1772534320943603700,2.817603759765625,-0.975982666015625,-0.219970703125,0.0614166259765625
1772534320953619700,2.82761962890625,-0.9634857177734375,-0.2241058349609375,0.0541839599609375
1772534320963635700,2.8376357421875,-0.95501708984375,-0.2245941162109375,0.0539093017578125
1772534320973651700,2.847651611328125,-0.9582366943359375,-0.222564697265625,0.0579986572265625
1772534320983668700,2.857668701171875,-0.9692840576171875,-0.224517822265625,0.0614166259765625
1772534320993684700,2.867684814453125,-0.9756622314453125,-0.2216644287109375,0.0603790283203125
1772534321003700700,2.87770068359375,-0.980133056640625,-0.220458984375,0.058074951171875
1772534321013716700,2.887716796875,-0.987152099609375,-0.2176361083984375,0.0583038330078125
1772534321023733500,2.8977333984375,-0.988006591796875,-0.2164154052734375,0.059417724609375
1772534321033749500,2.90774951171875,-0.9840240478515625,-0.21875,0.05804443359375
1772534321043765800,2.917765869140625,-0.9839019775390625,-0.218017578125,0.0606231689453125
1772534321053781800,2.92778173828125,-0.9862060546875,-0.22137451171875,0.063751220703125
1772534321063798800,2.937798828125,-0.9814910888671875,-0.22113037109375,0.0638580322265625
1772534321073814500,2.947814453125,-0.9705657958984375,-0.2161865234375,0.0639495849609375
1772534321083830500,2.95783056640625,-0.9620513916015625,-0.214691162109375,0.059295654296875
1772534321093846800,2.9678466796875,-0.9597320556640625,-0.216522216796875,0.0571136474609375
1772534321103863800,2.97786376953125,-0.9695892333984375,-0.2214813232421875,0.06591796875
1772534321113879800,2.9878798828125,-0.9740753173828125,-0.2193145751953125,0.0676727294921875
1772534321123895600,2.9978955078125,-0.967559814453125,-0.2181854248046875,0.0627899169921875
1772534321133911600,3.00791162109375,-0.9682769775390625,-0.2172393798828125,0.0662841796875
1772534321143928800,3.0179287109375,-0.97845458984375,-0.2148895263671875,0.0701904296875
1772534321153944800,3.02794482421875,-0.9853973388671875,-0.2133941650390625,0.0743408203125
1772534321163960600,3.037960693359375,-0.979766845703125,-0.21649169921875,0.070404052734375
1772534321173976600,3.0479765625,-0.97027587890625,-0.220794677734375,0.068572998046875
1772534321183993900,3.057993896484375,-0.965606689453125,-0.2213592529296875,0.0645751953125
1772534321194009900,3.068009765625,-0.9724578857421875,-0.2169952392578125,0.0588226318359375
1772534321204025900,3.07802587890625,-0.9737701416015625,-0.2108306884765625,0.0587921142578125
1772534321214041600,3.08804150390625,-0.966217041015625,-0.2084197998046875,0.05889892578125
1772534321224058600,3.09805859375,-0.965728759765625,-0.2117767333984375,0.06170654296875
1772534321234074600,3.10807470703125,-0.9667205810546875,-0.2149200439453125,0.062408447265625
1772534321244091000,3.1180908203125,-0.9712371826171875,-0.2169342041015625,0.0662078857421875
1772534321254107000,3.12810693359375,-0.9821319580078125,-0.21673583984375,0.0732574462890625
1772534321264123600,3.13812353515625,-0.9888458251953125,-0.2127685546875,0.074432373046875
1772534321274139600,3.1481396484375,-0.989044189453125,-0.206451416015625,0.0668487548828125
1772534321284155600,3.15815576171875,-0.985198974609375,-0.206085205078125,0.062713623046875
1772534321294172000,3.168171875,-0.9788360595703125,-0.2114715576171875,0.0619964599609375
1772534321304188700,3.178188720703125,-0.9735870361328125,-0.2133026123046875,0.0622711181640625
1772534321314204700,3.18820458984375,-0.968109130859375,-0.21160888671875,0.0630035400390625
1772534321324220700,3.198220703125,-0.966888427734375,-0.20654296875,0.0612335205078125
1772534321334236700,3.208236572265625,-0.97418212890625,-0.207183837890625,0.0625762939453125
1772534321344253700,3.218253662109375,-0.97467041015625,-0.2093048095703125,0.0672607421875
1772534321354269700,3.228269775390625,-0.969970703125,-0.210235595703125,0.067047119140625
1772534321364285700,3.23828564453125,-0.966400146484375,-0.211944580078125,0.066131591796875
1772534321374301700,3.2483017578125,-0.9590606689453125,-0.212432861328125,0.0670623779296875
1772534321384318500,3.258318359375,-0.954345703125,-0.211395263671875,0.0672454833984375
1772534321394334200,3.268334228515625,-0.9531402587890625,-0.2138519287109375,0.068756103515625
1772534321404350200,3.27835009765625,-0.943267822265625,-0.2081298828125,0.0649566650390625
1772534321414366200,3.2883662109375,-0.9557342529296875,-0.209564208984375,0.0617828369140625
1772534321424383500,3.298383544921875,-0.9740753173828125,-0.1954498291015625,0.06134033203125
1772534321434399500,3.3083994140625,-0.9929046630859375,-0.1920928955078125,0.0659637451171875
1772534321444415200,3.318415283203125,-0.998809814453125,-0.1912841796875,0.06414794921875
1772534321454431200,3.32843115234375,-1.0058135986328125,-0.1996612548828125,0.067779541015625
1772534321464448300,3.3384482421875,-1.009246826171875,-0.206573486328125,0.07666015625
1772534321474464500,3.348464599609375,-0.999420166015625,-0.2046356201171875,0.0771484375
1772534321484480300,3.358480224609375,-0.989654541015625,-0.2017822265625,0.0713958740234375
1772534321494496300,3.368496337890625,-0.9885406494140625,-0.198638916015625,0.068939208984375
1772534321504513300,3.37851318359375,-0.99072265625,-0.1926727294921875,0.069244384765625
1772534321514529300,3.388529296875,-0.9840850830078125,-0.1889801025390625,0.0665130615234375
1772534321524545500,3.398545654296875,-0.9761505126953125,-0.1886444091796875,0.0631256103515625
1772534321534561300,3.408561279296875,-0.9664459228515625,-0.1949005126953125,0.0600433349609375
1772534321544578300,3.418578369140625,-0.957489013671875,-0.2012786865234375,0.065216064453125
1772534321554594300,3.42859423828125,-0.95751953125,-0.2017974853515625,0.073974609375
1772534321564610300,3.4386103515625,-0.96209716796875,-0.2043609619140625,0.0829925537109375
1772534321574626300,3.448626220703125,-0.94964599609375,-0.1988525390625,0.072174072265625
1772534321584643300,3.458643310546875,-0.9492950439453125,-0.183746337890625,0.0447540283203125
1772534321594659300,3.468659423828125,-0.963348388671875,-0.1817474365234375,0.0395660400390625
1772534321604675300,3.47867529296875,-0.977142333984375,-0.182861328125,0.0579681396484375
1772534321614691300,3.48869140625,-0.98486328125,-0.187652587890625,0.077117919921875
1772534321624708400,3.498708251953125,-0.985565185546875,-0.1978607177734375,0.0796051025390625
1772534321634724400,3.508724365234375,-0.9880523681640625,-0.2021331787109375,0.0736846923828125
1772534321644740400,3.518740234375,-0.9886322021484375,-0.187835693359375,0.068328857421875
1772534321654756400,3.52875634765625,-0.9961395263671875,-0.1815185546875,0.0565185546875
1772534321664773000,3.538773193359375,-1.016510009765625,-0.17681884765625,0.0558929443359375
1772534321674789400,3.548789306640625,-1.025054931640625,-0.1744842529296875,0.0586700439453125
1772534321684805400,3.558805419921875,-1.016143798828125,-0.178314208984375,0.0612640380859375
1772534321694821400,3.5688212890625,-1.00732421875,-0.1819305419921875,0.0604400634765625
1772534321704838400,3.57883837890625,-0.99761962890625,-0.1874237060546875,0.063018798828125
1772534321714854100,3.588854248046875,-0.98797607421875,-0.1876373291015625,0.066436767578125
1772534321724870100,3.5988701171875,-0.9802398681640625,-0.1842193603515625,0.0737457275390625
1772534321734886400,3.608886474609375,-0.966888427734375,-0.184295654296875,0.0764312744140625
1772534321744903400,3.6189033203125,-0.9578704833984375,-0.1892547607421875,0.07373046875
1772534321754919200,3.628919189453125,-0.9602203369140625,-0.1906280517578125,0.0709381103515625
1772534321764935200,3.63893505859375,-0.964935302734375,-0.1837310791015625,0.065093994140625
1772534321774951200,3.648951171875,-0.96649169921875,-0.1793365478515625,0.06524658203125
1772534321784968400,3.658968505859375,-0.974853515625,-0.1834869384765625,0.0660858154296875
1772534321794984400,3.668984375,-0.98492431640625,-0.18426513671875,0.0625
1772534321805000200,3.679000244140625,-0.9850006103515625,-0.184539794921875,0.0645599365234375
1772534321815016200,3.68901611328125,-0.9875946044921875,-0.1906890869140625,0.067626953125
1772534321825033500,3.699033447265625,-0.9939727783203125,-0.1953582763671875,0.075347900390625
1772534321835049500,3.709049560546875,-0.9978790283203125,-0.193023681640625,0.0881500244140625
1772534321845065500,3.7190654296875,-0.992401123046875,-0.193115234375,0.0882720947265625
1772534321855081200,3.729081298828125,-0.987274169921875,-0.19171142578125,0.074493408203125
1772534321865098200,3.73909814453125,-0.9749298095703125,-0.1826324462890625,0.06097412109375
1772534321875114500,3.749114501953125,-0.96893310546875,-0.176605224609375,0.0400390625
1772534321885130500,3.759130615234375,-0.9714202880859375,-0.17047119140625,0.0348968505859375
1772534321895146500,3.769146484375,-0.9737548828125,-0.1697998046875,0.0428009033203125
1772534321905163300,3.779163330078125,-0.9817352294921875,-0.1798248291015625,0.05352783203125
1772534321915179300,3.78917919921875,-0.9884490966796875,-0.195220947265625,0.07110595703125
1772534321925195300,3.7991953125,-0.990692138671875,-0.2044219970703125,0.0906829833984375
1772534321935211500,3.80921142578125,-0.9819183349609375,-0.2132568359375,0.1024017333984375
1772534321945228300,3.819228271484375,-0.9702606201171875,-0.2146453857421875,0.0984344482421875
1772534321955244300,3.829244384765625,-0.9633331298828125,-0.2016143798828125,0.08837890625
1772534321965260300,3.83926025390625,-0.959075927734375,-0.188079833984375,0.0644073486328125
1772534321975276300,3.8492763671875,-0.962310791015625,-0.1712646484375,0.0422210693359375
1772534321985293300,3.859293212890625,-0.967041015625,-0.165313720703125,0.041412353515625
1772534321995309300,3.869309326171875,-0.9712371826171875,-0.17572021484375,0.0541534423828125
1772534322005325300,3.8793251953125,-0.9722900390625,-0.1901397705078125,0.0621490478515625
1772534322015341300,3.88934130859375,-0.9674835205078125,-0.1996917724609375,0.06280517578125
1772534322025358300,3.8993583984375,-0.977996826171875,-0.2016754150390625,0.065521240234375
1772534322035374300,3.909374267578125,-0.9886627197265625,-0.19805908203125,0.0707244873046875
1772534322045390300,3.919390380859375,-0.9924774169921875,-0.192413330078125,0.0721435546875
1772534322055406300,3.92940625,-0.9958953857421875,-0.189208984375,0.0605316162109375
1772534322065423400,3.93942333984375,-0.994415283203125,-0.186126708984375,0.051849365234375
1772534322075439000,3.949439208984375,-0.9995574951171875,-0.18170166015625,0.045684814453125
1772534322085455400,3.959455322265625,-1.0070953369140625,-0.1782073974609375,0.043243408203125
1772534322095471400,3.969471435546875,-1.0029296875,-0.180755615234375,0.04840087890625
1772534322105488400,3.97948828125,-0.9958648681640625,-0.188720703125,0.0543975830078125
1772534322115504400,3.98950439453125,-0.9855499267578125,-0.195343017578125,0.0609283447265625
1772534322125520100,3.99952001953125,-0.9707489013671875,-0.1949462890625,0.0622100830078125
1772534322135536400,4.009536376953125,-0.96295166015625,-0.194854736328125,0.06292724609375
1772534322145553400,4.019553466796875,-0.9644775390625,-0.198699951171875,0.0684661865234375
1772534322155569400,4.0295693359375,-0.968292236328125,-0.1958465576171875,0.069854736328125
1772534322165585200,4.039585205078125,-0.966766357421875,-0.1923370361328125,0.06787109375
1772534322175601200,4.04960107421875,-0.9695587158203125,-0.18798828125,0.068511962890625
1772534322185618400,4.059618408203125,-0.9680328369140625,-0.18951416015625,0.071044921875
1772534322195634400,4.069634521484375,-0.9730377197265625,-0.190185546875,0.0657196044921875
1772534322205650400,4.079650390625,-0.97943115234375,-0.189910888671875,0.0660858154296875
1772534322215666200,4.089666259765625,-0.9805908203125,-0.190887451171875,0.070953369140625
1772534322225683200,4.09968310546875,-0.976898193359375,-0.191497802734375,0.0740203857421875
1772534322235699500,4.109699462890625,-0.9754180908203125,-0.1943206787109375,0.0715179443359375
1772534322245715500,4.119715576171875,-0.9793701171875,-0.1924896240234375,0.064605712890625
1772534322255731500,4.1297314453125,-0.9818878173828125,-0.1888885498046875,0.059967041015625
1772534322265748200,4.139748291015625,-0.985260009765625,-0.1817169189453125,0.059539794921875
1772534322275764200,4.14976416015625,-0.9931793212890625,-0.184478759765625,0.059814453125
1772534322285780500,4.159780517578125,-0.997283935546875,-0.18658447265625,0.0623779296875
1772534322295796500,4.16979638671875,-0.9930267333984375,-0.186370849609375,0.0643768310546875
1772534322305813200,4.179813232421875,-0.9862060546875,-0.1905059814453125,0.0610809326171875
1772534322315829200,4.189829345703125,-0.9796142578125,-0.1897430419921875,0.0571136474609375
1772534322325845200,4.19984521484375,-0.969024658203125,-0.1887969970703125,0.0576629638671875
1772534322335861200,4.209861328125,-0.96881103515625,-0.1893768310546875,0.0570220947265625
1772534322345878300,4.219878173828125,-0.97845458984375,-0.1950836181640625,0.061614990234375
1772534322355894300,4.229894287109375,-0.9833831787109375,-0.1928863525390625,0.0714263916015625
1772534322365910300,4.23991015625,-0.9737701416015625,-0.1895904541015625,0.0674591064453125
1772534322375926300,4.24992626953125,-0.9761199951171875,-0.195953369140625,0.0644378662109375
1772534322385943300,4.259943359375,-0.977813720703125,-0.1925201416015625,0.0602874755859375
1772534322395959600,4.26995947265625,-0.977447509765625,-0.188812255859375,0.06036376953125
1772534322405975600,4.2799755859375,-0.974334716796875,-0.1889495849609375,0.0590362548828125
1772534322415991600,4.289991455078125,-0.9681396484375,-0.188079833984375,0.0560760498046875
1772534322426008600,4.300008544921875,-0.9666900634765625,-0.1914215087890625,0.056549072265625
1772534322436024600,4.310024658203125,-0.9664154052734375,-0.1931915283203125,0.060546875
1772534322446040600,4.32004052734375,-0.969482421875,-0.1977081298828125,0.061248779296875
1772534322456056600,4.330056640625,-0.9780731201171875,-0.199554443359375,0.061431884765625
1772534322466073600,4.340073486328125,-0.991668701171875,-0.19683837890625,0.06390380859375
1772534322476089600,4.350089599609375,-0.9996490478515625,-0.1939849853515625,0.0620269775390625
1772534322486105600,4.360105712890625,-0.9959869384765625,-0.19378662109375,0.0587158203125
1772534322496121600,4.37012158203125,-0.9841461181640625,-0.1917724609375,0.053436279296875
1772534322506138600,4.380138671875,-0.9766998291015625,-0.19097900390625,0.0524444580078125
1772534322516154600,4.390154541015625,-0.9705963134765625,-0.1916351318359375,0.056365966796875
1772534322526170600,4.400170654296875,-0.965118408203125,-0.1948394775390625,0.064422607421875
1772534322536186600,4.4101865234375,-0.96185302734375,-0.1981658935546875,0.0653076171875
1772534322546203600,4.42020361328125,-0.9680328369140625,-0.1995697021484375,0.065338134765625
1772534322556219600,4.4302197265625,-0.981597900390625,-0.196502685546875,0.06768798828125
1772534322566235600,4.440235595703125,-0.9886322021484375,-0.1892547607421875,0.0650177001953125
1772534322576251400,4.45025146484375,-0.9853668212890625,-0.1898651123046875,0.06195068359375
1772534322586268700,4.4602685546875,-0.9797821044921875,-0.1918487548828125,0.0591278076171875
1772534322596284700,4.47028466796875,-0.9757232666015625,-0.19049072265625,0.0570068359375
1772534322606300700,4.48030078125,-0.9751739501953125,-0.1927642822265625,0.060333251953125
1772534322616316700,4.490316650390625,-0.9822540283203125,-0.19268798828125,0.06658935546875
1772534322626333700,4.500333740234375,-0.9904632568359375,-0.18798828125,0.0629425048828125
1772534322636349700,4.510349609375,-0.999359130859375,-0.186981201171875,0.0518035888671875
1772534322646365700,4.52036572265625,-1.004302978515625,-0.188232421875,0.0527801513671875
1772534322656381700,4.530381591796875,-1.0068206787109375,-0.1866455078125,0.0594940185546875
1772534322666397700,4.540397705078125,-0.998260498046875,-0.1932830810546875,0.0673828125
1772534322676414700,4.550414794921875,-0.9820404052734375,-0.2008819580078125,0.0704498291015625
1772534322686430700,4.5604306640625,-0.9745025634765625,-0.200408935546875,0.0692596435546875
1772534322696446700,4.57044677734375,-0.9692230224609375,-0.196319580078125,0.07159423828125
1772534322706462700,4.580462646484375,-0.9637603759765625,-0.1931304931640625,0.069671630859375
1772534322716479500,4.5904794921875,-0.962066650390625,-0.195556640625,0.0689239501953125
1772534322726495500,4.60049560546875,-0.963043212890625,-0.197174072265625,0.06805419921875
1772534322736511700,4.61051171875,-0.968994140625,-0.1979827880859375,0.0649566650390625
1772534322746527700,4.62052783203125,-0.9728851318359375,-0.19708251953125,0.064697265625
1772534322756544500,4.63054443359375,-0.975006103515625,-0.1956634521484375,0.06170654296875
1772534322766560500,4.640560546875,-0.9788360595703125,-0.1953887939453125,0.0615234375
1772534322776576500,4.650576416015625,-0.9814453125,-0.1957244873046875,0.060791015625
1772534322786592800,4.6605927734375,-0.9842071533203125,-0.196380615234375,0.0588531494140625
1772534322796609500,4.670609619140625,-0.985992431640625,-0.1973114013671875,0.054779052734375
1772534322806625500,4.68062548828125,-0.98138427734375,-0.1920928955078125,0.049652099609375
1772534322816641500,4.6906416015625,-0.972564697265625,-0.1885833740234375,0.0461578369140625
1772534322826657500,4.700657470703125,-0.965545654296875,-0.1889495849609375,0.0448760986328125
1772534322836674800,4.7106748046875,-0.9665069580078125,-0.191009521484375,0.0470733642578125
1772534322846690600,4.720690673828125,-0.97283935546875,-0.192169189453125,0.0548248291015625
1772534322856706600,4.73070654296875,-0.9872589111328125,-0.2002716064453125,0.0698394775390625
1772534322866722600,4.74072265625,-0.9936981201171875,-0.19866943359375,0.0737457275390625
1772534322876739600,4.750739501953125,-0.9899749755859375,-0.199249267578125,0.0692138671875
1772534322886755600,4.760755615234375,-0.9842376708984375,-0.198333740234375,0.0667266845703125
1772534322896771600,4.770771484375,-0.9712371826171875,-0.1956787109375,0.060821533203125
1772534322906787600,4.78078759765625,-0.9637298583984375,-0.19317626953125,0.059234619140625
1772534322916804600,4.7908046875,-0.9607696533203125,-0.191650390625,0.0609283447265625
1772534322926820600,4.800820556640625,-0.9595184326171875,-0.194610595703125,0.0623016357421875
1772534322936836600,4.810836669921875,-0.96630859375,-0.1961517333984375,0.06402587890625
1772534322946852600,4.8208525390625,-0.973907470703125,-0.1944122314453125,0.067626953125
1772534322956869600,4.83086962890625,-0.9788818359375,-0.1929779052734375,0.0664825439453125
1772534322966885600,4.8408857421875,-0.9854278564453125,-0.192413330078125,0.06353759765625
1772534322976901600,4.850901611328125,-0.993896484375,-0.1900177001953125,0.0614776611328125
1772534322986917600,4.860917724609375,-0.9979248046875,-0.1832733154296875,0.0597991943359375
1772534322996934700,4.8709345703125,-0.9997406005859375,-0.1852569580078125,0.0617218017578125
1772534323006950700,4.88095068359375,-0.9972991943359375,-0.192413330078125,0.063812255859375
1772534323016966700,4.890966552734375,-0.9917449951171875,-0.1968994140625,0.0643157958984375
1772534323026982700,4.900982666015625,-0.9857635498046875,-0.195709228515625,0.0608062744140625
1772534323036999700,4.910999755859375,-0.9895782470703125,-0.1915435791015625,0.0580902099609375
1772534323047015700,4.921015625,-0.9873809814453125,-0.1878814697265625,0.0602874755859375
1772534323057031700,4.93103173828125,-0.9835968017578125,-0.19256591796875,0.06646728515625
1772534323067047700,4.941047607421875,-0.9755706787109375,-0.194976806640625,0.0705413818359375
1772534323077064400,4.951064453125,-0.9698944091796875,-0.195953369140625,0.0676422119140625
1772534323087080700,4.961080810546875,-0.9668426513671875,-0.194122314453125,0.0657958984375
1772534323097096700,4.9710966796875,-0.961944580078125,-0.1914825439453125,0.0676116943359375
1772534323107112700,4.98111279296875,-0.9614410400390625,-0.194580078125,0.0666046142578125
1772534323117129500,4.99112939453125,-0.967376708984375,-0.194061279296875,0.063262939453125
1772534323127145500,5.0011455078125,-0.978485107421875,-0.1969757080078125,0.0663299560546875
1772534323137161700,5.01116162109375,-0.988250732421875,-0.19293212890625,0.072357177734375
1772534323147177700,5.021177734375,-0.9923095703125,-0.191131591796875,0.0731658935546875
1772534323157193700,5.03119384765625,-0.99310302734375,-0.1998443603515625,0.073944091796875
1772534323167210500,5.04121044921875,-0.9859161376953125,-0.1994781494140625,0.0677947998046875
1772534323177226500,5.0512265625,-0.98126220703125,-0.1995697021484375,0.06671142578125
1772534323187242500,5.061242431640625,-0.97955322265625,-0.196258544921875,0.06671142578125
1772534323197258800,5.0712587890625,-0.9754791259765625,-0.1920318603515625,0.0611419677734375
1772534323207275500,5.081275634765625,-0.97412109375,-0.190643310546875,0.05657958984375
1772534323217291500,5.09129150390625,-0.973388671875,-0.1943206787109375,0.05828857421875
1772534323227307500,5.1013076171875,-0.9784698486328125,-0.196990966796875,0.068603515625
1772534323237323500,5.111323486328125,-0.9871368408203125,-0.200714111328125,0.073577880859375
1772534323247340800,5.1213408203125,-0.988006591796875,-0.1982421875,0.0693817138671875
1772534323257356500,5.1313564453125,-0.97894287109375,-0.1941070556640625,0.062652587890625
1772534323267372500,5.14137255859375,-0.9710845947265625,-0.1938629150390625,0.06011962890625
1772534323277388500,5.151388427734375,-0.9623565673828125,-0.195281982421875,0.06146240234375
1772534323287405800,5.16140576171875,-0.957427978515625,-0.1948089599609375,0.060455322265625
1772534323297421600,5.171421630859375,-0.9598236083984375,-0.1968536376953125,0.06329345703125
1772534323307437600,5.1814375,-0.96728515625,-0.1989288330078125,0.0663604736328125
1772534323317453600,5.19145361328125,-0.977569580078125,-0.2019195556640625,0.0697784423828125
1772534323327470600,5.201470703125,-0.9868011474609375,-0.19952392578125,0.0713653564453125
1772534323337486600,5.211486572265625,-0.9922637939453125,-0.200408935546875,0.0712127685546875
1772534323347502600,5.221502685546875,-0.9957275390625,-0.1988525390625,0.0677032470703125
1772534323357518600,5.2315185546875,-0.9870758056640625,-0.1942596435546875,0.0611724853515625
1772534323367535600,5.24153564453125,-0.972991943359375,-0.1949310302734375,0.0570831298828125
1772534323377551600,5.251551513671875,-0.9659576416015625,-0.1963653564453125,0.0597381591796875
1772534323387567600,5.261567626953125,-0.964569091796875,-0.199798583984375,0.0656280517578125
1772534323397584400,5.27158447265625,-0.9706268310546875,-0.200836181640625,0.06573486328125
1772534323407601400,5.281601318359375,-0.9788970947265625,-0.197418212890625,0.0662689208984375
1772534323417617400,5.291617431640625,-0.9818572998046875,-0.1958160400390625,0.0683441162109375
1772534323427633400,5.30163330078125,-0.9777679443359375,-0.1988983154296875,0.0693511962890625
1772534323437649200,5.311649169921875,-0.9730377197265625,-0.2015380859375,0.06591796875
1772534323448168200,5.322168212890625,-0.9687957763671875,-0.199798583984375,0.0617523193359375
1772534323458934300,5.332934326171875,-0.970367431640625,-0.1989898681640625,0.0619964599609375
1772534323468950300,5.3429501953125,-0.9796142578125,-0.19940185546875,0.0670318603515625
1772534323478966300,5.35296630859375,-0.9837646484375,-0.2009735107421875,0.0708465576171875
1772534323488982500,5.362982421875,-0.9814605712890625,-0.2028350830078125,0.067047119140625
1772534323498999300,5.372999267578125,-0.9836273193359375,-0.1995086669921875,0.0641326904296875
1772534323509015300,5.383015380859375,-0.983978271484375,-0.197174072265625,0.06451416015625
1772534323519031300,5.39303125,-0.98040771484375,-0.1977996826171875,0.0655975341796875
1772534323529047300,5.40304736328125,-0.9773712158203125,-0.2026519775390625,0.0682830810546875
1772534323539064300,5.413064208984375,-0.97320556640625,-0.2028656005859375,0.0670623779296875
1772534323549080300,5.423080322265625,-0.96942138671875,-0.2023468017578125,0.065582275390625
1772534323559096300,5.433096435546875,-0.96624755859375,-0.2008819580078125,0.0661163330078125
1772534323569112300,5.4431123046875,-0.965789794921875,-0.201141357421875,0.0673065185546875
1772534323579129300,5.45312939453125,-0.97442626953125,-0.20416259765625,0.0698699951171875
1772534323589145300,5.463145263671875,-0.98004150390625,-0.201904296875,0.0717010498046875
1772534323599161300,5.473161376953125,-0.9759674072265625,-0.2002410888671875,0.07220458984375
1772534323609177300,5.48317724609375,-0.971710205078125,-0.2014923095703125,0.0677490234375
1772534323619194400,5.4931943359375,-0.9683685302734375,-0.2032928466796875,0.066162109375
1772534323629210000,5.503210205078125,-0.9753265380859375,-0.2049560546875,0.071197509765625
1772534323639226400,5.513226318359375,-0.9813079833984375,-0.2011871337890625,0.0741424560546875
1772534323649242400,5.523242431640625,-0.9788665771484375,-0.2013397216796875,0.0719451904296875
1772534323659259400,5.53325927734375,-0.9737701416015625,-0.2043304443359375,0.0648040771484375
1772534323669275400,5.543275390625,-0.97088623046875,-0.201385498046875,0.0572357177734375
1772534323679291100,5.553291015625,-0.978515625,-0.1987152099609375,0.0603485107421875
1772534323689307100,5.56330712890625,-0.9817352294921875,-0.197052001953125,0.0651702880859375
1772534323699324400,5.573324462890625,-0.9777069091796875,-0.198516845703125,0.0675506591796875
1772534323709340400,5.58334033203125,-0.969329833984375,-0.2026214599609375,0.068023681640625
1772534323719356400,5.5933564453125,-0.96820068359375,-0.20635986328125,0.0700836181640625
1772534323729372200,5.6033720703125,-0.9711456298828125,-0.203857421875,0.0706787109375
1772534323739389400,5.613389404296875,-0.9784393310546875,-0.2003021240234375,0.0687103271484375
1772534323749405400,5.623405517578125,-0.9858245849609375,-0.19818115234375,0.0651702880859375
1772534323759421400,5.63342138671875,-0.9857177734375,-0.197174072265625,0.06451416015625
1772534323769437400,5.6434375,-0.9867095947265625,-0.1962127685546875,0.06488037109375
1772534323779454200,5.6534541015625,-0.989776611328125,-0.201171875,0.0667724609375
1772534323789470500,5.663470458984375,-0.9897918701171875,-0.203338623046875,0.0740203857421875
1772534323800112000,5.674112060546875,-0.971343994140625,-0.1967315673828125,0.0694732666015625
1772534323810128100,5.684128173828125,-0.9632415771484375,-0.2059173583984375,0.0645599365234375
1772534323820145400,5.6941455078125,-0.9641571044921875,-0.2038726806640625,0.0661163330078125
1772534323830161400,5.704161376953125,-0.9811248779296875,-0.1959075927734375,0.06976318359375
1772534323840177400,5.714177490234375,-0.9937896728515625,-0.1976776123046875,0.0757904052734375
1772534323850193200,5.724193115234375,-0.9921722412109375,-0.1993560791015625,0.071746826171875
1772534323860210400,5.73421044921875,-0.9821624755859375,-0.20013427734375,0.0692138671875
1772534323870226400,5.744226318359375,-0.9709320068359375,-0.2009735107421875,0.0656280517578125
1772534323880242400,5.754242431640625,-0.9618072509765625,-0.20037841796875,0.0675811767578125
1772534323890258400,5.764258544921875,-0.9565582275390625,-0.200714111328125,0.0709075927734375
1772534323900275200,5.774275146484375,-0.9593353271484375,-0.201202392578125,0.07049560546875
1772534323910291500,5.78429150390625,-0.9654541015625,-0.2000274658203125,0.0689239501953125
1772534323920307500,5.794307373046875,-0.9760284423828125,-0.19757080078125,0.0736846923828125
1772534323930323500,5.804323486328125,-0.9839935302734375,-0.1979217529296875,0.077728271484375
1772534323940340200,5.81434033203125,-0.9861602783203125,-0.20269775390625,0.076141357421875
1772534323950356200,5.824356201171875,-0.99188232421875,-0.20233154296875,0.074127197265625
1772534323960372200,5.834372314453125,-0.9946136474609375,-0.1973876953125,0.074493408203125
1772534323970388500,5.844388427734375,-0.9916839599609375,-0.1947479248046875,0.074676513671875
1772534323980404500,5.854404541015625,-0.9905242919921875,-0.1981658935546875,0.0704803466796875
1772534323990421200,5.864421142578125,-0.9889373779296875,-0.19549560546875,0.066864013671875
1772534324000437200,5.874437255859375,-0.98162841796875,-0.190643310546875,0.06634521484375
1772534324010453200,5.884453369140625,-0.97357177734375,-0.1940155029296875,0.0687255859375
1772534324020469500,5.894469482421875,-0.9674835205078125,-0.19927978515625,0.0699615478515625
1772534324030486300,5.904486328125,-0.9652252197265625,-0.1991729736328125,0.068511962890625
1772534324040502300,5.914502197265625,-0.9662933349609375,-0.196258544921875,0.071258544921875
1772534324050518300,5.924518310546875,-0.97076416015625,-0.1949005126953125,0.0754852294921875
1772534324060534300,5.9345341796875,-0.97723388671875,-0.19793701171875,0.0772857666015625
1772534324070551300,5.94455126953125,-0.9774017333984375,-0.197479248046875,0.073699951171875
1772534324080567300,5.9545673828125,-0.9872589111328125,-0.1974334716796875,0.0729522705078125
1772534324090583300,5.964583251953125,-0.9810028076171875,-0.195220947265625,0.078521728515625
1772534324100599300,5.974599365234375,-0.9782562255859375,-0.1980438232421875,0.0741424560546875
1772534324110616300,5.9846162109375,-0.976593017578125,-0.1961822509765625,0.06927490234375
1772534324120632300,5.99463232421875,-0.971343994140625,-0.19195556640625,0.0654296875
1772534324130648300,6.0046484375,-0.9718170166015625,-0.1924896240234375,0.068389892578125
1772534324140664300,6.014664306640625,-0.9701690673828125,-0.1900482177734375,0.06744384765625
1772534324150681300,6.024681396484375,-0.9719085693359375,-0.19183349609375,0.0674896240234375
1772534324160697300,6.034697265625,-0.977081298828125,-0.1946868896484375,0.0707550048828125
1772534324170713300,6.04471337890625,-0.97967529296875,-0.195159912109375,0.0745849609375
1772534324180729300,6.054729248046875,-0.9823455810546875,-0.196807861328125,0.0766448974609375
1772534324190746400,6.064746337890625,-0.983306884765625,-0.195709228515625,0.0784149169921875
1772534324200762400,6.074762451171875,-0.9788360595703125,-0.1918182373046875,0.07708740234375
1772534324210778000,6.084778076171875,-0.962646484375,-0.1902923583984375,0.070587158203125
1772534324220794400,6.09479443359375,-0.96282958984375,-0.189727783203125,0.0670013427734375
1772534324230811400,6.104811279296875,-0.9688568115234375,-0.1923980712890625,0.07867431640625
1772534324240827400,6.114827392578125,-0.9759521484375,-0.19818115234375,0.082794189453125
1772534324250843400,6.124843505859375,-0.97918701171875,-0.1979827880859375,0.0831146240234375
1772534324260859100,6.134859130859375,-0.9800262451171875,-0.1951751708984375,0.0818939208984375
1772534324270876400,6.14487646484375,-0.982513427734375,-0.1948089599609375,0.0843963623046875
1772534324280892400,6.154892333984375,-0.9784088134765625,-0.1953887939453125,0.0849151611328125
1772534324290908400,6.164908447265625,-0.9839630126953125,-0.1949462890625,0.0812835693359375
1772534324300924400,6.17492431640625,-0.9912261962890625,-0.1938934326171875,0.07989501953125
1772534324310941200,6.184941162109375,-0.998992919921875,-0.1874847412109375,0.082611083984375
1772534324320957400,6.19495751953125,-0.9818878173828125,-0.19293212890625,0.0752410888671875
1772534324330973400,6.204973388671875,-0.9886932373046875,-0.192169189453125,0.061767578125
1772534324340989400,6.214989501953125,-0.9910125732421875,-0.1842803955078125,0.0695648193359375
1772534324351005400,6.22500537109375,-0.9892425537109375,-0.1846923828125,0.069366455078125
1772534324361022200,6.235022216796875,-0.985382080078125,-0.1883697509765625,0.0678558349609375
1772534324371038500,6.24503857421875,-0.9782867431640625,-0.1913299560546875,0.069549560546875
1772534324381054500,6.255054443359375,-0.972320556640625,-0.1906890869140625,0.0711212158203125
1772534324391070500,6.265070556640625,-0.96539306640625,-0.1915435791015625,0.074951171875
1772534324401086700,6.275086669921875,-0.9703521728515625,-0.1937255859375,0.0771636962890625
1772534324411102700,6.285102783203125,-0.987457275390625,-0.1920623779296875,0.082305908203125
1772534324421118700,6.29511865234375,-0.9981536865234375,-0.1930084228515625,0.08612060546875
1772534324431134700,6.305134765625,-0.99700927734375,-0.1937408447265625,0.0840301513671875
1772534324441151700,6.31515185546875,-0.98516845703125,-0.19647216796875,0.081939697265625
1772534324451167500,6.32516748046875,-0.9756317138671875,-0.198028564453125,0.080108642578125
1772534324461183700,6.335183837890625,-0.9786834716796875,-0.1938629150390625,0.07708740234375
1772534324471199700,6.34519970703125,-0.9840545654296875,-0.18682861328125,0.077056884765625
1772534324481216800,6.355216796875,-0.9809722900390625,-0.1859283447265625,0.07781982421875
1772534324491232500,6.365232421875,-0.9716339111328125,-0.19183349609375,0.075775146484375
1772534324501248500,6.37524853515625,-0.9633941650390625,-0.197601318359375,0.0736541748046875
1772534324511264800,6.3852646484375,-0.9670562744140625,-0.2016754150390625,0.0734405517578125
1772534324521281800,6.39528173828125,-0.9733123779296875,-0.196868896484375,0.0771636962890625
1772534324531297800,6.4052978515625,-0.97137451171875,-0.1960296630859375,0.0773773193359375
1772534324541313500,6.4153134765625,-0.9652252197265625,-0.198394775390625,0.0742340087890625
1772534324551329500,6.42532958984375,-0.9659271240234375,-0.201019287109375,0.0716094970703125
1772534324561346800,6.435346923828125,-0.972808837890625,-0.1988067626953125,0.074371337890625
1772534324571362800,6.44536279296875,-0.9736328125,-0.196563720703125,0.076995849609375
1772534324581378800,6.45537890625,-0.9769287109375,-0.194854736328125,0.0738983154296875
1772534324591394600,6.46539453125,-0.9764251708984375,-0.19482421875,0.0746612548828125
1772534324601410600,6.47541064453125,-0.9784088134765625,-0.198974609375,0.0797271728515625
1772534324611427800,6.485427734375,-0.9863739013671875,-0.2001495361328125,0.082275390625
1772534324621443800,6.49544384765625,-0.990386962890625,-0.1968994140625,0.081085205078125
1772534324631459800,6.5054599609375,-0.9870758056640625,-0.1934967041015625,0.0775299072265625
1772534324641475600,6.5154755859375,-0.9770355224609375,-0.1931610107421875,0.0747222900390625
1772534324651492600,6.52549267578125,-0.967437744140625,-0.195831298828125,0.0723114013671875
1772534324661508900,6.5355087890625,-0.9708099365234375,-0.199920654296875,0.0765533447265625
1772534324671524900,6.54552490234375,-0.980499267578125,-0.2013092041015625,0.087127685546875
1772534324681540600,6.55554052734375,-0.989501953125,-0.201507568359375,0.0889739990234375
1772534324691557600,6.5655576171875,-0.9856719970703125,-0.2083587646484375,0.0887603759765625
1772534324701573600,6.57557373046875,-0.96917724609375,-0.200775146484375,0.0782928466796875
1772534324711590000,6.58558984375,-0.95904541015625,-0.196441650390625,0.0719451904296875
1772534324721606000,6.59560595703125,-0.9563140869140625,-0.19110107421875,0.0665283203125
1772534324731622700,6.60562255859375,-0.957733154296875,-0.189849853515625,0.066070556640625
1772534324741638700,6.615638671875,-0.9649810791015625,-0.1935272216796875,0.067901611328125
1772534324751654700,6.625654541015625,-0.9695892333984375,-0.1967010498046875,0.071258544921875
1772534324761670700,6.635670654296875,-0.98187255859375,-0.1974639892578125,0.073333740234375
1772534324771687700,6.645687744140625,-0.993560791015625,-0.1966094970703125,0.076202392578125
1772534324781703700,6.65570361328125,-0.9994659423828125,-0.1948089599609375,0.07684326171875
1772534324791719700,6.6657197265625,-1.000335693359375,-0.195281982421875,0.077178955078125
1772534324801735700,6.675735595703125,-0.99224853515625,-0.19757080078125,0.0805511474609375
1772534324811752700,6.685752685546875,-0.9869232177734375,-0.1976318359375,0.0771484375
1772534324821768700,6.695768798828125,-0.9791717529296875,-0.1960601806640625,0.075408935546875
1772534324831784700,6.70578466796875,-0.976593017578125,-0.19830322265625,0.0833282470703125
1772534324841800700,6.71580078125,-0.9636993408203125,-0.19482421875,0.0839080810546875
1772534324851817700,6.725817626953125,-0.9566497802734375,-0.1965789794921875,0.0789337158203125
1772534324861833700,6.735833740234375,-0.960296630859375,-0.202728271484375,0.0792388916015625
1772534324871849700,6.745849609375,-0.9637451171875,-0.2002410888671875,0.0769500732421875
1772534324881865700,6.75586572265625,-0.96905517578125,-0.1973876953125,0.072906494140625
1772534324891881700,6.7658818359375,-0.9697418212890625,-0.1970977783203125,0.0699005126953125
1772534324901898500,6.7758984375,-0.9705352783203125,-0.1965484619140625,0.067962646484375
1772534324911914500,6.78591455078125,-0.968963623046875,-0.193328857421875,0.063629150390625
1772534324921930800,6.7959306640625,-0.9711761474609375,-0.1951904296875,0.059661865234375
1772534324931946800,6.80594677734375,-0.9805755615234375,-0.1973724365234375,0.05999755859375
1772534324941963800,6.8159638671875,-0.989166259765625,-0.19854736328125,0.0630035400390625
1772534324951979500,6.8259794921875,-0.9961700439453125,-0.19970703125,0.0687255859375
1772534324961995500,6.83599560546875,-0.9941864013671875,-0.198150634765625,0.071533203125
1772534324972011800,6.84601171875,-0.981719970703125,-0.1977386474609375,0.068634033203125
1772534324982028800,6.85602880859375,-0.9742431640625,-0.1998138427734375,0.066253662109375
1772534324992044800,6.866044921875,-0.9758453369140625,-0.1966400146484375,0.06658935546875
1772534325002060500,6.876060546875,-0.97479248046875,-0.190460205078125,0.0691375732421875
1772534325012076500,6.88607666015625,-0.970794677734375,-0.1904144287109375,0.0702972412109375
1772534325022093800,6.89609375,-0.9685211181640625,-0.19708251953125,0.075408935546875
1772534325032109800,6.90610986328125,-0.970977783203125,-0.202056884765625,0.0823974609375
1772534325042125800,6.916125732421875,-0.9781341552734375,-0.201690673828125,0.0868682861328125
1772534325052141600,6.9261416015625,-0.9780731201171875,-0.2005462646484375,0.0894775390625
1772534325062158600,6.93615869140625,-0.975677490234375,-0.201995849609375,0.091033935546875
1772534325072174800,6.9461748046875,-0.9698486328125,-0.2017822265625,0.0902252197265625
1772534325082190800,6.95619091796875,-0.9707794189453125,-0.2006683349609375,0.0866241455078125
1772534325092206600,6.96620654296875,-0.9710540771484375,-0.1974029541015625,0.081573486328125
1772534325102222600,6.97622265625,-0.9766998291015625,-0.192535400390625,0.076202392578125
1772534325112239600,6.986239501953125,-0.981170654296875,-0.1904296875,0.0740509033203125
1772534325122256000,6.996255859375,-0.98834228515625,-0.19281005859375,0.073272705078125
1772534325132271900,7.00627197265625,-0.9897613525390625,-0.1939544677734375,0.071685791015625
1772534325142287600,7.01628759765625,-0.9866790771484375,-0.195831298828125,0.073333740234375
1772534325152304600,7.0263046875,-0.9907379150390625,-0.1996917724609375,0.0750274658203125
1772534325162320600,7.036320556640625,-0.984588623046875,-0.19610595703125,0.0728302001953125
1772534325172337000,7.0463369140625,-0.973114013671875,-0.1952362060546875,0.0686492919921875
1772534325182353000,7.056352783203125,-0.9710235595703125,-0.19708251953125,0.067840576171875
1772534325192369700,7.06636962890625,-0.97442626953125,-0.196929931640625,0.06549072265625
1772534325202385700,7.0763857421875,-0.979217529296875,-0.194915771484375,0.06756591796875
1772534325212401700,7.086401611328125,-0.981964111328125,-0.1945953369140625,0.07025146484375
1772534325222417700,7.096417724609375,-0.9801483154296875,-0.1966705322265625,0.0697784423828125
1772534325232434700,7.1064345703125,-0.9778289794921875,-0.2002410888671875,0.0740814208984375
1772534325242450700,7.11645068359375,-0.976043701171875,-0.19952392578125,0.07647705078125
1772534325252466700,7.126466796875,-0.9783172607421875,-0.200408935546875,0.076263427734375
1772534325262482700,7.136482666015625,-0.97784423828125,-0.199951171875,0.0793609619140625
1772534325272499700,7.146499755859375,-0.976043701171875,-0.200531005859375,0.075469970703125
1772534325282515700,7.156515625,-0.976226806640625,-0.1972198486328125,0.0712738037109375
1772534325292531700,7.16653173828125,-0.972381591796875,-0.193267822265625,0.0694122314453125
1772534325302547700,7.176547607421875,-0.968597412109375,-0.193939208984375,0.070526123046875
1772534325312563700,7.186563720703125,-0.9629669189453125,-0.197479248046875,0.07196044921875
1772534325322580700,7.196580810546875,-0.9635009765625,-0.19854736328125,0.073028564453125
1772534325332596700,7.2065966796875,-0.9711761474609375,-0.1993255615234375,0.07562255859375
1772534325342612700,7.21661279296875,-0.9827117919921875,-0.198028564453125,0.0757598876953125
1772534325352628700,7.226628662109375,-0.9906768798828125,-0.1915130615234375,0.0704193115234375
1772534325362645500,7.2366455078125,-0.9928436279296875,-0.187225341796875,0.069549560546875
1772534325372661500,7.24666162109375,-0.9891510009765625,-0.1902008056640625,0.0710906982421875
1772534325382677800,7.256677734375,-0.9856719970703125,-0.195465087890625,0.072845458984375
1772534325392693800,7.26669384765625,-0.9840087890625,-0.198394775390625,0.075103759765625
1772534325402711000,7.2767109375,-0.981689453125,-0.1974029541015625,0.0802001953125
1772534325412727000,7.28672705078125,-0.9801025390625,-0.1981964111328125,0.0823516845703125
1772534325422743000,7.296742919921875,-0.9759368896484375,-0.19757080078125,0.077911376953125
1772534325432759000,7.306759033203125,-0.97637939453125,-0.1935577392578125,0.071929931640625
1772534325442776300,7.3167763671875,-0.9770660400390625,-0.1895294189453125,0.0697784423828125
1772534325452792000,7.3267919921875,-0.979248046875,-0.190826416015625,0.072723388671875
1772534325462808000,7.33680810546875,-0.9821624755859375,-0.1962432861328125,0.0757293701171875
1772534325472824000,7.346823974609375,-0.97869873046875,-0.199432373046875,0.0770111083984375
1772534325482840000,7.356840087890625,-0.9742889404296875,-0.2001953125,0.078582763671875
1772534325492857300,7.366857421875,-0.9736785888671875,-0.199371337890625,0.0746917724609375
1772534325502873000,7.376873046875,-0.9745330810546875,-0.1946258544921875,0.070556640625
1772534325512889000,7.38688916015625,-0.9734039306640625,-0.1923828125,0.068634033203125
1772534325522905000,7.396905029296875,-0.9746856689453125,-0.194244384765625,0.0686492919921875
1772534325532922000,7.406922119140625,-0.9750213623046875,-0.1953887939453125,0.0683441162109375
1772534325542938000,7.416938232421875,-0.97430419921875,-0.19915771484375,0.0707855224609375
1772534325552954000,7.4269541015625,-0.975799560546875,-0.2017059326171875,0.0731964111328125
1772534325562970000,7.43697021484375,-0.9779510498046875,-0.2014617919921875,0.0732421875
1772534325572987100,7.446987060546875,-0.9805145263671875,-0.19818115234375,0.0697479248046875
1772534325583003100,7.457003173828125,-0.980621337890625,-0.1923828125,0.069061279296875
1772534325593019100,7.46701904296875,-0.977569580078125,-0.1918182373046875,0.068756103515625
1772534325603035100,7.47703515625,-0.97760009765625,-0.1964111328125,0.069732666015625
1772534325613052200,7.48705224609375,-0.9773712158203125,-0.1981353759765625,0.0726318359375
1772534325623068200,7.497068115234375,-0.9737548828125,-0.198150634765625,0.0775604248046875
1772534325633084200,7.507084228515625,-0.9701995849609375,-0.199005126953125,0.0781402587890625
1772534325643100000,7.517099853515625,-0.9738311767578125,-0.195098876953125,0.073974609375
1772534325653116200,7.5271162109375,-0.9735870361328125,-0.1928558349609375,0.07330322265625
1772534325663133200,7.53713330078125,-0.9751129150390625,-0.1948699951171875,0.07470703125
1772534325673149200,7.547149169921875,-0.9789581298828125,-0.1997528076171875,0.0791168212890625
1772534325683165200,7.557165283203125,-0.98211669921875,-0.2018280029296875,0.083404541015625
1772534325693181000,7.567180908203125,-0.981536865234375,-0.19952392578125,0.08123779296875
1772534325703198200,7.5771982421875,-0.9741058349609375,-0.1977996826171875,0.075531005859375
1772534325713214200,7.587214111328125,-0.9725189208984375,-0.19818115234375,0.0721435546875
1772534325723230200,7.597230224609375,-0.9736328125,-0.1947479248046875,0.0686798095703125
1772534325733246200,7.60724609375,-0.971649169921875,-0.1888427734375,0.0696563720703125
1772534325743263000,7.617262939453125,-0.9687042236328125,-0.18975830078125,0.0656280517578125
1772534325753279200,7.627279296875,-0.9737396240234375,-0.19207763671875,0.065948486328125
1772534325763295200,7.637295166015625,-0.9799346923828125,-0.19586181640625,0.071807861328125
1772534325773311200,7.647311279296875,-0.98687744140625,-0.201385498046875,0.07879638671875
1772534325783328000,7.657327880859375,-0.990814208984375,-0.2007598876953125,0.0793609619140625
1772534325793344000,7.667343994140625,-0.984954833984375,-0.1976165771484375,0.0776824951171875
1772534325803360300,7.6773603515625,-0.976898193359375,-0.19512939453125,0.073638916015625
1772534325813376300,7.687376220703125,-0.9703216552734375,-0.1955718994140625,0.0732879638671875
1772534325823392300,7.697392333984375,-0.9643402099609375,-0.195281982421875,0.0740203857421875
1772534325833409000,7.707408935546875,-0.9638671875,-0.19775390625,0.0761566162109375
1772534325843425000,7.717425048828125,-0.971710205078125,-0.1968994140625,0.0740966796875
1772534325853441000,7.72744091796875,-0.9802093505859375,-0.1942596435546875,0.07318115234375
1772534325863457300,7.737457275390625,-0.98406982421875,-0.19268798828125,0.0746002197265625
1772534325873474000,7.74747412109375,-0.98773193359375,-0.194976806640625,0.0782928466796875
1772534325883490000,7.757489990234375,-0.9852447509765625,-0.197113037109375,0.0782928466796875
1772534325893506000,7.767506103515625,-0.983154296875,-0.19879150390625,0.075592041015625
1772534325903522000,7.77752197265625,-0.9800262451171875,-0.198577880859375,0.0772857666015625
1772534325913539000,7.7875390625,-0.9743194580078125,-0.1971435546875,0.076629638671875
1772534325923555000,7.79755517578125,-0.969329833984375,-0.1971282958984375,0.0738525390625
1772534325933571000,7.807571044921875,-0.9667816162109375,-0.194549560546875,0.07073974609375
1772534325943587000,7.817587158203125,-0.967803955078125,-0.191131591796875,0.0657958984375
1772534325953604000,7.82760400390625,-0.96978759765625,-0.19012451171875,0.067626953125
1772534325963620000,7.8376201171875,-0.9717559814453125,-0.1901397705078125,0.0704193115234375
1772534325973636000,7.847635986328125,-0.9810028076171875,-0.19378662109375,0.0683441162109375
1772534325983652000,7.857652099609375,-0.9912261962890625,-0.1959228515625,0.071075439453125
1772534325993668000,7.867668212890625,-0.9933319091796875,-0.1966552734375,0.0753326416015625
1772534326003685000,7.87768505859375,-0.9900665283203125,-0.196807861328125,0.0743408203125
1772534326013701000,7.887701171875,-0.9860992431640625,-0.1936492919921875,0.0691375732421875
1772534326023717000,7.897717041015625,-0.9858245849609375,-0.1905364990234375,0.067169189453125
1772534326033733000,7.907733154296875,-0.97784423828125,-0.1894683837890625,0.0706329345703125
1772534326043750100,7.917750244140625,-0.968231201171875,-0.19244384765625,0.072479248046875
1772534326053766000,7.927765869140625,-0.9665985107421875,-0.1950531005859375,0.0743255615234375
1772534326063782100,7.9377822265625,-0.96905517578125,-0.1947174072265625,0.0772552490234375
1772534326073798100,7.947798095703125,-0.9719696044921875,-0.1958160400390625,0.077117919921875
1772534326083815200,7.957815185546875,-0.97833251953125,-0.1925506591796875,0.07501220703125
1772534326093831200,7.9678310546875,-0.981842041015625,-0.1887054443359375,0.0731658935546875
1772534326103847000,7.977846923828125,-0.986236572265625,-0.1907958984375,0.074737548828125
1772534326113863200,7.98786328125,-0.986846923828125,-0.192840576171875,0.075653076171875
1772534326123879200,7.997879150390625,-0.978271484375,-0.1935577392578125,0.07403564453125
1772534326133896200,8.007896240234375,-0.9673614501953125,-0.1936798095703125,0.073394775390625
1772534326143912200,8.017912109375,-0.963653564453125,-0.19403076171875,0.0750885009765625
1772534326153928000,8.027927978515624,-0.960174560546875,-0.1917572021484375,0.073394775390625
1772534326163944000,8.03794384765625,-0.95947265625,-0.1906585693359375,0.07080078125
1772534326173961200,8.047961181640625,-0.96697998046875,-0.19012451171875,0.0711212158203125
1772534326183977200,8.057977294921875,-0.98040771484375,-0.19091796875,0.0721435546875
1772534326193993200,8.0679931640625,-0.9898529052734375,-0.1897735595703125,0.0769500732421875
1772534326204009000,8.078009033203125,-0.9902801513671875,-0.192352294921875,0.078033447265625
1772534326214026200,8.088026123046875,-0.9920501708984375,-0.1945648193359375,0.077972412109375
1772534326224042200,8.098042236328125,-0.99359130859375,-0.1901397705078125,0.0791473388671875
1772534326234058200,8.108058349609376,-0.9844818115234375,-0.1866912841796875,0.077301025390625
1772534326244074000,8.118073974609375,-0.973724365234375,-0.1879119873046875,0.0730438232421875
1772534326254091000,8.128091064453125,-0.9720916748046875,-0.186859130859375,0.0710296630859375
1772534326264107300,8.138107177734375,-0.9716033935546875,-0.1863555908203125,0.072845458984375
1772534326274123300,8.148123291015626,-0.9737548828125,-0.1895599365234375,0.0765533447265625
1772534326284139300,8.15813916015625,-0.973846435546875,-0.1964111328125,0.084503173828125
1772534326294155000,8.168155029296875,-0.9763336181640625,-0.1969757080078125,0.08392333984375
1772534326304172000,8.178172119140624,-0.980133056640625,-0.195159912109375,0.082275390625
1772534326314188000,8.18818798828125,-0.9859466552734375,-0.19097900390625,0.0815582275390625
1772534326324204300,8.198204345703125,-0.9863433837890625,-0.1894683837890625,0.080078125
1772534326334220300,8.20822021484375,-0.9803009033203125,-0.1895599365234375,0.0740966796875
1772534326344237000,8.218237060546874,-0.9760589599609375,-0.18951416015625,0.0659942626953125
1772534326354253000,8.228253173828126,-0.978546142578125,-0.1858978271484375,0.06195068359375
1772534326364269000,8.23826904296875,-0.9846649169921875,-0.18328857421875,0.0644378662109375
1772534326374285300,8.248285400390625,-0.98468017578125,-0.1827545166015625,0.0641021728515625
1772534326384302000,8.258302001953124,-0.9771728515625,-0.182342529296875,0.06719970703125
1772534326394318000,8.268318115234376,-0.9713134765625,-0.1845855712890625,0.0664520263671875
1772534326404333800,8.278333740234375,-0.9774169921875,-0.192718505859375,0.0700836181640625
1772534326414350000,8.28835009765625,-0.975250244140625,-0.1920318603515625,0.0775146484375
1772534326424366000,8.298365966796876,-0.9788665771484375,-0.1888580322265625,0.0775604248046875
1772534326434382800,8.3083828125,-0.9881591796875,-0.188323974609375,0.07513427734375
1772534326444398800,8.31839892578125,-0.9973297119140625,-0.1844329833984375,0.071929931640625
1772534326454414800,8.328414794921875,-0.9987640380859375,-0.1823577880859375,0.07464599609375
1772534326464431000,8.33843115234375,-0.9948577880859375,-0.18505859375,0.075775146484375
1772534326474448000,8.34844775390625,-0.9821319580078125,-0.187744140625,0.073974609375
1772534326484463900,8.3584638671875,-0.970947265625,-0.187286376953125,0.07537841796875
1772534326494480000,8.36847998046875,-0.9666290283203125,-0.187164306640625,0.077911376953125
1772534326504495900,8.378495849609376,-0.9691162109375,-0.1894683837890625,0.081268310546875
1772534326514513000,8.388512939453125,-0.9722442626953125,-0.1891937255859375,0.086883544921875
1772534326524529000,8.39852880859375,-0.97955322265625,-0.1935272216796875,0.0901641845703125
1772534326534545000,8.408544921875,-0.9850006103515625,-0.1949615478515625,0.089324951171875
1772534326544561000,8.418560791015626,-0.9801025390625,-0.1927337646484375,0.08856201171875
1772534326554577000,8.428576904296875,-0.9739990234375,-0.1941375732421875,0.0858917236328125
1772534326564594000,8.438593994140625,-0.969757080078125,-0.1941375732421875,0.0812530517578125
1772534326574610000,8.44860986328125,-0.9717864990234375,-0.19158935546875,0.078948974609375
1772534326584626000,8.4586259765625,-0.9753265380859375,-0.1865692138671875,0.0749664306640625
1772534326594642000,8.468641845703125,-0.972991943359375,-0.1841278076171875,0.0677947998046875
1772534326604659000,8.478658935546875,-0.9758148193359375,-0.187042236328125,0.0680084228515625
1772534326614675000,8.488675048828124,-0.979827880859375,-0.1917877197265625,0.0698089599609375
1772534326624691000,8.49869091796875,-0.9825897216796875,-0.1956024169921875,0.0711822509765625
1772534326634707000,8.50870703125,-0.98040771484375,-0.1965789794921875,0.0718994140625
1772534326644724000,8.518723876953125,-0.9771270751953125,-0.1946868896484375,0.0722808837890625
1772534326654740000,8.528739990234374,-0.9769439697265625,-0.194183349609375,0.0700531005859375
1772534326664756000,8.538755859375,-0.9825439453125,-0.1924896240234375,0.0720977783203125
1772534326674772000,8.54877197265625,-0.992950439453125,-0.1908111572265625,0.0772552490234375
1772534326684788000,8.5587880859375,-0.99932861328125,-0.188079833984375,0.0787506103515625
1772534326694805000,8.568804931640624,-0.99664306640625,-0.185455322265625,0.0719146728515625
1772534326704821000,8.578821044921876,-0.98870849609375,-0.182098388671875,0.0664215087890625
1772534326714836700,8.588836669921875,-0.9845428466796875,-0.186279296875,0.0679931640625
1772534326724853000,8.59885302734375,-0.98309326171875,-0.1919708251953125,0.0730133056640625
1772534326734870000,8.6088701171875,-0.9819488525390625,-0.194305419921875,0.0804443359375
1772534326744886000,8.618885986328126,-0.9760284423828125,-0.1950836181640625,0.0826416015625
1772534326754901800,8.62890185546875,-0.97161865234375,-0.1961822509765625,0.0819091796875
1772534326764917800,8.638917724609374,-0.9697723388671875,-0.1928863525390625,0.0764007568359375
1772534326774935000,8.64893505859375,-0.9716644287109375,-0.1859893798828125,0.0721893310546875
1772534326784951000,8.658950927734375,-0.9691162109375,-0.1822662353515625,0.0696563720703125
1772534326794967000,8.668967041015625,-0.9643707275390625,-0.1851348876953125,0.06549072265625
1772534326804982800,8.678982666015624,-0.9674835205078125,-0.1884002685546875,0.06536865234375
1772534326814998800,8.688998779296876,-0.9752044677734375,-0.184906005859375,0.06268310546875
1772534326825016000,8.69901611328125,-0.9824981689453125,-0.1867828369140625,0.0661468505859375
1772534326835032000,8.709031982421875,-0.9930572509765625,-0.1875762939453125,0.0689239501953125
1772534326845048000,8.719048095703124,-0.9952545166015625,-0.190032958984375,0.073760986328125
1772534326855063800,8.729063720703126,-0.9903564453125,-0.1912841796875,0.0730133056640625
1772534326865080800,8.739080810546875,-0.983734130859375,-0.18853759765625,0.0678558349609375
1772534326875097000,8.74909716796875,-0.9814453125,-0.1859130859375,0.067840576171875
1772534326885113000,8.759113037109374,-0.980072021484375,-0.1843719482421875,0.0705718994140625
1772534326895129000,8.769129150390626,-0.9803466796875,-0.1856842041015625,0.076019287109375
1772534326905144800,8.779144775390625,-0.9717559814453125,-0.18780517578125,0.0791778564453125
1772534326915161900,8.789161865234375,-0.96685791015625,-0.191741943359375,0.081512451171875
1772534326925178000,8.79917822265625,-0.965087890625,-0.19232177734375,0.0833740234375
1772534326935194000,8.809194091796876,-0.961700439453125,-0.193328857421875,0.086578369140625
1772534326945209900,8.8192099609375,-0.96307373046875,-0.19281005859375,0.0892791748046875
1772534326955227000,8.829226806640625,-0.965057373046875,-0.1921539306640625,0.08660888671875
1772534326965243000,8.839242919921874,-0.967742919921875,-0.1893463134765625,0.0830841064453125
1772534326975259100,8.849259033203126,-0.96795654296875,-0.189422607421875,0.0786895751953125
1772534326985275100,8.859275146484375,-0.9766693115234375,-0.189056396484375,0.0757598876953125
1772534326995292000,8.8692919921875,-0.9826507568359375,-0.189971923828125,0.0746002197265625
1772534327005308000,8.879307861328124,-0.9853973388671875,-0.1898040771484375,0.0720062255859375
1772534327015324000,8.889323974609376,-0.9842376708984375,-0.1878814697265625,0.0668487548828125
1772534327025340000,8.89933984375,-0.982208251953125,-0.1873016357421875,0.0641021728515625
1772534327035356200,8.909356201171875,-0.9792938232421875,-0.1836395263671875,0.0618438720703125
1772534327045373000,8.919373046875,-0.9799652099609375,-0.1826629638671875,0.060455322265625
1772534327055389000,8.929388916015625,-0.9851226806640625,-0.1830902099609375,0.060943603515625
1772534327065405000,8.939405029296875,-0.9857177734375,-0.1830902099609375,0.06683349609375
1772534327075421000,8.9494208984375,-0.9818572998046875,-0.1892547607421875,0.072906494140625
1772534327085438000,8.95943798828125,-0.978729248046875,-0.19598388671875,0.0762939453125
1772534327095454000,8.969453857421875,-0.9781646728515625,-0.1945648193359375,0.0791015625
1772534327105470000,8.979469970703125,-0.97320556640625,-0.1883697509765625,0.079345703125
1772534327115486000,8.98948583984375,-0.9717864990234375,-0.1872406005859375,0.0799560546875
1772534327125503000,8.9995029296875,-0.97186279296875,-0.1898193359375,0.0792236328125
1772534327135519000,9.00951904296875,-0.971405029296875,-0.19073486328125,0.07867431640625
1772534327145535000,9.019534912109375,-0.972625732421875,-0.1907501220703125,0.0775146484375
1772534327155551000,9.029551025390624,-0.9754180908203125,-0.188934326171875,0.0771942138671875
1772534327165567000,9.03956689453125,-0.9803466796875,-0.188262939453125,0.077056884765625
1772534327175583700,9.049583740234375,-0.9817047119140625,-0.1891021728515625,0.0744476318359375
1772534327185600000,9.05960009765625,-0.98028564453125,-0.1891021728515625,0.068572998046875
1772534327195616000,9.069615966796874,-0.9837799072265625,-0.1873626708984375,0.066741943359375
1772534327205632000,9.079632080078126,-0.9832305908203125,-0.18572998046875,0.066375732421875
1772534327215648800,9.089648681640625,-0.9777374267578125,-0.1841888427734375,0.0643310546875
1772534327225664800,9.099664794921875,-0.9763641357421875,-0.18701171875,0.0626220703125
1772534327235681000,9.109680908203124,-0.9759063720703125,-0.1905670166015625,0.0633544921875
1772534327245697000,9.119697021484376,-0.9780426025390625,-0.1931915283203125,0.070556640625
1772534327255714000,9.129714111328125,-0.976806640625,-0.193145751953125,0.0731658935546875
1772534327265729800,9.139729736328125,-0.97393798828125,-0.19146728515625,0.071136474609375
1772534327275745800,9.149745849609374,-0.9704132080078125,-0.188934326171875,0.0671234130859375
1772534327285761800,9.15976171875,-0.965545654296875,-0.1859283447265625,0.0624542236328125
1772534327295778000,9.169778076171875,-0.9661102294921875,-0.1844940185546875,0.064117431640625
1772534327305795000,9.179795166015625,-0.9698944091796875,-0.1869354248046875,0.0682830810546875
1772534327315810800,9.189810791015624,-0.9828643798828125,-0.1892547607421875,0.07232666015625
1772534327325826800,9.199826904296875,-0.9899749755859375,-0.18865966796875,0.0753173828125
1772534327335842800,9.2098427734375,-0.9908905029296875,-0.18804931640625,0.078216552734375
1772534327345860000,9.219860107421875,-0.9926910400390625,-0.187744140625,0.0796356201171875
1772534327355876000,9.2298759765625,-0.996124267578125,-0.1855316162109375,0.078094482421875
1772534327365891800,9.239891845703125,-0.995880126953125,-0.1826629638671875,0.0784759521484375
1772534327375907800,9.249907958984375,-0.9935302734375,-0.1827850341796875,0.080047607421875
1772534327385923800,9.259923828125,-0.9929351806640625,-0.1811065673828125,0.07501220703125
1772534327395941000,9.269941162109374,-0.9928436279296875,-0.1768035888671875,0.071380615234375
1772534327405957000,9.27995703125,-0.9884033203125,-0.176788330078125,0.072265625
1772534327415973000,9.28997314453125,-0.9873809814453125,-0.1822662353515625,0.0758819580078125
1772534327425989000,9.299989013671874,-0.9814453125,-0.187774658203125,0.079010009765625
1772534327436006400,9.31000634765625,-0.975830078125,-0.192230224609375,0.08203125
1772534327449152300,9.32315234375,-0.97064208984375,-0.194000244140625,0.0818939208984375
1772534327459794200,9.333794189453124,-0.9654083251953125,-0.190582275390625,0.079315185546875
1772534327469810200,9.34381005859375,-0.9677886962890625,-0.18670654296875,0.072601318359375
1772534327479827200,9.3538271484375,-0.971649169921875,-0.1822967529296875,0.069061279296875
1772534327489843200,9.36384326171875,-0.9779205322265625,-0.180145263671875,0.06787109375
1772534327499859200,9.373859130859374,-0.98480224609375,-0.1802520751953125,0.0659027099609375
1772534327509875200,9.383875244140626,-0.9910888671875,-0.185028076171875,0.0680389404296875
1772534327519891200,9.39389111328125,-0.9921875,-0.1872406005859375,0.0695037841796875
1772534327529908200,9.403908203125,-0.986907958984375,-0.186492919921875,0.06964111328125
1772534327539924200,9.41392431640625,-0.9781494140625,-0.186004638671875,0.068359375
1772534327549940200,9.423940185546876,-0.968994140625,-0.183197021484375,0.064453125
1772534327559956200,9.433956298828125,-0.9641571044921875,-0.1808319091796875,0.064178466796875
1772534327569973200,9.44397314453125,-0.967132568359375,-0.1837615966796875,0.0701446533203125
1772534327579989200,9.4539892578125,-0.9743804931640625,-0.1854248046875,0.0736083984375
1772534327590005200,9.464005126953126,-0.98040771484375,-0.1848297119140625,0.07354736328125
1772534327600021200,9.474021240234375,-0.987640380859375,-0.184661865234375,0.0758819580078125
1772534327610037000,9.484037109375,-0.989013671875,-0.1851959228515625,0.079071044921875
1772534327620054300,9.49405419921875,-0.985931396484375,-0.1871185302734375,0.0791015625
1772534327630070300,9.5040703125,-0.986968994140625,-0.19000244140625,0.077117919921875
1772534327640086300,9.514086181640625,-0.9840240478515625,-0.1884002685546875,0.07672119140625
1772534327650102000,9.52410205078125,-0.9803466796875,-0.1873931884765625,0.0751953125
1772534327660119300,9.534119384765624,-0.97576904296875,-0.185272216796875,0.074249267578125
1772534327670135300,9.54413525390625,-0.96612548828125,-0.186767578125,0.0706634521484375
1772534327680151300,9.5541513671875,-0.961456298828125,-0.1850128173828125,0.0675201416015625
1772534327690167300,9.564167236328124,-0.9657440185546875,-0.1856689453125,0.06744384765625
1772534327700184000,9.57418408203125,-0.97454833984375,-0.18634033203125,0.0708160400390625
1772534327710200300,9.584200439453125,-0.9903411865234375,-0.1886444091796875,0.0731353759765625
1772534327720216300,9.59421630859375,-0.9984893798828125,-0.1862030029296875,0.074005126953125
1772534327730232300,9.604232421875,-1.0007476806640625,-0.186798095703125,0.075439453125
1772534327740248300,9.614248291015626,-0.996337890625,-0.1905517578125,0.0754547119140625
1772534327750265000,9.62426513671875,-0.9865264892578125,-0.190185546875,0.07177734375
1772534327760281000,9.634281005859375,-0.97711181640625,-0.1873321533203125,0.06787109375
1772534327770297300,9.64429736328125,-0.9700164794921875,-0.1861572265625,0.0677490234375
1772534327780313300,9.654313232421876,-0.9696197509765625,-0.1857452392578125,0.068511962890625
1772534327790956300,9.664956298828125,-0.973541259765625,-0.1864013671875,0.0697479248046875
1772534327800972300,9.67497216796875,-0.97491455078125,-0.18890380859375,0.072052001953125
1772534327810988300,9.68498828125,-0.971588134765625,-0.1897430419921875,0.0737152099609375
1772534327821004000,9.695004150390625,-0.9696502685546875,-0.18719482421875,0.072784423828125
1772534327831021300,9.705021240234375,-0.967132568359375,-0.1890869140625,0.07000732421875
1772534327841037300,9.715037353515624,-0.9741058349609375,-0.19134521484375,0.0713348388671875
1772534327851053300,9.72505322265625,-0.9805145263671875,-0.1908416748046875,0.073028564453125
1772534327861069300,9.7350693359375,-0.9840240478515625,-0.1891937255859375,0.07183837890625
1772534327871085000,9.7450849609375,-0.9835052490234375,-0.1863861083984375,0.069000244140625
1772534327881102000,9.75510205078125,-0.9782257080078125,-0.1812896728515625,0.0615386962890625
1772534327891118300,9.765118408203126,-0.98004150390625,-0.1770782470703125,0.0576934814453125
1772534327901134300,9.77513427734375,-0.98736572265625,-0.1793975830078125,0.060821533203125
1772534327911150300,9.785150390625,-0.9893035888671875,-0.1823883056640625,0.066741943359375
1772534327921167000,9.7951669921875,-0.9901580810546875,-0.188201904296875,0.07305908203125
1772534327931183000,9.80518310546875,-0.987335205078125,-0.190216064453125,0.0774688720703125
1772534327941199400,9.815199462890625,-0.976287841796875,-0.189208984375,0.077880859375
1772534327951215400,9.82521533203125,-0.972198486328125,-0.1881103515625,0.0751800537109375
1772534327961232100,9.835232177734374,-0.9627227783203125,-0.182647705078125,0.0704498291015625
1772534327971248000,9.845248046875,-0.9610748291015625,-0.1761474609375,0.0574951171875
1772534327981264100,9.85526416015625,-0.9790496826171875,-0.1842498779296875,0.060638427734375
1772534327991280400,9.8652802734375,-0.9827117919921875,-0.181915283203125,0.0735626220703125
1772534328001296400,9.87529638671875,-0.9871063232421875,-0.1910247802734375,0.0841217041015625
1772534328011313200,9.885313232421876,-0.984405517578125,-0.196685791015625,0.0879669189453125
1772534328021329200,9.8953291015625,-0.978179931640625,-0.1921539306640625,0.0854339599609375
1772534328031345200,9.90534521484375,-0.9779052734375,-0.1889190673828125,0.084442138671875
1772534328041361200,9.915361083984376,-0.9787139892578125,-0.1849822998046875,0.08197021484375
1772534328051378200,9.925378173828125,-0.97613525390625,-0.1856536865234375,0.0770263671875
1772534328061394200,9.935394287109375,-0.9738616943359375,-0.187255859375,0.0730133056640625
1772534328071410200,9.94541015625,-0.97259521484375,-0.1851654052734375,0.071136474609375
1772534328081426200,9.95542626953125,-0.9781951904296875,-0.1822357177734375,0.067230224609375
1772534328091442200,9.965442138671875,-0.9862518310546875,-0.181915283203125,0.06939697265625
1772534328101459200,9.975459228515625,-0.990142822265625,-0.1850738525390625,0.07513427734375
1772534328111475200,9.98547509765625,-0.9886932373046875,-0.189239501953125,0.0740966796875
1772534328121491200,9.9954912109375,-0.9823455810546875,-0.1921539306640625,0.0719146728515625
1772534328131507200,10.005507080078125,-0.9767608642578125,-0.19293212890625,0.0728607177734375
1772534328141524200,10.015524169921875,-0.968719482421875,-0.1901092529296875,0.071685791015625
1772534328151540200,10.025540283203124,-0.9632110595703125,-0.186187744140625,0.069549560546875
1772534328161556200,10.03555615234375,-0.9609832763671875,-0.1852874755859375,0.0676727294921875
1772534328171572200,10.045572265625,-0.97247314453125,-0.1845245361328125,0.0658111572265625
1772534328181588200,10.055588134765625,-0.9866790771484375,-0.18035888671875,0.065765380859375
1772534328191605000,10.06560498046875,-0.989959716796875,-0.178955078125,0.0689849853515625
1772534328201621200,10.075621337890626,-0.988433837890625,-0.1851654052734375,0.0720062255859375
1772534328211637200,10.08563720703125,-0.986907958984375,-0.187652587890625,0.0699920654296875
1772534328221653200,10.0956533203125,-0.9854583740234375,-0.183624267578125,0.0705413818359375
1772534328231670000,10.105669921875,-0.9809722900390625,-0.18328857421875,0.07354736328125
1772534328241686000,10.11568603515625,-0.9800872802734375,-0.1857147216796875,0.076751708984375
1772534328251702300,10.125702392578125,-0.9859619140625,-0.189849853515625,0.079376220703125
1772534328261718300,10.13571826171875,-0.9904632568359375,-0.1857757568359375,0.0800628662109375
1772534328271735300,10.1457353515625,-0.98675537109375,-0.1804656982421875,0.0769805908203125
1772534328281751000,10.1557509765625,-0.9825592041015625,-0.1807708740234375,0.0739288330078125
1772534328291767000,10.16576708984375,-0.9738006591796875,-0.18109130859375,0.0725860595703125
1772534328301783000,10.175782958984374,-0.9648284912109375,-0.1802215576171875,0.0712890625
1772534328311799300,10.18579931640625,-0.961639404296875,-0.1844635009765625,0.0738525390625
1772534328321816300,10.19581640625,-0.9644775390625,-0.1861724853515625,0.0750732421875
1772534328331832000,10.20583203125,-0.9707183837890625,-0.1834259033203125,0.07562255859375
1772534328341848000,10.21584814453125,-0.97747802734375,-0.1782989501953125,0.0743255615234375
1772534328351864000,10.225864013671876,-0.9823760986328125,-0.1767578125,0.071380615234375
1772534328361881300,10.23588134765625,-0.98675537109375,-0.1809844970703125,0.0736541748046875
1772534328371897300,10.2458974609375,-0.9871826171875,-0.183380126953125,0.07684326171875
1772534328381913000,10.2559130859375,-0.988983154296875,-0.182830810546875,0.0732574462890625
1772534328391929000,10.26592919921875,-0.990447998046875,-0.1775665283203125,0.0684356689453125
1772534328401945300,10.2759453125,-0.98406982421875,-0.1735687255859375,0.067962646484375
1772534328411962400,10.28596240234375,-0.9774627685546875,-0.17852783203125,0.070526123046875
1772534328421978000,10.29597802734375,-0.972198486328125,-0.1792144775390625,0.068267822265625
1772534328431994400,10.305994384765626,-0.9674835205078125,-0.1808929443359375,0.0735015869140625
1772534328442010400,10.31601025390625,-0.9683685302734375,-0.1844635009765625,0.077178955078125
1772534328452027400,10.32602734375,-0.9700469970703125,-0.1832275390625,0.0800933837890625
1772534328462043400,10.33604345703125,-0.9727020263671875,-0.1807403564453125,0.079925537109375
1772534328472059100,10.34605908203125,-0.9837799072265625,-0.1800994873046875,0.0779876708984375
1772534328482075100,10.3560751953125,-0.9936065673828125,-0.1765594482421875,0.07373046875
1772534328492091400,10.36609130859375,-1.0038299560546875,-0.17706298828125,0.0755462646484375
1772534328502108400,10.3761083984375,-1.010833740234375,-0.1811981201171875,0.0817108154296875
1772534328512124400,10.38612451171875,-1.0027313232421875,-0.1814117431640625,0.08050537109375
1772534328522140200,10.39614013671875,-0.9927215576171875,-0.1836090087890625,0.079864501953125
1772534328532156200,10.40615625,-0.9825592041015625,-0.18096923828125,0.0783233642578125
1772534328542173400,10.41617333984375,-0.973968505859375,-0.1791229248046875,0.0756072998046875
1772534328552189400,10.426189453125,-0.973968505859375,-0.1807098388671875,0.0743408203125
1772534328562205400,10.436205322265625,-0.9778594970703125,-0.17816162109375,0.0720367431640625
1772534328572221200,10.44622119140625,-0.98541259765625,-0.17828369140625,0.069000244140625
1772534328582237200,10.4562373046875,-0.9877777099609375,-0.17596435546875,0.067626953125
1772534328592254500,10.46625439453125,-0.9810943603515625,-0.1733856201171875,0.0679473876953125
1772534328602270500,10.4762705078125,-0.975830078125,-0.17498779296875,0.06536865234375
1772534328612286200,10.4862861328125,-0.975830078125,-0.176055908203125,0.065704345703125
1772534328622302200,10.49630224609375,-0.9816131591796875,-0.178985595703125,0.0721435546875
1772534328632319200,10.5063193359375,-0.98822021484375,-0.181610107421875,0.076751708984375
1772534328642335500,10.51633544921875,-0.984130859375,-0.182373046875,0.07916259765625
1772534328652351500,10.5263515625,-0.9762420654296875,-0.1800537109375,0.0794830322265625
1772534328662367200,10.5363671875,-0.9685516357421875,-0.18304443359375,0.0772857666015625
1772534328672383200,10.54638330078125,-0.96746826171875,-0.1772918701171875,0.0723876953125
1772534328682400300,10.556400146484375,-0.9675445556640625,-0.1728515625,0.06817626953125
1772534328692416500,10.56641650390625,-0.9693756103515625,-0.1764678955078125,0.07373046875
1772534328702432500,10.5764326171875,-0.9697723388671875,-0.182037353515625,0.077850341796875
1772534328712448300,10.5864482421875,-0.9826507568359375,-0.188629150390625,0.0819549560546875
1772534328722465300,10.59646533203125,-0.9928436279296875,-0.187255859375,0.08807373046875
1772534328732481300,10.606481201171874,-0.987945556640625,-0.18157958984375,0.0797119140625
1772534328742497300,10.616497314453126,-0.9782257080078125,-0.175140380859375,0.0666656494140625
1772534328752513500,10.626513427734375,-0.967376708984375,-0.168426513671875,0.060394287109375
1772534328762530300,10.6365302734375,-0.9458770751953125,-0.1682891845703125,0.06439208984375
1772534328772546300,10.64654638671875,-0.904144287109375,-0.181182861328125,0.04730224609375
1772534328782562300,10.656562255859376,-0.9251861572265625,-0.1868743896484375,0.0217132568359375
1772534328792578300,10.666578369140625,-1.0013885498046875,-0.169586181640625,0.04925537109375
1772534328802594300,10.67659423828125,-1.0430450439453125,-0.1613006591796875,0.0897979736328125
1772534328812611300,10.686611328125,-1.065216064453125,-0.1702728271484375,0.088958740234375
1772534328822627300,10.69662744140625,-1.060302734375,-0.175537109375,0.0810089111328125
1772534328832643300,10.706643310546875,-1.0344390869140625,-0.176849365234375,0.0826416015625
1772534328842659300,10.716659423828125,-1.0089111328125,-0.184356689453125,0.090972900390625
1772534328852676400,10.72667626953125,-0.9730377197265625,-0.182281494140625,0.0890350341796875
1772534328862692400,10.7366923828125,-0.9421844482421875,-0.1781158447265625,0.078369140625
1772534328872708400,10.746708251953125,-0.922637939453125,-0.171905517578125,0.0738525390625
