time,seconds_elapsed,z,y,x
1772534318172855800,0.046855712890625,0.0101977763697505,-0.019774237647652626,-0.07864554226398468
1772534318182872000,0.0568720703125,0.019751334562897682,-0.031197866424918175,-0.04230484738945961
1772534318192889000,0.06688916015625,0.014699850231409073,-0.023683758452534676,-0.02303900569677353
1772534318202904800,0.07690478515625,-0.0020748688839375973,-0.01992683671414852,-0.027472903952002525
1772534318212920800,0.0869208984375,-0.017717745155096054,-0.013611949048936367,-0.0351843535900116
1772534318222936800,0.096936767578125,-0.03128202259540558,-0.0057188719511032104,-0.03464746102690697
1772534318232954000,0.1069541015625,-0.039978574961423874,-0.0005685848882421851,-0.027954669669270515
1772534318242970000,0.11697021484375,-0.044085171073675156,-0.0033372072502970695,-0.017052486538887024
1772534318252985900,0.12698583984375,-0.04874809831380844,-0.004853344522416592,-0.0038125813007354736
1772534318263001900,0.137001953125,-0.05309198051691055,0.0020210728980600834,0.015778163447976112
1772534318273019000,0.147018798828125,-0.04995371028780937,-0.004887166898697615,0.02304406650364399
1772534318283035100,0.15703515625,-0.045944321900606155,-0.017409084364771843,0.019941218197345734
1772534318293051000,0.16705078125,-0.043359190225601196,-0.016981646418571472,0.01420636661350727
1772534318303067000,0.17706689453125,-0.046119291335344315,-0.006565757095813751,0.0005201153689995408
1772534318313084000,0.187083984375,-0.047016777098178864,-0.007528756279498339,-0.014751781709492207
1772534318323100000,0.197099853515625,-0.050826430320739746,-0.0001246359315700829,-0.021396102383732796
1772534318333116200,0.2071162109375,-0.05505473166704178,0.013236709870398045,-0.025595907121896744
1772534318343132000,0.2171318359375,-0.055932775139808655,0.010758638381958008,-0.0328034870326519
1772534318353149000,0.22714892578125,-0.05493675172328949,0.005634183529764414,-0.031124362722039223
1772534318363165000,0.2371650390625,-0.05675249546766281,0.007292001508176327,-0.029752302914857864
1772534318373181000,0.247180908203125,-0.0571807324886322,-0.0014855111949145794,-0.027964256703853607
1772534318383197000,0.257197021484375,-0.05711149051785469,0.001181111903861165,-0.034919366240501404
1772534318393214000,0.2672138671875,-0.05116758123040199,-0.006070409435778856,-0.045996520668268204
1772534318403230200,0.277230224609375,-0.04569345340132713,-0.012095012702047825,-0.04547294229269028
1772534318413246200,0.28724609375,-0.04289553686976433,-0.0010410296963527799,-0.043714724481105804
1772534318423263000,0.297262939453125,-0.0390683077275753,-0.0013821806060150266,-0.052684783935546875
1772534318433279000,0.307279052734375,-0.03527703136205673,-0.010520018637180328,-0.06656331568956375
1772534318443295000,0.317294921875,-0.032522521913051605,-0.011273693293333054,-0.07686521857976913
1772534318453311000,0.32731103515625,-0.02797411009669304,-0.00436012726277113,-0.07924981415271759
1772534318463328000,0.337327880859375,-0.024874189868569374,-0.003934287931770086,-0.08064371347427368
1772534318473344000,0.347343994140625,-0.018814699724316597,0.0010804444318637252,-0.08466055989265442
1772534318483360000,0.357360107421875,-0.007378287613391876,-0.0020397149492055178,-0.08744462579488754
1772534318493376000,0.3673759765625,-0.0011944277212023735,-0.010899253189563751,-0.09192486107349396
1772534318503393300,0.377393310546875,0.0008452873444184661,-0.009591907262802124,-0.09305963665246964
1772534318513409000,0.387408935546875,0.002257561543956399,-0.0026991136837750673,-0.08172069489955902
1772534318523425000,0.397425048828125,0.003983556292951107,-0.0018106831703335047,-0.07683006674051285
1772534318533441000,0.40744091796875,0.010705108754336834,-0.005508216097950935,-0.06908266246318817
1772534318543458000,0.4174580078125,0.016871923580765724,-0.011693141423165798,-0.06597528606653214
1772534318553474300,0.427474365234375,0.022403841838240623,-0.009256881661713123,-0.06205085292458534
1772534318563490000,0.437489990234375,0.026942402124404907,-0.011995144188404083,-0.06332065165042877
1772534318573507000,0.447507080078125,0.026744263246655464,-0.006873885169625282,-0.05982711538672447
1772534318583523000,0.457523193359375,0.02677115984261036,0.0014269216917455196,-0.050210971385240555
1772534318593539000,0.4675390625,0.029810626059770584,-0.008452607318758965,-0.031438615173101425
1772534318603555000,0.47755517578125,0.03424292430281639,-0.018338793888688087,-0.020069582387804985
1772534318613572000,0.487572021484375,0.038309838622808456,-0.02184511162340641,-0.013864150270819664
1772534318623588000,0.497588134765625,0.03681980073451996,-0.01128035131841898,-0.013578658923506737
1772534318633604000,0.50760400390625,0.032594162970781326,-0.002764627570286393,-0.01811535470187664
1772534318643620000,0.5176201171875,0.027291808277368546,-0.005088235717266798,-0.016216520220041275
1772534318653637000,0.52763720703125,0.020730046555399895,-0.004988100845366716,-0.011468636803328991
1772534318663653000,0.537653076171875,0.015015700832009315,-0.0014194648247212172,-0.0009006810723803937
1772534318673669000,0.547669189453125,0.012152004055678844,-0.0032887374982237816,0.004960137419402599
1772534318683685000,0.55768505859375,0.01121989730745554,-0.005260009318590164,0.008738097734749317
1772534318693702000,0.567701904296875,0.012467854656279087,-0.008490690030157566,0.012623916380107403
1772534318703718100,0.57771826171875,0.0201601292937994,-0.008300273679196835,0.011906727217137814
1772534318713734100,0.587734130859375,0.02363954856991768,-0.011146128177642822,0.005824333056807518
1772534318723750100,0.597750244140625,0.02538738213479519,-0.0035340148024260998,-0.004507133737206459
1772534318733767000,0.607766845703125,0.02371065504848957,0.007183344569057226,-0.013673733919858932
1772534318743783000,0.617782958984375,0.024417458102107048,0.008898420259356499,-0.015133146196603775
1772534318753799000,0.627798828125,0.01938221976161003,0.0030804784037172794,-0.007249124348163605
1772534318763815200,0.637815185546875,0.01648177206516266,0.0022538332268595695,0.005304484162479639
1772534318773832200,0.647832275390625,0.017972342669963837,-0.002499909373000264,0.014461230486631393
1772534318783848000,0.657847900390625,0.019755594432353973,0.0006681871018372476,0.017975805327296257
1772534318793864000,0.667864013671875,0.022163625806570053,0.0021028320770710707,0.01931644044816494
1772534318803881200,0.677881103515625,0.0262430552393198,-0.0005693838465958834,0.014974155463278294
1772534318813897200,0.687897216796875,0.027047863230109215,0.0031814121175557375,0.008947421796619892
1772534318823913200,0.697913330078125,0.025303492322564125,0.00926167517900467,-0.001996305538341403
1772534318833929000,0.707928955078125,0.0291214007884264,0.011176754720509052,-0.014319018460810184
1772534318843946000,0.717946044921875,0.029631394892930984,0.009228652343153954,-0.025892317295074463
1772534318853962200,0.727962158203125,0.029763221740722656,0.007647267077118158,-0.032828785479068756
1772534318863978200,0.737978271484375,0.026489930227398872,0.007876032963395119,-0.040770597755908966
1772534318873994200,0.747994140625,0.024337030947208405,0.012145878747105598,-0.04723728820681572
1772534318884011000,0.758010986328125,0.022653380408883095,0.00821771565824747,-0.05284563824534416
1772534318894027000,0.768027099609375,0.024874722585082054,0.0067756143398582935,-0.05072629451751709
1772534318904043000,0.77804296875,0.027217239141464233,0.0017358483746647835,-0.044924862682819366
1772534318914059300,0.788059326171875,0.031244738027453423,-0.0051625375635921955,-0.03783100098371506
1772534318924076000,0.798075927734375,0.03623789921402931,-0.008364456705749035,-0.02852431870996952
1772534318934092000,0.808092041015625,0.03706720843911171,-0.012492089532315731,-0.018262360244989395
1772534318944108000,0.81810791015625,0.03692632541060448,-0.015443936921656132,-0.008475510403513908
1772534318954124000,0.8281240234375,0.035046134144067764,-0.02142939157783985,-0.0037260286044329405
1772534318964141000,0.83814111328125,0.030065223574638367,-0.023207318037748337,-0.0019406455103307962
1772534318974157000,0.848156982421875,0.026437999680638313,-0.020144948735833168,-0.007752728182822466
1772534318984173000,0.858173095703125,0.02527526207268238,-0.006720220670104027,-0.01404684316366911
1772534318994190000,0.868190185546875,0.025511484593153,-0.000898550555575639,-0.01296560000628233
1772534319004206000,0.8782060546875,0.02737649716436863,-0.005968144163489342,-0.009334113448858261
1772534319014222000,0.88822216796875,0.029920615255832672,-0.0073322150856256485,-0.011480887420475483
1772534319024238000,0.898238037109375,0.03139813616871834,-0.007862450554966927,-0.011758122593164444
1772534319034255000,0.908255126953125,0.03321654349565506,-0.006387059111148119,-0.012794358655810356
1772534319044271000,0.91827099609375,0.03321467712521553,-0.006533532869070768,-0.01739630103111267
1772534319054286800,0.928286865234375,0.035528432577848434,0.0004410194815136492,-0.02100089006125927
1772534319064303000,0.93830322265625,0.03540007025003433,-0.00023542344570159912,-0.017914552241563797
1772534319074320100,0.948320068359375,0.0327901691198349,-0.0029643645975738764,-0.011902465485036373
1772534319084336000,0.958336181640625,0.03001781925559044,-0.009240636602044106,-0.0016178702935576439
1772534319094352100,0.96835205078125,0.02557007409632206,-0.008758870884776115,0.0049369679763913155
1772534319104367900,0.978367919921875,0.020555607974529266,-0.011959191411733627,0.0011142665753141046
1772534319114385200,0.98838525390625,0.01751481182873249,-0.011780492961406708,-0.004286624025553465
1772534319124401200,0.998401123046875,0.012163189239799976,-0.011086206883192062,-0.009471000172197819
1772534319134417200,1.008417236328125,0.011387676931917667,-0.010786601342260838,-0.012552809901535511
1772534319144433000,1.018432861328125,0.00797563511878252,-0.007963650859892368,-0.016376841813325882
1772534319154450200,1.0284501953125,0.0049092709086835384,-0.0032706281635910273,-0.009072590619325638
1772534319164466200,1.038466064453125,-0.00037230990710668266,-0.004201935604214668,0.0041308291256427765
1772534319174482200,1.048482177734375,-0.0026818031910806894,-0.008450476452708244,0.018926819786429405
1772534319184498200,1.058498291015625,-0.004631769843399525,-0.010053965263068676,0.0357058010995388
1772534319194515000,1.068514892578125,-0.003620034782215953,-0.008495749905705452,0.04387611150741577
1772534319204531200,1.07853125,-0.0003605920064728707,-0.010236391797661781,0.04343589022755623
1772534319214547200,1.088547119140625,0.0029430591966956854,-0.01992843486368656,0.04650704935193062
1772534319224563200,1.098563232421875,0.010950651951134205,-0.026995398104190826,0.04706764221191406
1772534319234580000,1.108580078125,0.016763800755143166,-0.011121094226837158,0.03464825823903084
1772534319244596000,1.118595947265625,0.015366706065833569,0.008352738805115223,0.019528694450855255
1772534319254612000,1.128612060546875,0.011208978481590748,0.010118680074810982,0.006389988586306572
1772534319264628200,1.138628173828125,0.008827047422528267,0.012773851864039898,0.00276116537861526
1772534319274645000,1.14864501953125,0.007002515718340874,0.0073351445607841015,0.002293247962370515
1772534319284661000,1.158660888671875,0.012232164852321148,-0.00034967303508892655,0.007707720622420311
1772534319294677000,1.168677001953125,0.016808008775115013,-0.012600746937096119,0.0179371889680624
1772534319304694300,1.1786943359375,0.01894705928862095,-0.018919628113508224,0.02165309712290764
1772534319314710000,1.1887099609375,0.020541761070489883,-0.02154923416674137,0.02401026152074337
1772534319324726000,1.19872607421875,0.017789915204048157,-0.026986343786120415,0.011577027849853039
1772534319334742000,1.208741943359375,0.01347479596734047,-0.009841445833444595,0.0067971860989928246
1772534319344759000,1.218759033203125,0.004950284026563168,0.008096808567643166,0.004238953348249197
1772534319354775300,1.228775390625,-0.002109756227582693,0.009236374869942665,-0.006563360337167978
1772534319364791000,1.238791015625,-0.009186574257910252,0.012077435851097107,-0.01113494299352169
1772534319374807000,1.24880712890625,-0.01449798233807087,0.012922989204525948,-0.006372145377099514
1772534319384824000,1.258823974609375,-0.014524081721901894,0.005321528296917677,0.004715925548225641
1772534319394840600,1.268840576171875,-0.009953298605978489,-0.0014231932582333684,0.01848047412931919
1772534319404856300,1.278856201171875,-0.001511610229499638,-0.008250206708908081,0.033296968787908554
1772534319414872300,1.288872314453125,-0.001416269107721746,-0.006699447985738516,0.039449404925107956
1772534319424889600,1.2988896484375,0.0008641957538202405,-0.002442118711769581,0.041297104209661484
1772534319434905600,1.308905517578125,0.0025419872254133224,-0.0006178533658385277,0.04531421884894371
1772534319444921600,1.318921630859375,0.006074670236557722,0.0051593417301774025,0.043657999485731125
1772534319454937300,1.328937255859375,0.00920601561665535,0.00640942994505167,0.04036180302500725
1772534319464954400,1.338954345703125,0.011457451619207859,0.012346414849162102,0.03056749701499939
1772534319474970400,1.348970458984375,0.016894826665520668,0.015409848652780056,0.014006363227963448
1772534319484986600,1.358986572265625,0.018388329073786736,0.0014029532903805375,0.00959909800440073
1772534319495002600,1.369002685546875,0.018245317041873932,0.01495098602026701,0.0075841499492526054
1772534319505019400,1.379019287109375,0.017004815861582756,0.009820406325161457,0.0031433289404958487
1772534319515035400,1.389035400390625,0.01678350754082203,0.008558334782719612,0.004748149774968624
1772534319525051400,1.399051513671875,0.014464160427451134,0.001344896387308836,0.006447246763855219
1772534319535067600,1.409067626953125,0.013116334564983845,-0.001989913871511817,0.007984955795109272
1772534319545084400,1.41908447265625,0.011959990486502647,0.0022272015921771526,0.008828645572066307
1772534319555100400,1.429100341796875,0.0043835630640387535,0.004688761197030544,0.010100571438670158
1772534319565116400,1.439116455078125,-0.0008431567694060504,0.012542955577373505,0.009209210984408855
1772534319575133400,1.449133544921875,-0.0033393376506865025,0.014009025879204273,0.01134027261286974
1772534319585149400,1.4591494140625,-0.0005704491049982607,0.007081078831106424,0.016683904454112053
1772534319595165400,1.46916552734375,0.000494016392622143,0.0036424053832888603,0.017499364912509918
1772534319605181400,1.479181396484375,0.001529187080450356,0.004238154739141464,0.020653346553444862
1772534319615198500,1.489198486328125,0.00008335694292327389,0.0074030552059412,0.02111753635108471
1772534319625214500,1.49921435546875,-0.004656004719436169,0.01155945099890232,0.018667960539460182
1772534319635230500,1.50923046875,-0.008273642510175705,0.013145629316568375,0.019167035818099976
1772534319645246500,1.51924658203125,-0.0046911584213376045,0.00490314606577158,0.020981181412935257
1772534319655263500,1.529263427734375,-0.005588111001998186,0.005823534447699785,0.020742297172546387
1772534319665279500,1.539279541015625,-0.0035481294617056847,0.014540859498083591,0.015196263790130615
1772534319675295200,1.549295166015625,-0.0002364887041039765,0.01606019213795662,0.00887684803456068
1772534319685311500,1.5593115234375,0.005569468718022108,0.014753912575542927,0.004998753312975168
1772534319695328500,1.56932861328125,0.009074188768863678,0.015451926738023758,0.007545268163084984
1772534319705344500,1.579344482421875,0.005887716542929411,0.012182630598545074,0.017903367057442665
1772534319715360500,1.589360595703125,0.0026056368369609118,0.007045126520097256,0.030777886509895325
1772534319725376300,1.599376220703125,0.0003557983145583421,0.005601959303021431,0.03792261332273483
1772534319735393500,1.6093935546875,0.00011611382069531828,0.001564873498864472,0.04490888491272926
1772534319745409500,1.619409423828125,0.005179582163691521,-0.00022929816623218358,0.053468815982341766
1772534319755425500,1.629425537109375,0.004849350079894066,-0.0031127026304602623,0.06437632441520691
1772534319765441500,1.639441650390625,0.0075822859071195126,-0.007407582364976406,0.0724097490310669
1772534319775458300,1.649458251953125,0.006226204335689545,-0.0007326356135308743,0.06997855007648468
1772534319785474600,1.659474609375,0.0006868292111903429,0.007933024317026138,0.05951951816678047
1772534319795490600,1.669490478515625,-0.004463191609829664,0.013523265719413757,0.051351871341466904
1772534319805506600,1.679506591796875,-0.0059897154569625854,0.012712599709630013,0.04566655308008194
1772534319815523300,1.6895234375,-0.003635214874520898,0.009504289366304874,0.03942783176898956
1772534319825539300,1.699539306640625,-0.0047116647474467754,-0.0030309436842799187,0.033127062022686005
1772534319835555600,1.7095556640625,0.004475442226976156,0.019642144441604614,0.017892448231577873
1772534319845571600,1.719571533203125,0.0049795787781476974,0.01299542747437954,-0.0046173888258636
1772534319855588400,1.72958837890625,0.0022309301421046257,0.02588299661874771,-0.01944294013082981
1772534319865604400,1.739604248046875,0.0027720844373106956,0.027713652700185776,-0.025548236444592476
1772534319875620400,1.749620361328125,0.002231728984043002,0.01738777942955494,-0.02394341677427292
1772534319885636600,1.75963671875,0.005103948060423136,0.013236177153885365,-0.013144031167030334
1772534319895653400,1.7696533203125,0.011753329075872898,0.0041369544342160225,-0.0008503473363816738
1772534319905669400,1.77966943359375,0.014681740663945675,-0.0026288062799721956,0.009418003261089325
1772534319915685400,1.789685302734375,0.014396782033145428,-0.003454652614891529,0.0160633884370327
1772534319925702400,1.799702392578125,0.013657488860189915,0.0000977380113909021,0.01525591779500246
1772534319935718700,1.80971875,0.008984173648059368,0.009088569320738316,0.011050254106521606
1772534319945734400,1.819734375,-0.0013169331941753626,0.016658073291182518,0.002469815546646714
1772534319955750400,1.82975048828125,-0.0035838158801198006,0.020303940400481224,-0.0018745990237221122
1772534319965767400,1.839767333984375,-0.0051990230567753315,0.016231967136263847,-0.005775863770395517
1772534319975783400,1.849783447265625,-0.005658418405801058,0.01444125734269619,-0.00021784658019896597
1772534319985799400,1.85979931640625,-0.004878644831478596,0.011837217956781387,0.004341219086199999
1772534319995815400,1.8698154296875,-0.0011416971683502197,0.0085439532995224,0.008638495579361916
1772534320005832400,1.87983251953125,0.004975051153451204,0.0008804410463199019,0.007881625555455685
1772534320015848400,1.889848388671875,0.011620703153312206,0.003439472522586584,0.0032948628067970276
1772534320025864400,1.899864501953125,0.016623452305793762,0.004775580484420061,0.006580404471606016
1772534320035880400,1.90988037109375,0.02191009186208248,-0.0011768508702516556,0.024514663964509964
1772534320045897500,1.9198974609375,0.02756478264927864,-0.009306682273745537,0.04590863734483719
1772534320055913500,1.92991357421875,0.024693628773093224,-0.01395656168460846,0.06818597763776779
1772534320065929500,1.939929443359375,0.01805463433265686,-0.015668975189328194,0.08358171582221985
1772534320075945500,1.949945556640625,0.013464409857988358,-0.00812344066798687,0.08342298865318298
1772534320085962500,1.95996240234375,0.008322911337018013,-0.002603772561997175,0.07089947164058685
1772534320095978500,1.969978515625,0.006555637344717979,0.007498396094888449,0.051056258380413055
1772534320105994500,1.979994384765625,0.010948787443339825,0.015274027362465858,0.037276264280080795
1772534320116010500,1.990010498046875,0.018615761771798134,0.0054757255129516125,0.027053188532590866
1772534320126027300,2.00002734375,0.023063506931066513,-0.0019619506783783436,0.013467871583998203
1772534320136043500,2.01004345703125,0.02532346546649933,0.020119914785027504,0.002814428647980094
1772534320146059500,2.0200595703125,0.02647075615823269,0.014023141004145145,-0.010912569239735603
1772534320156075500,2.030075439453125,0.03166844695806503,0.007366303354501724,-0.015201590023934841
1772534320166092300,2.04009228515625,0.03172517195343971,0.005063734482973814,-0.013251889497041702
1772534320176108300,2.0501083984375,0.024037692695856094,-0.00818229652941227,-0.011480621062219143
1772534320186124500,2.06012451171875,0.009664079174399376,0.0007195860962383449,0.000996821210719645
1772534320196140500,2.070140625,0.0011265170760452747,0.004807271994650364,0.028387965634465218
1772534320206157600,2.080157470703125,-0.0004295678809285164,-0.009726663120090961,0.07112637162208557
1772534320216173300,2.09017333984375,0.010092048905789852,-0.02720019593834877,0.10805775970220566
1772534320226189300,2.100189208984375,0.024700818583369255,-0.036380376666784286,0.14212225377559662
1772534320236205300,2.110205322265625,0.03626905754208565,-0.0777864083647728,0.18486465513706207
1772534320246222600,2.12022265625,0.04995477572083473,-0.08696845173835754,0.20543065667152405
1772534320256238300,2.13023828125,0.03677133098244667,-0.0879540890455246,0.20788103342056274
1772534320266254300,2.14025439453125,0.028924591839313507,-0.10727851837873459,0.21379084885120392
1772534320276270300,2.150270263671875,0.008518652990460396,-0.09959450364112854,0.19929340481758118
1772534320286287600,2.16028759765625,-0.013804228976368904,-0.020957479253411293,0.17030195891857147
1772534320296303600,2.1703037109375,-0.04910203069448471,-0.003471696749329567,0.19437241554260254
1772534320306319400,2.1803193359375,-0.037700772285461426,-0.014297712594270706,0.23668284714221954
1772534320316335400,2.19033544921875,0.0034416031558066607,-0.08216091245412827,0.2722238004207611
1772534320326352400,2.200352294921875,0.03838840126991272,-0.11509063839912415,0.29287075996398926
1772534320336368600,2.21036865234375,0.05965054780244827,-0.08231165260076523,0.2943892776966095
1772534320346384600,2.220384521484375,0.06121888384222984,-0.05702520161867142,0.3036767840385437
1772534320356401400,2.2304013671875,0.06921263039112091,-0.02877039462327957,0.30562248826026917
1772534320366417400,2.24041748046875,0.0706145167350769,-0.04818430542945862,0.3041524291038513
1772534320376433400,2.250433349609375,0.06391187012195587,-0.046480417251586914,0.27432236075401306
1772534320386449400,2.260449462890625,0.033678602427244186,-0.014280934818089008,0.22936634719371796
1772534320396465700,2.270465576171875,-0.005362274590879679,-0.00624058535322547,0.18618611991405487
1772534320406481700,2.280481689453125,-0.03611486032605171,0.05794639140367508,0.1347133368253708
1772534320416497700,2.29049755859375,-0.08364136517047882,0.0598771832883358,0.07331469655036926
1772534320426513700,2.300513671875,-0.11503071337938309,0.08436015248298645,0.05173829570412636
1772534320436530700,2.31053076171875,-0.11462485045194626,0.09425992518663406,0.03995008021593094
1772534320446546700,2.320546630859375,-0.07777176052331924,0.0522453598678112,0.018446385860443115
1772534320456562700,2.330562744140625,-0.036380644887685776,0.021082649007439613,0.003081277245655656
1772534320466578700,2.34057861328125,0.003481284249573946,0.0020391824655234814,-0.004855741746723652
1772534320476595700,2.350595703125,0.028824457898736,-0.01673157513141632,-0.006376140285283327
1772534320486611700,2.36061181640625,0.034811776131391525,-0.010868626646697521,-0.00612234091386199
1772534320496627700,2.370627685546875,0.030788006260991096,0.004306331276893616,-0.008597482927143574
1772534320506643700,2.380643798828125,0.027454260736703873,-0.027766117826104164,-0.013707556761801243
1772534320516660700,2.39066064453125,0.023314110934734344,-0.021406754851341248,-0.02672135829925537
1772534320526676700,2.4006767578125,0.01161670871078968,-0.014930480159819126,-0.053278401494026184
1772534320536692700,2.410692626953125,-0.002743055811151862,-0.00018668759730644524,-0.07851478457450867
1772534320546708500,2.42070849609375,-0.007931958884000778,0.013891846872866154,-0.0957488939166069
1772534320556725800,2.430725830078125,-0.009850233793258667,0.012540026567876339,-0.11315957456827164
1772534320566741800,2.44074169921875,-0.007909322157502174,0.024574851617217064,-0.10977762937545776
1772534320576757800,2.4507578125,-0.005151885095983744,0.031992021948099136,-0.0961233377456665
1772534320586773800,2.460773681640625,0.00455640209838748,0.017614679411053658,-0.07681435346603394
1772534320596790800,2.470790771484375,0.01398585643619299,0.016016516834497452,-0.037938326597213745
1772534320606806800,2.480806884765625,0.02382570505142212,0.0068030450493097305,-0.00863157119601965
1772534320616822800,2.49082275390625,0.025909360498189926,-0.01858486980199814,0.006346312817186117
1772534320626838800,2.5008388671875,0.01655580662190914,-0.023813987150788307,0.014652445912361145
1772534320636855600,2.51085546875,-0.0013707289472222328,-0.006339388433843851,0.011993812397122383
1772534320646871800,2.520871826171875,-0.01612810418009758,0.006671750918030739,-0.004233627114444971
1772534320656887800,2.5308876953125,-0.022776952013373375,0.015690013766288757,-0.020005665719509125
1772534320666903800,2.54090380859375,-0.021504227072000504,0.017843978479504585,-0.03098135255277157
1772534320676920600,2.550920654296875,-0.014013287611305714,0.014229269698262215,-0.04153492674231529
1772534320686936600,2.5609365234375,-0.003085538512095809,0.016443155705928802,-0.032704949378967285
1772534320696952600,2.57095263671875,0.011450527235865593,0.001127582392655313,-0.02646809257566929
1772534320706968800,2.58096875,0.025135979056358337,-0.008510664105415344,-0.0201627928763628
1772534320716985600,2.590985595703125,0.0322471521794796,-0.01420583389699459,-0.022597720846533775
1772534320727001600,2.601001708984375,0.026607375591993332,-0.013768808916211128,-0.03706108033657074
1772534320737017600,2.611017578125,0.018163025379180908,-0.0032836776226758957,-0.060564275830984116
1772534320747033600,2.62103369140625,0.004589159041643143,0.013353888876736164,-0.07167551666498184
1772534320757051000,2.63105078125,-0.007003581151366234,0.021093567833304405,-0.07912225276231766
1772534320767066600,2.641066650390625,-0.011519236490130424,0.01095464639365673,-0.08250952512025833
1772534320777082600,2.65108251953125,-0.009187106974422932,0.0008277104352600873,-0.07977685332298279
1772534320787098600,2.6610986328125,-0.0065801385790109634,-0.006816360633820295,-0.07084381580352783
1772534320797116000,2.671115966796875,-0.004634965676814318,-0.0014176006661728024,-0.06064736843109131
1772534320807131600,2.681131591796875,0.00005299690383253619,0.005317001137882471,-0.046901196241378784
1772534320817147600,2.691147705078125,0.007667773403227329,0.00968405231833458,-0.03694150596857071
1772534320827163600,2.70116357421875,0.018452243879437447,0.0007731156656518579,-0.024502146989107132
1772534320837180700,2.7111806640625,0.024033963680267334,-0.009700298309326172,-0.014033793471753597
1772534320847197000,2.721197021484375,0.01937795802950859,-0.009890181012451649,-0.0069489860907197
1772534320857212700,2.731212646484375,0.006118612363934517,-0.008674981072545052,-0.00923397857695818
1772534320867228700,2.741228759765625,-0.006369215901941061,-0.0028216191567480564,-0.017466608434915543
1772534320877245700,2.75124560546875,-0.009129316546022892,0.004653607495129108,-0.023725835606455803
1772534320887261700,2.76126171875,-0.007589742541313171,0.010372213087975979,-0.03302000090479851
1772534320897277700,2.771277587890625,0.00048389637959189713,0.014567224308848381,-0.03431909158825874
1772534320907294700,2.781294677734375,0.006397445686161518,0.0076091839000582695,-0.03696121275424957
1772534320917310700,2.791310791015625,0.006503705866634846,0.007763380650430918,-0.03615773841738701
1772534320927326700,2.80132666015625,0.006000102031975985,0.004263720940798521,-0.02646649442613125
1772534320937342700,2.8113427734375,0.007321029901504517,-0.008243015967309475,-0.019943080842494965
1772534320947359700,2.82135986328125,0.0005957491230219603,-0.00544403400272131,-0.02280145324766636
1772534320957375700,2.831375732421875,-0.005417935084551573,-0.0044107274152338505,-0.03653137758374214
1772534320967391700,2.841391845703125,-0.006447246763855219,0.007539409212768078,-0.051967594772577286
1772534320977407700,2.85140771484375,-0.004898884799331427,0.00926194153726101,-0.06037093326449394
1772534320987424500,2.861424560546875,-0.003334543900564313,0.003943076357245445,-0.061580006033182144
1772534320997440800,2.871440673828125,-0.005697300657629967,0.010427340865135193,-0.0568811260163784
1772534321007456800,2.881456787109375,-0.007020092569291592,0.008023039437830448,-0.05049726366996765
1772534321017472800,2.89147265625,-0.009109076112508774,-0.0020122844725847244,-0.044075049459934235
1772534321027489500,2.901489501953125,-0.017558753490447998,0.001327053178101778,-0.031202660873532295
1772534321037505500,2.911505615234375,-0.02081659808754921,0.005969741847366095,-0.017795775085687637
1772534321047521500,2.921521484375,-0.016509734094142914,0.005886118393391371,-0.011628426611423492
1772534321057537800,2.931537841796875,-0.015482819639146328,0.00006924218905624002,-0.002953445538878441
1772534321067554800,2.941554931640625,-0.013813816010951996,0.001210673013702035,-0.005832056514918804
1772534321077570600,2.951570556640625,-0.01465670671314001,0.008551943115890026,-0.01047181524336338
1772534321087586600,2.961586669921875,-0.02052098698914051,0.026607109233736992,-0.01894253119826317
1772534321097602600,2.9716025390625,-0.02094975672662258,0.031854335218667984,-0.023816116154193878
1772534321107619800,2.981619873046875,-0.01522795483469963,0.018994463607668877,-0.032038625329732895
1772534321117635800,2.9916357421875,-0.015811188146471977,0.010329603217542171,-0.03597158193588257
1772534321127651600,3.001651611328125,-0.014252172783017159,0.011807923205196857,-0.042223621159791946
1772534321137667600,3.01166748046875,-0.010031328536570072,0.008742092177271843,-0.042876627296209335
1772534321147684900,3.021684814453125,-0.003305781865492463,-0.012907808646559715,-0.03665921092033386
1772534321157700900,3.031700927734375,0.002100701443850994,-0.029923010617494583,-0.03068813681602478
1772534321167716900,3.041716796875,0.003944940399378538,-0.0301445871591568,-0.032330241054296494
1772534321177732600,3.051732666015625,0.003934820648282766,-0.019400596618652344,-0.03327246755361557
1772534321187749600,3.06174951171875,0.0019491675775498152,-0.01555499155074358,-0.040157806128263474
1772534321197765600,3.071765625,-0.00293320557102561,-0.017597369849681854,-0.04188113659620285
1772534321207782000,3.081781982421875,-0.01200792659074068,-0.009104282595217228,-0.042764242738485336
1772534321217797600,3.091797607421875,-0.018070613965392113,-0.0030690268613398075,-0.04830308258533478
1772534321227814700,3.101814697265625,-0.019701533019542694,0.0010005496442317963,-0.05543582886457443
1772534321237830700,3.11183056640625,-0.015679094940423965,0.000031425301131093875,-0.06445462256669998
1772534321247846700,3.1218466796875,-0.012773052789270878,-0.0030716899782419205,-0.06358696520328522
1772534321257863000,3.13186279296875,-0.0032794165890663862,-0.007661381736397743,-0.05125280097126961
1772534321267879700,3.141879638671875,0.0005451490869745612,-0.008845423348248005,-0.03485438600182533
1772534321277895700,3.151895751953125,-0.0033952640369534492,-0.011603659018874168,-0.02292502298951149
1772534321287911700,3.16191162109375,-0.004975051153451204,-0.0033396040089428425,-0.014113156124949455
1772534321297927700,3.171927734375,-0.008593754842877388,0.00019574233738239855,-0.01648470014333725
1772534321307944700,3.18194482421875,-0.010820955969393253,0.000711064029019326,-0.02273540571331978
1772534321317960700,3.191960693359375,-0.01204015128314495,0.010149040259420872,-0.028121650218963623
1772534321327976700,3.201976806640625,-0.017538247630000114,0.014112357050180435,-0.029681462794542313
1772534321337992700,3.21199267578125,-0.015688415616750717,0.006672816351056099,-0.033544644713401794
1772534321348009500,3.222009521484375,-0.012317120097577572,0.0057281930930912495,-0.03494386747479439
1772534321358025700,3.232025634765625,-0.01381328422576189,0.007643005810678005,-0.04069390147924423
1772534321368041700,3.242041748046875,-0.010275540873408318,0.0038402783684432507,-0.05771203339099884
1772534321378057700,3.2520576171875,-0.008510664105415344,0.01727619208395481,-0.07452962547540665
1772534321388074800,3.26207470703125,-0.005253085400909185,0.011379687115550041,-0.09312035888433456
1772534321398090200,3.27209033203125,-0.0028213527984917164,0.023261912167072296,-0.12685008347034454
1772534321408106200,3.282106201171875,-0.006837932392954826,0.0456194169819355,-0.14557504653930664
1772534321418122200,3.292122314453125,-0.010489658452570438,0.0484229251742363,-0.15136422216892242
1772534321428139300,3.30213916015625,-0.013025786727666855,0.035588886588811874,-0.15080948173999786
1772534321438155500,3.312155517578125,-0.017176590859889984,0.03188416361808777,-0.13259772956371307
1772534321448171300,3.322171142578125,-0.01858992874622345,0.026210298761725426,-0.10744363814592361
1772534321458187300,3.332187255859375,-0.012301141396164894,0.015019163489341736,-0.08158168196678162
1772534321468204300,3.342204345703125,0.0015853798249736428,0.004705273080617189,-0.06197868287563324
1772534321478220300,3.35222021484375,0.006328203249722719,0.00133903743699193,-0.04512593150138855
1772534321488236500,3.362236572265625,0.008975652046501637,0.010250506922602654,-0.034445859491825104
1772534321498252300,3.372252197265625,0.011404188349843025,0.0041492050513625145,-0.023670176044106483
1772534321508269300,3.382269287109375,0.010104832239449024,-0.002002430846914649,-0.016280969604849815
1772534321518285300,3.392285400390625,0.008379103615880013,-0.0018698053900152445,-0.010306167416274548
1772534321528301300,3.40230126953125,-0.0012239888310432434,0.006688262801617384,-0.01435363944619894
1772534321538317600,3.412317626953125,-0.004567853640764952,0.002260757377371192,-0.029709160327911377
1772534321548334300,3.422334228515625,-0.00036485306918621063,0.022900255396962166,-0.05339398235082626
1772534321558350300,3.432350341796875,0.011217234656214714,0.0046362970024347305,-0.07366516441106796
1772534321568366300,3.442366455078125,0.026146914809942245,-0.001537709147669375,-0.09922804683446884
1772534321578382300,3.45238232421875,0.01936677284538746,0.015517706982791424,-0.12249422073364258
1772534321588399400,3.4623994140625,0.0007384945638477802,0.0400126650929451,-0.14733192324638367
1772534321598415400,3.472415283203125,-0.020602745935320854,0.03702166676521301,-0.1498589962720871
1772534321608431400,3.482431396484375,-0.02184564433991909,0.03320828825235367,-0.1394665539264679
1772534321618447400,3.492447265625,-0.00794420950114727,0.01805117167532444,-0.12923015654087067
1772534321628464000,3.502464111328125,0.003992078360170126,-0.004024568945169449,-0.1324818730354309
1772534321638480400,3.51248046875,0.009074987843632698,-0.007909055799245834,-0.12922163307666779
1772534321648496400,3.522496337890625,0.007753527257591486,0.021874139085412025,-0.11372923105955124
1772534321658512400,3.532512451171875,-0.004378236830234528,0.03020317666232586,-0.08648562431335449
1772534321668529200,3.542529052734375,-0.014667891897261143,0.012832707725465298,-0.037951111793518066
1772534321678545200,3.552545166015625,-0.018580075353384018,-0.0014658038271591067,0.0011044129496440291
1772534321688561400,3.5625615234375,-0.024212129414081573,-0.005475192796438932,0.024748755618929863
1772534321698577400,3.572577392578125,-0.028978388756513596,-0.006179865449666977,0.03840837627649307
1772534321708594400,3.582594482421875,-0.02882951684296131,0.002186721656471491,0.047869786620140076
1772534321718610200,3.592610107421875,-0.028003139421343803,0.0024642229545861483,0.05519561097025871
1772534321728626200,3.602626220703125,-0.018572885543107986,0.0005914880894124508,0.05217665061354637
1772534321738642200,3.61264208984375,-0.010496582835912704,0.0008154599345289171,0.034631479531526566
1772534321748659500,3.622659423828125,-0.007036071736365557,0.012138155288994312,0.01588841900229454
1772534321758675500,3.632675537109375,-0.00956793874502182,0.011257448233664036,0.0024668860714882612
1772534321768691200,3.642691162109375,-0.012261193245649338,0.012918462045490742,-0.007122091483324766
1772534321778707200,3.652707275390625,-0.01389823853969574,0.010233995504677296,-0.0158306285738945
1772534321788724500,3.662724365234375,-0.016043948009610176,-0.0004146541759837419,-0.0222706850618124
1772534321798740500,3.672740478515625,-0.019723637029528618,-0.0029646309558302164,-0.021223796531558037
1772534321808756200,3.682756103515625,-0.021327659487724304,-0.0016141419764608145,-0.022114090621471405
1772534321818772200,3.692772216796875,-0.015512114390730858,-0.005889580585062504,-0.011007376946508884
1772534321828789200,3.702789306640625,-0.0018194715958088636,-0.011535216122865677,0.005642971955239773
1772534321838805500,3.712805419921875,0.016044480726122856,-0.020973991602659225,0.02622840739786625
1772534321848821500,3.722821533203125,0.027593277394771576,-0.02474103309214115,0.036010999232530594
1772534321858837200,3.732837158203125,0.024633174762129784,-0.02269199676811695,0.039209987968206406
1772534321868854300,3.742854248046875,0.010815363377332687,-0.00905341561883688,0.03133688494563103
1772534321878870300,3.752870361328125,-0.011667841114103794,-0.004576109815388918,0.016230901703238487
1772534321888886300,3.76288623046875,-0.031987227499485016,0.0028522454667836428,0.0054482948035001755
1772534321898902500,3.772902587890625,-0.04805567488074303,0.007668572477996349,0.002095108851790428
1772534321908919300,3.782919189453125,-0.04752890393137932,0.009191900491714478,0.00631888210773468
1772534321918935300,3.792935302734375,-0.03389272093772888,-0.0024439829867333174,0.013493704609572887
1772534321928951300,3.802951416015625,-0.007125553674995899,-0.010964767076075077,0.024709872901439667
1772534321938967300,3.81296728515625,0.02070154994726181,-0.013710485771298409,0.023072563111782074
1772534321948984300,3.822984375,0.041726142168045044,-0.01854172721505165,0.015569105744361877
1772534321959000300,3.833000244140625,0.049961432814598083,-0.013369334861636162,0.0057614827528595924
1772534321969016300,3.843016357421875,0.034752123057842255,-0.001966211711987853,-0.013381319120526314
1772534321979032300,3.8530322265625,0.014080132357776165,-0.009114402346313,-0.030821295455098152
1772534321989049300,3.86304931640625,0.003084473079070449,-0.0041132522746920586,-0.04346784949302673
1772534321999065300,3.8730654296875,-0.004496481269598007,-0.010409231297671795,-0.04699041321873665
1772534322009081300,3.883081298828125,-0.0044235107488930225,0.0030453247018158436,-0.05408427491784096
1772534322019097300,3.893097412109375,-0.0028509139083325863,0.006114617921411991,-0.0620545819401741
1772534322029114400,3.9031142578125,0.007266701199114323,-0.000841825210954994,-0.061532601714134216
1772534322039130000,3.913130126953125,0.016572318971157074,-0.008363923989236355,-0.050936684012413025
1772534322049146400,3.923146484375,0.019362779334187508,-0.004400607198476791,-0.030962176620960236
1772534322059162400,3.933162353515625,0.011928831227123737,-0.0051721250638365746,-0.012507003732025623
1772534322069179400,3.943179443359375,-0.0030977888964116573,0.0008820389630272985,0.001847701147198677
1772534322079195100,3.953195068359375,-0.016515593975782394,-0.00814767461270094,0.023071764037013054
1772534322089211100,3.963211181640625,-0.025584455579519272,-0.01619681343436241,0.04334427788853645
1772534322099227400,3.973227294921875,-0.03409804776310921,-0.018513496965169907,0.054976966232061386
1772534322109244400,3.983244384765625,-0.03598196804523468,-0.01757659763097763,0.05979249253869057
1772534322119260400,3.993260498046875,-0.03882143273949623,-0.01296346914023161,0.06270838528871536
1772534322129276200,4.003276123046875,-0.036908216774463654,-0.0024501082953065634,0.057136524468660355
1772534322139292200,4.013292236328125,-0.03272385895252228,0.0011134676169604063,0.039022766053676605
1772534322149309400,4.023309326171875,-0.028210598975419998,-0.002558232517912984,0.029649505391716957
1772534322159325400,4.033325439453125,-0.018620023503899574,-0.00202320353128016,0.01492035947740078
1772534322169341400,4.043341552734375,-0.01782187446951866,-0.006511428859084845,0.006486927624791861
1772534322179357200,4.053357177734375,-0.011448130942881107,-0.005697034299373627,-0.002654372714459896
1772534322189374200,4.063374267578125,-0.010939999483525753,0.0023606258910149336,-0.0023547669406980276
1772534322199390500,4.073390380859375,-0.007894940674304962,-0.003261040663346648,-0.007750597782433033
1772534322209406500,4.083406494140625,-0.00020346550445538014,-0.011048389598727226,-0.016619989648461342
1772534322219422500,4.09342236328125,0.009124255739152431,-0.01756328158080578,-0.020446686074137688
1772534322229439200,4.103439208984375,0.015871906653046608,-0.01155572198331356,-0.019165439531207085
1772534322239455200,4.113455322265625,0.016768060624599457,-0.005607019178569317,-0.017225058749318123
1772534322249471500,4.123471435546875,0.01407560519874096,-0.003343332326039672,-0.01619175262749195
1772534322259487500,4.133487548828125,0.0112824821844697,-0.001178182428702712,-0.01507189404219389
1772534322269504300,4.143504150390625,0.009168997406959534,-0.00401631323620677,-0.009411345236003399
1772534322279520300,4.153520263671875,0.011148790828883648,-0.010070743970572948,0.003296727081760764
1772534322289536300,4.163536376953125,0.009501359425485134,-0.01635740138590336,0.01810869574546814
1772534322299552500,4.173552490234375,0.011455320753157139,-0.012059326283633709,0.03160426393151283
1772534322309569300,4.1835693359375,0.008255799300968647,-0.011783954687416553,0.04200497269630432
1772534322319585300,4.193585205078125,0.005077582783997059,-0.003768905531615019,0.03569408133625984
1772534322329601300,4.203601318359375,0.0004063983797095716,0.0017398431664332747,0.022893065586686134
1772534322339617300,4.2136171875,0.0012506204657256603,0.008813198655843735,0.02057505026459694
1772534322349634300,4.22363427734375,0.011581555008888245,-0.010104033164680004,0.009365006349980831
1772534322359650300,4.233650390625,0.017186177894473076,-0.008325041271746159,0.013095029629766941
1772534322369666300,4.243666259765625,0.019274361431598663,-0.0038746329955756664,0.014059892855584621
1772534322379682300,4.253682373046875,0.01792094297707081,-0.010805243626236916,0.008066182024776936
1772534322389699300,4.26369921875,0.01877874694764614,-0.014068947173655033,0.004914863966405392
1772534322399715600,4.273715576171875,0.015119831077754498,-0.015800533816218376,0.002909503411501646
1772534322409731600,4.283731689453125,0.009216135367751122,-0.008556203916668892,-0.0002311623829882592
1772534322419747600,4.29374755859375,0.004686897154897451,-0.004311657976359129,-0.003072755178436637
1772534322429764600,4.3037646484375,0.0020961740519851446,-0.0032890038564801216,-0.01486390084028244
1772534322439780600,4.313780517578125,0.002115082461386919,0.0018290589796379209,-0.019773704931139946
1772534322449796600,4.323796630859375,0.0057556238025426865,0.0046666571870446205,-0.026461701840162277
1772534322459812600,4.3338125,0.011345598846673965,-0.0008010788587853312,-0.027337614446878433
1772534322469829600,4.34382958984375,0.014637798070907593,-0.0013701963471248746,-0.010044378228485584
1772534322479845600,4.353845703125,0.0121277691796422,-0.005930060520768166,0.009177519008517265
1772534322489861600,4.363861572265625,0.005378520116209984,0.0012010856298729777,0.026803119108080864
1772534322499877600,4.373877685546875,-0.0013757890556007624,0.0028671592008322477,0.025412416085600853
1772534322509894700,4.383894775390625,-0.006058158818632364,0.004893558565527201,0.019355854019522667
1772534322519910700,4.39391064453125,-0.005500758998095989,0.01010882668197155,0.007141000125557184
1772534322529926700,4.4039267578125,-0.00044288369826972485,0.014452176168560982,-0.005794506054371595
1772534322539942400,4.4139423828125,0.002365419641137123,0.018028002232313156,-0.019121496006846428
1772534322549959700,4.423959716796875,0.008922655135393143,0.01756594330072403,-0.02574877254664898
1772534322559975700,4.4339755859375,0.013638580217957497,0.008860070258378983,-0.020871460437774658
1772534322569991700,4.44399169921875,0.01501223910599947,0.005067196674644947,-0.01679336093366146
1772534322580007700,4.454007568359375,0.012823653407394886,0.006761233322322369,-0.01570386253297329
1772534322590024700,4.464024658203125,0.010010822676122189,0.0045572011731565,-0.024262461811304092
1772534322600040700,4.474040771484375,0.006900783162564039,0.0038511971943080425,-0.03357527032494545
1772534322610056700,4.484056640625,0.007577758282423019,0.006774016655981541,-0.03543468937277794
1772534322620072700,4.49407275390625,0.009363408200442791,0.006728210020810366,-0.021160146221518517
1772534322630089500,4.50408935546875,0.000794420950114727,0.010611631907522678,-0.006881608162075281
1772534322640105700,4.514105712890625,-0.008499212563037872,0.009187639690935612,0.012513927184045315
1772534322650121700,4.524121826171875,-0.011427357792854309,0.003468234557658434,0.025077655911445618
1772534322660137700,4.5341376953125,-0.01130778156220913,-0.009423862211406231,0.0409969687461853
1772534322670153700,4.54415380859375,-0.005556153133511543,-0.004680505488067865,0.05097849667072296
1772534322680170500,4.55417041015625,0.0003001382574439049,-0.004688761197030544,0.046603187918663025
1772534322690186500,4.5641865234375,0.00637773796916008,-0.007849400863051414,0.033795781433582306
1772534322700202800,4.57420263671875,0.012804744765162468,-0.0017749968683347106,0.029410086572170258
1772534322710218800,4.58421875,0.018970495089888573,-0.001820803270675242,0.013879596255719662
1772534322720235500,4.594235595703125,0.023626498878002167,0.0020999026019126177,-0.0011526161106303334
1772534322730251500,4.60425146484375,0.02617301419377327,0.003668504301458597,-0.011457451619207859
1772534322740267500,4.614267578125,0.031078556552529335,0.0031286815647035837,-0.01636991836130619
1772534322750283800,4.62428369140625,0.032334502786397934,0.0036706349346786737,-0.01817154698073864
1772534322760300500,4.634300537109375,0.03416116535663605,0.006880542729049921,-0.01696114055812359
1772534322770316500,4.644316650390625,0.03576065972447395,0.001592037733644247,-0.016588829457759857
1772534322780332500,4.65433251953125,0.03448900207877159,0.001068193931132555,-0.01278690155595541
1772534322790348500,4.6643486328125,0.03424505516886711,0.001085770782083273,-0.0022280006669461727
1772534322800365600,4.674365478515625,0.026757044717669487,-0.0012431635987013578,0.006018477492034435
1772534322810381600,4.684381591796875,0.01625700108706951,0.0014271880500018597,0.005359345115721226
1772534322820397600,4.6943974609375,0.003885285696014762,0.010919492691755295,-0.0022367890924215317
1772534322830413600,4.70441357421875,-0.008987902663648129,0.019097793847322464,-0.01187902968376875
1772534322840430600,4.7144306640625,-0.02034042589366436,0.029344040900468826,-0.01734010875225067
1772534322850446600,4.724446533203125,-0.014582138508558273,0.02570349909365177,-0.009667807258665562
1772534322860462600,4.734462646484375,-0.00520674604922533,0.011092598550021648,0.00507092522457242
1772534322870478600,4.744478515625,0.005456550512462854,0.012618856504559517,0.019937222823500633
1772534322880495600,4.75449560546875,0.010999920777976513,0.006317550782114267,0.028022579848766327
1772534322890511600,4.76451171875,0.014795191586017609,0.010270747356116772,0.024876054376363754
1772534322900527600,4.774527587890625,0.01233496330678463,0.011256649158895016,0.004205930046737194
1772534322910543600,4.784543701171875,0.010415889322757721,0.01721121184527874,-0.01347745954990387
1772534322920560600,4.794560546875,0.009824134409427643,0.02744201011955738,-0.027038542553782463
1772534322930576600,4.80457666015625,0.0108297448605299,0.033249832689762115,-0.040118392556905746
1772534322940592600,4.814592529296875,0.013882792554795742,0.03142743185162544,-0.048042092472314835
1772534322950608600,4.824608642578125,0.017779529094696045,0.030406374484300613,-0.05231034383177757
1772534322960625700,4.834625732421875,0.017137708142399788,0.03586745262145996,-0.04424389451742172
1772534322970641700,4.8446416015625,0.017583787441253662,0.0342240147292614,-0.041259024292230606
1772534322980657700,4.85465771484375,0.011845474131405354,0.03105725161731243,-0.03317313268780708
1772534322990673700,4.864673583984375,0.006640325766056776,0.028243355453014374,-0.006611297372728586
1772534323000690700,4.874690673828125,0.005690376274287701,0.016774453222751617,0.007674165070056915
1772534323010706700,4.884706787109375,0.0067820060066878796,0.009279784746468067,0.016954747959971428
1772534323020722700,4.89472265625,0.002429601736366749,0.011271030642092228,0.021098893135786057
1772534323030738700,4.90473876953125,-0.002167813014239073,0.006318349856883287,0.024320518597960472
1772534323040755500,4.91475537109375,-0.009589776396751404,0.0017385114915668964,0.03133209049701691
1772534323050771700,4.924771728515625,-0.009237973019480705,-0.0010636665392667055,0.03593989089131355
1772534323060787700,4.93478759765625,-0.009711749851703644,-0.006954045966267586,0.035113513469696045
1772534323070803700,4.9448037109375,-0.006964432541280985,-0.0028490496333688498,0.03476543724536896
1772534323080820500,4.954820556640625,-0.003029345767572522,-0.001910019083879888,0.024500016123056412
1772534323090836500,4.96483642578125,0.00010998855577781796,-0.0020354539155960083,0.010557569563388824
1772534323100852700,4.974852783203125,0.0024860608391463757,0.0024442493449896574,-0.0026639599818736315
1772534323110868700,4.98486865234375,-0.0001691107318038121,0.006621949840337038,-0.014569088816642761
1772534323120885500,4.994885498046875,-0.00003728425508597866,0.0025481125339865685,-0.01937529630959034
1772534323130901500,5.004901611328125,0.001987517112866044,-0.0089993542060256,-0.024644626304507256
1772534323140917500,5.01491748046875,0.005792641546577215,-0.007517038378864527,-0.0090542146936059
1772534323150933500,5.02493359375,0.010547716170549393,-0.012431901879608631,0.012138421647250652
1772534323160949800,5.03494970703125,0.014535799622535706,-0.010606572031974792,0.02154017984867096
1772534323170966500,5.044966552734375,0.017587782815098763,-0.004328968469053507,0.024714134633541107
1772534323180982500,5.054982421875,0.019772373139858246,-0.0020865867845714092,0.028143487870693207
1772534323190998500,5.06499853515625,0.016398414969444275,0.0032354744616895914,0.03514467179775238
1772534323201014500,5.0750146484375,0.011650796979665756,0.01128008496016264,0.032760076224803925
1772534323211031600,5.085031494140625,0.009007343091070652,0.013971209526062012,0.02786252461373806
1772534323221047600,5.095047607421875,0.008800415322184563,0.015474563464522362,0.023254189640283585
1772534323231063600,5.1050634765625,0.015721971169114113,0.008838232606649399,0.030060963705182076
1772534323241079600,5.11507958984375,0.020351877436041832,0.002804841147735715,0.04404788464307785
1772534323251096800,5.125096923828125,0.02009248547255993,-0.000841825210954994,0.05047941952943802
1772534323261112600,5.135112548828125,0.015540077351033688,0.0004929511342197657,0.04632994905114174
1772534323271128600,5.145128662109375,0.010071010328829288,0.005249623209238052,0.03693244978785515
1772534323281144600,5.15514453125,0.0008458199445158243,0.015591742470860481,0.025229189544916153
1772534323291161600,5.16516162109375,-0.001341966912150383,0.02467738278210163,0.009314938448369503
1772534323301177600,5.175177490234375,-0.001130511867813766,0.027035612612962723,0.0011166634503751993
1772534323311193600,5.185193603515625,0.0006024070316925645,0.028450816869735718,-0.00629038643091917
1772534323321209600,5.195209716796875,0.008200138807296753,0.0202189851552248,-0.004966529086232185
1772534323331226600,5.2052265625,0.012851083651185036,0.011641476303339005,0.007784686051309109
1772534323341242600,5.21524267578125,0.017958493903279305,0.009339972399175167,0.02153938077390194
1772534323351258600,5.225258544921875,0.013726198114454746,-0.004218713380396366,0.03236140310764313
1772534323361274600,5.235274658203125,0.00657587731257081,0.0010479538468644023,0.03584827855229378
1772534323371291600,5.245291748046875,-0.0006135923322290182,0.005538576282560825,0.02520815096795559
1772534323381307600,5.2553076171875,-0.006845122668892145,0.017797639593482018,0.017542773857712746
1772534323391323600,5.26532373046875,-0.006433664355427027,0.019405921921133995,0.012021508999168873
1772534323401340200,5.275340087890625,-0.007614510133862495,0.019757725298404694,0.006025401875376701
1772534323411357400,5.285357421875,-0.006735933478921652,0.010361560620367527,0.007272293791174889
1772534323421373400,5.29537353515625,-0.004126567859202623,0.007896006107330322,0.009276854805648327
1772534323431389400,5.305389404296875,-0.0019768644124269485,0.008563661016523838,0.009695237502455711
1772534323441405200,5.3154052734375,-0.0036341496743261814,0.013142433948814869,0.0073138391599059105
1772534323451422200,5.325422119140625,-0.008343417197465897,0.024233967065811157,0.0012181298807263374
1772534323461438500,5.3354384765625,-0.010462760925292969,0.02972087822854519,0.0012839100090786815
1772534323471454500,5.345454345703125,-0.005336708389222622,0.0189055148512125,0.003379817819222808
1772534323481470500,5.355470458984375,-0.003575826296582818,0.01925705187022686,0.008022240363061428
1772534323491487200,5.3654873046875,-0.004866660572588444,0.02117692492902279,0.013547766953706741
1772534323501503200,5.375503173828125,-0.008592689409852028,0.012055064551532269,0.014928349293768406
1772534323511519500,5.38551953125,-0.009550361894071102,0.011954396963119507,0.017679128795862198
1772534323521535500,5.395535400390625,-0.008959406055510044,0.013938984833657742,0.02040247619152069
1772534323531552300,5.40555224609375,-0.00717508839443326,0.014361894689500332,0.022240856662392616
1772534323541568300,5.415568359375,-0.008439024910330772,0.020415525883436203,0.018432270735502243
1772534323551584300,5.425584228515625,-0.011961587704718113,0.025176459923386574,0.013846573419868946
1772534323561600300,5.435600341796875,-0.011569837108254433,0.024084564298391342,0.0025600967928767204
1772534323571616500,5.445616455078125,-0.009470467455685139,0.025968749076128006,-0.00998925045132637
1772534323581633300,5.45563330078125,-0.00777776213362813,0.016378972679376602,-0.011501127853989601
1772534323591649300,5.465649169921875,-0.00523604080080986,0.016401875764131546,-0.005555087700486183
1772534323601665300,5.475665283203125,-0.00506799528375268,0.015631424263119698,-0.004491687286645174
1772534323611681300,5.485681396484375,-0.00418276060372591,0.015204252675175667,-0.014200774021446705
1772534323621698300,5.4956982421875,-0.00042823629337362945,0.01588708721101284,-0.0227402001619339
1772534323631714300,5.50571435546875,0.005310609471052885,0.00678253872320056,-0.025586053729057312
1772534323641730300,5.515730224609375,0.00637773796916008,0.004878911189734936,-0.012819391675293446
1772534323651746300,5.525746337890625,0.005691708065569401,0.010665959678590298,-0.0037089844699949026
1772534323661763300,5.535763427734375,0.0009009473724290729,0.015592275187373161,-0.00971334706991911
1772534323671779300,5.545779296875,-0.00824780948460102,0.019808059558272362,-0.018022410571575165
1772534323681795300,5.55579541015625,-0.01008033100515604,0.012293684296309948,-0.019873039796948433
1772534323691811300,5.565811279296875,-0.009457151405513287,0.005300223361700773,-0.01623675972223282
1772534323701828400,5.575828369140625,-0.0121291009709239,0.009051818400621414,-0.017493240535259247
1772534323711844000,5.585843994140625,-0.00888004433363676,0.014990135096013546,-0.02245177887380123
1772534323721860400,5.5958603515625,-0.004721518140286207,0.018512431532144547,-0.028665199875831604
1772534323731876400,5.60587646484375,-0.0031457259319722652,0.018789932131767273,-0.029564550146460533
1772534323741893400,5.615893310546875,-0.003338538808748126,0.01835850067436695,-0.025358352810144424
1772534323751909400,5.625909423828125,-0.0057252636179327965,0.011872638016939163,-0.023898407816886902
1772534323761925000,5.635925048828125,-0.008384163491427898,0.005518602207303047,-0.023446736857295036
1772534323771941400,5.64594140625,-0.012085424736142159,0.0068094367161393166,-0.015486814081668854
1772534323781958400,5.65595849609375,-0.008080297149717808,-0.0031792817171663046,-0.0043710460886359215
1772534323792600300,5.666600341796875,-0.005697300657629967,-0.01044252049177885,0.0014282532501965761
1772534323802616300,5.6766162109375,-0.00893996562808752,0.01104599330574274,-0.002270344877615571
1772534323812632300,5.68663232421875,-0.012133894488215446,0.018390724435448647,-0.015329421497881413
1772534323822649300,5.6966494140625,-0.013247628696262836,0.019883692264556885,-0.0272073857486248
1772534323832665000,5.7066650390625,-0.009681389667093754,0.006018477492034435,-0.025743447244167328
1772534323842681300,5.716681396484375,-0.008627044036984444,-0.0019742012955248356,-0.005569468718022108
1772534323852697300,5.726697265625,-0.007788148242980242,-0.0010373012628406286,0.011570636183023453
1772534323862714400,5.73671435546875,-0.009474728256464005,0.0004801679460797459,0.009250756353139877
1772534323872730400,5.74673046875,-0.012957077473402023,0.001770203118212521,-0.011059575714170933
1772534323882746000,5.75674609375,-0.011464109644293785,0.007410511840134859,-0.031036745756864548
1772534323892762400,5.766762451171875,-0.013104350306093693,0.014422881416976452,-0.04971668869256973
1772534323902779400,5.776779296875,-0.015369901433587074,0.021030183881521225,-0.06012698635458946
1772534323912795400,5.78679541015625,-0.01489213015884161,0.02364061400294304,-0.06857240200042725
1772534323922811400,5.796811279296875,-0.010492055676877499,0.01642717607319355,-0.06962434947490692
1772534323932827100,5.8068271484375,-0.006440056022256613,0.015751533210277557,-0.061167750507593155
1772534323942844400,5.816844482421875,0.0002924150903709233,0.008098673075437546,-0.04707296937704086
1772534323952860400,5.8268603515625,0.001823466387577355,0.0018130800453945994,-0.03379817679524422
1772534323962876400,5.83687646484375,0.003994475118815899,-0.00358860963024199,-0.02040513977408409
1772534323972892200,5.84689208984375,0.005658418405801058,0.004895688965916634,-0.004867459647357464
1772534323982908200,5.856908203125,0.0010817759903147817,0.002407231368124485,0.0055031562224030495
1772534323992925400,5.866925537109375,-0.0030975225381553173,0.0035752938129007816,0.01581518165767193
1772534324002941400,5.87694140625,-0.007748999632894993,0.008459530770778656,0.01594248041510582
1772534324012957400,5.88695751953125,-0.009160208515822887,0.014207698404788971,0.012561597861349583
1772534324022973200,5.89697314453125,-0.009351690299808979,0.020185695961117744,0.0025984463281929493
1772534324032990200,5.906990234375,-0.012605540454387665,0.0247303806245327,-0.008806008845567703
1772534324043006500,5.91700634765625,-0.009295763447880745,0.028148014098405838,-0.015387211926281452
1772534324053022500,5.9270224609375,-0.005071191117167473,0.02654212899506092,-0.019063439220190048
1772534324063038500,5.93703857421875,-0.003716174978762865,0.03531218320131302,-0.02653706818819046
1772534324073055200,5.94705517578125,-0.0039049931801855564,0.01673317328095436,-0.009904029779136181
1772534324083071200,5.9570712890625,0.0008988168556243181,0.012672385200858116,-0.007203584536910057
1772534324093087500,5.96708740234375,0.0027214842848479748,0.007601194549351931,-0.00304692261852324
1772534324103103500,5.977103515625,0.0005195827106945217,0.006329268682748079,-0.0019888486713171005
1772534324113120300,5.987120361328125,-0.007622233126312494,0.012376775033771992,-0.0051803807727992535
1772534324123136300,5.99713623046875,-0.011950136162340641,0.011538411490619183,-0.013307017274200916
1772534324133152300,6.00715234375,-0.016436496749520302,0.009425459429621696,-0.020181434229016304
1772534324143168300,6.017168212890625,-0.018435733392834663,0.015094797126948833,-0.029589051380753517
1772534324153185300,6.027185302734375,-0.019766779616475105,0.015693210065364838,-0.03151717782020569
1772534324163201300,6.037201171875,-0.019592875614762306,0.01805330254137516,-0.026393257081508636
1772534324173217300,6.04721728515625,-0.016954215243458748,0.016682041808962822,-0.022671224549412727
1772534324183233300,6.0572333984375,-0.015168299898505211,0.014858308248221874,-0.01709589548408985
1772534324193250300,6.067250244140625,-0.014901718124747276,0.013574664480984211,-0.011504056863486767
1772534324203266300,6.077266357421875,-0.01489159744232893,0.01414351537823677,-0.015335014089941978
1772534324213282300,6.0872822265625,-0.024462465196847916,0.03441869467496872,-0.03808533400297165
1772534324223298300,6.09729833984375,-0.02618073672056198,0.03891677409410477,-0.04622528702020645
1772534324233315300,6.1073154296875,-0.020983578637242317,0.0474838949739933,-0.05459560081362724
1772534324243331300,6.117331298828125,-0.017305754125118256,0.029044434428215027,-0.04417731612920761
1772534324253347300,6.127347412109375,-0.011581821367144585,0.03237924352288246,-0.03983556479215622
1772534324263363300,6.13736328125,-0.004750546533614397,0.021795576438307762,-0.039191875606775284
1772534324273380400,6.14738037109375,0.004042145796120167,0.01432327926158905,-0.04541941359639168
1772534324283396400,6.157396240234375,0.010361560620367527,0.014210094697773457,-0.04157833755016327
1772534324293412000,6.167412109375,0.013333115726709366,0.010484065860509872,-0.03280748054385185
1772534324303428400,6.177428466796875,0.01774251088500023,-0.010457168333232403,-0.018996061757206917
1772534324313445400,6.1874453125,0.02443636767566204,-0.015334215015172958,-0.011087538674473763
1772534324323461400,6.19746142578125,0.017892714589834213,0.008235558867454529,0.002366218715906143
1772534324333477400,6.207477294921875,0.009958624839782715,0.005717274267226458,0.008291485719382763
1772534324343493000,6.2174931640625,0.007964183576405048,0.003965446725487709,0.01323777437210083
1772534324353509400,6.22750927734375,0.0023782027419656515,0.0003051982494071126,0.023671774193644524
1772534324363526400,6.2375263671875,-0.004164917394518852,0.004757470916956663,0.026003902778029442
1772534324373542400,6.24754248046875,-0.007440605666488409,0.008385495282709599,0.02124297060072422
1772534324383558400,6.257558349609375,-0.009457417763769627,0.013549364171922207,0.013335779309272766
1772534324393574100,6.26757421875,-0.007991613820195198,0.022411832585930824,0.0037289580795913935
1772534324403590700,6.277590576171875,-0.003962517250329256,0.021214207634329796,-0.0011725898366421461
1772534324413606700,6.287606689453125,0.0024764735717326403,0.016938237473368645,0.013283581472933292
1772534324423622700,6.29762255859375,0.005571066867560148,0.012206332758069038,0.0416603609919548
1772534324433639000,6.307638916015625,0.010452108457684517,0.006572947837412357,0.05493195727467537
1772534324443655700,6.31765576171875,0.016102803871035576,0.009408148936927319,0.051231496036052704
1772534324453671700,6.327671630859375,0.01852601394057274,0.006416353862732649,0.03939667344093323
1772534324463687700,6.337687744140625,0.018258633092045784,0.000020240024241502397,0.04054849222302437
1772534324473703700,6.34770361328125,0.01895265281200409,-0.00036245622322894633,0.049011219292879105
1772534324483720700,6.357720703125,0.015351791866123676,-0.005261341109871864,0.05317959934473038
1772534324493736700,6.36773681640625,0.012047075666487217,0.0017177389236167073,0.05056384205818176
1772534324503752700,6.377752685546875,0.011394068598747253,0.012152004055678844,0.03710901737213135
1772534324513768700,6.387768798828125,0.010319748893380165,0.009089368395507336,0.024293355643749237
1772534324523785500,6.397785400390625,0.008898153901100159,0.0034493261482566595,0.018694059923291206
1772534324533801700,6.4078017578125,0.007225155830383301,0.003433347214013338,0.012829512357711792
1772534324543817700,6.417817626953125,0.0016170714516192675,0.007730624172836542,0.004293814767152071
1772534324553833700,6.427833740234375,-0.00461712246760726,0.008359129540622234,-0.003481017891317606
1772534324563850800,6.437850830078125,-0.007099721115082502,0.0068118334747850895,-0.006648048758506775
1772534324573866500,6.447866455078125,-0.010694989003241062,0.006521282717585564,-0.0023228090722113848
1772534324583882800,6.4578828125,-0.010113886557519436,0.00199337606318295,-0.003982224967330694
1772534324593898800,6.467898681640625,-0.007661115378141403,-0.0008458199445158243,-0.010953049175441265
1772534324603914800,6.477914794921875,-0.0003787015157286078,-0.005136971361935139,-0.009664878249168396
1772534324613931800,6.487931884765625,0.004637628793716431,-0.007352455053478479,-0.00006151902198325843
1772534324623947500,6.497947509765625,0.008265652693808079,-0.012899287045001984,0.01407693699002266
1772534324633963500,6.507963623046875,0.006391320377588272,-0.014542457647621632,0.020862137898802757
1772534324643979800,6.517979736328125,0.0025358619168400764,-0.004773716442286968,0.01543355081230402
1772534324653996800,6.527996826171875,-0.001237571006640792,0.0043707797303795815,0.006060555577278137
1772534324664012500,6.538012451171875,0.005209143273532391,0.0067686899565160275,0.0005403553950600326
1772534324674028500,6.548028564453125,0.010631072334945202,0.0020724718924611807,0.011918711476027966
1772534324684044500,6.55804443359375,0.02503770962357521,-0.013432185165584087,0.029333388432860374
1772534324694061800,6.568061767578125,0.036791302263736725,-0.025537850335240364,0.024595890194177628
1772534324704077800,6.578077880859375,0.03911837562918663,-0.021977737545967102,0.010283263400197029
1772534324714093600,6.588093505859375,0.033722277730703354,-0.009313873015344143,-0.0025752766523510218
1772534324724109600,6.598109619140625,0.02183419279754162,-0.0012359730899333954,-0.01829884573817253
1772534324734126800,6.608126953125,0.014493721537292004,0.0012311793398112059,-0.03245408087968826
1772534324744142800,6.618142822265625,0.009649164974689484,0.002299905987456441,-0.0432840920984745
1772534324754158800,6.628158935546875,0.008783104829490185,0.004177700728178024,-0.04770946502685547
1772534324764174600,6.638174560546875,0.0062818643637001514,0.003742007538676262,-0.037155091762542725
1772534324774191600,6.648191650390625,0.007230482529848814,0.0026764769572764635,-0.016524115577340126
1772534324784207600,6.65820751953125,0.007970042526721954,-0.008584965951740742,0.000708134553860873
1772534324794223900,6.668223876953125,0.01619148626923561,-0.015669507905840874,0.01569880172610283
1772534324804240000,6.678239990234375,0.0159456767141819,-0.011534417048096657,0.025187378749251366
1772534324814256600,6.688256591796875,0.01714436523616314,-0.010813765227794647,0.03014538623392582
1772534324824272600,6.698272705078125,0.019932694733142853,-0.01461835764348507,0.029864421114325523
1772534324834288600,6.70828857421875,0.02828356996178627,-0.02317589335143566,0.013350159861147404
1772534324844305000,6.718304931640625,0.02786358818411827,0.0005587312043644488,0.011204184964299202
1772534324854321700,6.72832177734375,0.026739468798041344,0.003142263740301132,-0.001603755634278059
1772534324864337700,6.738337646484375,0.028297685086727142,0.008688562549650669,-0.012387693859636784
1772534324874353700,6.748353759765625,0.027587153017520905,0.003154514357447624,-0.019522035494446754
1772534324884369700,6.75836962890625,0.02762789838016033,0.0008471515611745417,-0.02406725287437439
1772534324894386000,6.768385986328125,0.027881432324647903,-0.006564692128449678,-0.03141304850578308
1772534324904402700,6.778402587890625,0.01980486325919628,-0.009215602651238441,-0.03929147869348526
1772534324914418700,6.788418701171875,0.010447048582136631,0.0028903286438435316,-0.04025634378194809
1772534324924434700,6.7984345703125,-0.0015097459545359015,0.00842517614364624,-0.037886396050453186
1772534324934450700,6.80845068359375,-0.012053733691573143,0.008507467806339264,-0.03025777079164982
1772534324944467700,6.8184677734375,-0.015095063485205173,0.007287473883479834,-0.014492922462522984
1772534324954483700,6.828483642578125,-0.01661013625562191,-0.0035515916533768177,0.0013374395202845335
1772534324964499700,6.838499755859375,-0.015661250799894333,-0.004849882796406746,0.011126154102385044
1772534324974515700,6.848515625,-0.01787753403186798,0.0022234732750803232,0.01254881452769041
1772534324984532500,6.858532470703125,-0.020174244418740273,0.0033984598703682423,0.00815113727003336
1772534324994548700,6.868548828125,-0.026397785171866417,0.0024644893128424883,0.008583367802202702
1772534325004564700,6.878564697265625,-0.0301432553678751,0.00561101408675313,0.008103466592729092
1772534325014580700,6.888580810546875,-0.03344344347715378,0.008613195270299911,0.003111371072009206
1772534325024597800,6.89859765625,-0.030957916751503944,0.010061156004667282,-0.004366518929600716
1772534325034613500,6.908613525390625,-0.02629525400698185,0.007978830486536026,-0.010147709399461746
1772534325044629800,6.918629638671875,-0.01389717310667038,-0.0003936151915695518,-0.01363325398415327
1772534325054645800,6.928645751953125,-0.0011369034182280302,-0.008097874000668526,-0.01865784078836441
1772534325064662800,6.938662841796875,0.008331699296832085,-0.004513259045779705,-0.021628063172101974
1772534325074678800,6.9486787109375,0.020436566323041916,-0.004195543937385082,-0.02755865640938282
1772534325084694500,6.958694580078125,0.029076125472784042,-0.003659449517726898,-0.03527383506298065
1772534325094710500,6.96871044921875,0.02912273071706295,-0.0037438718136399984,-0.04249872267246246
1772534325104726800,6.978726806640625,0.027222566306591034,-0.002175003755837679,-0.045277200639247894
1772534325114743800,6.988743896484375,0.023664316162467003,0.0005648564547300339,-0.039562322199344635
1772534325124759600,6.998759521484375,0.01823892444372177,-0.0033188313245773315,-0.03359444439411163
1772534325134775600,7.008775634765625,0.01606578566133976,-0.00037816885742358863,-0.026088591665029526
1772534325144791600,7.01879150390625,0.015576829202473164,-0.00227833422832191,-0.01907036453485489
1772534325154808800,7.028808837890625,0.017255153506994247,-0.010722685605287552,-0.011957859620451927
1772534325164824800,7.038824951171875,0.016405871137976646,-0.009489375166594982,-0.006947388406842947
1772534325174840600,7.048840576171875,0.01324123702943325,0.0023345269728451967,-0.009584450162947178
1772534325184856600,7.058856689453125,0.0062616243958473206,0.008558068424463272,-0.012092615477740765
1772534325194873900,7.068873779296875,0.002926813904196024,0.010810569860041142,-0.011553325690329075
1772534325204889900,7.078889892578125,-0.0016961672808974981,0.010026801377534866,-0.007497863844037056
1772534325214905900,7.08890576171875,-0.002298840554431081,0.006406500469893217,-0.004679440520703793
1772534325224921600,7.098921630859375,-0.003290601773187518,0.005197159014642239,-0.0012474246323108673
1772534325234938600,7.108938720703125,-0.0018546254141256213,0.005085306242108345,-0.0019081549253314734
1772534325244954600,7.11895458984375,0.00006897587445564568,0.002302835462614894,0.0009134642314165831
1772534325254971000,7.128970947265625,0.004525509662926197,0.00042637207661755383,0.0011057445080950856
1772534325264987000,7.13898681640625,0.009702161885797977,0.00017603494052309543,0.004254133440554142
1772534325275003600,7.149003662109375,0.00821771565824747,-0.0011502192355692387,0.002049568807706237
1772534325285019600,7.15901953125,0.007453122641891241,-0.0012743226252496243,-0.0010602044640108943
1772534325295035600,7.16903564453125,0.0006628608098253608,0.00008016114588826895,-0.002115082461386919
1772534325305052000,7.179052001953125,-0.0004165183927398175,0.0018815232906490564,-0.013865482062101364
1772534325315067600,7.189067626953125,-0.0007313040550798178,0.001303351018577814,-0.029581062495708466
1772534325325084700,7.199084716796875,0.00279125920496881,0.005336442030966282,-0.03881450742483139
1772534325335100700,7.2091005859375,0.007656055502593517,0.003373958868905902,-0.04084543511271477
1772534325345116700,7.21911669921875,0.00935994554311037,0.0002008023438975215,-0.03647545352578163
1772534325355132700,7.229132568359375,0.004772118292748928,-0.0024836640805006027,-0.02942153811454773
1772534325365149700,7.239149658203125,-0.002112685702741146,-0.002141714096069336,-0.013034042902290821
1772534325375165700,7.249165771484375,-0.005822202656418085,0.0057492321357131,-0.001936650718562305
1772534325385181700,7.259181640625,-0.005233377683907747,0.00811997801065445,0.0015502260066568851
1772534325395197700,7.26919775390625,-0.0026170883793383837,0.008097874000668526,0.0076155755668878555
1772534325405215000,7.279215087890625,0.005821936298161745,0.007193464320152998,0.009302954189479351
1772534325415231200,7.289231201171875,0.012718725018203259,0.005649097263813019,0.008917861618101597
1772534325425247200,7.299247314453125,0.013885188847780228,0.008779376745223999,0.005963616538792849
1772534325435263200,7.30926318359375,0.008023571223020554,0.010855576954782009,0.006069077644497156
1772534325445280000,7.319280029296875,0.007187072653323412,0.013006612658500671,0.006061088293790817
1772534325455296000,7.3292958984375,0.005720736458897591,0.012828446924686432,0.008162855170667171
1772534325465312000,7.33931201171875,0.008206796832382679,0.009750098921358585,0.012169580906629562
1772534325475328300,7.349328369140625,0.013172526843845844,0.006615558639168739,0.0125818382948637
1772534325485344300,7.35934423828125,0.020749486982822418,0.007669371087104082,0.01206971239298582
1772534325495361000,7.369361083984375,0.01926450803875923,0.002956641372293234,0.005258145276457071
1772534325505377000,7.379376953125,0.014732606709003448,0.001645567244850099,0.002252235310152173
1772534325515393000,7.38939306640625,0.00965875294059515,0.003692206460982561,0.0025220136158168316
1772534325525409300,7.3994091796875,0.002843457041308284,0.0029702235478907824,0.0023470439482480288
1772534325535426000,7.409426025390625,0.000024767397917457856,0.003984621725976467,-0.0008024104172363877
1772534325545442000,7.419442138671875,-0.00026738137239590287,0.004206729121506214,-0.0014261227333918214
1772534325555458000,7.4294580078125,0.0006894923863001168,0.004058923572301865,-0.0026700852904468775
1772534325565474000,7.43947412109375,0.0003810983616858721,0.00418515782803297,0.0017539578257128596
1772534325575491000,7.449490966796875,-0.0015425028977915645,0.0038389465771615505,0.004324707202613354
1772534325585507000,7.459507080078125,-0.006198240909725428,0.004262122791260481,0.0054845139384269714
1772534325595523000,7.469523193359375,-0.010512562468647957,0.00577879324555397,0.00806298665702343
1772534325605539000,7.4795390625,-0.012683038599789143,0.003576359013095498,0.005336708389222622
1772534325615556000,7.48955615234375,-0.011036671698093414,0.0007126618875190616,0.0017265273490920663
1772534325625572000,7.499572021484375,-0.005374791566282511,0.00021252025908324867,-0.0017102820565924048
1772534325635588000,7.509588134765625,-0.0037119139451533556,0.0024546354543417692,-0.005798234138637781
1772534325645604000,7.51960400390625,-0.005389438942074776,0.006935670506209135,-0.0052964948117733
1772534325655620000,7.5296201171875,-0.006095442920923233,0.008257663808763027,-0.00564110791310668
1772534325665637000,7.53963720703125,-0.003014432033523917,0.00839454960078001,-0.007667507044970989
1772534325675653000,7.549653076171875,0.0029968551825731993,0.008475510403513908,-0.0029846045654267073
1772534325685669000,7.559669189453125,0.010250506922602654,-0.00033902039285749197,0.0016327840276062489
1772534325695685000,7.56968505859375,0.013604491949081421,0.0007174555794335902,0.004738296382129192
1772534325705702100,7.5797021484375,0.015384282916784286,0.004686630796641111,0.002239984693005681
1772534325715718100,7.58971826171875,0.013034042902290821,0.0026138925459235907,-0.0033830134198069572
1772534325725734100,7.599734130859375,0.00905474741011858,0.00021225394448265433,-0.010115484707057476
1772534325735750100,7.609750244140625,0.0015789881581440568,0.004479703027755022,-0.014453241601586342
1772534325745767200,7.61976708984375,-0.007366036996245384,0.010146377608180046,-0.01895238645374775
1772534325755783200,7.629783203125,-0.013596502132713795,0.008801214396953583,-0.0219697467982769
1772534325765799200,7.639799072265625,-0.01044438499957323,0.005352154839783907,-0.020871726796030998
1772534325775815000,7.64981494140625,-0.005901564843952656,-0.001058872789144516,-0.012311793863773346
1772534325785832200,7.659832275390625,-0.0017134778900071979,-0.0057130130007863045,0.0002724413643591106
1772534325795848200,7.66984814453125,-0.0016873788554221392,-0.008082959800958633,0.004479703027755022
1772534325805864200,7.6798642578125,-0.004092479590326548,-0.006106894463300705,-0.0001984054979402572
1772534325815880000,7.6898798828125,-0.004707403481006622,-0.0028304075822234154,-0.008026501163840294
1772534325825896000,7.69989599609375,-0.005246693734079599,0.005774798337370157,-0.016953682526946068
1772534325835913200,7.709913330078125,-0.004662662278860807,0.009178318083286285,-0.023927170783281326
1772534325845929200,7.71992919921875,-0.005662412848323584,0.012291553430259228,-0.024811873212456703
1772534325855945200,7.7299453125,-0.005087969359010458,0.007604389917105436,-0.024895496666431427
1772534325865961000,7.7399609375,-0.0024234766606241465,0.001817607437260449,-0.016104402020573616
1772534325875978200,7.749978271484375,0.0012386362068355083,-0.004382497631013393,-0.010038252919912338
1772534325885994200,7.759994140625,0.0037819549906998873,-0.004692223388701677,-0.0019379822770133615
1772534325896010200,7.77001025390625,0.0067812069319188595,-0.005810218397527933,-0.0004796353168785572
1772534325906026200,7.780026123046875,0.010645720176398754,-0.007212905213236809,0.000319845654303208
1772534325916043000,7.79004296875,0.015054849907755852,-0.006883738562464714,-0.005921272095292807
1772534325926059000,7.80005908203125,0.015193600207567215,-0.002644785214215517,-0.008833172731101513
1772534325936075300,7.8100751953125,0.012031362392008305,-0.001582982949912548,-0.02002830244600773
1772534325946091300,7.82009130859375,0.008040349930524826,-0.0007145261042751372,-0.029039906337857246
1772534325956108000,7.83010791015625,0.00316037330776453,0.0014381069922819734,-0.03820251300930977
1772534325966124000,7.8401240234375,-0.0009901633020490408,0.0062554990872740746,-0.037824876606464386
1772534325976140000,7.85014013671875,-0.004308462142944336,0.006640858482569456,-0.03188895806670189
1772534325986156300,7.86015625,-0.0030186930671334267,-0.0002591255761217326,-0.020835774019360542
1772534325996172300,7.87017236328125,0.001321194227784872,-0.0019244002178311348,-0.008219047449529171
1772534326006189000,7.88018896484375,-0.0003150519623886794,0.0024671524297446012,0.0016157397767528892
1772534326016205000,7.890205078125,-0.005878395400941372,0.005619802512228489,0.009731190279126167
1772534326026221000,7.900220947265625,-0.009988452307879925,0.0012769857421517372,0.014331269077956676
1772534326036237000,7.910237060546875,-0.014939800836145878,0.005721535068005323,0.012293950654566288
1772534326046254000,7.920254150390625,-0.013895309530198574,0.011091000400483608,0.005245894659310579
1772534326056270000,7.93027001953125,-0.011116034351289272,0.01133840810507536,-0.004554005339741707
1772534326066286000,7.9402861328125,-0.008317318744957447,0.014968829229474068,-0.011736816726624966
1772534326076302000,7.950302001953125,-0.00549330236390233,0.014637532643973827,-0.01353445090353489
1772534326086319000,7.960319091796875,-0.004743089899420738,0.008475776761770248,-0.010794324800372124
1772534326096335000,7.970335205078125,-0.005126318894326687,0.00996048841625452,-0.002189384773373604
1772534326106351000,7.98035107421875,-0.005194495897740126,0.003954527899622917,0.006631270982325077
1772534326116367000,7.9903671875,-0.005233910400420427,-0.001987783471122384,0.01085770782083273
1772534326126383000,8.000383056640626,-0.0058656120672822,-0.0009568737586960196,0.008288023993372917
1772534326136400100,8.010400146484375,-0.007902930490672588,-0.0008881642133928835,-0.0033071134239435196
1772534326146416000,8.020416015625,-0.005313805304467678,0.002046639332547784,-0.02117532677948475
1772534326156432100,8.03043212890625,-0.010878480039536953,0.005693838465958834,-0.03537556901574135
1772534326166448000,8.0404482421875,-0.01678883284330368,0.015467639081180096,-0.045403700321912766
1772534326176465200,8.050465087890625,-0.021106617525219917,0.018726550042629242,-0.05101950839161873
1772534326186481000,8.06048095703125,-0.021529261022806168,0.00959829892963171,-0.04631609842181206
1772534326196497200,8.0704970703125,-0.019349463284015656,0.005051483865827322,-0.038539934903383255
1772534326206513200,8.08051318359375,-0.016155799850821495,0.005588643718510866,-0.026015887036919594
1772534326216530200,8.0905302734375,-0.010390589013695717,-0.0012572783743962646,-0.015203453600406647
1772534326226546200,8.100546142578125,-0.006908772513270378,-0.008027300238609314,-0.007573231123387814
1772534326236562000,8.11056201171875,-0.004583033733069897,-0.004228300880640745,-0.0075785573571920395
1772534326246578200,8.120578125,-0.009520001709461212,0.001064731739461422,-0.012649482116103172
1772534326256595200,8.13059521484375,-0.015973906964063644,0.007850466296076775,-0.021975873038172722
1772534326266611200,8.140611083984375,-0.022430740296840668,0.009423862211406231,-0.028559472411870956
1772534326276627000,8.150626953125,-0.01702026277780533,0.006000368390232325,-0.03740809112787247
1772534326286643000,8.160642822265626,-0.010904845781624317,0.005123389419168234,-0.041792720556259155
1772534326296659200,8.1706591796875,-0.0037678403314203024,0.0035148400347679853,-0.0438031405210495
1772534326306676200,8.18067626953125,0.003635214874520898,-0.003563842037692666,-0.04585670307278633
1772534326316692200,8.190692138671874,0.009856891818344593,-0.007981494069099426,-0.03684296831488609
1772534326326708000,8.2007080078125,0.011936554685235023,-0.012045477516949177,-0.02731684222817421
1772534326336724000,8.210723876953125,0.007753260899335146,-0.004234159830957651,-0.024839036166667938
1772534326346741200,8.2207412109375,0.0019198728259652853,-0.00569969741627574,-0.03308258578181267
1772534326356757200,8.23075732421875,-0.0031931300181895494,-0.0062768044881522655,-0.0370754636824131
1772534326366773200,8.240773193359376,-0.009306150488555431,-0.012764531187713146,-0.03255847468972206
1772534326376789000,8.2507890625,-0.01519040483981371,-0.009363940916955471,-0.027601800858974457
1772534326386806000,8.260805908203125,-0.02172020822763443,0.003049319377169013,-0.02978000044822693
1772534326396822300,8.270822265625,-0.02695837989449501,0.0036615801509469748,-0.03291826695203781
1772534326406838000,8.280838134765625,-0.019764117896556854,0.0008013451588340104,-0.040814805775880814
1772534326416854000,8.29085400390625,-0.010627344250679016,0.0024679512716829777,-0.04553339630365372
1772534326426869800,8.300869873046874,-0.008960471488535404,0.009665144607424736,-0.03900625556707382
1772534326436887000,8.310886962890624,-0.012080098502337933,0.009002815932035446,-0.022721024230122566
1772534326446903000,8.320903076171875,-0.009438242763280869,0.001995772821828723,-0.00771650904789567
1772534326456919000,8.3309189453125,-0.004686098080128431,-0.0038104509003460407,0.004002731293439865
1772534326466935000,8.34093505859375,-0.006927148438990116,-0.00794500857591629,0.018126539885997772
1772534326476951800,8.350951904296876,-0.011743474751710892,-0.0014391721924766898,0.01955639012157917
1772534326486968000,8.360968017578125,-0.01739097386598587,0.009827863425016403,0.011471832171082497
1772534326496984000,8.370984130859375,-0.023326361551880836,0.013424462638795376,0.00045912896166555583
1772534326507000000,8.381,-0.02406858466565609,0.01537629310041666,-0.004939364735037088
1772534326517016800,8.391016845703126,-0.020680777728557587,0.01528734341263771,-0.005796636454761028
1772534326527032800,8.40103271484375,-0.011530954390764236,0.009946640580892563,-0.0008261125767603517
1772534326537049000,8.411049072265625,-0.0015811186749488115,-0.0008873652550391853,0.0013025520602241158
1772534326547065000,8.421065185546874,0.008918393403291702,-0.0008285093936137855,-0.0002061286650132388
1772534326557081000,8.4310810546875,0.018745990470051765,-0.0007440872141160071,-0.01190859079360962
1772534326567097900,8.441097900390625,0.02588326297700405,0.0030131004750728607,-0.01858833245933056
1772534326577113900,8.45111376953125,0.028555212542414665,0.0016112125013023615,-0.020010992884635925
1772534326587129900,8.4611298828125,0.026816166937351227,-0.003914047963917255,-0.03087642230093479
1772534326597146000,8.47114599609375,0.018933210521936417,-0.0019489012192934752,-0.03867868706583977
1772534326607163000,8.481162841796875,0.007902664132416248,0.0018317222129553556,-0.03675561770796776
1772534326617179000,8.491178955078125,0.004085821565240622,0.0017915084026753902,-0.03640727698802948
1772534326627195000,8.50119482421875,0.0062858592718839645,-0.0020237360149621964,-0.03624375909566879
1772534326637211000,8.5112109375,0.006946589332073927,0.001618403010070324,-0.037400636821985245
1772534326647228000,8.521227783203125,0.00390339526347816,0.008947954513132572,-0.039670180529356
1772534326657244000,8.531243896484375,0.002698314841836691,0.014851383864879608,-0.03906005248427391
1772534326667260000,8.541260009765624,0.007740743923932314,0.01540425606071949,-0.02991635352373123
1772534326677276000,8.55127587890625,0.016170980408787727,0.003920971881598234,-0.016471916809678078
1772534326687292000,8.5612919921875,0.019164906814694405,0.00028069718973711133,0.005828594323247671
1772534326697309000,8.571308837890625,0.014938469044864178,0.0019294602097943425,0.02436233125627041
1772534326707325000,8.581324951171876,0.010572216473519802,0.010103766806423664,0.03220853582024574
1772534326717341000,8.5913408203125,0.007937817834317684,0.015112640336155891,0.034327082335948944
1772534326727357000,8.60135693359375,0.013263074681162834,0.011958125978708267,0.03922276943922043
1772534326737374000,8.6113740234375,0.020917799323797226,0.009984989650547504,0.04067126289010048
1772534326747390000,8.621389892578126,0.028975991532206535,0.009020925499498844,0.034452781081199646
1772534326757406000,8.631406005859375,0.03772846981883049,0.0096835196018219,0.028329908847808838
1772534326767422000,8.641421875,0.03717639669775963,0.0065314024686813354,0.024030767381191254
1772534326777439000,8.65143896484375,0.03424159437417984,0.005313272587954998,0.01714702881872654
1772534326787454700,8.661454833984376,0.02748728357255459,0.008272044360637665,0.013321131467819214
1772534326797471000,8.671470947265625,0.022541794925928116,0.01624821126461029,0.004533499013632536
1772534326807487000,8.681487060546875,0.014375477097928524,0.019182482734322548,-0.001017061178572476
1772534326817503000,8.6915029296875,0.00520647969096899,0.025952504947781563,0.0014836470363661647
1772534326827520000,8.70152001953125,0.0016261261189356446,0.023089339956641197,0.012565593235194683
1772534326837535700,8.71153564453125,0.003483681008219719,0.01392700057476759,0.022911440581083298
1772534326847552000,8.721552001953125,0.00552259711548686,0.004734834190458059,0.03015257604420185
1772534326857568000,8.731568115234374,0.0023853934835642576,0.0044229780323803425,0.03654016926884651
1772534326867585000,8.7415849609375,-0.00595456175506115,0.007452856283634901,0.039809729903936386
1772534326877601000,8.75160107421875,-0.013101953081786633,0.011358648538589478,0.04194958135485649
1772534326887616800,8.76161669921875,-0.017739582806825638,0.0075726984068751335,0.04127500206232071
1772534326897632800,8.7716328125,-0.018148111179471016,0.0028485171496868134,0.040644366294145584
1772534326907649000,8.78164892578125,-0.016438361257314682,0.0083071980625391,0.032335035502910614
1772534326917666000,8.791666015625,-0.011272095143795013,0.011607653461396694,0.024943167343735695
1772534326927682000,8.80168212890625,-0.004756671842187643,0.011290737427771091,0.011847871355712414
1772534326937697800,8.81169775390625,0.0067657604813575745,0.009065666235983372,-0.0017736653098836541
1772534326947713800,8.8217138671875,0.01732759177684784,0.0054943677969276905,-0.01498241163790226
1772534326957731000,8.83173095703125,0.024467259645462036,0.00001917476038215682,-0.024943966418504715
1772534326967747000,8.8417470703125,0.031076958402991295,0.0028360001742839813,-0.03377660736441612
1772534326977762800,8.8517626953125,0.03261067345738411,0.003032541600987315,-0.03741102293133736
1772534326987778800,8.86177880859375,0.03254329413175583,0.0028304075822234154,-0.035175297409296036
1772534326997796000,8.871796142578125,0.03459792584180832,0.0005933523061685264,-0.028966138139367104
1772534327007812000,8.88181201171875,0.02816931903362274,-0.0034756914246827364,-0.024396153166890144
1772534327017828000,8.891828125,0.022895196452736855,-0.005813946947455406,-0.025187911465764046
1772534327027843800,8.90184375,0.013731258921325207,-0.002046106616035104,-0.020250143483281136
1772534327037859800,8.91185986328125,0.0030064424499869347,0.002764094853773713,-0.01792307384312153
1772534327047876900,8.921876953125,-0.009092031978070736,0.006742591038346291,-0.01404631044715643
1772534327057893000,8.93189306640625,-0.018496185541152954,0.0024676851462572813,-0.007741276640444994
1772534327067909000,8.9419091796875,-0.022481340914964676,-0.003195793367922306,-0.006639793049544096
1772534327077924900,8.9519248046875,-0.017614945769309998,-0.002579537918791175,-0.008626777678728104
1772534327087942000,8.96194189453125,-0.012118448503315449,-0.0033744913525879383,-0.010348244570195675
1772534327097958000,8.9719580078125,-0.006952448282390833,-0.004554538056254387,-0.01242098305374384
1772534327107974100,8.98197412109375,-0.0022567627020180225,-0.006680007092654705,-0.012881177477538586
1772534327117990100,8.991990234375,0.0011768508702516556,-0.0015297196805477142,-0.013978400267660618
1772534327128007000,9.0020068359375,0.004090349189937115,-0.0008623315370641649,-0.01840856857597828
1772534327138023000,9.01202294921875,0.006339654792100191,-0.00022610237647313625,-0.024627847597002983
1772534327148039000,9.022038818359375,0.011565842665731907,0.0016919062472879887,-0.02971954643726349
1772534327158055200,9.03205517578125,0.016804279759526253,0.0026439863722771406,-0.02785373479127884
1772534327168071000,9.04207080078125,0.016512664034962654,0.0010908307740464807,-0.02449895069003105
1772534327178088000,9.052087890625,0.016558470204472542,0.0025097629986703396,-0.02100728079676628
1772534327188104000,9.06210400390625,0.013852965086698532,0.0013036173768341541,-0.019817380234599113
1772534327198120000,9.072119873046875,0.0109253516420722,-0.007725830189883709,-0.01751188188791275
1772534327208136000,9.082135986328124,0.0037553233560174704,-0.0032924660481512547,-0.014346182346343994
1772534327218153000,9.092153076171876,-0.0039278962649405,-0.0002031991898547858,-0.011581288650631905
1772534327228169000,9.1021689453125,-0.011603392660617828,0.002064482541754842,-0.01215919479727745
1772534327238185000,9.11218505859375,-0.014504906721413136,0.0015864450251683593,-0.012624182738363743
1772534327248201000,9.122200927734376,-0.010666492395102978,-0.001008805469609797,-0.012181298807263374
1772534327258218000,9.132218017578126,-0.01062228437513113,-0.0015022892039269209,-0.009414540603756905
1772534327268234000,9.14223388671875,-0.012249208986759186,-0.0013771206140518188,-0.01266839075833559
1772534327278250000,9.15225,-0.01780456304550171,-0.00007057376933516935,-0.022792663425207138
1772534327288266000,9.162265869140626,-0.02551334910094738,0.005397961009293795,-0.035296469926834106
1772534327298282000,9.172281982421875,-0.03176165744662285,0.012938168831169605,-0.04686044901609421
1772534327308299000,9.182299072265625,-0.03322825953364372,0.015152853913605213,-0.05223763734102249
1772534327318315000,9.19231494140625,-0.030280673876404762,0.007729292381554842,-0.04500475898385048
1772534327328331000,9.2023310546875,-0.02381984516978264,0.0032525185961276293,-0.03669090196490288
1772534327338347000,9.212346923828125,-0.017251158133149147,-0.0027411917690187693,-0.0323914960026741
1772534327348363800,9.22236376953125,-0.01230726670473814,-0.00487278588116169,-0.025173796340823174
1772534327358379800,9.2323798828125,-0.009904828853905201,-0.0020003002136945724,-0.012350409291684628
1772534327368396000,9.24239599609375,-0.005331115797162056,-0.005930593237280846,0.0012215919559821486
1772534327378412000,9.252412109375,-0.0017813884187489748,-0.009368734434247017,0.007967378944158554
1772534327388428000,9.262427978515625,-0.008313057012856007,-0.010480604134500027,0.016100939363241196
1772534327398444800,9.27244482421875,-0.012044412083923817,-0.004773450084030628,0.025048362091183662
1772534327408461000,9.2824609375,-0.014312626793980598,-0.006287456955760717,0.029376531019806862
1772534327418477300,9.292477294921875,-0.010659834370017052,-0.010242517106235027,0.029523003846406937
1772534327428493300,9.302493408203125,-0.004238420631736517,-0.0070278155617415905,0.0302007794380188
1772534327438510000,9.312510009765624,0.004322843160480261,-0.006113019771873951,0.023859260603785515
1772534327449152300,9.32315234375,0.014578942209482193,-0.009707754477858543,0.012624715454876423
1772534327459794200,9.333794189453124,0.017376594245433807,-0.00580648984760046,0.0014713965356349945
1772534327469810200,9.34381005859375,0.013365074060857296,-0.0012213257141411304,-0.007168697193264961
1772534327479827200,9.3538271484375,0.00749120581895113,-0.0003454120014794171,-0.009270197711884975
1772534327489843200,9.36384326171875,-0.001249821507371962,0.0013054815353825688,-0.010821755044162273
1772534327499859200,9.373859130859374,-0.007309045642614365,-0.003442668356001377,-0.007737548090517521
1772534327509875200,9.383875244140626,-0.011321896687150002,-0.005677592940628529,0.0028961875941604376
1772534327519891200,9.39389111328125,-0.011304319836199284,-0.01067794393748045,0.013777597807347775
1772534327529908200,9.403908203125,-0.011782890185713768,-0.014398912899196148,0.015850335359573364
1772534327539924200,9.41392431640625,-0.015246330760419369,-0.014886271208524704,0.015607455745339394
1772534327549940200,9.423940185546876,-0.020473316311836243,-0.007391870021820068,0.007794539909809828
1772534327559956200,9.433956298828125,-0.027824973687529564,0.002058623591437936,-0.005345230456441641
1772534327569973200,9.44397314453125,-0.030552582815289497,0.007326888851821423,-0.010153035633265972
1772534327579989200,9.4539892578125,-0.031353659927845,0.006292516831308603,-0.012781308963894844
1772534327590005200,9.464005126953126,-0.028110196813941002,-0.0016974988393485546,-0.013847905211150646
1772534327600021200,9.474021240234375,-0.02364620752632618,-0.008026501163840294,-0.01158368494361639
1772534327610037000,9.484037109375,-0.017718276008963585,-0.010425742715597153,-0.005028048064559698
1772534327620054300,9.49405419921875,-0.014257765375077724,-0.010808971710503101,0.003026149934157729
1772534327630070300,9.5040703125,-0.011375692673027515,-0.009520001709461212,0.01139806304126978
1772534327640086300,9.514086181640625,-0.008716260083019733,-0.008964466862380505,0.015546469017863274
1772534327650102000,9.52410205078125,-0.005515672732144594,-0.010379936546087265,0.017703097313642502
1772534327660119300,9.534119384765624,-0.005742574110627174,-0.009131446480751038,0.013286776840686798
1772534327670135300,9.54413525390625,-0.007436344865709543,-0.004286357667297125,0.0023060310631990433
1772534327680151300,9.5541513671875,-0.011487279087305069,0.00023941817926242948,-0.018909242004156113
1772534327690167300,9.564167236328124,-0.014111025258898735,0.003091397462412715,-0.03459819033741951
1772534327700184000,9.57418408203125,-0.015266571193933487,0.00015659387281630188,-0.03676120936870575
1772534327710200300,9.584200439453125,-0.014254303649067879,-0.007795338984578848,-0.03365489840507507
1772534327720216300,9.59421630859375,-0.013322729617357254,-0.01555099617689848,-0.01763731613755226
1772534327730232300,9.604232421875,-0.011922439560294151,-0.01629668101668358,0.0035238948184996843
1772534327740248300,9.614248291015626,-0.010150105692446232,-0.016396017745137215,0.02424408681690693
1772534327750265000,9.62426513671875,-0.010305368341505527,-0.014515026472508907,0.031196001917123795
1772534327760281000,9.634281005859375,-0.011611116118729115,-0.009322129189968109,0.03135685622692108
1772534327770297300,9.64429736328125,-0.009918410331010818,-0.003832022426649928,0.02611122839152813
1772534327780313300,9.654313232421876,-0.011949603445827961,0.001406947965733707,0.02142805978655815
1772534327790956300,9.664956298828125,-0.011290471069514751,0.0006998787284828722,0.01775502786040306
1772534327800972300,9.67497216796875,-0.0075876121409237385,-0.0054395063780248165,0.010478206910192966
1772534327810988300,9.68498828125,-0.004226702731102705,-0.012084625661373138,-0.0015659386990591884
1772534327821004000,9.695004150390625,-0.004073038697242737,-0.00628905463963747,-0.009005213156342506
1772534327831021300,9.705021240234375,-0.004160656593739986,0.00008495483780279756,-0.017041301354765892
1772534327841037300,9.715037353515624,-0.0024823325220495462,-0.002438922878354788,-0.022951921448111534
1772534327851053300,9.72505322265625,-0.00046605319948866963,-0.0037883466575294733,-0.020253339782357216
1772534327861069300,9.7350693359375,0.0021489046048372984,-0.006196110509335995,-0.014639396220445633
1772534327871085000,9.7450849609375,-0.001386707997880876,-0.006102900020778179,-0.010715228505432606
1772534327881102000,9.75510205078125,-0.011745339259505272,-0.0018125474452972412,-0.01013945322483778
1772534327891118300,9.765118408203126,-0.02435886859893799,0.007525560446083546,-0.005569468718022108
1772534327901134300,9.77513427734375,-0.03484399989247322,0.007895739749073982,0.0004897553008049726
1772534327911150300,9.785150390625,-0.037033919245004654,0.007844074629247189,0.009615076705813408
1772534327921167000,9.7951669921875,-0.0325896330177784,-0.0020658141002058983,0.014146711677312851
1772534327931183000,9.80518310546875,-0.026523219421505928,-0.00649651512503624,0.015191469341516495
1772534327941199400,9.815199462890625,-0.02172713354229927,-0.004037884995341301,0.01380875613540411
1772534327951215400,9.82521533203125,-0.02172739990055561,0.004463457968086004,0.006440588738769293
1772534327961232100,9.835232177734374,-0.03424425795674324,0.024230504408478737,-0.0013973605819046497
1772534327971248000,9.845248046875,-0.05451623722910881,0.0503113754093647,0.004312456585466862
1772534327981264100,9.85526416015625,-0.062064968049526215,0.029437517747282982,-0.009908823296427727
1772534327991280400,9.8652802734375,-0.05396603047847748,0.021441375836730003,-0.014510232955217361
1772534328001296400,9.87529638671875,-0.0380251482129097,0.0016495619202032685,-0.014694790355861187
1772534328011313200,9.885313232421876,-0.023720774799585342,-0.0027662254869937897,-0.013283048756420612
1772534328021329200,9.8953291015625,-0.015234612859785557,-0.0037910097744315863,-0.016684703528881073
1772534328031345200,9.90534521484375,-0.005390238016843796,-0.008250206708908081,-0.020441092550754547
1772534328041361200,9.915361083984376,-0.0006697850185446441,-0.007439806591719389,-0.017619740217924118
1772534328051378200,9.925378173828125,-0.004081827122718096,-0.005495432764291763,-0.01671799272298813
1772534328061394200,9.935394287109375,-0.0033156354911625385,-0.003145193215459585,-0.022875221446156502
1772534328071410200,9.94541015625,-0.009073922410607338,0.0013723268639296293,-0.02329626865684986
1772534328081426200,9.95542626953125,-0.012374111451208591,0.0035689021460711956,-0.025308819487690926
1772534328091442200,9.965442138671875,-0.012112855911254883,-0.0018849853659048676,-0.02304459922015667
1772534328101459200,9.975459228515625,-0.012950419448316097,-0.01074186060577631,-0.013719274662435055
1772534328111475200,9.98547509765625,-0.011814847588539124,-0.008109059184789658,-0.0019092201255261898
1772534328121491200,9.9954912109375,-0.009675264358520508,-0.009552492760121822,-0.002665025182068348
1772534328131507200,10.005507080078125,-0.005825664848089218,-0.010512296110391617,-0.0070427292957901955
1772534328141524200,10.015524169921875,-0.004768922459334135,-0.005394765175879002,-0.014055897481739521
1772534328151540200,10.025540283203124,-0.005709550809115171,0.003887948812916875,-0.024821193888783455
1772534328161556200,10.03555615234375,-0.007891745306551456,0.01703224703669548,-0.03393586352467537
1772534328171572200,10.045572265625,-0.011795672588050365,0.012749616988003254,-0.03839932009577751
1772534328181588200,10.055588134765625,-0.01672811433672905,0.006883206311613321,-0.03772740438580513
1772534328191605000,10.06560498046875,-0.018093250691890717,0.004027764778584242,-0.02792430855333805
1772534328201621200,10.075621337890626,-0.019788086414337158,0.00612313998863101,-0.02106214128434658
1772534328211637200,10.08563720703125,-0.021523933857679367,0.007888282649219036,-0.01254881452769041
1772534328221653200,10.0956533203125,-0.02436073310673237,0.007426757365465164,-0.008182828314602375
1772534328231670000,10.105669921875,-0.02454395964741707,0.013036440126597881,-0.005590507760643959
1772534328241686000,10.11568603515625,-0.017306551337242126,0.013353356160223484,-0.008105597458779812
1772534328251702300,10.125702392578125,-0.011579690501093864,0.009591108188033104,-0.004085821565240622
1772534328261718300,10.13571826171875,-0.0054789213463664055,0.002245843643322587,0.004113784991204739
1772534328271735300,10.1457353515625,-0.0033878071699291468,0.002130262553691864,0.009937318973243237
1772534328281751000,10.1557509765625,-0.006183327175676823,-0.0006175870657898486,0.010819357819855213
1772534328291767000,10.16576708984375,-0.009517871774733067,0.001537709147669375,0.0004021373169962317
1772534328301783000,10.175782958984374,-0.0142931854352355,0.007110373582690954,-0.01648976095020771
1772534328311799300,10.18579931640625,-0.014180533587932587,0.01074159424751997,-0.03061782941222191
1772534328321816300,10.19581640625,-0.012894227169454098,0.013976003043353558,-0.0424630381166935
1772534328331832000,10.20583203125,-0.013832458294928074,0.014150706119835377,-0.04704980179667473
1772534328341848000,10.21584814453125,-0.01519786100834608,0.014070012606680393,-0.04614006355404854
1772534328351864000,10.225864013671876,-0.015574964694678783,0.00618119677528739,-0.045518483966588974
1772534328361881300,10.23588134765625,-0.014160826802253723,-0.00007084008393576369,-0.045580536127090454
1772534328371897300,10.2458974609375,-0.01329663023352623,-0.002035187790170312,-0.03819585591554642
1772534328381913000,10.2559130859375,-0.01744050905108452,0.001178182428702712,-0.02707742340862751
1772534328391929000,10.26592919921875,-0.023488281294703484,-0.0031406658235937357,-0.01998702436685562
1772534328401945300,10.2759453125,-0.030064424499869347,0.00004660531703848392,-0.012343751266598701
1772534328411962400,10.28596240234375,-0.035869050770998,0.006828877609223127,-0.012252405285835266
1772534328421978000,10.29597802734375,-0.03978842496871948,0.006780141964554787,-0.022159630432724953
1772534328431994400,10.305994384765626,-0.03585120663046837,0.009548497386276722,-0.03290548548102379
1772534328442010400,10.31601025390625,-0.02961328625679016,0.0100800646468997,-0.04613234102725983
1772534328452027400,10.32602734375,-0.024221450090408325,0.004246144089847803,-0.055634498596191406
1772534328462043400,10.33604345703125,-0.01606099121272564,0.0057463026605546474,-0.06294035166501999
1772534328472059100,10.34605908203125,-0.013949637301266193,0.005645368713885546,-0.06058318540453911
1772534328482075100,10.3560751953125,-0.015057246200740337,0.008348210714757442,-0.04541807994246483
1772534328492091400,10.36609130859375,-0.01477308664470911,0.00640836451202631,-0.022428609430789948
1772534328502108400,10.3761083984375,-0.006105296779423952,-0.005007808096706867,0.0035308189690113068
1772534328512124400,10.38612451171875,0.0005819007055833936,-0.010811368934810162,0.01732759177684784
1772534328522140200,10.39614013671875,0.00812051072716713,-0.014503308571875095,0.021744709461927414
1772534328532156200,10.40615625,0.012372779659926891,-0.012792227789759636,0.02257188782095909
1772534328542173400,10.41617333984375,0.015684153884649277,0.00026285400963388383,0.021747373044490814
1772534328552189400,10.426189453125,0.01870870590209961,-0.014504906721413136,0.00902784988284111
1772534328562205400,10.436205322265625,0.019424298778176308,-0.0018676748732104897,0.007414506748318672
1772534328572221200,10.44622119140625,0.016144348308444023,-0.004738296382129192,0.014414092525839806
1772534328582237200,10.4562373046875,0.016282832249999046,-0.011630291119217873,0.010667824186384678
1772534328592254500,10.46625439453125,0.010070743970572948,-0.008711466565728188,0.005577458068728447
1772534328602270500,10.4762705078125,0.0002687129599507898,0.003977963700890541,0.01251259632408619
1772534328612286200,10.4862861328125,-0.002871153876185417,0.002252235310152173,0.0016130766598507762
1772534328622302200,10.49630224609375,-0.004747084807604551,0.0023254721891134977,0.008666724897921085
1772534328632319200,10.5063193359375,-0.002703641075640917,-0.0011978897964581847,0.01685754396021366
1772534328642335500,10.51633544921875,0.005584116093814373,-0.011973039247095585,0.011078749783337116
1772534328652351500,10.5263515625,0.010461961850523949,-0.009328254498541355,0.00264771468937397
1772534328662367200,10.5363671875,0.010721353814005852,0.0007515440811403096,-0.0026879284996539354
1772534328672383200,10.54638330078125,0.0037063213530927896,0.0054909056052565575,-0.01251286268234253
1772534328682400300,10.556400146484375,0.00033449303009547293,0.0017387778498232365,-0.02756265178322792
1772534328692416500,10.56641650390625,0.00004793690095539205,0.0012863067677244544,-0.030821828171610832
1772534328702432500,10.5764326171875,0.007261641323566437,-0.0009560748003423214,-0.03869812563061714
1772534328712448300,10.5864482421875,0.01607164368033409,-0.0194325540214777,-0.03771382197737694
1772534328722465300,10.59646533203125,0.028267590329051018,-0.021450962871313095,-0.013490774668753147
1772534328732481300,10.606481201171874,0.03206872195005417,-0.033184319734573364,-0.0037590519059449434
1772534328742497300,10.616497314453126,0.02082139253616333,-0.031800806522369385,-0.005870139691978693
1772534328752513500,10.626513427734375,0.003581951605156064,-0.018368886783719063,0.0023036343045532703
1772534328762530300,10.6365302734375,0.0017680726014077663,-0.02154603786766529,0.024864869192242622
1772534328772546300,10.64654638671875,-0.019702864810824394,0.05819512903690338,-0.06523972004652023
1772534328782562300,10.656562255859376,-0.060746971517801285,0.10196924209594727,-0.14522962272167206
1772534328792578300,10.666578369140625,-0.06596942991018295,0.07814167439937592,-0.1371498703956604
1772534328802594300,10.67659423828125,-0.04616323485970497,0.03351907804608345,-0.09114056080579758
1772534328812611300,10.686611328125,-0.03139866888523102,-0.009589243680238724,-0.028628181666135788
1772534328822627300,10.69662744140625,-0.02954431064426899,-0.01950552500784397,0.032340895384550095
1772534328832643300,10.706643310546875,-0.024294687435030937,-0.028789570555090904,0.060450825840234756
1772534328842659300,10.716659423828125,-0.010379670187830925,-0.046602923423051834,0.061594653874635696
1772534328852676400,10.72667626953125,-0.0029028456192463636,-0.03961452096700668,0.04563193395733833
1772534328862692400,10.7366923828125,-0.0008551410282962024,-0.01732652634382248,0.02261609584093094
1772534328872708400,10.746708251953125,0.000011185276889591478,0.003061037277802825,-0.009119994938373566
