time,seconds_elapsed,z,y,x
1772534318175360000,0.049360107421875,0.015557890757918358,-0.02778482437133789,-0.06499902158975601
1772534318185376000,0.0593759765625,0.021548138931393623,-0.03410876542329788,-0.03098725900053978
1772534318195392800,0.069392822265625,0.012506147846579552,-0.023820072412490845,-0.019319869577884674
1772534318205409000,0.079408935546875,-0.005070448853075504,-0.021224021911621094,-0.025896813720464706
1772534318215425000,0.089425048828125,-0.020187197253108025,-0.013853262178599834,-0.03219025582075119
1772534318225441000,0.09944091796875,-0.03273015469312668,-0.005422759801149368,-0.030235759913921356
1772534318235457800,0.109457763671875,-0.041719451546669006,-0.0036238098982721567,-0.021882236003875732
1772534318245473800,0.119473876953125,-0.04362307861447334,-0.005930639803409576,-0.009876972995698452
1772534318255490000,0.129489990234375,-0.049842678010463715,-0.006355469115078449,0.004671694245189428
1772534318265506000,0.139506103515625,-0.05072365328669548,0.0003056291025131941,0.02292686328291893
1772534318275523000,0.149523193359375,-0.0473041906952858,-0.010833433829247952,0.027263343334197998
1772534318285538800,0.159538818359375,-0.044212792068719864,-0.019624793902039528,0.024774886667728424
1772534318295554800,0.169554931640625,-0.04265781491994858,-0.0164815541356802,0.01457368116825819
1772534318305572000,0.179572021484375,-0.045897286385297775,-0.007302170619368553,0.0008754455484449863
1772534318315588000,0.189588134765625,-0.04867888614535332,-0.011228217743337154,-0.011233528144657612
1772534318325603800,0.199603759765625,-0.05235804244875908,0.0017059571109712124,-0.01876015216112137
1772534318335619800,0.209619873046875,-0.05559750273823738,0.010688494890928268,-0.02315301075577736
1772534318345636900,0.219636962890625,-0.05571148544549942,0.005701193120330572,-0.029092393815517426
1772534318355653000,0.229653076171875,-0.05495147407054901,0.006313137710094452,-0.026726435869932175
1772534318365669000,0.239669189453125,-0.057442858815193176,0.002335973083972931,-0.023820927366614342
1772534318375684900,0.249684814453125,-0.05699976533651352,-0.0036284984089434147,-0.026092786341905594
1772534318385702100,0.2597021484375,-0.05255494639277458,-0.0008462939877063036,-0.03190167248249054
1772534318395718100,0.26971826171875,-0.049125391989946365,-0.012036114931106567,-0.04336998239159584
1772534318405734100,0.279734130859375,-0.044423848390579224,-0.01064088474959135,-0.039483629167079926
1772534318415750100,0.289750244140625,-0.04133972153067589,-0.003410350065678358,-0.03992509841918945
1772534318425767200,0.29976708984375,-0.038731422275304794,-0.007141171954572201,-0.051847271621227264
1772534318435783200,0.309783203125,-0.0328349843621254,-0.015049408189952374,-0.06693963706493378
1772534318445799200,0.319799072265625,-0.02930363267660141,-0.011681308969855309,-0.07346571236848831
1772534318455815200,0.329815185546875,-0.026551879942417145,-0.007824700325727463,-0.07458063215017319
1772534318465832000,0.33983203125,-0.02226126194000244,-0.006158360280096531,-0.07767735421657562
1772534318475848000,0.349847900390625,-0.015147628262639046,-0.0023332443088293076,-0.08078799396753311
1772534318485864200,0.3598642578125,-0.004925085231661797,-0.005677375942468643,-0.0840090811252594
1772534318495881000,0.369880859375,0.0006812771316617727,-0.01567012444138527,-0.08774112164974213
1772534318505897000,0.37989697265625,0.0005939254187978804,-0.010217834264039993,-0.08631100505590439
1772534318515913000,0.389912841796875,0.0020605556201189756,-0.0048668524250388145,-0.07501360774040222
1772534318525929000,0.399928955078125,0.006169014144688845,-0.005293224006891251,-0.07099011540412903
1772534318535946200,0.4099462890625,0.014162315055727959,-0.009849445894360542,-0.06508362293243408
1772534318545962000,0.4199619140625,0.020025262609124184,-0.014696931466460228,-0.06266999244689941
1772534318555978000,0.42997802734375,0.025569895282387733,-0.01086701825261116,-0.05787228047847748
1772534318565994000,0.439993896484375,0.0274660661816597,-0.014681197702884674,-0.059243280440568924
1772534318576011300,0.45001123046875,0.028992995619773865,-0.007428386248648167,-0.053938329219818115
1772534318586027300,0.46002734375,0.027788979932665825,-0.0009417249821126461,-0.040099743753671646
1772534318596043000,0.47004296875,0.032075606286525726,-0.013007708825170994,-0.023660581558942795
1772534318606059000,0.48005908203125,0.03697129711508751,-0.02312931977212429,-0.01391740795224905
1772534318616076000,0.490075927734375,0.038972899317741394,-0.022346241399645805,-0.009526917710900307
1772534318626092000,0.500092041015625,0.03691267594695091,-0.009795828722417355,-0.010557293891906738
1772534318636108300,0.5101083984375,0.03148728609085083,-0.00567698385566473,-0.013240963220596313
1772534318646124000,0.5201240234375,0.02468477375805378,-0.007722025737166405,-0.01183161698281765
1772534318656141000,0.53014111328125,0.019092543050646782,-0.007143089547753334,-0.006327010225504637
1772534318666157000,0.540156982421875,0.014587273821234703,-0.004601368680596352,0.00437942985445261
1772534318676173000,0.550173095703125,0.012932360172271729,-0.005665725562721491,0.010242647491395473
1772534318686190000,0.560190185546875,0.011229801923036575,-0.008037537336349487,0.012441886588931084
1772534318696206000,0.5702060546875,0.016356252133846283,-0.009358201175928116,0.017879966646432877
1772534318706222000,0.58022216796875,0.021966200321912766,-0.012416042387485504,0.014911874197423458
1772534318716238000,0.590238037109375,0.02341315895318985,-0.012736935168504715,0.004324151668697596
1772534318726255000,0.600255126953125,0.026400426402688026,-0.0020632524974644184,-0.004031515680253506
1772534318736271000,0.61027099609375,0.02578488178551197,0.005391291808336973,-0.011422790586948395
1772534318746287000,0.620287109375,0.021967239677906036,0.00448315404355526,-0.010111716575920582
1772534318756303000,0.63030322265625,0.020372673869132996,0.00019173393957316875,-0.00021097669377923012
1772534318766319900,0.64031982421875,0.01678459718823433,-0.0033057956025004387,0.011190548539161682
1772534318776336100,0.650336181640625,0.019654348492622375,-0.003652785671874881,0.018932659178972244
1772534318786352000,0.66035205078125,0.02171536721289158,-0.001976325875148177,0.022052019834518433
1772534318796368100,0.6703681640625,0.025758028030395508,-0.0011980797862634063,0.022244060412049294
1772534318806385200,0.68038525390625,0.027416111901402473,-0.00297627248801291,0.017680734395980835
1772534318816401000,0.69040087890625,0.026568081229925156,0.002567682880908251,0.010376837104558945
1772534318826417000,0.7004169921875,0.028439750894904137,0.00758880702778697,-0.00011388678103685379
1772534318836433200,0.71043310546875,0.029966037720441818,0.006680566817522049,-0.013790900819003582
1772534318846450200,0.7204501953125,0.030183352530002594,0.006178827024996281,-0.024123698472976685
1772534318856466200,0.730466064453125,0.029176762327551842,0.0032686996273696423,-0.0309331975877285
1772534318866482000,0.74048193359375,0.026837708428502083,0.0077017974108457565,-0.03929978609085083
1772534318876499200,0.750499267578125,0.026167480275034904,0.008669499307870865,-0.04649384319782257
1772534318886515200,0.76051513671875,0.023754389956593513,0.007188782561570406,-0.04944195970892906
1772534318896531200,0.77053125,0.025006050243973732,0.002006911439821124,-0.04658278822898865
1772534318906547000,0.780546875,0.029402395710349083,-0.0024397685192525387,-0.03863724693655968
1772534318916564000,0.79056396484375,0.03378703445196152,-0.008311228826642036,-0.03201059252023697
1772534318926580200,0.800580322265625,0.037197742611169815,-0.010940302163362503,-0.020913736894726753
1772534318936596200,0.81059619140625,0.037354834377765656,-0.01592191308736801,-0.012114027515053749
1772534318946612200,0.8206123046875,0.03726828098297119,-0.01754750683903694,-0.002541561145335436
1772534318956629000,0.83062890625,0.03490990027785301,-0.02536887675523758,0.000029657501727342606
1772534318966645000,0.84064501953125,0.0306863933801651,-0.025928940623998642,0.001241662073880434
1772534318976661000,0.850660888671875,0.02691306732594967,-0.019558772444725037,-0.005822311155498028
1772534318986677200,0.86067724609375,0.025436077266931534,-0.005107128527015448,-0.009710259735584259
1772534318996694000,0.870694091796875,0.026018770411610603,-0.0026972435880452394,-0.007882710546255112
1772534319006710000,0.8807099609375,0.028433458879590034,-0.009351683780550957,-0.006908259354531765
1772534319016726000,0.89072607421875,0.029927093535661697,-0.010775938630104065,-0.006598975975066423
1772534319026742000,0.900741943359375,0.033694133162498474,-0.009171649813652039,-0.006552104372531176
1772534319036759000,0.910759033203125,0.03549736738204956,-0.008719750680029392,-0.009059175848960876
1772534319046775000,0.920775146484375,0.03340012580156326,-0.007486973889172077,-0.015653694048523903
1772534319056791000,0.930791015625,0.03531821072101593,-0.003164942841976881,-0.017588600516319275
1772534319066807000,0.94080712890625,0.0364745557308197,-0.003777469974011183,-0.012835388071835041
1772534319076824000,0.950823974609375,0.03460581600666046,-0.007081121206283569,-0.006169497035443783
1772534319086840000,0.960840087890625,0.027842719107866287,-0.011877473443746567,0.005350006744265556
1772534319096856000,0.97085595703125,0.025517694652080536,-0.011830289848148823,0.007698550820350647
1772534319106872000,0.9808720703125,0.020902171730995178,-0.015166698023676872,0.0027322883252054453
1772534319116889000,0.99088916015625,0.017395002767443657,-0.01182128582149744,-0.0013529937714338303
1772534319126905000,1.000905029296875,0.01319333165884018,-0.013435428030788898,-0.0039780717343091965
1772534319136921000,1.010921142578125,0.01115272007882595,-0.013541830703616142,-0.008995883166790009
1772534319146938000,1.020938232421875,0.008468786254525185,-0.0084424102678895,-0.011261966079473495
1772534319156954000,1.0309541015625,0.0035350436810404062,-0.004378261975944042,-0.0011380454525351524
1772534319166970000,1.04097021484375,-0.0020091249607503414,-0.007665401324629784,0.011913840658962727
1772534319176985900,1.05098583984375,-0.0032600057311356068,-0.013173123821616173,0.028301898390054703
1772534319187003100,1.061003173828125,-0.004369744565337896,-0.012623714283108711,0.043182842433452606
1772534319197019100,1.07101904296875,-0.001977640436962247,-0.01041350606828928,0.04650592803955078
1772534319207035100,1.08103515625,0.001791265094652772,-0.014357115142047405,0.049170687794685364
1772534319217051100,1.091051025390625,0.004815597087144852,-0.024883432313799858,0.05153200030326843
1772534319227068200,1.101068115234375,0.013845576904714108,-0.027514634653925896,0.04881930351257324
1772534319237084200,1.111084228515625,0.01809651404619217,-0.007698053494095802,0.03333302214741707
1772534319247100200,1.12110009765625,0.014937207102775574,0.006083271466195583,0.019708823412656784
1772534319257116200,1.1311162109375,0.012205609120428562,0.009139477275311947,0.008035417646169662
1772534319267133000,1.1411328125,0.011120105162262917,0.007810826413333416,0.005889442283660173
1772534319277149000,1.15114892578125,0.008699941448867321,0.002595098689198494,0.007799848448485136
1772534319287165200,1.161165283203125,0.01411041896790266,-0.00673901429399848,0.016158711165189743
1772534319297181200,1.17118115234375,0.018449923023581505,-0.017000779509544373,0.02409267984330654
1772534319307198000,1.181197998046875,0.020606551319360733,-0.02281739003956318,0.027361178770661354
1772534319317214000,1.1912138671875,0.023371296003460884,-0.02173900231719017,0.02661108784377575
1772534319327230000,1.20122998046875,0.017100084573030472,-0.029820099472999573,0.014193031936883926
1772534319337246200,1.21124609375,0.012031110934913158,-0.0055619883351027966,0.010763086378574371
1772534319347263000,1.221262939453125,0.0033023336436599493,0.00685606524348259,0.006367272697389126
1772534319357279000,1.231279052734375,-0.0042905681766569614,0.007940098643302917,-0.004403939004987478
1772534319367295000,1.241294921875,-0.010631288401782513,0.008458349853754044,-0.006916098762303591
1772534319377311000,1.25131103515625,-0.014489763416349888,0.009409189224243164,0.0003740976098924875
1772534319387328500,1.26132861328125,-0.013332086615264416,0.0014252988621592522,0.011195054277777672
1772534319397344300,1.27134423828125,-0.006771090906113386,-0.005411182995885611,0.026256851851940155
1772534319407360500,1.281360595703125,-0.00036352535244077444,-0.010299415327608585,0.03940940648317337
1772534319417376500,1.29137646484375,0.00021568610100075603,-0.00667421193793416,0.04489525407552719
1772534319427393500,1.3013935546875,0.0017736353911459446,-0.004666987806558609,0.04685906693339348
1772534319437409300,1.3114091796875,0.0038100676611065865,-0.0017041293904185295,0.04854757338762283
1772534319447425300,1.32142529296875,0.008390970528125763,0.002833897015079856,0.04653795063495636
1772534319457442600,1.331442626953125,0.010371828451752663,0.006078686565160751,0.04252811148762703
1772534319467458600,1.34145849609375,0.012567871250212193,0.011230572126805782,0.03212740272283554
1772534319477474600,1.351474609375,0.016931215301156044,0.008765753358602524,0.015735801309347153
1772534319487490300,1.361490234375,0.01914350315928459,0.0023137121461331844,0.013955744914710522
1772534319497507300,1.37150732421875,0.020155323669314384,0.01158221997320652,0.01082540675997734
1772534319507523600,1.381523681640625,0.017075378447771072,0.006754707079380751,0.008075159974396229
1772534319517539600,1.39153955078125,0.01815870963037014,0.00528455525636673,0.008559884503483772
1772534319527555600,1.4015556640625,0.01635787822306156,-0.0023640431463718414,0.010337011888623238
1772534319537572400,1.411572265625,0.01463225670158863,-0.002122389618307352,0.013114335015416145
1772534319547588400,1.42158837890625,0.010865747928619385,-0.00022089271806180477,0.014435527846217155
1772534319557604600,1.4316044921875,0.004938573110848665,0.0035188968759030104,0.013594265095889568
1772534319567620600,1.44162060546875,-0.0008753741276450455,0.01164926216006279,0.012717552483081818
1772534319577637400,1.451637451171875,-0.0032064439728856087,0.009328090585768223,0.016251005232334137
1772534319587653400,1.4616533203125,-0.00048629147931933403,0.003016931237652898,0.02132059819996357
1772534319597669400,1.47166943359375,0.002693542279303074,0.0010357361752539873,0.022779181599617004
1772534319607685600,1.481685546875,0.0018237537005916238,0.0021196429152041674,0.02580879256129265
1772534319617702400,1.491702392578125,0.0009174039587378502,0.005223568994551897,0.02454790659248829
1772534319627718400,1.501718505859375,-0.00537165068089962,0.01006919052451849,0.02274388074874878
1772534319637734400,1.511734375,-0.006382766179740429,0.007164389826357365,0.024177666753530502
1772534319647750400,1.52175048828125,-0.004124938510358334,0.0035259786527603865,0.02596864104270935
1772534319657767400,1.531767333984375,-0.005248534493148327,0.0048908814787864685,0.02327677235007286
1772534319667783400,1.541783447265625,-0.0023632661905139685,0.013451346196234226,0.018173623830080032
1772534319677799400,1.55179931640625,0.0007694376399740577,0.01264244131743908,0.010456499643623829
1772534319687815400,1.5618154296875,0.007050769403576851,0.012548964470624924,0.009042627178132534
1772534319697832400,1.57183251953125,0.009268254041671753,0.01211993396282196,0.014091270044445992
1772534319707848400,1.581848388671875,0.005595488473773003,0.007869529537856579,0.02497694082558155
1772534319717864400,1.591864501953125,0.0025913245044648647,0.004257675260305405,0.03727130591869354
1772534319727881500,1.601881591796875,0.0000354888616129756,0.0018472482915967703,0.04362134635448456
1772534319737897500,1.6118974609375,0.0017440678784623742,-0.00174705870449543,0.05048280209302902
1772534319747913500,1.62191357421875,0.0059936740435659885,-0.0027292324230074883,0.05910159647464752
1772534319757929500,1.631929443359375,0.006074659060686827,-0.006865497212857008,0.07151885330677032
1772534319767946500,1.641946533203125,0.007045381236821413,-0.009503358975052834,0.07567711174488068
1772534319777962500,1.65196240234375,0.0046969810500741005,0.00010676775127649307,0.07218277454376221
1772534319787978500,1.661978515625,-0.00056222960120067,0.007527932524681091,0.0625288113951683
1772534319797994500,1.671994384765625,-0.005386842414736748,0.011637025512754917,0.05471039190888405
1772534319808011500,1.682011474609375,-0.003518634242936969,0.009884664788842201,0.04941123351454735
1772534319818027500,1.692027587890625,-0.0036733716260641813,0.004494998138397932,0.04334665462374687
1772534319828043500,1.70204345703125,-0.0015111512038856745,-0.0007042913930490613,0.03522960841655731
1772534319838059500,1.7120595703125,0.005849442910403013,0.01750366762280464,0.01620785892009735
1772534319848076300,1.722076171875,0.006680349353700876,0.011616216972470284,-0.005285447929054499
1772534319858092500,1.732092529296875,0.0028725359588861465,0.026715915650129318,-0.018365828320384026
1772534319868108500,1.742108642578125,0.003251770045608282,0.021409034729003906,-0.02044069766998291
1772534319878124500,1.75212451171875,0.0030377942603081465,0.012605655007064342,-0.017706576734781265
1772534319888141300,1.762141357421875,0.0064221397042274475,0.009809868410229683,-0.007162589114159346
1772534319898157300,1.7721572265625,0.012630445882678032,0.0003934074193239212,0.006034525111317635
1772534319908173600,1.782173583984375,0.014981750398874283,-0.0061102984473109245,0.015895677730441093
1772534319918189600,1.792189453125,0.01603422500193119,-0.0064154574647545815,0.020342331379652023
1772534319928206300,1.802206298828125,0.014224606566131115,-0.0007959215436130762,0.0202573761343956
1772534319938222300,1.812222412109375,0.00656560342758894,0.00854012556374073,0.013039438985288143
1772534319948238300,1.82223828125,-0.0004030901473015547,0.015973808243870735,0.005712017882615328
1772534319958254300,1.83225439453125,-0.003571372712031007,0.017871256917715073,0.0009166423697024584
1772534319968271600,1.842271728515625,-0.006473418790847063,0.012368899770081043,-0.0013321307487785816
1772534319978287400,1.852287353515625,-0.004687868058681488,0.010980184189975262,0.004317083396017551
1772534319988303400,1.862303466796875,-0.004497984889894724,0.007457088679075241,0.008740327320992947
1772534319998319400,1.8723193359375,0.00026699621230363846,0.004177189897745848,0.014509791508316994
1772534320008336600,1.882336669921875,0.007923850789666176,-0.0022713884245604277,0.01027962751686573
1772534320018352400,1.892352294921875,0.014940748922526836,0.003312999615445733,0.006556714419275522
1772534320028368400,1.902368408203125,0.0187288299202919,0.0014021818060427904,0.01432302501052618
1772534320038384400,1.91238427734375,0.023730821907520294,-0.00613980321213603,0.03493053466081619
1772534320048401400,1.9224013671875,0.027285875752568245,-0.01457190327346325,0.05412739887833595
1772534320058417700,1.932417724609375,0.023377519100904465,-0.01952470652759075,0.07741742581129074
1772534320068433400,1.942433349609375,0.017181942239403725,-0.01692386344075203,0.0902477353811264
1772534320078449400,1.952449462890625,0.013702794909477234,-0.009542685002088547,0.08438374847173691
1772534320088466400,1.962466552734375,0.007759151514619589,-0.0018195181619375944,0.07065489143133163
1772534320098482400,1.972482421875,0.00728297233581543,0.009271255694329739,0.05105958506464958
1772534320108498400,1.98249853515625,0.01360078901052475,0.010697644203901291,0.03893048316240311
1772534320118515500,1.992515380859375,0.020289326086640358,0.001741926884278655,0.027510344982147217
1772534320128531500,2.002531494140625,0.024616429582238197,-0.001532962080091238,0.014943155460059643
1772534320138547500,2.01254736328125,0.02644822560250759,0.021253563463687897,0.0039993105456233025
1772534320148563500,2.0225634765625,0.029963333159685135,0.00791831687092781,-0.009628351777791977
1772534320158580500,2.03258056640625,0.03314220532774925,0.005467444658279419,-0.010920634493231773
1772534320168596500,2.042596435546875,0.02926917001605034,-0.0017031165771186352,-0.008058535866439342
1772534320178612500,2.052612548828125,0.02104148268699646,-0.011624797247350216,-0.005760613828897476
1772534320188628500,2.06262841796875,0.008768036961555481,0.002434829017147422,0.011110511608421803
1772534320198645200,2.072645263671875,0.0008841331582516432,-0.0021089822985231876,0.042211562395095825
1772534320208661500,2.08266162109375,0.00166603724937886,-0.0168562363833189,0.08350547403097153
1772534320218677500,2.092677490234375,0.013339637778699398,-0.03092080168426037,0.12006626278162003
1772534320228693500,2.102693603515625,0.027668511494994164,-0.04356682300567627,0.15543463826179504
1772534320238710500,2.11271044921875,0.039524663239717484,-0.09477631747722626,0.19981329143047333
1772534320248726300,2.122726318359375,0.052290525287389755,-0.08118247985839844,0.20939934253692627
1772534320258742300,2.1327421875,0.03533918783068657,-0.09555428475141525,0.21426759660243988
1772534320268758500,2.142758544921875,0.02626446820795536,-0.10903653502464294,0.21616722643375397
1772534320278775600,2.152775634765625,0.00440937839448452,-0.08929482102394104,0.1963619589805603
1772534320288791300,2.162791259765625,-0.02237110398709774,-0.012416018173098564,0.17522205412387848
1772534320298807300,2.172807373046875,-0.05033836513757706,-0.00623321020975709,0.21164141595363617
1772534320308823300,2.1828232421875,-0.027396827936172485,-0.02703169919550419,0.24885456264019012
1772534320318840600,2.192840576171875,0.01443204190582037,-0.1027754470705986,0.28548184037208557
1772534320328856600,2.202856689453125,0.048747673630714417,-0.10882880538702011,0.2964908182621002
1772534320338872300,2.212872314453125,0.06071167811751366,-0.08321782201528549,0.29799339175224304
1772534320348888300,2.222888427734375,0.06584013253450394,-0.04669683426618576,0.30987533926963806
1772534320358905600,2.232905517578125,0.06864911317825317,-0.03474833071231842,0.3108752369880676
1772534320368921600,2.242921630859375,0.0726286768913269,-0.05401043966412544,0.30450868606567383
1772534320378937600,2.2529375,0.05751544237136841,-0.04007923603057861,0.2673741579055786
1772534320388952800,2.262952880859375,0.02616923861205578,-0.014773081056773663,0.22349005937576294
1772534320398969600,2.272969482421875,-0.013476015999913216,-0.00022566900588572025,0.17676950991153717
1772534320408985600,2.282985595703125,-0.04793758690357208,0.06475412845611572,0.12287858873605728
1772534320419001900,2.293001953125,-0.09436840564012527,0.05903208255767822,0.06829091161489487
1772534320429017900,2.303017822265625,-0.11604227125644684,0.09059053659439087,0.053078144788742065
1772534320439034600,2.31303466796875,-0.1065603643655777,0.08410924673080444,0.038870684802532196
1772534320449050600,2.323050537109375,-0.06585340946912766,0.039278123527765274,0.017241820693016052
1772534320459066600,2.333066650390625,-0.0244159959256649,0.014691691845655441,0.004328210838139057
1772534320469082600,2.34308251953125,0.014390255324542522,-0.004035124555230141,-0.0006862552836537361
1772534320479099600,2.353099609375,0.033331066370010376,-0.024730052798986435,-0.003087243065237999
1772534320489115600,2.36311572265625,0.0358557403087616,0.004747679457068443,-0.00033912714570760727
1772534320499131600,2.373131591796875,0.029692184180021286,-0.011382005177438259,-0.006393882911652327
1772534320509147600,2.383147705078125,0.027746211737394333,-0.03086116351187229,-0.01021525263786316
1772534320519165000,2.3931650390625,0.02187023125588894,-0.023164166137576103,-0.02888377569615841
1772534320529180700,2.4031806640625,0.008823140524327755,-0.014951774850487709,-0.0565715953707695
1772534320539196700,2.41319677734375,-0.003808665554970503,0.0005354499444365501,-0.0789710283279419
1772534320549212700,2.423212646484375,-0.006538406014442444,0.016257954761385918,-0.09547650068998337
1772534320559229700,2.433229736328125,-0.007837719283998013,0.009000660851597786,-0.11158252507448196
1772534320569245700,2.44324560546875,-0.006941831670701504,0.0307467021048069,-0.10210886597633362
1772534320579261700,2.45326171875,-0.0016930077690631151,0.026390835642814636,-0.08723271638154984
1772534320589277700,2.463277587890625,0.0075697326101362705,0.010972730815410614,-0.06584886461496353
1772534320599294700,2.473294677734375,0.016874557361006737,0.0134739326313138,-0.02425745129585266
1772534320609310700,2.483310791015625,0.02514020912349224,-0.0025646882131695747,-0.00045891106128692627
1772534320619326500,2.493326416015625,0.0252796933054924,-0.02489127777516842,0.01355067826807499
1772534320629343700,2.50334375,0.015242504887282848,-0.0226622112095356,0.020369701087474823
1772534320639359700,2.51335986328125,-0.004884799942374229,-0.00641988031566143,0.013546919450163841
1772534320649375700,2.523375732421875,-0.01825253665447235,0.005667142570018768,-0.005765525624155998
1772534320659391700,2.533391845703125,-0.02246055379509926,0.01612413302063942,-0.018283212557435036
1772534320669408800,2.54340869140625,-0.01758537068963051,0.012415413744747639,-0.02955557405948639
1772534320679424800,2.5534248046875,-0.012189751490950584,0.013313221745193005,-0.03579172119498253
1772534320689440800,2.563440673828125,0.0003683840041048825,0.012433845549821854,-0.02700195647776127
1772534320699456800,2.573456787109375,0.01703297160565853,-0.00540290679782629,-0.020958030596375465
1772534320709473500,2.5834736328125,0.029232380911707878,-0.011991034261882305,-0.01604076847434044
1772534320719489800,2.59348974609375,0.030361779034137726,-0.017916880548000336,-0.021984148770570755
1772534320729505800,2.603505859375,0.025488460436463356,-0.013882990926504135,-0.039492834359407425
1772534320739521800,2.613521728515625,0.01558875385671854,-0.0020196563564240932,-0.05897337943315506
1772534320749538600,2.62353857421875,0.002103038365021348,0.015433636493980885,-0.07117439061403275
1772534320759554600,2.633554443359375,-0.00802754145115614,0.01653928868472576,-0.0763028934597969
1772534320769570600,2.643570556640625,-0.010034766048192978,0.005503947846591473,-0.07849734276533127
1772534320779586800,2.6535869140625,-0.008320952765643597,-0.0035332445986568928,-0.07356014102697372
1772534320789603600,2.663603515625,-0.005319303832948208,-0.009046521037817001,-0.06292427331209183
1772534320799619600,2.67361962890625,-0.003960423171520233,-0.001446387730538845,-0.05283959209918976
1772534320809635600,2.683635498046875,0.002484692959114909,0.003940121736377478,-0.04285965859889984
1772534320819651600,2.693651611328125,0.012122511863708496,0.007047868333756924,-0.03032185137271881
1772534320829668900,2.7036689453125,0.022991936653852463,-0.005528110079467297,-0.016940534114837646
1772534320839684600,2.7136845703125,0.024188557639718056,-0.01401478797197342,-0.008225398138165474
1772534320849700600,2.72370068359375,0.016795091331005096,-0.011485584080219269,-0.0035286471247673035
1772534320859716600,2.733716552734375,0.003916476853191853,-0.00724384468048811,-0.006325648166239262
1772534320869734000,2.74373388671875,-0.007050421088933945,-0.0031942420173436403,-0.016257107257843018
1772534320879750000,2.75375,-0.008189993910491467,0.004005652852356434,-0.023011179640889168
1772534320889765600,2.763765625,-0.0038333283737301826,0.009225448593497276,-0.028168123215436935
1772534320899781600,2.77378173828125,0.0031247930601239204,0.011701870709657669,-0.02979886904358864
1772534320909798700,2.783798583984375,0.007226327434182167,0.004251410253345966,-0.034160859882831573
1772534320919814700,2.793814697265625,0.008913463912904263,0.005833218805491924,-0.030233759433031082
1772534320929831000,2.803830810546875,0.005960018839687109,-0.002636432182043791,-0.02059657871723175
1772534320939846700,2.8138466796875,0.005418283864855766,-0.012038502842187881,-0.015925398096442223
1772534320949863700,2.82386376953125,0.0011764010414481163,-0.0091476421803236,-0.02125944197177887
1772534320959879700,2.833879638671875,-0.006282036192715168,-0.002267710631713271,-0.03735579550266266
1772534320969895700,2.843895751953125,-0.0061773741617798805,0.006136160343885422,-0.05109983682632446
1772534320979911700,2.85391162109375,-0.0029723094776272774,0.007393124513328075,-0.056812584400177
1772534320989928700,2.8639287109375,-0.0030093274544924498,0.0013964844401925802,-0.058023519814014435
1772534320999944700,2.87394482421875,-0.005191525910049677,0.008194510824978352,-0.05108042433857918
1772534321009960700,2.883960693359375,-0.007306874264031649,0.0033198604360222816,-0.04381425678730011
1772534321019976700,2.893976806640625,-0.011794469319283962,-0.0038471438456326723,-0.03766661882400513
1772534321029993700,2.90399365234375,-0.016780439764261246,0.000040272483602166176,-0.024339094758033752
1772534321040009700,2.914009765625,-0.01786941848695278,0.003629759419709444,-0.010924807749688625
1772534321050025700,2.924025634765625,-0.0150334183126688,0.001986855175346136,-0.005194750614464283
1772534321060041700,2.934041748046875,-0.013284786604344845,-0.0026084291748702526,0.0005789825227111578
1772534321070058500,2.94405859375,-0.013575604185461998,0.00008242879994213581,-0.002248229458928108
1772534321080074800,2.95407470703125,-0.01568244956433773,0.009753501042723656,-0.007805151399224997
1772534321090090800,2.9640908203125,-0.02120744250714779,0.027817988768219948,-0.016904640942811966
1772534321100106800,2.974106689453125,-0.01983644813299179,0.027759399265050888,-0.02053745836019516
1772534321110123500,2.98412353515625,-0.013528485782444477,0.013480063527822495,-0.02762918919324875
1772534321120139500,2.994139404296875,-0.015767937526106834,0.007343872915953398,-0.03481439873576164
1772534321130155800,3.00415576171875,-0.01399480551481247,0.009711157530546188,-0.040007296949625015
1772534321140171800,3.014171875,-0.007425926625728607,0.0027874840889126062,-0.03605557978153229
1772534321150188800,3.024188720703125,-0.0012524526100605726,-0.02147204801440239,-0.030738845467567444
1772534321160204500,3.03420458984375,0.003220215206965804,-0.03308935463428497,-0.024626830592751503
1772534321170220500,3.044220458984375,0.005968065001070499,-0.030401960015296936,-0.028736088424921036
1772534321180236800,3.05423681640625,0.005413247272372246,-0.01825443096458912,-0.03229318559169769
1772534321190253800,3.06425390625,0.0019000053871423006,-0.019412105903029442,-0.03640883415937424
1772534321200269800,3.074269775390625,-0.004812572617083788,-0.018283139914274216,-0.0381280817091465
1772534321210285600,3.08428564453125,-0.012626021169126034,-0.009184184484183788,-0.039905741810798645
1772534321220301600,3.094301513671875,-0.01787169650197029,-0.004012105520814657,-0.04530663415789604
1772534321230318800,3.10431884765625,-0.019739903509616852,-0.002553758677095175,-0.05376962572336197
1772534321240334800,3.1143349609375,-0.015831319615244865,-0.0021617477759718895,-0.062028445303440094
1772534321250350600,3.1243505859375,-0.0088873952627182,-0.0077554513700306416,-0.05855941027402878
1772534321260366600,3.13436669921875,-0.0018266794504597783,-0.010572311468422413,-0.0429808609187603
1772534321270383600,3.144383544921875,0.0007155740750022233,-0.012267946265637875,-0.02763759344816208
1772534321280400000,3.15439990234375,-0.0028692451305687428,-0.01252545602619648,-0.016695788130164146
1772534321290415900,3.164415771484375,-0.0059033846482634544,-0.002769232029095292,-0.011348427273333073
1772534321300431600,3.174431640625,-0.006725725717842579,-0.001854349160566926,-0.013470465317368507
1772534321310448600,3.18444873046875,-0.00937583763152361,-0.0002143746241927147,-0.021323060616850853
1772534321320464600,3.194464599609375,-0.013436135835945606,0.010077591054141521,-0.024466359987854958
1772534321330481000,3.20448095703125,-0.016702502965927124,0.01000488642603159,-0.025939088314771652
1772534321340497000,3.214496826171875,-0.014279311522841454,0.0031901930924504995,-0.029009684920310974
1772534321350513700,3.224513671875,-0.012761576101183891,0.005103142000734806,-0.03202704340219498
1772534321360529700,3.23452978515625,-0.012865804135799408,0.004459045361727476,-0.040932007133960724
1772534321370545700,3.244545654296875,-0.008419124409556389,0.0024502230808138847,-0.05920528620481491
1772534321380561700,3.254561767578125,-0.006006096489727497,0.017224624752998352,-0.07378177344799042
1772534321390578200,3.264578125,-0.003447331255301833,0.0071283141151070595,-0.09671797603368759
1772534321400594200,3.27459423828125,-0.003154854057356715,0.027404841035604477,-0.1290312260389328
1772534321410610400,3.2846103515625,-0.0066939289681613445,0.04577985405921936,-0.14414386451244354
1772534321420627500,3.29462744140625,-0.01201821118593216,0.04601940140128136,-0.1475558876991272
1772534321430643200,3.304643310546875,-0.012472545728087425,0.03089264966547489,-0.1431017518043518
1772534321440659200,3.3146591796875,-0.017528818920254707,0.027514122426509857,-0.12204544246196747
1772534321450675200,3.32467529296875,-0.01748034916818142,0.023455198854207993,-0.09692198038101196
1772534321460691200,3.334691162109375,-0.009155451320111752,0.008684010244905949,-0.07237040996551514
1772534321470708500,3.34470849609375,0.002299070591107011,-0.00017978833056986332,-0.05210908502340317
1772534321480724200,3.35472412109375,0.009165826253592968,0.00027216761372983456,-0.03764098882675171
1772534321490740200,3.364740234375,0.009688871912658215,0.008117307908833027,-0.027435753494501114
1772534321500756200,3.374756103515625,0.012410352006554604,-0.002585896523669362,-0.016919495537877083
1772534321510773500,3.3847734375,0.010718179866671562,-0.005898069590330124,-0.010499679483473301
1772534321520789500,3.39478955078125,0.006017966195940971,-0.004511095583438873,-0.006721719168126583
1772534321530805200,3.40480517578125,-0.0012159784091636539,0.005450724624097347,-0.011443237774074078
1772534321540821200,3.4148212890625,-0.00335312238894403,0.006231650244444609,-0.03183082863688469
1772534321550838300,3.42483837890625,0.002283191541209817,0.019034264609217644,-0.05301973596215248
1772534321560854500,3.4348544921875,0.015714900568127632,-0.00241029798053205,-0.07634633779525757
1772534321570870300,3.444870361328125,0.02918064221739769,-0.0021493081003427505,-0.10038749128580093
1772534321580887300,3.45488720703125,0.01586237922310829,0.020786665380001068,-0.12482152879238129
1772534321590903300,3.4649033203125,-0.006172880996018648,0.0371166355907917,-0.1459936499595642
1772534321600919300,3.474919189453125,-0.02177532948553562,0.034968167543411255,-0.14464198052883148
1772534321610935300,3.484935302734375,-0.018553970381617546,0.026526743546128273,-0.1337011754512787
1772534321620952300,3.494952392578125,-0.004791861865669489,0.010624656453728676,-0.12482323497533798
1772534321630968300,3.50496826171875,0.00803072564303875,-0.010704334825277328,-0.13010188937187195
1772534321640984300,3.514984375,0.010244184173643589,-0.004464443773031235,-0.12091539800167084
1772534321651000300,3.525000244140625,0.005751963704824448,0.024373063817620277,-0.10383095592260361
1772534321661017300,3.535017333984375,-0.006529084872454405,0.026668516919016838,-0.0724734514951706
1772534321671033300,3.545033447265625,-0.014550792053341866,0.0047501688823103905,-0.021276840940117836
1772534321681049300,3.55504931640625,-0.018297389149665833,-0.005410341080278158,0.012030841782689095
1772534321691065300,3.5650654296875,-0.02454409934580326,-0.010410958901047707,0.03199975565075874
1772534321701082000,3.57508203125,-0.027685726061463356,-0.006259252317249775,0.0441463440656662
1772534321711098400,3.585098388671875,-0.028041524812579155,0.0008601760491728783,0.05336807668209076
1772534321721114400,3.5951142578125,-0.02439102530479431,0.000006204936653375626,0.06013614311814308
1772534321731130400,3.60513037109375,-0.015642806887626648,-0.0032535044010728598,0.05287662893533707
1772534321741147400,3.6151474609375,-0.007879710756242275,0.0013429154641926289,0.034415893256664276
1772534321751163100,3.6251630859375,-0.005251703318208456,0.01101631484925747,0.01638656109571457
1772534321761179100,3.63517919921875,-0.00922020897269249,0.007710006088018417,0.004536913242191076
1772534321771195400,3.6451953125,-0.011508929543197155,0.011633108370006084,-0.004238735418766737
1772534321781211400,3.65521142578125,-0.011804616078734398,0.004667090252041817,-0.014353036880493164
1772534321791228400,3.665228515625,-0.015292024239897728,-0.004529603756964207,-0.017010338604450226
1772534321801244200,3.675244140625,-0.0190782081335783,-0.004848217125982046,-0.016744110733270645
1772534321811260200,3.68526025390625,-0.01865343563258648,-0.006225604098290205,-0.01720750331878662
1772534321821277400,3.69527734375,-0.011753736063838005,-0.006736861541867256,-0.003984344191849232
1772534321831293400,3.70529345703125,0.002753034932538867,-0.017364205792546272,0.014752858318388462
1772534321841309200,3.71530908203125,0.021226707845926285,-0.02387693151831627,0.03319992497563362
1772534321851325200,3.7253251953125,0.029713137075304985,-0.0291217602789402,0.04295055568218231
1772534321861342500,3.735342529296875,0.02341066673398018,-0.02236866019666195,0.042718179523944855
1772534321871358500,3.7453583984375,0.006553922779858112,-0.009750338271260262,0.032553695142269135
1772534321881374500,3.75537451171875,-0.016747601330280304,-0.005385970696806908,0.015268148854374886
1772534321891390200,3.76539013671875,-0.03616524115204811,0.0022146909032016993,0.008328750729560852
1772534321901407200,3.7754072265625,-0.048856135457754135,0.005572940688580275,0.007219101767987013
1772534321911423200,3.78542333984375,-0.043743666261434555,0.005206756293773651,0.013122797012329102
1772534321921439500,3.795439453125,-0.027640314772725105,-0.007877648808062077,0.019666122272610664
1772534321931455500,3.80545556640625,0.0007854683790355921,-0.015122512355446815,0.03010598011314869
1772534321941472300,3.81547216796875,0.028168175369501114,-0.01737271063029766,0.025048580020666122
1772534321951488300,3.82548828125,0.04638339951634407,-0.0194795373827219,0.017233267426490784
1772534321961504300,3.835504150390625,0.04916856810450554,-0.010928798466920853,0.0076636699959635735
1772534321971520500,3.8455205078125,0.029666775837540627,-0.00910906121134758,-0.015077861957252026
1772534321981537300,3.855537353515625,0.010340666398406029,-0.00801418349146843,-0.02976670116186142
1772534321991553300,3.86555322265625,0.0012126817600801587,-0.008206995204091072,-0.03844381496310234
1772534322001569300,3.8755693359375,-0.0034328780602663755,-0.010833346284925938,-0.04378913715481758
1772534322011585300,3.885585205078125,-0.003303182078525424,0.00028002471663057804,-0.053073182702064514
1772534322021602300,3.895602294921875,-0.0007702691946178675,0.0030143617186695337,-0.05856272950768471
1772534322031618300,3.905618408203125,0.009679442271590233,-0.006016151048243046,-0.05646229162812233
1772534322041634300,3.91563427734375,0.0179248359054327,-0.010071011260151863,-0.041965074837207794
1772534322051650300,3.925650390625,0.0169618371874094,-0.006983875297009945,-0.022005217149853706
1772534322061666300,3.935666259765625,0.008923987857997417,-0.005082007963210344,-0.006749120075255632
1772534322071683300,3.945683349609375,-0.006483996286988258,-0.0039549581706523895,0.009616004303097725
1772534322081699300,3.95569921875,-0.018080631271004677,-0.01331582386046648,0.031400009989738464
1772534322091715300,3.96571533203125,-0.027649901807308197,-0.02001553773880005,0.05033108964562416
1772534322101731300,3.9757314453125,-0.03465001657605171,-0.020577771589159966,0.060846611857414246
1772534322111748000,3.985748046875,-0.03503936901688576,-0.018481599166989326,0.06443362683057785
1772534322121764400,3.995764404296875,-0.0375329926609993,-0.013054179958999157,0.06737890094518661
1772534322131780400,4.0057802734375,-0.035826973617076874,-0.0033498879056423903,0.05708418786525726
1772534322141796400,4.01579638671875,-0.03134867921471596,-0.0033820602111518383,0.03957958519458771
1772534322151813400,4.0258134765625,-0.024701964110136032,-0.006105408538132906,0.029641199856996536
1772534322161829000,4.0358291015625,-0.01600954867899418,-0.0009918382856994867,0.01805926114320755
1772534322171845400,4.045845458984375,-0.013705913908779621,-0.013833867385983467,0.005617239978164434
1772534322181861400,4.055861328125,-0.009313952177762985,-0.0036201467737555504,0.0015696194022893906
1772534322191878400,4.06587841796875,-0.010176816955208778,-0.00070318637881428,0.0018420605920255184
1772534322201894400,4.075894287109375,-0.0063471719622612,-0.0062849754467606544,-0.0066657038405537605
1772534322211910100,4.08591015625,0.0016849220264703035,-0.016057711094617844,-0.013041045516729355
1772534322221926100,4.095926025390625,0.011224566027522087,-0.019322188571095467,-0.015742797404527664
1772534322231943400,4.105943359375,0.01762387715280056,-0.012687455862760544,-0.01354648731648922
1772534322241959400,4.11595947265625,0.01673598773777485,-0.00636865571141243,-0.012720576487481594
1772534322251975400,4.125975341796875,0.014359381049871445,-0.003573934780433774,-0.011476081795990467
1772534322261991200,4.1359912109375,0.011344844475388527,-0.005573540925979614,-0.011353488080203533
1772534322272008400,4.146008544921875,0.010109936818480492,-0.007163714151829481,-0.002228698693215847
1772534322282024400,4.1560244140625,0.01214180514216423,-0.015620882622897625,0.009479207918047905
1772534322292040400,4.16604052734375,0.011317556723952293,-0.017993226647377014,0.02474151737987995
1772534322302056200,4.17605615234375,0.011440734378993511,-0.01461606565862894,0.03997302055358887
1772534322312073200,4.1860732421875,0.00645343167707324,-0.01132972538471222,0.047109492123126984
1772534322322089500,4.19608935546875,0.005109584890305996,-0.0038981460966169834,0.035717882215976715
1772534322332105500,4.20610546875,0.001032551983371377,0.0013006108347326517,0.026405874639749527
1772534322342121500,4.21612158203125,0.004117805045098066,0.0026610230561345816,0.022430071607232094
1772534322352138200,4.22613818359375,0.013675090856850147,-0.016837842762470245,0.013971073552966118
1772534322362154200,4.236154296875,0.018952056765556335,-0.006508639082312584,0.01632400043308735
1772534322372170200,4.246170166015625,0.019359786063432693,-0.009121466428041458,0.01596686989068985
1772534322382186500,4.2561865234375,0.019162900745868683,-0.01274735014885664,0.010972768068313599
1772534322392203500,4.26620361328125,0.01776687242090702,-0.016483232378959656,0.008183905854821205
1772534322402219500,4.276219482421875,0.014583410695195198,-0.01742924004793167,0.006282052956521511
1772534322412235500,4.286235595703125,0.008229107595980167,-0.009733236394822598,0.004413312766700983
1772534322422251800,4.296251708984375,0.004071276634931564,-0.006468837149441242,-0.0017052125185728073
1772534322432268500,4.3062685546875,0.0022446142975240946,-0.004089835099875927,-0.013107536360621452
1772534322442284500,4.316284423828125,0.0030211962293833494,0.0007424294017255306,-0.01763780787587166
1772534322452300500,4.326300537109375,0.008239127695560455,0.0011592141818255186,-0.023396361619234085
1772534322462316500,4.336316650390625,0.012502516619861126,-0.005145263392478228,-0.020801350474357605
1772534322472333600,4.34633349609375,0.014416530728340149,-0.004486131016165018,-0.001028444617986679
1772534322482349600,4.356349609375,0.011146802455186844,-0.007720394525676966,0.017365621402859688
1772534322492365600,4.366365478515625,0.005092638079077005,-0.00015621795319020748,0.030510451644659042
1772534322502381600,4.376381591796875,-0.0030171743128448725,0.0006973701529204845,0.026198798790574074
1772534322512398600,4.386398681640625,-0.006520829163491726,0.0034926238004118204,0.018732894212007523
1772534322522414600,4.39641455078125,-0.0034125109668821096,0.008644474670290947,0.008584770374000072
1772534322532430600,4.4064306640625,0.0006072642281651497,0.013808876276016235,-0.007191263604909182
1772534322542446600,4.416446533203125,0.004072774201631546,0.015864286571741104,-0.01712932251393795
1772534322552463600,4.426463623046875,0.010951186530292034,0.012655709870159626,-0.02158718928694725
1772534322562479600,4.436479736328125,0.015262516215443611,0.005735734477639198,-0.0160211231559515
1772534322572495600,4.44649560546875,0.016181040555238724,0.0022214273922145367,-0.011311321519315243
1772534322582511600,4.45651171875,0.013966783881187439,0.004956390708684921,-0.012707529589533806
1772534322592528600,4.466528564453125,0.010086292400956154,0.0016655221115797758,-0.02325577847659588
1772534322602544600,4.476544677734375,0.007851897738873959,0.0024368157610297203,-0.031027717515826225
1772534322612560400,4.486560302734375,0.009405054152011871,0.004437915049493313,-0.02983888052403927
1772534322622576600,4.49657666015625,0.00904413964599371,0.003999458160251379,-0.01151567418128252
1772534322632593700,4.50659375,-0.001230868510901928,0.007069816812872887,0.00005149981006979942
1772534322642609700,4.516609619140625,-0.009633922018110752,0.008457787334918976,0.020353280007839203
1772534322652625700,4.526625732421875,-0.011292272247374058,-0.0036284371744841337,0.032764941453933716
1772534322662641400,4.536641357421875,-0.008371520787477493,-0.010843455791473389,0.047898560762405396
1772534322672658700,4.54665869140625,-0.004705414175987244,-0.007142194546759129,0.05580655485391617
1772534322682674700,4.5566748046875,0.0024747310671955347,-0.00783430878072977,0.04591074585914612
1772534322692690700,4.566690673828125,0.009201076813042164,-0.01008947379887104,0.03666798025369644
1772534322702706700,4.576706787109375,0.014748156070709229,-0.00312364031560719,0.030625563114881516
1772534322712723700,4.5867236328125,0.020916834473609924,-0.0028179094661027193,0.013195440173149109
1772534322722739700,4.59673974609375,0.024401890113949776,0.0012030175421386957,-0.0019015162251889706
1772534322732755700,4.606755615234375,0.026038402691483498,0.0016216663643717766,-0.00703049823641777
1772534322742771700,4.616771728515625,0.031774137169122696,0.0012370133772492409,-0.012924663722515106
1772534322752788500,4.62678857421875,0.03353555500507355,0.0027062795124948025,-0.013028793036937714
1772534322762804500,4.636804443359375,0.03520025312900543,0.002836420899257064,-0.012670302763581276
1772534322772820700,4.64682080078125,0.036366451531648636,-0.001955671003088355,-0.012240469455718994
1772534322782836700,4.656836669921875,0.034243930131196976,-0.0014388210838660598,-0.0068931374698877335
1772534322792853500,4.666853515625,0.03395897522568703,-0.0016840982716530561,0.0037736212834715843
1772534322802869500,4.676869384765625,0.02425542287528515,-0.003939586691558361,0.01058953907340765
1772534322812885500,4.686885498046875,0.013318617828190327,0.0005997712723910809,0.007630234584212303
1772534322822901800,4.69690185546875,0.00009999389294534922,0.010459968820214272,-0.0002636415883898735
1772534322832918500,4.70691845703125,-0.012495426461100578,0.019026823341846466,-0.008132750168442726
1772534322842934500,4.7169345703125,-0.018879026174545288,0.027857376262545586,-0.011591963469982147
1772534322852950500,4.726950439453125,-0.011781170032918453,0.019802644848823547,-0.0014581023715436459
1772534322862966500,4.736966552734375,-0.0025680477265268564,0.008224911987781525,0.014483634382486343
1772534322872983800,4.74698388671875,0.007364477962255478,0.01000603474676609,0.025577297434210777
1772534322882999600,4.75699951171875,0.011982405558228493,0.003919563256204128,0.03369148448109627
1772534322893015600,4.767015625,0.015507365576922894,0.007872493006289005,0.024001041427254677
1772534322903031600,4.777031494140625,0.014511771500110626,0.008577593602240086,0.0035933253820985556
1772534322913048600,4.787048583984375,0.011335419490933418,0.018130354583263397,-0.013636793941259384
1772534322923064800,4.79706494140625,0.010125463828444481,0.026245322078466415,-0.026305628940463066
1772534322933080600,4.80708056640625,0.012829105369746685,0.030829686671495438,-0.03644081950187683
1772534322943096600,4.8170966796875,0.016248805448412895,0.028583336621522903,-0.045791152864694595
1772534322953112600,4.827112548828125,0.01820250041782856,0.02796095609664917,-0.04744577407836914
1772534322963129600,4.837129638671875,0.01853463612496853,0.0341007336974144,-0.03933944180607796
1772534322973145600,4.8471455078125,0.017190538346767426,0.029919303953647614,-0.03621102496981621
1772534322983161600,4.85716162109375,0.01221645437180996,0.02902722731232643,-0.02369135245680809
1772534322993177600,4.867177490234375,0.00648826127871871,0.022986644878983498,0.0024571616668254137
1772534323003194600,4.877194580078125,0.007609078660607338,0.011611422523856163,0.013737564906477928
1772534323013210600,4.887210693359375,0.007219458464533091,0.006526915356516838,0.022019464522600174
1772534323023226600,4.8972265625,0.0024078856222331524,0.008279412984848022,0.025254469364881516
1772534323033242600,4.90724267578125,-0.002572225406765938,0.0030771945603191853,0.02858049049973488
1772534323043259600,4.917259765625,-0.00938565656542778,-0.0015465854667127132,0.03610232472419739
1772534323053275600,4.927275634765625,-0.010239466093480587,-0.0052094971761107445,0.03956390172243118
1772534323063291600,4.937291748046875,-0.00819843914359808,-0.008657156489789486,0.038445401936769485
1772534323073307400,4.947307373046875,-0.0055525884963572025,-0.003592889290302992,0.037966832518577576
1772534323083324700,4.95732470703125,-0.0022041150368750095,-0.005984725896269083,0.025719929486513138
1772534323093340700,4.967340576171875,0.0012763701379299164,-0.003889883402734995,0.011083995923399925
1772534323103356700,4.977356689453125,0.004616526421159506,0.00035033212043344975,-0.002089894376695156
1772534323113372700,4.98737255859375,-0.0001412107376381755,0.005492896772921085,-0.010869803838431835
1772534323123389700,4.9973896484375,0.003431168617680669,-0.0030865976586937904,-0.01815558783710003
1772534323133405700,5.00740576171875,0.003663396229967475,-0.015531282871961594,-0.017589133232831955
1772534323143421700,5.017421630859375,0.0076562389731407166,-0.00920289009809494,0.0016529434360563755
1772534323153437700,5.027437744140625,0.01306458655744791,-0.013974209316074848,0.018795711919665337
1772534323163454500,5.037454345703125,0.015450040809810162,-0.011847658082842827,0.02836119569838047
1772534323173470500,5.047470458984375,0.01967621222138405,-0.0063088154420256615,0.029783589765429497
1772534323183486700,5.05748681640625,0.020131878554821014,-0.0024775920901447535,0.03329230472445488
1772534323193502700,5.067502685546875,0.016423959285020828,0.003125698771327734,0.03960852324962616
1772534323203519500,5.07751953125,0.01149221695959568,0.009407417848706245,0.035843200981616974
1772534323213535500,5.087535400390625,0.008620530366897583,0.013294832780957222,0.03034244105219841
1772534323223551500,5.097551513671875,0.011323354206979275,0.011677299626171589,0.02733442932367325
1772534323233567700,5.107567626953125,0.017855821177363396,0.00514003774151206,0.038028888404369354
1772534323243584500,5.11758447265625,0.021582545712590218,-0.0013161012902855873,0.05038125067949295
1772534323253600500,5.1276005859375,0.020258154720067978,-0.003364604664966464,0.05503778159618378
1772534323263616500,5.137616455078125,0.01521199382841587,-0.00262416061013937,0.049361452460289
1772534323273632500,5.147632568359375,0.011185027658939362,0.004635882563889027,0.03788056597113609
1772534323283649800,5.15764990234375,0.0007596398354507983,0.015444144606590271,0.024139465764164925
1772534323293665500,5.16766552734375,-0.0014092386700212955,0.023897551000118256,0.01075548306107521
1772534323303681500,5.177681640625,-0.00008819386130198836,0.023894205689430237,0.002651832066476345
1772534323313697500,5.187697509765625,0.002800803165882826,0.024107525125145912,-0.002620960585772991
1772534323323714800,5.19771484375,0.010203228332102299,0.015180154703557491,0.0008098785765469074
1772534323333730800,5.207730712890625,0.016870984807610512,0.010337995365262032,0.015437823720276356
1772534323343746600,5.21774658203125,0.018873268738389015,0.003615986555814743,0.028862934559583664
1772534323353762600,5.227762451171875,0.013798614963889122,-0.005743160378187895,0.038555242121219635
1772534323363779600,5.237779541015625,0.004780866205692291,-0.001213853363879025,0.036882009357213974
1772534323373795600,5.247795654296875,-0.0018466766923666,0.005372676532715559,0.027375590056180954
1772534323383811800,5.257811767578125,-0.006466565653681755,0.01758822798728943,0.01950923167169094
1772534323393828400,5.267828369140625,-0.006413835100829601,0.017429502680897713,0.014272923581302166
1772534323403845400,5.277845458984375,-0.006420555058866739,0.014941559173166752,0.008776217699050903
1772534323413861400,5.287861328125,-0.005169668234884739,0.006273237057030201,0.012506507337093353
1772534323423877000,5.297877197265625,-0.001825942425057292,0.0052923886105418205,0.014856928959488869
1772534323433893400,5.307893310546875,-0.0013697429094463587,0.005604777485132217,0.011934375390410423
1772534323443909400,5.317909423828125,-0.004804954398423433,0.012770544737577438,0.009442722424864769
1772534323455178200,5.32917822265625,-0.009486258961260319,0.026696747168898582,0.0039454251527786255
1772534323465194200,5.3391943359375,-0.0091172493994236,0.02370804361999035,0.006766865961253643
1772534323475210500,5.34921044921875,-0.004943253472447395,0.014067823067307472,0.008616698905825615
1772534323485226500,5.3592265625,-0.0020878121722489595,0.017109151929616928,0.014930255711078644
1772534323495243300,5.3692431640625,-0.0039275046437978745,0.013830465264618397,0.01844426617026329
1772534323505259300,5.37925927734375,-0.007166174706071615,0.008215988986194134,0.020873866975307465
1772534323515275300,5.389275146484375,-0.009114542976021767,0.009891383349895477,0.021250970661640167
1772534323525291500,5.39929150390625,-0.00934630073606968,0.011417357251048088,0.02491900324821472
1772534323535308300,5.409308349609375,-0.007882650010287762,0.012724547646939754,0.024801554158329964
1772534323545324300,5.41932421875,-0.008161482401192188,0.020262356847524643,0.020849423483014107
1772534323555340300,5.42934033203125,-0.011888476088643074,0.021318448707461357,0.013484863564372063
1772534323565356300,5.439356201171875,-0.008838357403874397,0.02331049181520939,0.0014367224648594856
1772534323575373300,5.449373291015625,-0.006351004354655743,0.020434949547052383,-0.009953554719686508
1772534323585389300,5.459389404296875,-0.00574699928984046,0.013712065294384956,-0.006908230017870665
1772534323595405300,5.4694052734375,-0.004286869429051876,0.013865781016647816,-0.001180480234324932
1772534323605421300,5.47942138671875,-0.0020620645955204964,0.013380286283791065,-0.002531767822802067
1772534323615438300,5.489438232421875,-0.000883248751051724,0.01380494050681591,-0.013205040246248245
1772534323625454300,5.499454345703125,0.003296582493931055,0.009442150592803955,-0.019264796748757362
1772534323635470300,5.50947021484375,0.006860076915472746,0.0015837457031011581,-0.01806841418147087
1772534323645486300,5.519486328125,0.007069401443004608,0.00586690753698349,-0.0035722958855330944
1772534323655503400,5.52950341796875,0.0065739694982767105,0.011606380343437195,-0.0006872392259538174
1772534323665519400,5.539519287109375,-0.0035913160536438227,0.016103927046060562,-0.009355029091238976
1772534323675535400,5.549535400390625,-0.008591645397245884,0.015383163467049599,-0.014394525438547134
1772534323685551400,5.55955126953125,-0.009467825293540955,0.007849346846342087,-0.01346215233206749
1772534323695568400,5.569568359375,-0.00808929093182087,0.0029370952397584915,-0.01074155792593956
1772534323705584400,5.57958447265625,-0.010643795132637024,0.008537456393241882,-0.015268931165337563
1772534323715600100,5.58960009765625,-0.007303392980247736,0.014557798393070698,-0.021720172837376595
1772534323725616000,5.5996162109375,-0.0031465881038457155,0.016170041635632515,-0.02584182843565941
1772534323735633400,5.60963330078125,-0.0014799819327890873,0.016230762004852295,-0.024615976959466934
1772534323745649400,5.6196494140625,-0.003250717418268323,0.012307127006351948,-0.02091231942176819
1772534323755665400,5.62966552734375,-0.004688721150159836,0.006551073864102364,-0.01987297274172306
1772534323765681200,5.63968115234375,-0.009776690043509007,0.0023004021495580673,-0.01740049384534359
1772534323775697200,5.649697265625,-0.013055326417088509,0.00221178843639791,-0.007750231772661209
1772534323785714400,5.65971435546875,-0.00690076220780611,-0.012576745823025703,0.0022669818717986345
1772534323796356400,5.6703564453125,-0.0066062165424227715,-0.0016953353770077229,0.0061530666425824165
1772534323806372400,5.680372314453125,-0.008448551408946514,0.009570763446390629,-0.0013635018840432167
1772534323816388400,5.690388427734375,-0.014096317812800407,0.01983778178691864,-0.015413541346788406
1772534323826405400,5.7004052734375,-0.011812248267233372,0.010652238503098488,-0.025377638638019562
1772534323836421400,5.71042138671875,-0.007273422554135323,-0.0021021729335188866,-0.013503936119377613
1772534323846437000,5.72043701171875,-0.005840781610459089,-0.003778373124077916,0.006804713048040867
1772534323856453400,5.730453369140625,-0.0076133813709020615,-0.0034425484482198954,0.015490880236029625
1772534323866470400,5.740470458984375,-0.011351295746862888,-0.0013589707668870687,0.006114799529314041
1772534323876486400,5.750486328125,-0.011534521356225014,0.0009140372276306152,-0.013586999848484993
1772534323886502100,5.760502197265625,-0.011910066939890385,0.008254112675786018,-0.03337688744068146
1772534323896518100,5.77051806640625,-0.011594216339290142,0.013647546991705894,-0.049054913222789764
1772534323906535400,5.780535400390625,-0.013895290903747082,0.02124677412211895,-0.06041507422924042
1772534323916551400,5.790551513671875,-0.011872620321810246,0.01925339736044407,-0.06510596722364426
1772534323926567400,5.8005673828125,-0.006948128808289766,0.01675521582365036,-0.06470921635627747
1772534323936583200,5.810583251953125,-0.0031576515175402164,0.010506641119718552,-0.05031217262148857
1772534323946600400,5.820600341796875,0.00015159399481490254,0.0026840949431061745,-0.03788529336452484
1772534323956616400,5.830616455078125,0.00472131185233593,-0.00471176952123642,-0.024976152926683426
1772534323966632400,5.840632568359375,0.007052376866340637,-0.003835589624941349,-0.008195575326681137
1772534323976648400,5.8506484375,0.005682712886482477,0.004487853962928057,0.004089586902409792
1772534323986665200,5.860665283203125,0.0001850867411121726,0.000096859410405159,0.013645564205944538
1772534323996681200,5.87068115234375,-0.004106331150978804,0.003647119738161564,0.02077804133296013
1772534324006697500,5.880697509765625,-0.008581463247537613,0.006181427277624607,0.01967310532927513
1772534324016713500,5.89071337890625,-0.007404879201203585,0.013820971362292767,0.01328950747847557
1772534324026730200,5.900730224609375,-0.011382739059627056,0.019313311204314232,0.0032727394718676805
1772534324036746200,5.910746337890625,-0.011472753249108791,0.024274513125419617,-0.007527177222073078
1772534324046762200,5.92076220703125,-0.0062255519442260265,0.02727125771343708,-0.013182172551751137
1772534324056778500,5.930778564453125,-0.0027674371376633644,0.024890391156077385,-0.016164647415280342
1772534324066795300,5.940795166015625,-0.0038528384175151587,0.02805725857615471,-0.01569468528032303
1772534324076811300,5.950811279296875,-0.002034964505583048,0.010380527004599571,-0.004606080707162619
1772534324086827300,5.9608271484375,0.0013538252096623182,0.0076277125626802444,-0.0014049075543880463
1772534324096843300,5.97084326171875,0.00330379162915051,0.005379738286137581,0.002052940893918276
1772534324106860300,5.9808603515625,0.0002324307570233941,0.006704368628561497,0.00018338020890951157
1772534324116876300,5.990876220703125,-0.0075927358120679855,0.009903890080749989,-0.002936246804893017
1772534324126892300,6.000892333984375,-0.012249191291630268,0.009496640413999557,-0.012978851795196533
1772534324136908300,6.010908203125,-0.015527541749179363,0.009166141971945763,-0.021952904760837555
1772534324146924300,6.02092431640625,-0.017752058804035187,0.013875831849873066,-0.02679000049829483
1772534324156941300,6.03094140625,-0.020466618239879608,0.013911251910030842,-0.02527972310781479
1772534324166957300,6.040957275390625,-0.01866541989147663,0.015246665105223656,-0.02250506356358528
1772534324176973300,6.050973388671875,-0.014284253120422363,0.012118250131607056,-0.016668476164340973
1772534324186989300,6.0609892578125,-0.014656029641628265,0.010125672444701195,-0.011013521812856197
1772534324197006300,6.07100634765625,-0.01450556144118309,0.012767260894179344,-0.00660385936498642
1772534324207022300,6.081022216796875,-0.01730462722480297,0.02098453789949417,-0.01814887300133705
1772534324217038300,6.091038330078125,-0.02547813579440117,0.029327157884836197,-0.03728128597140312
1772534324227054300,6.101054443359375,-0.023959500715136528,0.0434122309088707,-0.0471004880964756
1772534324237071400,6.1110712890625,-0.019558094441890717,0.03697989508509636,-0.04667811095714569
1772534324247087400,6.12108740234375,-0.013731874525547028,0.027699466794729233,-0.038331225514411926
1772534324257103000,6.13110302734375,-0.008822603151202202,0.02902092970907688,-0.03418707847595215
1772534324267119400,6.141119384765625,-0.0008063450804911554,0.016499243676662445,-0.03744640201330185
1772534324277136400,6.151136474609375,0.006912560667842627,0.011884783394634724,-0.04294423386454582
1772534324287152400,6.16115234375,0.01320638693869114,0.010684341192245483,-0.035809628665447235
1772534324297168100,6.171168212890625,0.014649021439254284,0.004518591333180666,-0.021728698164224625
1772534324307184000,6.18118408203125,0.02151598408818245,-0.03317263722419739,-0.011715976521372795
1772534324317201400,6.191201416015625,0.025354132056236267,-0.0009904657490551472,-0.0017040884122252464
1772534324327217400,6.201217529296875,0.014243424870073795,0.0027424870058894157,0.009810354560613632
1772534324337233400,6.2112333984375,0.010017255321145058,0.003264999482780695,0.014112424105405807
1772534324347249200,6.221249267578125,0.007265838794410229,0.0001593835186213255,0.021940872073173523
1772534324357266400,6.231266357421875,0.001401025801897049,-0.000886173453181982,0.030881371349096298
1772534324367282400,6.241282470703125,-0.003254894632846117,0.004879742860794067,0.03062325529754162
1772534324377298400,6.25129833984375,-0.00733299320563674,0.007476058788597584,0.024362696334719658
1772534324387314400,6.261314453125,-0.010035201907157898,0.012892274186015129,0.014142694883048534
1772534324397330700,6.27133056640625,-0.005540318321436644,0.020034074783325195,0.004128410946577787
1772534324407346700,6.2813466796875,-0.001028758124448359,0.015755826607346535,0.005302719306200743
1772534324417362700,6.29136279296875,0.002886354923248291,0.013601860962808132,0.02714996039867401
1772534324427378700,6.301378662109375,0.007581179961562157,0.00766752241179347,0.051461752504110336
1772534324437395700,6.311395751953125,0.01415972039103508,0.005309559870511293,0.05935908854007721
1772534324447411700,6.32141162109375,0.016810322180390358,0.007407245226204395,0.04998958110809326
1772534324457427700,6.331427734375,0.018470004200935364,-0.0002490759361535311,0.04196973890066147
1772534324467443700,6.341443603515625,0.01810828596353531,-0.004918946418911219,0.047510772943496704
1772534324477460700,6.351460693359375,0.01816847361624241,-0.006641212850809097,0.055922895669937134
1772534324487476500,6.3614765625,0.015470259822905064,-0.003406924195587635,0.05632145330309868
1772534324497492700,6.37149267578125,0.01373494416475296,0.004353527445346117,0.05151604488492012
1772534324507508700,6.3815087890625,0.01000320166349411,0.00960946548730135,0.03464347496628761
1772534324517524700,6.391524658203125,0.009654860012233257,0.003499108599498868,0.025406034663319588
1772534324527541800,6.401541748046875,0.008831962943077087,0.0006923340260982513,0.022068794816732407
1772534324537557500,6.4115576171875,0.005195416510105133,0.0033360538072884083,0.013701941817998886
1772534324547573800,6.42157373046875,-0.00223867641761899,0.0068826619535684586,0.0037639369256794453
1772534324557589800,6.43158984375,-0.004052821546792984,0.005381970666348934,-0.003135780803859234
1772534324567606800,6.441606689453125,-0.007462548557668924,0.0043029095977544785,-0.0025708344765007496
1772534324577622500,6.45162255859375,-0.010050607845187187,0.0015832895878702402,0.0020257816649973392
1772534324587638500,6.461638427734375,-0.0097724674269557,-0.002807934768497944,-0.0015951041132211685
1772534324597654500,6.471654541015625,-0.0048637292347848415,-0.00409424165263772,-0.007258316036313772
1772534324607671800,6.481671875,0.0011488244635984302,-0.009237313643097878,-0.0018584653735160828
1772534324617687800,6.491687744140625,0.0067955246195197105,-0.011043203063309193,0.011475449427962303
1772534324627703600,6.50170361328125,0.0086861252784729,-0.016850071027874947,0.022941160947084427
1772534324637719600,6.511719482421875,0.005804585292935371,-0.013661202043294907,0.024249836802482605
1772534324647736800,6.52173681640625,0.0015983462799340487,-0.003436080878600478,0.01755707524716854
1772534324657752800,6.5317529296875,0.0008955380762927234,0.0020577542018145323,0.006708155386149883
1772534324667768800,6.541768798828125,0.008556614629924297,0.0045514097437262535,0.006700227968394756
1772534324677784600,6.55178466796875,0.014755387790501118,-0.004861266352236271,0.022834189236164093
1772534324687801600,6.561801513671875,0.03122461959719658,-0.021606579422950745,0.03387352079153061
1772534324697817900,6.57181787109375,0.03865084424614906,-0.027207206934690475,0.02275003120303154
1772534324707833900,6.581833740234375,0.03814154490828514,-0.020246075466275215,0.010040448047220707
1772534324717849900,6.591849853515625,0.028237247839570045,-0.00902111642062664,-0.003112904727458954
1772534324727866600,6.60186669921875,0.01798711158335209,-0.0013516421895474195,-0.019524455070495605
1772534324737882600,6.611882568359375,0.014873876236379147,-0.0010722765000537038,-0.033126018941402435
1772534324747899000,6.62189892578125,0.010420454666018486,0.00005007348954677582,-0.04238470643758774
1772534324757915000,6.631914794921875,0.008389527909457684,0.0017622197046875954,-0.04040997475385666
1772534324767930600,6.6419306640625,0.005884294863790274,0.0031153294257819653,-0.02396811544895172
1772534324777947600,6.65194775390625,0.009552001021802425,-0.003193965181708336,-0.0048540751449763775
1772534324787963600,6.661963623046875,0.011086471378803253,-0.014739654026925564,0.011889245361089706
1772534324797979600,6.671979736328125,0.016341155394911766,-0.016831567510962486,0.02405962534248829
1772534324807996000,6.681995849609375,0.018997779116034508,-0.015057558193802834,0.03227559104561806
1772534324818012700,6.6920126953125,0.018361549824476242,-0.012917175889015198,0.03518535941839218
1772534324828028700,6.702028564453125,0.02631635032594204,-0.021497897803783417,0.027533091604709625
1772534324838044700,6.712044677734375,0.02925701253116131,-0.02030773088335991,0.016925720497965813
1772534324848060700,6.722060791015625,0.027502115815877914,0.0020787932444363832,0.009645888581871986
1772534324858077700,6.73207763671875,0.027786539867520332,0.0031009141821414232,-0.00041047390550374985
1772534324868093700,6.74209375,0.029386648908257484,0.005164279602468014,-0.011103155091404915
1772534324878109700,6.752109619140625,0.028239360079169273,-0.0010869585676118731,-0.016325613483786583
1772534324888125700,6.762125732421875,0.029217496514320374,-0.005523870699107647,-0.023552075028419495
1772534324898142700,6.772142822265625,0.027472592890262604,-0.01114154327660799,-0.0317535474896431
1772534324908158700,6.78215869140625,0.01834600232541561,-0.007468493655323982,-0.03443727269768715
1772534324918174700,6.7921748046875,0.005363625008612871,0.002582808490842581,-0.03594328835606575
1772534324928190700,6.802190673828125,-0.005445591174066067,0.007216331548988819,-0.031333886086940765
1772534324938207700,6.812207763671875,-0.012660892680287361,0.007026980631053448,-0.02238832786679268
1772534324948223500,6.822223388671875,-0.014168837107717991,0.0009158076718449593,-0.0049253893084824085
1772534324958239700,6.83223974609375,-0.015532109886407852,-0.008116036653518677,0.00912944320589304
1772534324968255700,6.842255859375,-0.015490749850869179,-0.005027311388403177,0.01599840819835663
1772534324978272800,6.852272705078125,-0.016538437455892563,0.002360031008720398,0.015979234129190445
1772534324988288800,6.862288818359375,-0.020459922030568123,-0.000321884173899889,0.010397253558039665
1772534324998304500,6.872304443359375,-0.025944169610738754,-0.00013999012298882008,0.012862274423241615
1772534325008320800,6.88232080078125,-0.03013504296541214,0.002460818737745285,0.010218139737844467
1772534325018336800,6.892336669921875,-0.034076254814863205,0.007897395640611649,0.004649735521525145
1772534325028353800,6.902353759765625,-0.028253311291337013,0.008488558232784271,-0.004705322906374931
1772534325038369500,6.91236962890625,-0.021220168098807335,0.0013891032431274652,-0.006257679313421249
1772534325048385500,6.922385498046875,-0.0075494288466870785,-0.005018437281250954,-0.011488370597362518
1772534325058401500,6.932401611328125,0.005928829312324524,-0.010311469435691833,-0.014798680320382118
1772534325068418800,6.942418701171875,0.015734773129224777,-0.007115891203284264,-0.018399715423583984
1772534325078434800,6.952434814453125,0.02496182546019554,-0.006918550934642553,-0.02456919476389885
1772534325088450600,6.962450439453125,0.02920631505548954,-0.005877847317606211,-0.034658484160900116
1772534325098466600,6.972466552734375,0.029072090983390808,-0.006301289889961481,-0.04144235700368881
1772534325108483800,6.98248388671875,0.025766387581825256,-0.003914307802915573,-0.03908185660839081
1772534325118499800,6.992499755859375,0.021608926355838776,-0.00179336650762707,-0.03414861485362053
1772534325128515800,7.002515869140625,0.01650194637477398,-0.003691770602017641,-0.026747340336441994
1772534325138531600,7.012531494140625,0.016833510249853134,-0.002082688733935356,-0.019648419693112373
1772534325148548600,7.022548583984375,0.01810123585164547,-0.008016993291676044,-0.01164674386382103
1772534325158564900,7.03256494140625,0.017465539276599884,-0.013822417706251144,-0.005466877482831478
1772534325168580900,7.042580810546875,0.015980379655957222,-0.0075327008962631226,-0.0034793801605701447
1772534325178596600,7.0525966796875,0.012319066561758518,0.0011609222274273634,-0.007298619020730257
1772534325188613600,7.062613525390625,0.0047819288447499275,0.007691000588238239,-0.009344376623630524
1772534325198629600,7.072629638671875,0.0015504490584135056,0.00784839317202568,-0.00684233708307147
1772534325208645600,7.082645751953125,-0.0012509499210864305,0.0038537203799933195,-0.0007734936662018299
1772534325218662000,7.092661865234375,-0.00279611605219543,0.0021351829636842012,0.0013330667279660702
1772534325228677600,7.102677734375,-0.0022543449886143208,0.00023891846649348736,0.003078180830925703
1772534325238694700,7.112694580078125,-0.001183221465907991,0.0017798233311623335,0.001739409752190113
1772534325248710700,7.122710693359375,0.0013328688219189644,-0.001995981438085437,0.003223080188035965
1772534325258726700,7.1327265625,0.006369438953697681,-0.0025118356570601463,0.0065688095055520535
1772534325268743000,7.142742919921875,0.01064817514270544,-0.0033684284426271915,0.006081062369048595
1772534325278759700,7.152759765625,0.00938077736645937,-0.0044629876501858234,0.005666408687829971
1772534325288775700,7.162775634765625,0.0068841250613331795,-0.0035274021793156862,0.0033083874732255936
1772534325298791700,7.172791748046875,0.0009186442475765944,-0.0022807763889431953,-0.002455492038279772
1772534325308807700,7.1828076171875,-0.0003177796024829149,0.0006731504108756781,-0.015163656324148178
1772534325318824700,7.19282470703125,0.0015552216209471226,0.0022060656920075417,-0.02968107908964157
1772534325328840700,7.2028408203125,0.005220366641879082,0.002232045168057084,-0.03772581368684769
1772534325338856700,7.212856689453125,0.00791468657553196,0.00005571008659899235,-0.03523629158735275
1772534325348872700,7.222872802734375,0.008447174914181232,-0.003801578190177679,-0.02912232279777527
1772534325358889500,7.232889404296875,0.0033440259285271168,-0.007163019850850105,-0.019002575427293777
1772534325368905700,7.24290576171875,-0.00328443618491292,-0.00281979120336473,-0.005303084384649992
1772534325378921700,7.252921630859375,-0.005409638863056898,0.0035595446825027466,0.0027540430892258883
1772534325388937700,7.262937744140625,-0.004815018270164728,0.006713551469147205,0.007650820538401604
1772534325398954200,7.272954345703125,0.0006713597103953362,0.005216322839260101,0.011339298449456692
1772534325408971000,7.282970947265625,0.009522193111479282,0.001362101873382926,0.013455124571919441
1772534325418987000,7.292987060546875,0.01525944098830223,0.005753387697041035,0.010997826233506203
1772534325429003000,7.3030029296875,0.015646377578377724,0.008128730580210686,0.011089736595749855
1772534325439019300,7.313019287109375,0.009099530056118965,0.010220909491181374,0.008494487032294273
1772534325449036000,7.3230361328125,0.006445645820349455,0.011938116513192654,0.010520038194954395
1772534325459052000,7.333052001953125,0.008578837849199772,0.009977497160434723,0.014053253456950188
1772534325469068000,7.343068115234375,0.011059797368943691,0.005091533064842224,0.016419537365436554
1772534325479084000,7.353083984375,0.017306774854660034,0.005448929034173489,0.017322082072496414
1772534325489101000,7.36310107421875,0.02053944207727909,0.003880893811583519,0.013133613392710686
1772534325499117000,7.373116943359375,0.01962677761912346,-0.0007514085154980421,0.007136440835893154
1772534325509133000,7.383133056640625,0.013415384106338024,0.0005217024590820074,0.005619627423584461
1772534325519149000,7.393149169921875,0.007917288690805435,0.0014383622910827398,0.006694478914141655
1772534325529166300,7.403166259765625,0.0035694113466888666,0.001231212168931961,0.0053647239692509174
1772534325539182000,7.41318212890625,-0.00045542395673692226,0.0014842126984149218,0.004355119541287422
1772534325549198000,7.423197998046875,0.0001865657395683229,0.00233299657702446,0.0012077244464308023
1772534325559214000,7.433214111328125,0.0012536944122985005,0.0019084890373051167,0.0024397026281803846
1772534325569230000,7.44322998046875,0.0010271372739225626,0.0022139872889965773,0.006163438316434622
1772534325579247000,7.4532470703125,-0.002158802468329668,0.0007654938381165266,0.009157097898423672
1772534325589263000,7.46326318359375,-0.0069935256615281105,0.002436429262161255,0.01015901193022728
1772534325599279000,7.473279052734375,-0.011275622062385082,0.0032678679563105106,0.01268528588116169
1772534325609295000,7.483295166015625,-0.011474252678453922,0.00034091738052666187,0.007942397147417068
1772534325619312000,7.49331201171875,-0.007207070477306843,-0.0023752404376864433,0.004607320763170719
1772534325629328100,7.503328125,-0.003673198167234659,-0.0006652342854067683,-0.00039710337296128273
1772534325639344000,7.51334423828125,-0.0035016904585063457,-0.00013553164899349213,-0.0014498508535325527
1772534325649360100,7.523360107421875,-0.0064770556055009365,0.0053793941624462605,-0.0014689350500702858
1772534325659377200,7.533377197265625,-0.005985169671475887,0.00537806237116456,-0.0023549688048660755
1772534325669393200,7.54339306640625,-0.0015264037065207958,0.004972387105226517,-0.0019742981530725956
1772534325679409200,7.5534091796875,0.0069365897215902805,0.002256229054182768,0.0013613109476864338
1772534325689425200,7.563425048828125,0.014248134568333626,-0.0023941239342093468,0.007289194501936436
1772534325699442200,7.573442138671875,0.015460938215255737,-0.0007767862407490611,0.009851155802607536
1772534325709458200,7.583458251953125,0.014972923323512077,0.002332153730094433,0.004175011534243822
1772534325719474200,7.59347412109375,0.011457817628979683,-0.0022181235253810883,-0.003296487033367157
1772534325729490000,7.603489990234375,0.007969609461724758,-0.0015515342820435762,-0.007807349320501089
1772534325739506000,7.613505859375,-0.0013482584618031979,0.0031444174237549305,-0.01294778287410736
1772534325749523200,7.623523193359375,-0.009190858341753483,0.008322411216795444,-0.01618477702140808
1772534325759539200,7.633539306640625,-0.012321670539677143,0.003963083028793335,-0.018740877509117126
1772534325769555200,7.64355517578125,-0.008263136260211468,0.0019456602167338133,-0.014568613842129707
1772534325779571000,7.653571044921875,-0.0032846229150891304,-0.004048582632094622,-0.003268022555857897
1772534325789588200,7.663588134765625,-0.0007679339032620192,-0.008718212135136127,0.005601405166089535
1772534325799604200,7.673604248046875,-0.00252615287899971,-0.010221833363175392,0.007614488713443279
1772534325809620200,7.6836201171875,-0.003250083653256297,-0.006677825935184956,0.003440265078097582
1772534325819636200,7.69363623046875,-0.004346773028373718,-0.002773632062599063,-0.0067575108259916306
1772534325829653000,7.703653076171875,-0.003393587190657854,0.005002351012080908,-0.01571960560977459
1772534325839669200,7.713669189453125,-0.004717178177088499,0.007279353681951761,-0.018955612555146217
1772534325849685200,7.723685302734375,-0.005270583089441061,0.008124107494950294,-0.02198282815515995
1772534325859701200,7.733701171875,-0.0054546077735722065,0.003643872682005167,-0.018570253625512123
1772534325869718000,7.743718017578125,-0.00031511648558080196,-0.003427585121244192,-0.009189385920763016
1772534325879734000,7.753734130859375,0.0036764293909072876,-0.00749050360172987,-0.003079828340560198
1772534325889750000,7.76375,0.008250062353909016,-0.008407555520534515,0.002672875300049782
1772534325899766300,7.773766357421875,0.00821410957723856,-0.008387581445276737,0.005257206503301859
1772534325909782300,7.7837822265625,0.01255809236317873,-0.011005944572389126,0.0004184674471616745
1772534325919799000,7.793799072265625,0.014732829295098782,-0.00907888077199459,-0.004029011353850365
1772534325929815000,7.80381494140625,0.016361843794584274,-0.0048451172187924385,-0.008327821269631386
1772534325939831000,7.8138310546875,0.010808087885379791,-0.0031151275616139174,-0.020040936768054962
1772534325949847300,7.823847412109375,0.005768814589828253,-0.003540563164278865,-0.02836538292467594
1772534325959864000,7.833864013671875,0.0007594088092446327,0.0014137155376374722,-0.03546217083930969
1772534325969880000,7.843880126953125,-0.0028690879698842764,0.006178703159093857,-0.032236382365226746
1772534325979896000,7.85389599609375,-0.004634763579815626,0.0025160578079521656,-0.023019714280962944
1772534325989912000,7.863912109375,-0.0003878814750351012,-0.0036403443664312363,-0.010278867557644844
1772534325999929000,7.87392919921875,0.0016550293657928705,-0.004559135064482689,0.00046059652231633663
1772534326009945000,7.883945068359375,-0.0010002658236771822,0.0026089507155120373,0.00951150618493557
1772534326019961000,7.893961181640625,-0.007617156021296978,0.0015024072490632534,0.016821084544062614
1772534326029977000,7.90397705078125,-0.01083095371723175,-0.0009626884711906314,0.019178614020347595
1772534326039993000,7.9139931640625,-0.011319111101329327,0.006868336815387011,0.014740723185241222
1772534326050010000,7.924010009765625,-0.011610503308475018,0.008851374499499798,0.005269868765026331
1772534326060026000,7.934026123046875,-0.009768128395080566,0.01085407193750143,-0.0033798119984567165
1772534326070042000,7.9440419921875,-0.005424062721431255,0.01314639300107956,-0.008359642699360847
1772534326080058000,7.95405810546875,-0.004541224800050259,0.010072305798530579,-0.008931957185268402
1772534326090075100,7.9640751953125,-0.004716193303465843,0.006855119951069355,-0.004931279923766851
1772534326100091100,7.974091064453125,-0.005491173360496759,0.004370924085378647,0.006178629118949175
1772534326110107100,7.984107177734375,-0.004440024960786104,-0.0011713377898558974,0.014307092875242233
1772534326120123100,7.994123046875,-0.00527332816272974,-0.004421992227435112,0.015869304537773132
1772534326130140200,8.00414013671875,-0.006243291310966015,-0.0030963995959609747,0.007932880893349648
1772534326140156000,8.014156005859375,-0.0067482274025678635,-0.002567762043327093,-0.0038273721002042294
1772534326150172200,8.024172119140625,-0.006277831271290779,-0.0021731331944465637,-0.02344563789665699
1772534326160188200,8.034188232421876,-0.012698712758719921,0.007713585626333952,-0.033104125410318375
1772534326170205200,8.044205078125,-0.017230061814188957,0.015393541194498539,-0.04559118673205376
1772534326180221200,8.05422119140625,-0.021076997742056847,0.014272616244852543,-0.046660177409648895
1772534326190237000,8.06423681640625,-0.01962299272418022,0.004058158025145531,-0.039128705859184265
1772534326200253000,8.0742529296875,-0.01636354997754097,0.002428036881610751,-0.028298964723944664
1772534326210269200,8.084269287109375,-0.012525585480034351,0.0023589227348566055,-0.018997356295585632
1772534326220286200,8.0942861328125,-0.007172098848968744,-0.0074915774166584015,-0.006945487577468157
1772534326230302200,8.10430224609375,-0.004250981844961643,-0.011299691163003445,-0.0019895629957318306
1772534326240318000,8.11431787109375,-0.005099464673548937,-0.005657784640789032,-0.005028230138123035
1772534326250334000,8.124333984375,-0.011737885884940624,0.0017602699808776379,-0.011805467307567596
1772534326260351200,8.134351318359375,-0.018373949453234673,0.0065707373432815075,-0.01971825212240219
1772534326270367200,8.1443671875,-0.02000710368156433,0.0057466523721814156,-0.027530018240213394
1772534326280383200,8.15438330078125,-0.014079705812036991,0.0030797633808106184,-0.033380717039108276
1772534326290399000,8.16439892578125,-0.0076214768923819065,0.0012214716989547014,-0.03827357292175293
1772534326300416300,8.174416259765625,0.0009174160659313202,-0.0008826919365674257,-0.04003312438726425
1772534326310432300,8.184432373046874,0.006261416245251894,-0.008580234833061695,-0.03882515802979469
1772534326320448300,8.1944482421875,0.010623407550156116,-0.01333690620958805,-0.0279083289206028
1772534326330464000,8.204464111328125,0.0117122121155262,-0.012928985059261322,-0.021146461367607117
1772534326340480000,8.21447998046875,0.008606966584920883,-0.007134479470551014,-0.02231132797896862
1772534326350497000,8.2244970703125,0.0014351949794217944,-0.007554204203188419,-0.03242209553718567
1772534326360513300,8.23451318359375,-0.004988882225006819,-0.012726861983537674,-0.03160157427191734
1772534326370529300,8.244529296875,-0.010553762316703796,-0.015118630602955818,-0.02751448191702366
1772534326380545000,8.254544921875,-0.015238262712955475,-0.010027464479207993,-0.023088838905096054
1772534326390562000,8.26456201171875,-0.025529412552714348,0.0036644816864281893,-0.025883380323648453
1772534326400578000,8.274578125,-0.024779999628663063,0.000640462152659893,-0.030727405101060867
1772534326410594000,8.284593994140625,-0.01557539775967598,-0.0009248924907296896,-0.040416158735752106
1772534326420610000,8.294610107421875,-0.00896516628563404,0.0021196333691477776,-0.04154107719659805
1772534326430626800,8.304626708984374,-0.008199609816074371,0.007812036667019129,-0.03139141947031021
1772534326440642800,8.314642822265625,-0.010533071123063564,0.002236443106085062,-0.014205774292349815
1772534326450659000,8.3246591796875,-0.007220979779958725,-0.002735893474891782,0.002432148205116391
1772534326460675000,8.334675048828124,-0.004051019437611103,-0.006955139338970184,0.014330086298286915
1772534326470691000,8.344691162109376,-0.007494363468140364,-0.007075746543705463,0.02438952773809433
1772534326480707800,8.354707763671875,-0.014427903108298779,0.0015627490356564522,0.022615330293774605
1772534326490723800,8.364723876953125,-0.019217148423194885,0.008983476087450981,0.010475894436240196
1772534326500740000,8.374739990234374,-0.02453388273715973,0.011308682151138783,0.0024350129533559084
1772534326510756000,8.384756103515626,-0.02359917387366295,0.014950850047171116,-0.002380496822297573
1772534326520772900,8.39477294921875,-0.017870979383587837,0.0100098866969347,0.00041315890848636627
1772534326530788900,8.404788818359375,-0.0076197367161512375,0.0014837142080068588,0.005065268371254206
1772534326540804900,8.414804931640624,0.0032108062878251076,-0.004035154357552528,0.005548631772398949
1772534326550821000,8.424821044921876,0.014085189439356327,-0.0034624552354216576,0.0005705084186047316
1772534326560838000,8.434837890625,0.02219504676759243,-0.0018776081269606948,-0.008387566544115543
1772534326570854000,8.44485400390625,0.028377903625369072,0.0014604595489799976,-0.0135110542178154
1772534326580870000,8.454869873046874,0.029406683519482613,-0.0015723484102636576,-0.020160168409347534
1772534326590886000,8.464885986328126,0.02497018501162529,-0.006818803027272224,-0.029902828857302666
1772534326600902000,8.47490185546875,0.01630212739109993,-0.0029148750472813845,-0.03402779623866081
1772534326610919000,8.4849189453125,0.007933514192700386,0.0019860651809722185,-0.032110221683979034
1772534326620935000,8.494934814453124,0.005851720925420523,-0.002600164385512471,-0.03232274204492569
1772534326630951000,8.504950927734376,0.0061823418363928795,-0.003087755059823394,-0.03201872855424881
1772534326640967000,8.514966796875,0.006633481476455927,0.0008257601875811815,-0.03502516448497772
1772534326650984000,8.52498388671875,0.003693064209073782,0.008025683462619781,-0.03655645251274109
1772534326661000000,8.535,0.00470479903742671,0.014047889038920403,-0.030702557414770126
1772534326671016000,8.545015869140625,0.011689901351928711,0.008534734137356281,-0.022027187049388885
1772534326681032000,8.555031982421875,0.019249284639954567,-0.0002094893716275692,-0.005055926740169525
1772534326691049000,8.565049072265625,0.018440768122673035,-0.001811715541407466,0.016598204150795937
1772534326701065000,8.57506494140625,0.014069456607103348,0.0031835755798965693,0.030732665210962296
1772534326711081000,8.5850810546875,0.009043436497449875,0.010147595778107643,0.036450061947107315
1772534326721097000,8.595096923828125,0.009788854978978634,0.013209965080022812,0.04009246826171875
1772534326731113000,8.605113037109374,0.015164323151111603,0.0071272701025009155,0.044022612273693085
1772534326741130000,8.6151298828125,0.025281405076384544,0.006630057469010353,0.042577050626277924
1772534326751145700,8.625145751953125,0.033422261476516724,0.007337319198995829,0.03743511438369751
1772534326761162000,8.635161865234375,0.03787427023053169,0.008219623938202858,0.03052874282002449
1772534326771178000,8.645177978515624,0.0365515761077404,0.0026153253857046366,0.02463885024189949
1772534326781195000,8.655195068359374,0.03466339781880379,0.0021788335870951414,0.020293373614549637
1772534326791211000,8.6652109375,0.02740585058927536,0.00916338711977005,0.013962915167212486
1772534326801226800,8.675226806640625,0.018420344218611717,0.01433258131146431,0.006224833894520998
1772534326811243000,8.685242919921874,0.012448636814951897,0.01926145702600479,0.003976676147431135
1772534326821260000,8.695260009765626,0.0059412033297121525,0.023479372262954712,0.00823400542140007
1772534326831276000,8.705276123046875,0.0022844155319035053,0.01703314669430256,0.02145903930068016
1772534326841292000,8.7152919921875,0.00534971384331584,0.007478257641196251,0.030570775270462036
1772534326851307800,8.725307861328124,0.0034909099340438843,0.0006207888945937157,0.035907965153455734
1772534326861323800,8.73532373046875,0.0002743439981713891,0.003123893868178129,0.04312726482748985
1772534326871341000,8.745341064453125,-0.007996369153261185,0.006028115749359131,0.0439930185675621
1772534326881357000,8.755357177734375,-0.01488969661295414,0.008914449252188206,0.046052172780036926
1772534326891372800,8.765372802734374,-0.01874193735420704,0.0008505512960255146,0.043843887746334076
1772534326901388800,8.775388916015626,-0.016551753506064415,0.0016726693138480186,0.043545082211494446
1772534326911406000,8.785406005859375,-0.014630098827183247,0.007432338781654835,0.033413175493478775
1772534326921422000,8.795422119140625,-0.008377529680728912,0.010486185550689697,0.02405402809381485
1772534326931438000,8.80543798828125,0.00031056266743689775,0.008440140634775162,0.009825993329286575
1772534326941453800,8.815453857421875,0.011777601204812527,0.004993743263185024,-0.0037430794909596443
1772534326951470800,8.825470947265625,0.021297235041856766,-0.000008885283023118973,-0.015375111252069473
1772534326961487000,8.835487060546875,0.028343958780169487,-0.0016350112855434418,-0.02491508610546589
1772534326971503000,8.845503173828124,0.03262607753276825,0.0031591427978128195,-0.03216876834630966
1772534326981519000,8.85551904296875,0.032789330929517746,0.0009460560977458954,-0.03289607912302017
1772534326991534800,8.865534912109375,0.03387026488780975,0.0004194637294858694,-0.029033135622739792
1772534327001552000,8.8755517578125,0.0316300131380558,-0.0028644802514463663,-0.02169746160507202
1772534327011567900,8.88556787109375,0.02842981554567814,-0.008945241570472717,-0.020130839198827744
1772534327021584100,8.895584228515625,0.02085391990840435,-0.006653325632214546,-0.019829638302326202
1772534327031599900,8.905599853515625,0.010389582253992558,-0.0024602904450148344,-0.014019678346812725
1772534327041617000,8.915616943359375,0.00008421443635597825,0.0022865277715027332,-0.011147192679345608
1772534327051633000,8.9256328125,-0.013397708535194397,0.0039311363361775875,-0.006178406998515129
1772534327061649000,8.93564892578125,-0.01884360797703266,-0.002145930891856551,-0.003856663592159748
1772534327071665200,8.9456650390625,-0.02119261957705021,-0.00740799680352211,-0.004631476476788521
1772534327081682000,8.955681884765625,-0.013965066522359848,-0.006090531125664711,-0.0052429381757974625
1772534327091698000,8.965697998046876,-0.009192005731165409,-0.008943876251578331,-0.007684407755732536
1772534327101714000,8.9757138671875,-0.005233217030763626,-0.007604039274156094,-0.008174962364137173
1772534327111730000,8.98572998046875,-0.001419508713297546,-0.005883620120584965,-0.009488757699728012
1772534327121746200,8.99574609375,0.0019533848389983177,-0.002387688960880041,-0.011019542813301086
1772534327131763000,9.005762939453126,0.006602362729609013,-0.0015760596143081784,-0.017705855891108513
1772534327141779000,9.015779052734375,0.00878615491092205,-0.0034027218353003263,-0.02225480228662491
1772534327151795000,9.025794921875,0.013230807147920132,-0.0003045196644961834,-0.025059768930077553
1772534327161811000,9.03581103515625,0.01837390474975109,-0.00011863093823194504,-0.023078111931681633
1772534327171828000,9.045827880859376,0.017748674377799034,-0.0018891964573413134,-0.016599755734205246
1772534327181844000,9.055843994140625,0.016746792942285538,-0.0006596149178221822,-0.01663197949528694
1772534327191860000,9.06585986328125,0.014584183692932129,-0.0054038045927882195,-0.01551706250756979
1772534327201876000,9.0758759765625,0.009261057712137699,-0.009473114274442196,-0.013502915389835835
1772534327211892000,9.08589208984375,0.000039803271647542715,-0.003451678901910782,-0.008281505666673183
1772534327221909000,9.095908935546875,-0.006889475509524345,-0.003086559474468231,-0.005788786336779594
1772534327231925000,9.105925048828125,-0.012410026043653488,-0.00023271027021110058,-0.00867871567606926
1772534327241941000,9.11594091796875,-0.012635596096515656,-0.003678574226796627,-0.009317341260612011
1772534327251957000,9.12595703125,-0.010366029106080532,-0.0036400267854332924,-0.006240091286599636
1772534327261973800,9.135973876953125,-0.010605446994304657,-0.005603575147688389,-0.004781744442880154
1772534327271990000,9.145989990234375,-0.013067458756268024,-0.002754887565970421,-0.012600835412740707
1772534327282006000,9.156006103515624,-0.021238835528492928,-0.0012209068518131971,-0.02393844537436962
1772534327292022000,9.16602197265625,-0.0282951258122921,0.007644200697541237,-0.03752729669213295
1772534327302038800,9.176038818359375,-0.03160730004310608,0.012675977312028408,-0.04626885801553726
1772534327312054800,9.1860546875,-0.03258013352751732,0.010154648683965206,-0.04498893395066261
1772534327322070800,9.19607080078125,-0.027852488681674004,0.0034125903621315956,-0.03715924173593521
1772534327332087000,9.206087158203125,-0.01999778114259243,-0.0014929277822375298,-0.03035745583474636
1772534327342103000,9.21610302734375,-0.014221117831766605,-0.005632012616842985,-0.024890786036849022
1772534327352119800,9.226119873046875,-0.010491689667105675,-0.005980859976261854,-0.015551061369478703
1772534327362135800,9.2361357421875,-0.007528390735387802,-0.006516421679407358,-0.003064563497900963
1772534327372151800,9.24615185546875,-0.002218149369582534,-0.009883025661110878,0.009052369743585587
1772534327382168000,9.25616796875,-0.0007126643904484808,-0.013690547086298466,0.014662852510809898
1772534327392185000,9.26618505859375,-0.009134972468018532,-0.012733424082398415,0.02475016564130783
1772534327402201000,9.276201171875,-0.013347826898097992,-0.008746672421693802,0.03093855082988739
1772534327412217000,9.286217041015625,-0.012047037482261658,-0.011680574156343937,0.03271932527422905
1772534327422233000,9.296233154296875,-0.007529517635703087,-0.010907458141446114,0.0347403958439827
1772534327432249300,9.306249267578124,0.0008642543107271194,-0.008237219415605068,0.033610425889492035
1772534327442266000,9.31626611328125,0.00920181255787611,-0.01044391468167305,0.023503195494413376
1772534327454786300,9.328786376953126,0.018035784363746643,-0.01146603561937809,0.012145879678428173
1772534327464802300,9.33880224609375,0.016244685277342796,-0.0072273388504981995,0.0009380429983139038
1772534327474818300,9.348818359375,0.011289075948297977,-0.002474395092576742,-0.0037272823974490166
1772534327484835000,9.3588349609375,0.001302796881645918,-0.001326175988651812,-0.0064469692297279835
1772534327494851000,9.36885107421875,-0.0027747692074626684,-0.0017205901676788926,-0.0054426915012300014
1772534327504867300,9.378867431640625,-0.010916585102677345,-0.008357454091310501,0.0005174628458917141
1772534327514883300,9.38888330078125,-0.011151887476444244,-0.010636864230036736,0.012330904603004456
1772534327524900000,9.398900146484374,-0.011200807988643646,-0.016247130930423737,0.01857699081301689
1772534327534916000,9.408916015625,-0.01191000733524561,-0.017687633633613586,0.020565040409564972
1772534327544932000,9.41893212890625,-0.016599813476204872,-0.014732437208294868,0.014717811718583107
1772534327554948000,9.428947998046874,-0.024977318942546844,-0.005819370038807392,0.00576985627412796
1772534327564964400,9.43896435546875,-0.02935260534286499,0.0038998129311949015,-0.0027496698312461376
1772534327574981000,9.448981201171875,-0.030938250944018364,0.004028975963592529,-0.007202741224318743
1772534327584997000,9.4589970703125,-0.030662083998322487,0.0005969156045466661,-0.010331382043659687
1772534327595013000,9.46901318359375,-0.025644954293966293,-0.006619984284043312,-0.009899417869746685
1772534327605029000,9.479029052734376,-0.020097976550459862,-0.014200129546225071,-0.00334556819871068
1772534327615046100,9.489046142578125,-0.01599218137562275,-0.013525018468499184,0.0016555818729102612
1772534327625062100,9.499062255859375,-0.011565741151571274,-0.014306123368442059,0.01237613707780838
1772534327635078100,9.509078125,-0.010420296341180801,-0.010661966167390347,0.017883561551570892
1772534327645094100,9.51909423828125,-0.006490453612059355,-0.011752582155168056,0.02072000503540039
1772534327655110100,9.529110107421875,-0.006661694962531328,-0.013608272187411785,0.020678989589214325
1772534327665127200,9.539127197265625,-0.004817721899598837,-0.008950936608016491,0.012001346796751022
1772534327675143200,9.54914306640625,-0.00815542135387659,-0.002641290193423629,-0.0037643257528543472
1772534327685159200,9.5591591796875,-0.01185022946447134,-0.00012542866170406342,-0.023277858272194862
1772534327695175200,9.569175048828125,-0.015119792893528938,0.00010493467561900616,-0.03324207663536072
1772534327705192200,9.579192138671875,-0.012686114758253098,-0.006525278091430664,-0.03133351728320122
1772534327715208200,9.589208251953124,-0.015252603217959404,-0.014584535732865334,-0.024948855862021446
1772534327725224200,9.59922412109375,-0.0127704543992877,-0.01950615458190441,-0.002963447943329811
1772534327735240200,9.609240234375,-0.011762181296944618,-0.01834448240697384,0.018725069239735603
1772534327745257200,9.61925732421875,-0.010536860674619675,-0.018169201910495758,0.033612631261348724
1772534327755273200,9.629273193359374,-0.008392749354243279,-0.013536101207137108,0.03592851758003235
1772534327765289200,9.639289306640626,-0.009923800826072693,-0.008270498365163803,0.032725002616643906
1772534327775305200,9.64930517578125,-0.01052927877753973,-0.0016157124191522598,0.027072282508015633
1772534327785947100,9.659947021484374,-0.012202010490000248,-0.0013011930277571082,0.023781148716807365
1772534327795964200,9.669964111328126,-0.008907169103622437,-0.003633255371823907,0.0199251901358366
1772534327805980200,9.679980224609375,-0.004828537814319134,-0.012191589921712875,0.007344684563577175
1772534327815996200,9.68999609375,-0.003481840016320348,-0.01254749484360218,-0.0001120278611779213
1772534327826012200,9.70001220703125,-0.0044373818673193455,-0.002140127122402191,-0.008149448782205582
1772534327836029200,9.710029296875,-0.001746400143019855,-0.0031030033715069294,-0.015819547697901726
1772534327846045200,9.720045166015625,-0.0003511699615046382,-0.006691613234579563,-0.01699000783264637
1772534327856061200,9.730061279296875,0.0032910904847085476,-0.006861266680061817,-0.012862716801464558
1772534327866077200,9.7400771484375,0.0035430253483355045,-0.00891935732215643,-0.0075912559404969215
1772534327876094200,9.75009423828125,-0.004621590953320265,-0.008113870397210121,-0.007649702951312065
1772534327886110200,9.760110107421875,-0.0166939664632082,0.0009089186787605286,-0.003850969485938549
1772534327896126200,9.770126220703125,-0.029301205649971962,0.00671104621142149,0.002656014636158943
1772534327906142200,9.78014208984375,-0.03361499682068825,0.006069224327802658,0.012075083330273628
1772534327916158200,9.790158203125,-0.035093579441308975,0.0015410061459988356,0.015294086188077927
1772534327926175200,9.80017529296875,-0.03014462999999523,-0.008652509190142155,0.019695492461323738
1772534327936191000,9.81019091796875,-0.02257469855248928,-0.006533267442137003,0.020419957116246223
1772534327946207200,9.820207275390626,-0.02089131437242031,-0.0019361190497875214,0.01438310369849205
1772534327956223200,9.83022314453125,-0.024146268144249916,0.008124152198433876,0.006165412254631519
1772534327966240300,9.840240234375,-0.0445609986782074,0.03972841799259186,0.005652753636240959
1772534327976256300,9.85025634765625,-0.05740468576550484,0.0406557135283947,0.002531586680561304
1772534327986272000,9.86027197265625,-0.060872919857501984,0.021243132650852203,-0.00902679841965437
1772534327996288300,9.870288330078125,-0.04558129608631134,0.007400441914796829,-0.011188212782144547
1772534328006305300,9.88030517578125,-0.03222128003835678,-0.004719870164990425,-0.009348234161734581
1772534328016321300,9.8903212890625,-0.019416475668549538,-0.0040000006556510925,-0.010319813154637814
1772534328026337000,9.9003369140625,-0.007790445350110531,-0.00789673812687397,-0.014336925931274891
1772534328036353000,9.91035302734375,-0.003332293126732111,-0.01179567351937294,-0.015381982550024986
1772534328046369300,9.920369384765625,-0.0014094908256083727,-0.01046702265739441,-0.013318564742803574
1772534328056386300,9.93038623046875,-0.0011999002890661359,-0.0067466311156749725,-0.015506314113736153
1772534328066402300,9.94040234375,-0.005697446875274181,-0.0023854386527091265,-0.018363619223237038
1772534328076418000,9.95041796875,-0.011625540442764759,0.0000640619546175003,-0.021959584206342697
1772534328086434000,9.96043408203125,-0.013792554847896099,-0.002692043548449874,-0.020857034251093864
1772534328096451300,9.970451416015624,-0.011476137675344944,-0.009177684783935547,-0.014910687692463398
1772534328106467300,9.98046728515625,-0.01247935090214014,-0.0121990405023098,-0.002862014342099428
1772534328116483300,9.9904833984375,-0.008723964914679527,-0.008974423632025719,0.0026365150697529316
1772534328126499000,10.0004990234375,-0.0064224605448544025,-0.013295402750372887,-0.0002503516152501106
1772534328136515000,10.01051513671875,-0.0032522552646696568,-0.010034071281552315,-0.005194436758756638
1772534328146532400,10.020532470703126,-0.003788616042584181,-0.003920785151422024,-0.014767700806260109
1772534328156548400,10.03054833984375,-0.005503523629158735,0.008774492889642715,-0.027617719024419785
1772534328166564400,10.040564453125,-0.009591209702193737,0.014968737959861755,-0.03432249277830124
1772534328176580000,10.050580078125,-0.01366003230214119,0.007186539471149445,-0.0341908223927021
1772534328186597000,10.06059716796875,-0.016890447586774826,0.002497777808457613,-0.030214723199605942
1772534328196613400,10.07061328125,-0.018786022439599037,0.0007587503641843796,-0.020321138203144073
1772534328206629400,10.08062939453125,-0.020105618983507156,0.00360353896394372,-0.011332171969115734
1772534328216645000,10.09064501953125,-0.023312577977776527,0.006444265134632587,-0.005128637887537479
1772534328226661000,10.1006611328125,-0.024207932874560356,0.007365984842181206,-0.001759472768753767
1772534328236678100,10.11067822265625,-0.020852144807577133,0.01121605560183525,-0.0024091852828860283
1772534328246694100,10.120694091796874,-0.014763092622160912,0.008736652322113514,-0.003103205468505621
1772534328256710400,10.13071044921875,-0.007535478100180626,0.002876162063330412,0.003214779542759061
1772534328266726100,10.14072607421875,-0.004337554331868887,0.00011979020200669765,0.010882019996643066
1772534328276743200,10.1507431640625,-0.003348925383761525,-0.004216838628053665,0.015843655914068222
1772534328286759200,10.16075927734375,-0.007931427098810673,-0.0035427927505224943,0.009736759588122368
1772534328296775200,10.170775146484376,-0.011332347057759762,0.0008867804426699877,-0.003595456015318632
1772534328306791400,10.18079150390625,-0.015245328657329082,0.008083440363407135,-0.019473489373922348
1772534328316808200,10.19080810546875,-0.013232205994427204,0.009872104041278362,-0.03308173269033432
1772534328326824200,10.20082421875,-0.012426333501935005,0.011843908578157425,-0.04420202970504761
1772534328336840200,10.210840087890626,-0.01223772019147873,0.011712633073329926,-0.041981279850006104
1772534328346856200,10.220856201171875,-0.014942958950996399,0.008049720898270607,-0.04194213077425957
1772534328356872200,10.2308720703125,-0.015103239566087723,-0.0013687292812392116,-0.04322686791419983
1772534328366889200,10.24088916015625,-0.013631311245262623,-0.004401004407554865,-0.03631249815225601
1772534328376905200,10.2509052734375,-0.01251522172242403,-0.0025704330764710903,-0.029550176113843918
1772534328386921200,10.260921142578125,-0.01910175196826458,-0.005948120262473822,-0.01783226802945137
1772534328396937200,10.270937255859375,-0.027463216334581375,-0.0037970677949488163,-0.012171776033937931
1772534328406954200,10.280954345703124,-0.032334934920072556,0.001921271439641714,-0.007134405896067619
1772534328416970200,10.29097021484375,-0.03629780188202858,0.004505920689553022,-0.011285916902124882
1772534328426986200,10.300986328125,-0.03707624599337578,0.007363492622971535,-0.02255881205201149
1772534328437002500,10.31100244140625,-0.0328456275165081,0.007134823128581047,-0.03441089391708374
1772534328447018500,10.3210185546875,-0.026199711486697197,0.004254880361258984,-0.04862232133746147
1772534328457035300,10.33103515625,-0.01911727897822857,0.001688012620434165,-0.05540778115391731
1772534328467051300,10.34105126953125,-0.011485991068184376,0.004169279709458351,-0.05844910815358162
1772534328477067300,10.3510673828125,-0.012521387077867985,0.005854657851159573,-0.050580866634845734
1772534328487083500,10.36108349609375,-0.014335265383124352,0.007858687080442905,-0.030900638550519943
1772534328497100300,10.371100341796875,-0.009913494810461998,-0.0027752360329031944,-0.005098761059343815
1772534328507116300,10.3811162109375,-0.001658494584262371,-0.009770561009645462,0.016275502741336823
1772534328517132300,10.39113232421875,0.00557676050812006,-0.014994017779827118,0.022499078884720802
1772534328527148300,10.401148193359376,0.01177686545997858,-0.018091540783643723,0.02586265094578266
1772534328537164300,10.411164306640625,0.015160595066845417,-0.006435099523514509,0.02759113349020481
1772534328547181300,10.421181396484375,0.019270919263362885,-0.008770158514380455,0.020399533212184906
1772534328557197300,10.431197265625,0.020941294729709625,-0.012643329799175262,0.010954299010336399
1772534328567213300,10.44121337890625,0.018288519233465195,-0.004243719857186079,0.014653695747256279
1772534328577229300,10.451229248046875,0.01591474376618862,-0.011289479210972786,0.018690064549446106
1772534328587246300,10.461246337890625,0.014206326566636562,-0.015454398468136787,0.010163156315684319
1772534328597262300,10.471262451171874,0.005904593504965305,-0.004323574714362621,0.011612650007009506
1772534328607278300,10.4812783203125,-0.003322992939502001,0.0019082222133874893,0.01253863051533699
1772534328617294300,10.49129443359375,-0.004919945262372494,0.00015321001410484314,0.003512986470013857
1772534328627310300,10.501310302734375,-0.0026581226848065853,-0.00010058935731649399,0.018943075090646744
1772534328637327400,10.511327392578124,0.0034275706857442856,-0.009019633755087852,0.01998584158718586
1772534328647343400,10.52134326171875,0.007391686085611582,-0.015578733757138252,0.012182515114545822
1772534328657359400,10.531359375,0.012535395100712776,-0.007798405364155769,0.005217501427978277
1772534328667375400,10.541375244140625,0.008520719595253468,-0.0003254904877394438,-0.0002390742301940918
1772534328677392100,10.55139208984375,0.0013024882646277547,0.0007666719611734152,-0.016544543206691742
1772534328687408000,10.561408203125,0.0015600159531459212,-0.0025913077406585217,-0.02652287483215332
1772534328697424400,10.57142431640625,0.0023621227592229843,0.000014290213584899902,-0.02957674115896225
1772534328707440400,10.5814404296875,0.010752677917480469,-0.011979255825281143,-0.03708286210894585
1772534328717457400,10.59145751953125,0.021627286449074745,-0.024183157831430435,-0.02121107093989849
1772534328727473200,10.60147314453125,0.03249378129839897,-0.027292398735880852,-0.001924724318087101
1772534328737489200,10.6114892578125,0.028494635596871376,-0.041302453726530075,-0.001479825470596552
1772534328747505400,10.62150537109375,0.011511657387018204,-0.024169808253645897,0.003177510341629386
1772534328757521400,10.631521484375,0.00327726430259645,-0.02911519631743431,0.021006492897868156
1772534328767538400,10.641538330078125,-0.002157448325306177,0.010168027132749557,0.0002993498928844929
1772534328777554200,10.65155419921875,-0.041361741721630096,0.09149068593978882,-0.11402145028114319
1772534328787570200,10.661570068359374,-0.06940482556819916,0.08998599648475647,-0.1432991772890091
1772534328797586400,10.67158642578125,-0.05614027753472328,0.05503729730844498,-0.11219493299722672
1772534328807603500,10.681603515625,-0.03758257254958153,0.00755500141531229,-0.06018686294555664
1772534328817619200,10.691619140625,-0.030360981822013855,-0.019398201256990433,0.008356636390089989
1772534328827635200,10.70163525390625,-0.027601413428783417,-0.025201227515935898,0.05415741354227066
1772534328837651200,10.711651123046876,-0.016703737899661064,-0.0425826832652092,0.06775281578302383
1772534328847667200,10.721667236328125,-0.005366661120206118,-0.04772258549928665,0.0579739548265934
1772534328857684500,10.7316845703125,-0.0001757501158863306,-0.030258938670158386,0.04033276438713074
1772534328867700200,10.7417001953125,0.0017497153021395206,-0.011946245096623898,0.012742678634822369
1772534328877716200,10.75171630859375,-0.0028356751427054405,0.016733642667531967,-0.032517194747924805
