time,seconds_elapsed,z,y,x
1772574214381565400,0.2255654296875,0,0,0
1772574214391461000,0.235461181640625,0.31903648376464844,-0.011600971221923828,0.01150655746459961
1772574214401387500,0.245387451171875,0.6294116973876953,-0.03537130355834961,0.03459668159484863
1772574214411374000,0.2553740234375,0.8142166137695312,-0.01635599136352539,0.029909253120422363
1772574214421324800,0.26532470703125,0.7368049621582031,-0.06320476531982422,0.1068885326385498
1772574214431238700,0.27523876953125,0.3943939208984375,-0.2380208969116211,0.39202940464019775
1772574214441174300,0.28517431640625,0.1973733901977539,-0.42769479751586914,0.681644856929779
1772574214451100000,0.295099853515625,0.26104736328125,-0.5116915702819824,0.6749259829521179
1772574214461031400,0.305031494140625,0.33559417724609375,-0.38831090927124023,0.5653051137924194
1772574214470964200,0.314964111328125,0.40277767181396484,-0.2995309829711914,0.2410879135131836
1772574214480862500,0.324862548828125,0.3001365661621094,-0.15640926361083984,0.11077654361724854
1772574214500759800,0.344759765625,0.11562824249267578,-0.48618221282958984,1.115753412246704
1772574214510705400,0.354705322265625,-0.638392448425293,-0.6601195335388184,1.61430823802948
1772574214520625200,0.364625244140625,-0.9357061386108398,-0.7276320457458496,1.6008597612380981
1772574214530560300,0.374560302734375,-0.8460779190063477,-0.8650293350219727,1.3347727060317993
1772574214540487700,0.38448779296875,-0.6643476486206055,-1.1651325225830078,0.9668573141098022
1772574214550419700,0.394419677734375,-0.43581485748291016,-1.568490982055664,0.5884675979614258
1772574214560353000,0.40435302734375,-0.20204734802246094,-1.8591949939727783,0.3120943307876587
1772574214570285600,0.41428564453125,-0.2207803726196289,-2.061964750289917,0.1104574203491211
1772574214580216000,0.424216064453125,-0.6139039993286133,-2.095507860183716,0.013580918312072754
1772574214590147800,0.43414794921875,-1.0290241241455078,-1.976036787033081,0.16235649585723877
1772574214600091000,0.4440908203125,-1.303548812866211,-1.744335412979126,0.5451589822769165
1772574214610027500,0.454027587890625,-1.444624900817871,-1.5710499286651611,1.108424425125122
1772574214619943200,0.463943115234375,-1.4990882873535156,-1.4895408153533936,1.4512218236923218
1772574214629871000,0.47387109375,-1.4192628860473633,-1.445922613143921,1.4546846151351929
1772574214639822800,0.48382275390625,-1.0572175979614258,-1.3031980991363525,1.2117488384246826
1772574214649760500,0.493760498046875,-0.5170612335205078,-1.3585255146026611,0.8124013543128967
1772574214659670500,0.50367041015625,-0.23925399780273438,-1.7747900485992432,0.4131394922733307
1772574214669597000,0.513596923828125,-0.4250650405883789,-1.971919298171997,0.023076534271240234
1772574214679546000,0.523546142578125,-0.9174108505249023,-1.8484857082366943,-0.2096378207206726
1772574214689481700,0.533481689453125,-1.5205020904541016,-1.635376214981079,-0.19070333242416382
1772574214699398700,0.543398681640625,-2.0717577934265137,-1.343987226486206,-0.054572731256484985
1772574214709326600,0.55332666015625,-2.273953437805176,-0.9474577903747559,0.034032225608825684
1772574214719266300,0.563266357421875,-2.1111621856689453,-0.59326171875,0.06190076470375061
1772574214729195500,0.573195556640625,-1.9285545349121094,-0.4517803192138672,0.13882394134998322
1772574214739126300,0.583126220703125,-1.7586679458618164,-0.47623300552368164,0.23620234429836273
1772574214749055700,0.5930556640625,-1.6006836891174316,-0.667931079864502,0.23168888688087463
1772574214758999600,0.60299951171875,-1.6926755905151367,-0.989494800567627,0.10421028733253479
1772574214768930300,0.612930419921875,-2.0816869735717773,-1.1314334869384766,0.08663389086723328
1772574214778856000,0.62285595703125,-2.6033802032470703,-0.8762044906616211,0.23989231884479523
1772574214788786200,0.6327861328125,-3.2100491523742676,-0.9824371337890625,0.24251601099967957
1772574214798720800,0.642720703125,-3.3268141746520996,-1.10178804397583,-0.11159676313400269
1772574214808651500,0.652651611328125,-3.010336399078369,-0.9607186317443848,-0.6684575080871582
1772574214818595000,0.662594970703125,-2.6968774795532227,-0.618898868560791,-0.9560692310333252
1772574214828527000,0.672527099609375,-2.453394889831543,-0.43297672271728516,-0.9100103974342346
1772574214838460000,0.6824599609375,-2.1454601287841797,-0.35107421875,-0.7945939302444458
1772574214848392200,0.69239208984375,-1.6836004257202148,-0.20945405960083008,-0.7396290302276611
1772574214858312700,0.702312744140625,-1.0919513702392578,-0.12586450576782227,-0.7305423021316528
1772574214868243500,0.712243408203125,-0.8202261924743652,-0.2825613021850586,-0.6250578761100769
1772574214878185000,0.72218505859375,-0.8228030204772949,-0.43799543380737305,-0.5309740304946899
1772574214888117000,0.732116943359375,-0.9729433059692383,-0.4317460060119629,-0.6091997623443604
1772574214898035200,0.74203515625,-1.311182975769043,-0.3260965347290039,-0.6077867746353149
1772574214907966000,0.751966064453125,-1.6671056747436523,0.008165359497070312,-0.498836874961853
1772574214917885200,0.76188525390625,-1.7469301223754883,0.4262876510620117,-0.3671075105667114
1772574214927814700,0.771814697265625,-1.7259092330932617,0.7369780540466309,-0.2228085994720459
1772574214937742800,0.781742919921875,-1.8416767120361328,0.9257388114929199,-0.126570463180542
1772574214947672000,0.791672119140625,-2.0083751678466797,1.0206456184387207,-0.21072155237197876
1772574214957642800,0.801642822265625,-1.9959850311279297,1.0910758972167969,-0.61394864320755
1772574214967576300,0.811576416015625,-1.8272171020507812,1.1331257820129395,-0.9489369988441467
1772574214977471000,0.821470947265625,-1.6922883987426758,1.2400598526000977,-0.9639871120452881
1772574214987400700,0.831400634765625,-1.6142573356628418,1.4116168022155762,-0.9097045660018921
1772574214997331700,0.841331787109375,-1.5227017402648926,1.5783028602600098,-0.9106193780899048
1772574215007261400,0.851261474609375,-1.3434348106384277,1.727628231048584,-1.0067578554153442
1772574215017201200,0.861201171875,-0.8421182632446289,1.8124709129333496,-1.00511634349823
1772574215027132000,0.8711318359375,-0.0265960693359375,1.7891573905944824,-0.8512474298477173
1772574215037065200,0.881065185546875,0.5841917991638184,1.7345819473266602,-0.661690354347229
1772574215046996500,0.89099658203125,0.6239757537841797,1.6882505416870117,-0.6227246522903442
1772574215056927000,0.900927001953125,0.5386934280395508,1.763871669769287,-0.8517582416534424
1772574215066858000,0.91085791015625,0.630220890045166,1.823523998260498,-1.132693886756897
1772574215076792000,0.9207919921875,0.6032476425170898,1.7486529350280762,-1.2329899072647095
1772574215086723300,0.930723388671875,0.43468666076660156,1.6795520782470703,-1.4892244338989258
1772574215096658200,0.940658203125,0.7234306335449219,1.7831315994262695,-2.1280946731567383
1772574215106589700,0.950589599609375,0.8939051628112793,1.8462729454040527,-2.0447545051574707
1772574215116518400,0.960518310546875,0.9249601364135742,1.5324082374572754,-1.562639832496643
1772574215126450000,0.970449951171875,1.2722506523132324,1.3041019439697266,-1.2083253860473633
1772574215136416000,0.980416015625,1.6844358444213867,1.3560676574707031,-1.0181971788406372
1772574215146350800,0.990350830078125,1.968259334564209,1.5290684700012207,-1.077964186668396
1772574215156262700,1.0002626953125,1.637960433959961,1.5169682502746582,-1.4378142356872559
1772574215166195200,1.0101953125,0.9373574256896973,1.0830302238464355,-1.8481671810150146
1772574215176129000,1.02012890625,0.3310422897338867,0.38404273986816406,-2.3050079345703125
1772574215186061600,1.0300615234375,0.11298656463623047,-0.20422840118408203,-2.8447883129119873
1772574215196007000,1.0400068359375,0.6024203300476074,-0.6716852188110352,-3.285468101501465
1772574215205940700,1.049940673828125,1.3063297271728516,-1.1180024147033691,-3.444148063659668
1772574215215858200,1.059858154296875,1.556687831878662,-1.3616456985473633,-3.3507256507873535
1772574215225790500,1.06979052734375,1.4084177017211914,-1.3570661544799805,-3.057649850845337
1772574215235720700,1.079720703125,0.9246926307678223,-1.2913780212402344,-2.570098876953125
1772574215245652700,1.08965283203125,0.17888593673706055,-1.3219842910766602,-1.9205803871154785
1772574215255596000,1.099595947265625,-0.6969189643859863,-1.3697686195373535,-1.2676149606704712
1772574215265529300,1.109529296875,-1.4508333206176758,-1.2108569145202637,-0.8773742914199829
1772574215275450000,1.1194501953125,-1.875685691833496,-0.9744296073913574,-0.8177558183670044
1772574215285382100,1.129382080078125,-1.8309025764465332,-0.7096691131591797,-0.951617956161499
1772574215295312100,1.13931201171875,-1.2551374435424805,-0.5579462051391602,-1.1794267892837524
1772574215305244000,1.149243896484375,-0.5054516792297363,-0.6777997016906738,-1.3116873502731323
1772574215315174700,1.159174560546875,0.03267192840576172,-1.0717196464538574,-1.267141580581665
1772574215325106400,1.1691064453125,0.39283084869384766,-1.474837303161621,-1.1079354286193848
1772574215335050200,1.17905029296875,0.5221433639526367,-1.7040185928344727,-1.1009763479232788
1772574215344983000,1.188983154296875,0.47619152069091797,-1.771336555480957,-1.1461849212646484
1772574215354945300,1.1989453125,0.22332000732421875,-1.7350802421569824,-1.1045968532562256
1772574215364881200,1.208881103515625,-0.23983526229858398,-1.6760377883911133,-0.9712897539138794
1772574215374768400,1.218768310546875,-0.8323478698730469,-1.6685428619384766,-0.7012420892715454
1772574215384699400,1.228699462890625,-1.4658050537109375,-1.6518802642822266,-0.41165149211883545
1772574215394641000,1.238640869140625,-1.9914789199829102,-1.5934228897094727,-0.2459036111831665
1772574215404573000,1.248572998046875,-2.199127197265625,-1.5528545379638672,-0.20495903491973877
1772574215414502700,1.258502685546875,-2.035098075866699,-1.4585342407226562,-0.15969014167785645
1772574215424434400,1.268434326171875,-1.6813220977783203,-1.431483268737793,-0.16479861736297607
1772574215434372400,1.278372314453125,-1.2742652893066406,-1.579714298248291,-0.14626145362854004
1772574215444305000,1.288304931640625,-0.9910821914672852,-1.6932249069213867,-0.1049966812133789
1772574215454225000,1.298224853515625,-0.9328689575195312,-1.7180557250976562,-0.15275204181671143
1772574215464156000,1.308156005859375,-0.9932012557983398,-1.5980939865112305,-0.27871692180633545
1772574215474099000,1.318098876953125,-0.9491901397705078,-1.4090824127197266,-0.3691864013671875
1772574215484031200,1.32803125,-0.9541997909545898,-1.2455267906188965,-0.4231867790222168
1772574215493951700,1.33795166015625,-1.069772720336914,-1.044825553894043,-0.38698238134384155
1772574215503882800,1.3478828125,-1.267228126525879,-0.7683620452880859,-0.2478235363960266
1772574215513827000,1.3578271484375,-1.4711318016052246,-0.41976451873779297,-0.06332635879516602
1772574215523759600,1.367759521484375,-1.640428066253662,-0.12055206298828125,-0.004131495952606201
1772574215533678600,1.3776787109375,-1.6678872108459473,0.1416172981262207,0.07400298118591309
1772574215543609600,1.387609619140625,-1.5651679039001465,0.3733382225036621,0.0679161548614502
1772574215553545000,1.397544921875,-1.3855128288269043,0.5322504043579102,0.046277403831481934
1772574215563476500,1.4074765625,-1.096269130706787,0.595365047454834,-0.004007875919342041
1772574215573406000,1.417406005859375,-0.7741298675537109,0.5634565353393555,-0.025022149085998535
1772574215583337200,1.427337158203125,-0.38544368743896484,0.5406765937805176,0.05176466703414917
1772574215593270500,1.4372705078125,-0.3187994956970215,0.34917259216308594,0.33291321992874146
1772574215603202300,1.447202392578125,0.044274330139160156,0.47646331787109375,0.31891071796417236
1772574215613142500,1.457142578125,0.5336995124816895,0.7882566452026367,0.19820177555084229
1772574215623074800,1.46707470703125,0.42777109146118164,0.6639375686645508,0.5417479872703552
1772574215632997400,1.476997314453125,0.5687675476074219,0.5424261093139648,0.8057485818862915
1772574215642928600,1.4869287109375,0.9217510223388672,0.5946922302246094,0.8356049060821533
1772574215652862000,1.496862060546875,1.0255346298217773,0.523468017578125,0.9725849628448486
1772574215662793500,1.50679345703125,1.5031023025512695,0.6876306533813477,0.8809598684310913
1772574215672725200,1.516725341796875,1.985574722290039,0.9283037185668945,0.6354433298110962
1772574215682656800,1.52665673828125,1.796555519104004,0.7418994903564453,0.7184317111968994
1772574215692586200,1.536586181640625,1.5935640335083008,0.4806938171386719,0.7409648895263672
1772574215702517800,1.546517822265625,1.4128875732421875,0.30806541442871094,0.746442437171936
1772574215712454700,1.55645458984375,1.2333526611328125,0.2070631980895996,0.7162997722625732
1772574215722386700,1.56638671875,1.195220947265625,0.20906400680541992,0.6325064301490784
1772574215732316000,1.57631591796875,1.4001007080078125,0.1970806121826172,0.6282171010971069
1772574215742247700,1.58624755859375,1.9647235870361328,0.31868505477905273,0.41177070140838623
1772574215752184800,1.596184814453125,2.476797103881836,0.6476764678955078,0.012193918228149414
1772574215762117000,1.6061171875,2.6837263107299805,0.7037057876586914,-0.13047993183135986
1772574215772048400,1.61604833984375,2.6497764587402344,0.2371349334716797,0.09342873096466064
1772574215781980700,1.625980712890625,3.3040504455566406,0.23038244247436523,-0.19566166400909424
1772574215791909600,1.63590966796875,3.465977668762207,0.11355972290039062,-0.45187342166900635
1772574215801841700,1.645841552734375,2.7685422897338867,-0.16074514389038086,-0.2232985496520996
1772574215811784200,1.6557841796875,1.6366348266601562,-0.10185098648071289,0.551024854183197
1772574215821717000,1.665717041015625,0.718841552734375,0.2893257141113281,1.3508615493774414
1772574215831635200,1.67563525390625,0.17164993286132812,0.6039223670959473,1.996626615524292
1772574215841566700,1.685566650390625,0.12543010711669922,0.5350985527038574,2.5739798545837402
1772574215851501000,1.6955009765625,0.62542724609375,0.17432165145874023,2.839860439300537
1772574215861432800,1.705432861328125,1.3699636459350586,-0.11362981796264648,2.5736260414123535
1772574215871362000,1.715362060546875,2.03324031829834,-0.3316779136657715,2.117037296295166
1772574215881293600,1.72529345703125,1.938279151916504,-0.7873330116271973,1.7704782485961914
1772574215891273200,1.735273193359375,1.7457237243652344,-1.230024814605713,1.5569698810577393
1772574215901209600,1.745209716796875,2.122434616088867,-1.2673487663269043,1.5466104745864868
1772574215911092700,1.7550927734375,2.0753440856933594,-1.2099308967590332,1.6111592054367065
1772574215921023700,1.765023681640625,1.5329551696777344,-1.191330909729004,1.3826115131378174
1772574215930956000,1.7749560546875,0.7898120880126953,-1.3833889961242676,1.0456830263137817
1772574215950831600,1.79483154296875,-0.9538259506225586,-1.881908655166626,0.9329012632369995
1772574215960764200,1.80476416015625,-1.717026710510254,-1.9970648288726807,0.8928477168083191
1772574215970678800,1.8146787109375,-2.0011539459228516,-2.019477128982544,0.7146832346916199
1772574215980609500,1.824609619140625,-1.8390941619873047,-2.1427648067474365,0.35709860920906067
1772574215990546400,1.83454638671875,-1.4653816223144531,-2.2639553546905518,0.0641210675239563
1772574216000477700,1.844477783203125,-0.9682960510253906,-2.1748411655426025,0.28002747893333435
1772574216010410200,1.85441015625,-0.7104582786560059,-2.054453134536743,0.7377622723579407
1772574216020341800,1.864341796875,-0.9405927658081055,-1.9100062847137451,1.0397922992706299
1772574216030292200,1.874292236328125,-1.2523183822631836,-1.8162529468536377,1.1276392936706543
1772574216040225800,1.884225830078125,-1.5935382843017578,-1.6862781047821045,1.070863127708435
1772574216050138400,1.894138427734375,-2.1738014221191406,-1.5860860347747803,1.0663082599639893
1772574216060070000,1.90406982421875,-2.736746311187744,-1.5215566158294678,1.0450198650360107
1772574216070003500,1.91400341796875,-3.137474536895752,-1.4125866889953613,0.9832555651664734
1772574216079935000,1.92393505859375,-3.3069262504577637,-1.2956585884094238,0.8299295902252197
1772574216089864000,1.933864013671875,-3.3274550437927246,-1.137709140777588,0.7447091341018677
1772574216099795200,1.943795166015625,-3.2619709968566895,-1.024644374847412,0.7920373678207397
1772574216109741000,1.953740966796875,-3.0256876945495605,-0.964594841003418,0.9436632394790649
1772574216119673900,1.963673828125,-2.6805615425109863,-1.0240755081176758,1.0982959270477295
1772574216129596000,1.973595947265625,-2.2684669494628906,-1.212186574935913,1.1054693460464478
1772574216139527400,1.98352734375,-2.09421443939209,-1.3732860088348389,1.058730125427246
1772574216149443800,1.99344384765625,-1.7401447296142578,-1.389028787612915,0.7149842381477356
1772574216159374000,2.0033740234375,-1.772202491760254,-1.0037829875946045,0.5939651727676392
1772574216169298400,2.01329833984375,-1.799046516418457,-0.5045304298400879,0.5152180194854736
1772574216179228000,2.023227783203125,-1.5467205047607422,-0.0349888801574707,0.3413727283477783
1772574216189168600,2.033168701171875,-1.1648569107055664,0.3694138526916504,0.25953614711761475
1772574216199099400,2.043099365234375,-0.9204940795898438,0.5407958030700684,0.2847456932067871
1772574216209025300,2.053025390625,-0.7803397178649902,0.6601347923278809,0.4092113971710205
1772574216218955500,2.06295556640625,-0.7978720664978027,0.8227839469909668,0.4338111877441406
1772574216228926200,2.07292626953125,-0.9589700698852539,1.0566458702087402,0.2716813087463379
1772574216238860500,2.082860595703125,-1.0451650619506836,1.3817908763885498,-0.024227380752563477
1772574216248753200,2.092753173828125,-1.0153770446777344,1.7476589679718018,-0.27663755416870117
1772574216258683100,2.10268310546875,-0.8519172668457031,1.9603476524353027,-0.3755776882171631
1772574216268662000,2.112662109375,-0.6353421211242676,2.0918548107147217,-0.3566591739654541
1772574216278596900,2.122596923828125,-0.359649658203125,2.2753031253814697,-0.38832807540893555
1772574216288501800,2.132501708984375,-0.014993667602539062,2.477252244949341,-0.5112519264221191
1772574216298433800,2.142433837890625,0.2426605224609375,2.5582456588745117,-0.712479829788208
1772574216308346600,2.1523466796875,0.4387845993041992,2.498626947402954,-0.9469232559204102
1772574216318276600,2.162276611328125,0.6544036865234375,2.3570070266723633,-1.109729290008545
1772574216328213800,2.1722138671875,0.9704341888427734,2.08738374710083,-1.2138903141021729
1772574216338144300,2.182144287109375,1.3060979843139648,1.8253328800201416,-1.2310800552368164
1772574216348105200,2.192105224609375,1.6810874938964844,1.55403733253479,-1.2409141063690186
1772574216358039000,2.2020390625,1.9909563064575195,1.3328838348388672,-1.3991100788116455
1772574216367960300,2.211960205078125,2.2559356689453125,1.3385381698608398,-1.900153636932373
1772574216377892900,2.221892822265625,2.3445940017700195,1.583226203918457,-2.527498483657837
1772574216387835400,2.23183544921875,2.1348915100097656,1.7738971710205078,-2.9030776023864746
1772574216397769000,2.24176904296875,1.9311408996582031,1.8605389595031738,-3.038098096847534
1772574216407683300,2.251683349609375,1.8596534729003906,1.9693536758422852,-2.9830965995788574
1772574216417615000,2.261614990234375,1.699544906616211,2.0674023628234863,-2.904778003692627
1772574216427551000,2.271551025390625,1.3974037170410156,2.02587890625,-2.899482488632202
1772574216437483000,2.28148291015625,1.0500898361206055,1.8705406188964844,-2.886810779571533
1772574216447417900,2.29141796875,0.9724969863891602,1.480177402496338,-2.953214406967163
1772574216457350100,2.30135009765625,1.1474180221557617,0.8789329528808594,-3.074615478515625
1772574216467279400,2.311279296875,1.3802404403686523,0.1931467056274414,-3.220217704772949
1772574216477211400,2.32121142578125,1.574361801147461,-0.5285460948944092,-3.4939706325531006
1772574216487140400,2.331140380859375,1.6342840194702148,-1.0472321510314941,-3.6831681728363037
1772574216497072000,2.341072021484375,1.4779167175292969,-1.3288235664367676,-3.673543930053711
1772574216507004200,2.351004150390625,1.0548515319824219,-1.4364218711853027,-3.3103363513946533
1772574216516936000,2.36093603515625,0.49856090545654297,-1.3905558586120605,-2.83614444732666
1772574216526869000,2.370868896484375,-0.011958122253417969,-1.2387945652008057,-2.428337335586548
1772574216536800800,2.38080078125,-0.42708492279052734,-1.0205106735229492,-2.007838487625122
1772574216546716000,2.3907158203125,-0.7966189384460449,-0.8143045902252197,-1.7143383026123047
1772574216556646000,2.40064599609375,-1.1784029006958008,-0.6185169219970703,-1.4845960140228271
1772574216566580000,2.410580078125,-1.6156673431396484,-0.4322333335876465,-1.270937442779541
1772574216576510500,2.420510498046875,-1.9617156982421875,-0.21564292907714844,-1.15177321434021
1772574216586475300,2.430475341796875,-1.751169204711914,-0.034152984619140625,-1.220158576965332
1772574216596409300,2.440409423828125,-0.9515643119812012,0.0044708251953125,-1.2228305339813232
1772574216606306600,2.450306640625,-0.1139364242553711,-0.37915992736816406,-0.9764931201934814
1772574216616236800,2.46023681640625,0.31266117095947266,-0.9666054248809814,-0.6320681571960449
1772574216626189300,2.470189208984375,0.513524055480957,-1.5187169313430786,-0.355104923248291
1772574216636121900,2.480121826171875,0.6205539703369141,-1.8472352027893066,-0.30719590187072754
1772574216646052000,2.490052001953125,0.593231201171875,-1.968026876449585,-0.33780431747436523
1772574216655984400,2.499984375,0.3089332580566406,-1.9920306205749512,-0.24840354919433594
1772574216665924000,2.509924072265625,-0.2414703369140625,-1.8423535823822021,0.03609585762023926
1772574216675857200,2.519857177734375,-0.8404073715209961,-1.592291235923767,0.2335491180419922
1772574216685795000,2.529795166015625,-1.2856760025024414,-1.40611732006073,0.35256481170654297
1772574216695728600,2.539728759765625,-1.6134090423583984,-1.2773189544677734,0.4315800666809082
1772574216705644800,2.549644775390625,-1.8583650588989258,-1.2442097663879395,0.47248220443725586
1772574216715576800,2.559576904296875,-2.0693254470825195,-1.1781587600708008,0.4918203353881836
1772574216725510400,2.569510498046875,-2.256258010864258,-1.0987598896026611,0.4884958267211914
1772574216735442400,2.5794423828125,-2.4810657501220703,-1.0015580654144287,0.4533195495605469
1772574216745374000,2.5893740234375,-2.686923027038574,-0.8750462532043457,0.36316370964050293
1772574216755306000,2.599305908203125,-2.741138458251953,-0.8125402927398682,0.22797846794128418
1772574216765239300,2.6092392578125,-2.7731056213378906,-0.8087975978851318,0.08143091201782227
1772574216775171600,2.619171630859375,-2.8875951766967773,-0.8208963871002197,0.03826618194580078
1772574216785108500,2.6291083984375,-2.9227242469787598,-0.7715315818786621,0.0400242805480957
1772574216795041000,2.639041015625,-2.9364867210388184,-0.6549887657165527,0.057810068130493164
1772574216804977400,2.648977294921875,-2.886967182159424,-0.49846839904785156,0.09060788154602051
1772574216814910200,2.65891015625,-2.7084360122680664,-0.43499183654785156,0.16030216217041016
1772574216824839700,2.668839599609375,-2.4310522079467773,-0.34035491943359375,0.30556511878967285
1772574216834772200,2.678772216796875,-1.8842525482177734,-0.26764440536499023,0.42635488510131836
1772574216844697600,2.688697509765625,-1.2023353576660156,-0.23848772048950195,0.4509236812591553
1772574216854629600,2.698629638671875,-0.5323524475097656,-0.31319308280944824,0.599639892578125
1772574216864561200,2.70856103515625,0.0901041030883789,-0.3639388084411621,0.911643385887146
1772574216874493200,2.7184931640625,0.7246627807617188,-0.3497910499572754,1.1840800046920776
1772574216884432400,2.728432373046875,1.4927129745483398,-0.23778033256530762,1.3264474868774414
1772574216894365000,2.738364990234375,2.3625688552856445,-0.11585664749145508,1.476649522781372
1772574216904285000,2.748284912109375,3.158999443054199,-0.0836496353149414,1.652048110961914
1772574216914216200,2.75821630859375,3.706488609313965,-0.13234186172485352,1.8224797248840332
1772574216924153000,2.768153076171875,3.862912178039551,-0.15402984619140625,1.8028225898742676
1772574216934085000,2.778085205078125,3.8051843643188477,-0.017069578170776367,1.6215660572052002
1772574216944013800,2.788013916015625,3.7283973693847656,0.1852574348449707,1.4803485870361328
1772574216953945300,2.7979453125,3.5749101638793945,0.2925229072570801,1.518722414970398
1772574216963881700,2.8078818359375,3.463473320007324,0.4369187355041504,1.614084005355835
1772574216973813800,2.817813720703125,3.5832223892211914,0.5988349914550781,1.5584348440170288
1772574216983741700,2.82774169921875,3.919003486633301,0.7854571342468262,1.3833926916122437
1772574216993673200,2.837673095703125,4.228757858276367,0.901921272277832,1.370871901512146
1772574217003615700,2.84761572265625,4.177084922790527,1.1075434684753418,1.5777069330215454
1772574217013548500,2.857548583984375,3.351785659790039,1.4559907913208008,1.7387020587921143
1772574217023467000,2.867467041015625,2.081051826477051,1.8177456855773926,1.617995262145996
1772574217033398300,2.877398193359375,1.0026884078979492,2.164188861846924,1.3597906827926636
1772574217043334700,2.887334716796875,0.3182525634765625,2.227047920227051,1.1380470991134644
1772574217053266400,2.897266357421875,0.1399250030517578,1.7726740837097168,0.9253672361373901
1772574217063204600,2.90720458984375,0.5823097229003906,0.9296059608459473,0.7815629839897156
1772574217073137000,2.917136962890625,1.5400896072387695,0.060967445373535156,0.6127333641052246
1772574217083035400,2.927035400390625,2.6030378341674805,-0.7554211616516113,0.29616624116897583
1772574217092964400,2.93696435546875,3.502375602722168,-1.6649649143218994,-0.1671125888824463
1772574217102926800,2.9469267578125,3.9806690216064453,-2.513742446899414,-0.6548748016357422
1772574217112859100,2.956859130859375,3.178156852722168,-3.363682985305786,-0.9727669954299927
1772574217122790700,2.966790771484375,2.5483455657958984,-3.5868301391601562,-0.9428573250770569
1772574217132723000,2.976722900390625,2.0131359100341797,-3.465460777282715,-0.3441709280014038
1772574217142659000,2.9866591796875,0.6672658920288086,-3.227626085281372,0.7023739218711853
1772574217152592000,2.996591796875,-0.6888608932495117,-2.609858989715576,1.5432387590408325
1772574217162513200,3.00651318359375,-1.4499225616455078,-1.743755578994751,1.9406812191009521
1772574217172444700,3.016444580078125,-1.866128921508789,-0.9604091644287109,2.061816692352295
1772574217182377500,3.02637744140625,-2.207944869995117,-0.4807748794555664,1.9962884187698364
1772574217192309000,3.03630908203125,-2.4055423736572266,-0.38362741470336914,1.8254611492156982
1772574217202250500,3.04625048828125,-2.22601318359375,-0.5774421691894531,1.5445293188095093
1772574217212183000,3.05618310546875,-1.8308534622192383,-0.9223322868347168,1.2121261358261108
1772574217222096600,3.0660966796875,-1.4135169982910156,-1.232365369796753,0.9930857419967651
1772574217232027100,3.076027099609375,-1.1050634384155273,-1.4217607975006104,0.93431556224823
1772574217241952300,3.0859521484375,-0.850639820098877,-1.5184786319732666,1.0283403396606445
1772574217251882500,3.095882568359375,-0.5578975677490234,-1.5591914653778076,1.2439512014389038
1772574217261816300,3.10581640625,-0.3640451431274414,-1.5421016216278076,1.523190975189209
1772574217271746800,3.115746826171875,-0.5490751266479492,-1.4463527202606201,1.7686926126480103
1772574217281711000,3.125711181640625,-1.073610782623291,-1.3391001224517822,1.8168340921401978
1772574217291645200,3.135645263671875,-1.6658611297607422,-1.2079827785491943,1.650977373123169
1772574217301561300,3.145561279296875,-2.284597396850586,-1.1395609378814697,1.3430172204971313
1772574217311493600,3.15549365234375,-2.8408775329589844,-1.1106245517730713,1.023654818534851
1772574217321425000,3.1654248046875,-3.25044584274292,-1.0606510639190674,0.7565193772315979
1772574217331357200,3.175357177734375,-3.514522075653076,-0.9928562641143799,0.5503382682800293
1772574217341290500,3.18529052734375,-3.6096720695495605,-0.9360828399658203,0.3944842219352722
1772574217351222800,3.195222900390625,-3.63120698928833,-0.8537464141845703,0.346090704202652
1772574217361133000,3.205133056640625,-3.473475933074951,-0.7578883171081543,0.4270614683628082
1772574217371063000,3.21506298828125,-3.169546604156494,-0.6368598937988281,0.5699198842048645
1772574217381004300,3.22500439453125,-2.8385744094848633,-0.36838388442993164,0.7830120325088501
1772574217390935600,3.234935546875,-2.4420318603515625,-0.07294464111328125,0.9268494844436646
1772574217400870100,3.2448701171875,-2.056473731994629,0.22593975067138672,0.9687131643295288
1772574217410801700,3.2548017578125,-1.7678890228271484,0.5434961318969727,0.920636773109436
1772574217420767200,3.264767333984375,-1.5680427551269531,0.8783726692199707,0.7645952105522156
1772574217430702300,3.274702392578125,-0.9133925437927246,1.3758249282836914,0.6750485897064209
1772574217440592600,3.284592529296875,-0.4720315933227539,1.6891393661499023,0.6117466688156128
1772574217450523100,3.294523193359375,0.08589839935302734,1.9580049514770508,0.5493319034576416
1772574217460451600,3.30445166015625,0.6126899719238281,1.9762215614318848,0.30769091844558716
1772574217470381800,3.3143818359375,1.1618366241455078,1.8907151222229004,-0.06163272261619568
1772574217480320000,3.324320068359375,1.630110740661621,1.8650882244110107,-0.3608851730823517
1772574217490251300,3.334251220703125,1.928877830505371,2.1055073738098145,-0.5732629299163818
1772574217500180500,3.344180419921875,2.0317516326904297,2.5552687644958496,-0.6098828315734863
1772574217510111200,3.354111328125,1.8588476181030273,3.016632556915283,-0.7176876068115234
1772574217520078800,3.364078857421875,1.7008495330810547,3.314462900161743,-1.0634357929229736
1772574217530013400,3.374013427734375,1.6801929473876953,3.283159017562866,-1.4184837341308594
1772574217539942100,3.383942138671875,1.9916458129882812,2.9560494422912598,-1.7098126411437988
1772574217549876200,3.393876220703125,2.5204668045043945,2.612199544906616,-1.8558528423309326
1772574217559790000,3.4037900390625,2.9856624603271484,2.377685546875,-1.9365487098693848
1772574217569722000,3.41372216796875,3.235912322998047,2.194394826889038,-2.133324146270752
1772574217579655400,3.423655517578125,3.3241262435913086,2.017577648162842,-2.5743162631988525
1772574217589587700,3.433587646484375,3.5459089279174805,2.023376941680908,-3.1382832527160645
1772574217599529200,3.443529296875,3.3192710876464844,2.064563274383545,-3.2679998874664307
1772574217609462300,3.453462158203125,2.606348991394043,1.9063820838928223,-2.9845237731933594
1772574217619363600,3.463363525390625,1.8629989624023438,1.7862591743469238,-2.64937162399292
1772574217629293300,3.473293212890625,1.429610252380371,1.8577847480773926,-2.6208019256591797
1772574217639247400,3.483247314453125,1.1416025161743164,1.8830265998840332,-2.8525826930999756
1772574217649179600,3.4931796875,0.9687528610229492,1.7664885520935059,-2.9680051803588867
1772574217659111000,3.50311083984375,1.0472478866577148,1.4513278007507324,-2.733355760574341
1772574217669043200,3.513043212890625,1.5239105224609375,0.9221286773681641,-2.438354253768921
1772574217678977000,3.52297705078125,2.109189033508301,0.26954174041748047,-2.3383092880249023
1772574217688909600,3.53290966796875,2.46346378326416,-0.41724252700805664,-2.2330381870269775
1772574217698846500,3.542846435546875,2.4294004440307617,-1.0437147617340088,-2.1028707027435303
1772574217708779300,3.552779296875,1.9865436553955078,-1.5118811130523682,-1.938457727432251
1772574217718701800,3.562701904296875,1.131291389465332,-1.9019920825958252,-1.7491282224655151
1772574217728633600,3.572633544921875,0.06296730041503906,-2.205435276031494,-1.5571988821029663
1772574217738570000,3.582570068359375,-0.8355574607849121,-2.3544764518737793,-1.3358734846115112
1772574217748502300,3.592502197265625,-1.363107681274414,-2.2925572395324707,-1.1088091135025024
1772574217758442500,3.6024423828125,-1.7181892395019531,-2.0317704677581787,-0.8807175159454346
1772574217768375600,3.61237548828125,-1.8594303131103516,-1.6894299983978271,-0.6715825200080872
1772574217778294300,3.622294189453125,-1.6596908569335938,-1.4015953540802002,-0.6258828043937683
1772574217788225800,3.632225830078125,-1.1051368713378906,-1.3165829181671143,-0.6692731380462646
1772574217798159400,3.642159423828125,-0.4085712432861328,-1.453265905380249,-0.6810101866722107
1772574217808091100,3.652091064453125,0.04326343536376953,-1.6906778812408447,-0.4291137456893921
1772574217818033200,3.662033203125,0.01679515838623047,-1.9689548015594482,-0.38755977153778076
1772574217827966000,3.671966064453125,-0.2556009292602539,-2.1431801319122314,-0.55955970287323
1772574217837901300,3.6819013671875,-0.6159234046936035,-2.280273914337158,-0.7358324527740479
1772574217847834400,3.69183447265625,-1.0075273513793945,-2.3791303634643555,-0.7859725952148438
1772574217857750000,3.70175,-1.4933338165283203,-2.366483688354492,-0.6059274673461914
1772574217867681500,3.711681640625,-2.069835662841797,-2.177555799484253,-0.2620118260383606
1772574217877626600,3.721626708984375,-2.6294679641723633,-1.8659465312957764,0.1337032914161682
1772574217887559200,3.73155908203125,-3.075009822845459,-1.6132609844207764,0.441728800535202
1772574217897477600,3.7414775390625,-3.462498188018799,-1.4569087028503418,0.5592318773269653
1772574217907408600,3.75140869140625,-3.665830135345459,-1.4258503913879395,0.5161691308021545
1772574217917405400,3.761405517578125,-3.615304470062256,-1.4510507583618164,0.4493905305862427
1772574217927343400,3.77134326171875,-3.2963786125183105,-1.4531183242797852,0.3795931935310364
1772574217937208600,3.78120849609375,-2.9694972038269043,-1.4655070304870605,0.32565417885780334
1772574217947139000,3.79113916015625,-2.623504638671875,-1.3570504188537598,0.3157874047756195
1772574217957069000,3.801069091796875,-2.242337226867676,-1.116203784942627,0.39221206307411194
1772574217966999600,3.81099951171875,-2.0257225036621094,-0.9210100173950195,0.4552706778049469
1772574217976933000,3.82093310546875,-1.8350963592529297,-0.7083554267883301,0.5180273056030273
1772574217986863900,3.83086376953125,-1.4319572448730469,-0.4203071594238281,0.5623579025268555
1772574217996796000,3.8407958984375,-1.0309324264526367,-0.19200420379638672,0.5706593990325928
1772574218006727000,3.850726806640625,-0.744987964630127,-0.17885684967041016,0.38487499952316284
1772574218016674600,3.860674560546875,-0.38625144958496094,-0.18248319625854492,0.12374815344810486
1772574218026607000,3.870607177734375,0.10878181457519531,-0.17296838760375977,-0.14731135964393616
1772574218036527000,3.880527099609375,0.6554985046386719,-0.06770849227905273,-0.26169687509536743
1772574218046458400,3.890458251953125,0.8977909088134766,-0.04247713088989258,-0.2530370354652405
1772574218056383500,3.900383544921875,0.9560165405273438,0.017478466033935547,-0.10530686378479004
1772574218066314000,3.91031396484375,0.8193292617797852,0.08681201934814453,0.05245155096054077
1772574218076255500,3.92025537109375,0.6763772964477539,0.21361827850341797,0.1606961488723755
1772574218086187300,3.930187255859375,0.6059904098510742,0.39679670333862305,0.3684855103492737
1772574218096116200,3.9401162109375,0.6633243560791016,0.5339932441711426,0.628476619720459
1772574218106047700,3.9500478515625,0.8757209777832031,0.6028265953063965,0.8913966417312622
1772574218115980500,3.95998046875,1.1665143966674805,0.6225366592407227,1.0258532762527466
1772574218125912000,3.969912109375,1.4213104248046875,0.6738471984863281,1.0193456411361694
1772574218135821600,3.979821533203125,1.6595697402954102,0.7085685729980469,0.9065722227096558
1772574218145751000,3.9897509765625,1.79559326171875,0.6260757446289062,0.9172059893608093
1772574218155719200,3.99971923828125,1.915909767150879,0.4545001983642578,1.030171513557434
1772574218165652500,4.009652587890625,2.2885351181030273,0.364962100982666,1.2351875305175781
1772574218175574300,4.01957421875,2.6523513793945312,0.33523035049438477,1.5185197591781616
1772574218185506600,4.029506591796875,2.587458610534668,0.04445600509643555,1.5403428077697754
1772574218195447000,4.039447021484375,3.0861377716064453,0.16486597061157227,1.3770054578781128
1772574218205379800,4.0493798828125,3.2578935623168945,0.36978578567504883,1.1662191152572632
1772574218215301600,4.059301513671875,2.908474922180176,0.5380620956420898,1.1306710243225098
1772574218225233400,4.0692333984375,2.523653030395508,0.6829142570495605,1.545088529586792
1772574218235164700,4.07916455078125,2.2458267211914062,0.8962879180908203,1.9852206707000732
1772574218245096700,4.0890966796875,1.826786994934082,1.1064567565917969,2.2401480674743652
1772574218255048400,4.09904833984375,1.3755216598510742,1.1678037643432617,2.2592763900756836
1772574218264982300,4.108982177734375,1.1613664627075195,1.0661897659301758,2.040773391723633
1772574218274891800,4.118891845703125,1.2626800537109375,0.6147499084472656,1.8005638122558594
1772574218284823000,4.128822998046875,1.6115331649780273,-0.24192380905151367,1.5994207859039307
1772574218294763000,4.138762939453125,2.042022705078125,-1.176051139831543,1.2006067037582397
1772574218304695300,4.1486953125,2.5196123123168945,-1.8259494304656982,0.6633239984512329
1772574218314632200,4.158632080078125,2.9542837142944336,-1.9861204624176025,0.09214824438095093
1772574218324564700,4.168564697265625,2.517019271850586,-2.1312901973724365,0.2039395570755005
1772574218334485000,4.178485107421875,1.3335332870483398,-2.1807172298431396,0.7628084421157837
1772574218344416500,4.18841650390625,0.1684865951538086,-1.8820507526397705,1.228696584701538
1772574218354367500,4.198367431640625,-0.9392518997192383,-1.586524248123169,1.5772655010223389
1772574218364301000,4.208301025390625,-1.9798583984375,-1.2430849075317383,1.6459661722183228
1772574218374213000,4.218213134765625,-2.782196521759033,-0.8059244155883789,1.4467625617980957
1772574218384144400,4.228144287109375,-3.164172649383545,-0.36208629608154297,1.1467244625091553
1772574218394091000,4.238091064453125,-3.323880672454834,-0.08733034133911133,0.9445475339889526
1772574218404024000,4.248024169921875,-3.329267978668213,-0.15236854553222656,0.8836424350738525
1772574218413951200,4.257951171875,-3.0517916679382324,-0.2884526252746582,0.8498326539993286
1772574218423883500,4.267883544921875,-2.6864256858825684,-0.5149350166320801,0.8161311149597168
1772574218433816000,4.277816162109375,-2.3270750045776367,-0.7988166809082031,0.9464235305786133
1772574218443748400,4.287748291015625,-1.9330644607543945,-0.9125857353210449,0.9772541522979736
1772574218453669600,4.297669677734375,-1.5348377227783203,-0.883974552154541,0.982843279838562
1772574218463601000,4.307600830078125,-1.1578073501586914,-0.8853855133056641,1.0766490697860718
1772574218473530400,4.3175302734375,-0.8370060920715332,-0.826378345489502,1.4147181510925293
1772574218483438600,4.3274384765625,-0.8033146858215332,-0.8945355415344238,1.5499114990234375
1772574218503330600,4.34733056640625,-0.7839493751525879,-0.8926465511322021,1.7331677675247192
1772574218513264600,4.3572646484375,-0.9648785591125488,-0.9946677684783936,1.7595603466033936
1772574218523192300,4.3671923828125,-1.1892681121826172,-0.9636585712432861,1.6631089448928833
1772574218533125600,4.377125732421875,-1.4342565536499023,-0.9524862766265869,1.5463237762451172
1772574218543056600,4.387056640625,-1.6720094680786133,-0.9362084865570068,1.3801963329315186
1772574218552989700,4.39698974609375,-1.7131967544555664,-0.8547801971435547,1.1203372478485107
1772574218562898200,4.406898193359375,-1.5304203033447266,-0.6541047096252441,0.9628040194511414
1772574218572829000,4.416828857421875,-1.2275547981262207,-0.4119570255279541,0.9523070454597473
1772574218582798000,4.426798095703125,-1.027534008026123,-0.2688143253326416,0.74088454246521
1772574218592732700,4.436732666015625,-0.9765973091125488,-0.20530176162719727,0.5139487385749817
1772574218602651600,4.446651611328125,-1.283400058746338,-0.22173237800598145,0.1781395673751831
1772574218612584700,4.456584716796875,-1.7151117324829102,-0.15805816650390625,-0.2200683355331421
1772574218622514200,4.46651416015625,-1.9874629974365234,0.03687763214111328,-0.41045331954956055
1772574218632446700,4.47644677734375,-2.1310997009277344,0.23641085624694824,-0.5165009498596191
1772574218642354000,4.48635400390625,-2.008747100830078,0.533843994140625,-0.6430021524429321
1772574218652284000,4.496283935546875,-1.7116384506225586,0.7814388275146484,-0.6920163631439209
1772574218662222600,4.50622265625,-1.316211223602295,1.0082716941833496,-0.7460176944732666
1772574218672153600,4.516153564453125,-0.822047233581543,1.2190015316009521,-0.6998426914215088
1772574218682082000,4.52608203125,-0.3666877746582031,1.3783996105194092,-0.7068527936935425
1772574218692012800,4.5360126953125,-0.0926980972290039,1.5466742515563965,-0.9682682156562805
1772574218701944600,4.545944580078125,0.07685565948486328,1.680490255355835,-1.0820040702819824
1772574218711875300,4.555875244140625,0.30457496643066406,1.7706279754638672,-1.0807175636291504
1772574218721810700,4.565810791015625,0.49954986572265625,1.8268532752990723,-1.1024062633514404
1772574218731742000,4.575741943359375,0.7760629653930664,1.8499689102172852,-1.2819836139678955
1772574218741699600,4.585699462890625,1.2387399673461914,1.7870993614196777,-1.3700685501098633
1772574218751633700,4.595633544921875,1.7726354598999023,1.6178603172302246,-1.3663740158081055
1772574218761564000,4.60556396484375,2.278188705444336,1.3630621433258057,-1.3511571884155273
1772574218771497500,4.61549755859375,2.5709400177001953,1.0466768741607666,-1.2732640504837036
1772574218781421800,4.625421875,2.7336339950561523,0.8854732513427734,-1.301674723625183
1772574218791354400,4.635354248046875,3.000457763671875,1.027193546295166,-1.619386911392212
1772574218801266000,4.645265869140625,3.132227897644043,1.5253403186798096,-2.2163634300231934
1772574218811196700,4.65519677734375,2.928945541381836,1.7584075927734375,-2.009866237640381
1772574218821112600,4.665112548828125,2.60430908203125,1.1669392585754395,-0.8424991369247437
1772574218831041500,4.67504150390625,2.7197952270507812,0.6366763114929199,-0.15567368268966675
1772574218840992500,4.684992431640625,3.0313873291015625,0.6317706108093262,0.0182192325592041
1772574218850923800,4.694923828125,3.1236629486083984,0.7267637252807617,-0.09914785623550415
1772574218860855800,4.704855712890625,3.0245323181152344,0.6615843772888184,-0.559359073638916
1772574218870787000,4.714787109375,2.933072090148926,0.45963120460510254,-1.2443277835845947
1772574218880757200,4.72475732421875,2.958195686340332,0.013019561767578125,-1.9249250888824463
1772574218890692600,4.734692626953125,3.0143308639526367,-0.5310194492340088,-2.4509687423706055
1772574218900606700,4.744606689453125,3.098936080932617,-0.9283239841461182,-2.7177047729492188
1772574218910539800,4.754539794921875,2.665681838989258,-1.3990321159362793,-2.901578664779663
1772574218920472000,4.76447216796875,1.616262435913086,-1.7096195220947266,-3.042919635772705
1772574218930405000,4.774405029296875,0.33745384216308594,-1.890937328338623,-2.866546869277954
1772574218940336600,4.784336669921875,-0.8537683486938477,-1.899385929107666,-2.4429659843444824
1772574218950269400,4.79426953125,-1.7228364944458008,-1.7914237976074219,-1.865172266960144
1772574218960205000,4.804205078125,-2.1161069869995117,-1.6057310104370117,-1.3079386949539185
1772574218970138400,4.814138427734375,-2.016704559326172,-1.2268030643463135,-0.8747298717498779
1772574218980068600,4.824068603515625,-1.5538358688354492,-0.8435099124908447,-0.5031790733337402
1772574218990001400,4.83400146484375,-0.9312963485717773,-0.6415283679962158,-0.18966728448867798
1772574218999927600,4.843927490234375,-0.31371212005615234,-0.548295259475708,-0.0515177845954895
1772574219009859600,4.853859619140625,0.1632986068725586,-0.7589750289916992,0.057381391525268555
1772574219019790300,4.863790283203125,0.5070295333862305,-1.023465633392334,-0.06384730339050293
1772574219029722400,4.873722412109375,0.7052116394042969,-1.1491494178771973,-0.4206521511077881
1772574219039668700,4.883668701171875,0.7070732116699219,-1.211399793624878,-0.8538233637809753
1772574219049602000,4.89360205078125,0.4378328323364258,-1.2089653015136719,-1.1399385929107666
1772574219059520500,4.9035205078125,-0.09662437438964844,-1.1580817699432373,-1.128408670425415
1772574219069452500,4.91345263671875,-0.7915706634521484,-1.1860530376434326,-0.9797714948654175
1772574219079383800,4.9233837890625,-1.4717302322387695,-1.2222557067871094,-0.8221468925476074
1772574219089315600,4.933315673828125,-2.019627571105957,-1.277486801147461,-0.5880224704742432
1772574219099259000,4.9432587890625,-2.575611114501953,-1.4109346866607666,-0.21829205751419067
1772574219109192000,4.95319189453125,-2.8837690353393555,-1.436739206314087,0.05015861988067627
1772574219119111000,4.96311083984375,-2.8026161193847656,-1.4190330505371094,0.17068052291870117
1772574219129042400,4.97304248046875,-2.5621118545532227,-1.4720516204833984,0.26284486055374146
1772574219138975700,4.982975830078125,-2.2568817138671875,-1.5309524536132812,0.3730754852294922
1772574219148907500,4.992907470703125,-1.9473228454589844,-1.4512920379638672,0.45655331015586853
1772574219158840300,5.00284033203125,-1.7559642791748047,-1.2652711868286133,0.5071038603782654
1772574219168772000,5.012772216796875,-1.7913932800292969,-0.9989302158355713,0.5363534688949585
1772574219178699800,5.02269970703125,-1.952834129333496,-0.7909905910491943,0.5481270551681519
1772574219188631000,5.032631103515625,-2.188201904296875,-0.64475417137146,0.4302404224872589
1772574219198563800,5.042563720703125,-2.412525177001953,-0.49622488021850586,0.29283052682876587
1772574219208495400,5.052495361328125,-2.4789552688598633,-0.28629398345947266,0.19835031032562256
1772574219218443500,5.062443603515625,-2.3695316314697266,-0.0708620548248291,0.1603461503982544
1772574219228376800,5.072376953125,-2.089959144592285,0.022754430770874023,0.10968977212905884
1772574219238300000,5.0822998046875,-1.7645320892333984,0.05684351921081543,-0.041297733783721924
1772574219248232000,5.09223193359375,-1.3878822326660156,0.10653543472290039,-0.3153972029685974
1772574219258168000,5.10216796875,-0.9828410148620605,0.21706819534301758,-0.5969100594520569
1772574219268100600,5.1121005859375,-0.5628042221069336,0.3384971618652344,-0.7701940536499023
1772574219278035500,5.122035400390625,-0.27523136138916016,0.4028148651123047,-0.6908493041992188
1772574219287968500,5.131968505859375,-0.13895702362060547,0.4346923828125,-0.45271939039230347
1772574219297883100,5.141883056640625,-0.049480438232421875,0.5081229209899902,-0.17036288976669312
1772574219307814400,5.151814453125,0.11609554290771484,0.5925388336181641,0.03606688976287842
1772574219317751600,5.16175146484375,0.37592601776123047,0.6559610366821289,0.22803276777267456
1772574219327683000,5.17168310546875,0.5860767364501953,0.6131801605224609,0.524211049079895
1772574219337627600,5.181627685546875,0.7508077621459961,0.594261646270752,0.6496127247810364
1772574219347560400,5.191560546875,0.9408159255981445,0.5911355018615723,0.7114255428314209
1772574219357474300,5.201474365234375,1.1550779342651367,0.6292824745178223,0.8660197854042053
1772574219367405300,5.2114052734375,1.4407262802124023,0.6338996887207031,0.9675567150115967
1772574219377346600,5.2213466796875,1.8213119506835938,0.6059856414794922,1.0422453880310059
1772574219387278600,5.231278564453125,2.2497339248657227,0.5824308395385742,1.1200553178787231
1772574219397187000,5.24118701171875,2.7517528533935547,0.5258145332336426,1.2441545724868774
1772574219407116800,5.25111669921875,3.0761423110961914,0.3648238182067871,1.3087434768676758
1772574219417056800,5.261056884765625,3.377854347229004,0.37300825119018555,1.4757838249206543
1772574219426987500,5.270987548828125,3.625539779663086,0.7657253742218018,1.4368078708648682
1772574219436931600,5.280931640625,3.6442270278930664,1.3666162490844727,1.2217141389846802
1772574219446863600,5.290863525390625,3.3823022842407227,1.5291812419891357,1.455331802368164
1772574219456808700,5.30080859375,3.2586936950683594,1.2768135070800781,1.849623203277588
1772574219466742000,5.310741943359375,3.2580060958862305,1.0422353744506836,1.7408807277679443
1772574219476662800,5.320662841796875,2.9662036895751953,0.9004325866699219,1.3099550008773804
1772574219486595000,5.330594970703125,2.288900375366211,0.8896417617797852,1.0372693538665771
1772574219496483300,5.3404833984375,1.4533395767211914,0.9999756813049316,0.8872217535972595
1772574219516390400,5.360390380859375,0.001861572265625,0.287905216217041,1.4347283840179443
1772574219526326300,5.370326171875,0.1176156997680664,-0.27177953720092773,1.4192858934402466
1772574219536265000,5.380264892578125,0.7622594833374023,-1.0105946063995361,1.2311087846755981
1772574219546201000,5.390201171875,1.6195764541625977,-1.7883880138397217,0.8511027097702026
1772574219556123000,5.400122802734375,2.3954381942749023,-2.198427200317383,0.41253769397735596
1772574219566057500,5.410057373046875,2.9534521102905273,-2.1799144744873047,0.18411338329315186
1772574219575980000,5.41997998046875,2.926568031311035,-2.071578025817871,0.2552661895751953
1772574219585913600,5.42991357421875,2.427361488342285,-1.9081817865371704,0.5214080810546875
1772574219595846400,5.439846435546875,1.833683967590332,-1.6231820583343506,0.8367663025856018
1772574219605780000,5.449780029296875,1.182840347290039,-1.2722690105438232,0.9132665395736694
1772574219615712800,5.459712646484375,0.4875316619873047,-1.0281643867492676,0.7981874346733093
1772574219625646000,5.46964599609375,-0.2782783508300781,-1.0371243953704834,0.7838017344474792
1772574219635586300,5.47958642578125,-1.069115161895752,-1.1001036167144775,0.8001754879951477
1772574219645520400,5.489520263671875,-1.816014289855957,-1.0749402046203613,0.8031753301620483
1772574219655436300,5.499436279296875,-2.436671257019043,-1.0680384635925293,0.8656309843063354
1772574219665368600,5.50936865234375,-2.715029716491699,-1.1011021137237549,0.953507125377655
1772574219675300600,5.519300537109375,-2.5675764083862305,-1.1365323066711426,1.0737417936325073
1772574219685233000,5.52923291015625,-2.17594051361084,-1.1792967319488525,1.21732759475708
1772574219695164700,5.53916455078125,-1.6908578872680664,-1.1321337223052979,1.3204727172851562
1772574219705096700,5.5490966796875,-1.281721591949463,-1.0278542041778564,1.264958381652832
1772574219715028200,5.5590283203125,-1.0226035118103027,-0.9953324794769287,1.1037532091140747
1772574219724960300,5.568960205078125,-0.8877229690551758,-1.0251562595367432,1.0275846719741821
1772574219734891300,5.578891357421875,-0.9373989105224609,-1.0418572425842285,1.0961394309997559
1772574219744823300,5.5888232421875,-1.117795467376709,-0.9344995021820068,1.2190762758255005
1772574219754730800,5.598730712890625,-1.2903895378112793,-0.6756916046142578,1.1013712882995605
1772574219764660500,5.608660400390625,-1.4511547088623047,-0.5040936470031738,1.0901079177856445
1772574219774633500,5.618633544921875,-1.6011762619018555,-0.4321575164794922,1.2455264329910278
1772574219784567300,5.6285673828125,-1.6266107559204102,-0.34898829460144043,1.2595161199569702
1772574219794496800,5.638496826171875,-1.641953468322754,-0.21229815483093262,1.148197889328003
1772574219804430300,5.648430419921875,-1.7087030410766602,-0.09547996520996094,0.9552041292190552
1772574219814327800,5.658327880859375,-1.7556819915771484,0.001956939697265625,0.65958172082901
1772574219824257500,5.668257568359375,-1.731034278869629,0.023439884185791016,0.3313254117965698
1772574219834188800,5.678188720703125,-1.6534099578857422,-0.06550884246826172,0.033482909202575684
1772574219844118800,5.688118896484375,-1.6129131317138672,-0.12210774421691895,-0.24579370021820068
1772574219854088200,5.698088134765625,-1.5804929733276367,-0.08931589126586914,-0.5054622888565063
1772574219864022300,5.708022216796875,-1.603877067565918,-0.0101165771484375,-0.6831537485122681
1772574219873916200,5.717916259765625,-1.5493993759155273,0.08263015747070312,-0.8842684030532837
1772574219883846000,5.727845947265625,-1.5941047668457031,0.21828508377075195,-0.8837795257568359
1772574219893798100,5.737798095703125,-1.6476821899414062,0.4043278694152832,-0.7662557363510132
1772574219903730200,5.747730224609375,-1.6584291458129883,0.6442477703094482,-0.7102872133255005
1772574219913647000,5.757647216796875,-1.6080331802368164,0.8643820285797119,-0.7126061916351318
1772574219923577600,5.76757763671875,-1.4539785385131836,1.1093144416809082,-0.7514556646347046
1772574219933541400,5.777541259765625,-1.1345038414001465,1.3605256080627441,-0.8486932516098022
1772574219943475500,5.787475341796875,-0.7353715896606445,1.5691237449645996,-0.9353193044662476
1772574219953374000,5.7973740234375,-0.42754077911376953,1.6754419803619385,-0.9614855051040649
1772574219963304400,5.807304443359375,-0.33406639099121094,1.758957862854004,-0.931039571762085
1772574219973262600,5.8172626953125,-0.32556915283203125,1.8569228649139404,-1.096491813659668
1772574219983196000,5.82719580078125,-0.2637157440185547,1.948937177658081,-1.2203272581100464
1772574219993134800,5.837134765625,-0.06308555603027344,2.038925886154175,-1.2888600826263428
1772574220003068700,5.847068603515625,0.26613521575927734,2.0786359310150146,-1.3339745998382568
1772574220012995800,5.856995849609375,0.5093345642089844,1.9709014892578125,-1.389127492904663
1772574220022929200,5.86692919921875,0.6386938095092773,1.739166498184204,-1.4950716495513916
1772574220032850700,5.8768505859375,0.8019380569458008,1.4907007217407227,-1.6892582178115845
1772574220042782700,5.88678271484375,1.208169937133789,1.2516305446624756,-1.996195912361145
1772574220052713700,5.896713623046875,1.9381561279296875,1.0217230319976807,-2.3910884857177734
1772574220062645800,5.906645751953125,2.8451156616210938,1.0653645992279053,-3.0110490322113037
1772574220072578000,5.916578125,3.397280693054199,1.14237642288208,-3.458962917327881
1772574220082510000,5.926510009765625,3.420964241027832,0.814385175704956,-3.3448495864868164
1772574220092429600,5.9364296875,3.2029333114624023,0.43804073333740234,-2.8268232345581055
1772574220102360300,5.9463603515625,2.961052894592285,0.46307826042175293,-2.415940284729004
1772574220112306200,5.95630615234375,2.5310535430908203,0.679203987121582,-2.1112027168273926
1772574220122238500,5.966238525390625,1.9342260360717773,1.021677017211914,-1.6171115636825562
1772574220132174000,5.976174072265625,1.3626651763916016,1.2644333839416504,-1.2243133783340454
1772574220142106600,5.986106689453125,1.1889972686767578,1.3771934509277344,-1.2827527523040771
1772574220152045600,5.996045654296875,1.4678516387939453,1.0800316333770752,-1.6570522785186768
1772574220161979000,6.005978759765625,1.9720268249511719,0.28496265411376953,-2.179791212081909
1772574220171896800,6.015896728515625,2.296128273010254,-0.6417908668518066,-2.6373801231384277
1772574220181828400,6.025828369140625,2.192737579345703,-1.2856295108795166,-2.964456081390381
1772574220191762000,6.035761962890625,1.6851749420166016,-1.5731806755065918,-3.0740768909454346
1772574220201693700,6.045693603515625,0.8080682754516602,-1.6700655221939087,-2.859694242477417
1772574220211625700,6.055625732421875,-0.14020061492919922,-1.7398284673690796,-2.3097105026245117
1772574220221557800,6.065557861328125,-0.8685417175292969,-1.6980663537979126,-1.7041044235229492
1772574220231493000,6.0754931640625,-1.256925106048584,-1.5140697956085205,-1.197760820388794
1772574220241425200,6.085425048828125,-1.3935298919677734,-1.2082762718200684,-0.8703708648681641
1772574220251356400,6.0953564453125,-1.2796473503112793,-0.8550937175750732,-0.7920434474945068
1772574220261288400,6.105288330078125,-0.9394316673278809,-0.6035654544830322,-0.8001518249511719
1772574220271232500,6.115232421875,-0.4820976257324219,-0.5476181507110596,-0.7622146606445312
1772574220281165800,6.125165771484375,0.008550643920898438,-0.7115750312805176,-0.7216918468475342
1772574220291081000,6.1350810546875,0.2730684280395508,-0.962113618850708,-0.7231192588806152
1772574220301012200,6.14501220703125,0.4626436233520508,-1.1398017406463623,-0.6137030124664307
1772574220310958000,6.1549580078125,0.6087150573730469,-1.1612467765808105,-0.49196672439575195
1772574220320891000,6.164890869140625,0.6943845748901367,-1.0764501094818115,-0.4278109073638916
1772574220330795300,6.174795166015625,0.5973663330078125,-0.9866859912872314,-0.14108026027679443
1772574220340725500,6.1847255859375,0.10914230346679688,-0.9957447052001953,0.38646697998046875
1772574220350686500,6.1946865234375,-0.7419443130493164,-0.9025068283081055,0.9720743894577026
1772574220360619800,6.204619873046875,-1.5767583847045898,-0.6705212593078613,1.3017446994781494
1772574220370541600,6.21454150390625,-2.1796627044677734,-0.4460475444793701,1.3267600536346436
1772574220380473600,6.2244736328125,-2.5542078018188477,-0.39649415016174316,1.1808058023452759
1772574220390405000,6.234405029296875,-2.6451988220214844,-0.4775424003601074,1.0402095317840576
1772574220400337200,6.244337158203125,-2.472597122192383,-0.6624736785888672,0.9860034584999084
1772574220410278100,6.254278076171875,-2.221546173095703,-0.8842737674713135,0.9072524309158325
1772574220420211200,6.264211181640625,-2.038311004638672,-0.9850716590881348,0.8522988557815552
1772574220430130400,6.27413037109375,-1.9118366241455078,-0.9872386455535889,0.7547565698623657
1772574220440062200,6.284062255859375,-1.7935056686401367,-0.9492537975311279,0.6734682321548462
1772574220449993200,6.2939931640625,-1.6824026107788086,-0.8765966892242432,0.6253111362457275
1772574220459924700,6.3039248046875,-1.6875944137573242,-0.8033080101013184,0.5548484325408936
1772574220469857800,6.31385791015625,-1.7512531280517578,-0.7444524765014648,0.4851827621459961
1772574220479789300,6.323789306640625,-1.8644866943359375,-0.5946247577667236,0.40833985805511475
1772574220489698300,6.3336982421875,-1.9947643280029297,-0.42989373207092285,0.4213920831680298
1772574220509585400,6.35358544921875,-2.1923065185546875,0.06393051147460938,0.3971881866455078
1772574220519519200,6.363519287109375,-2.143726348876953,0.28972315788269043,0.41097021102905273
1772574220529451000,6.373450927734375,-1.9222164154052734,0.4218425750732422,0.4693477153778076
1772574220539384600,6.383384521484375,-1.5567188262939453,0.5273289680480957,0.5251548290252686
1772574220549324300,6.39332421875,-1.0426130294799805,0.5947678089141846,0.552631139755249
1772574220559258600,6.403258544921875,-0.4751243591308594,0.5732789039611816,0.5354251861572266
1772574220569179100,6.41317919921875,0.07075786590576172,0.5026209354400635,0.4693782329559326
1772574220579112000,6.42311181640625,0.5244770050048828,0.34215617179870605,0.4405839443206787
1772574220589054200,6.43305419921875,0.9200305938720703,0.2155132293701172,0.43474650382995605
1772574220598987800,6.44298779296875,1.4011507034301758,0.0854654312133789,0.4399402141571045
1772574220608920000,6.452920166015625,1.9255590438842773,-0.00935983657836914,0.3640928268432617
1772574220618853600,6.462853515625,2.360788345336914,-0.08808040618896484,0.20702481269836426
1772574220628773000,6.472773193359375,2.607969284057617,-0.21352338790893555,0.11970210075378418
1772574220638705200,6.482705078125,2.6482954025268555,-0.30948424339294434,0.1532292366027832
1772574220648633900,6.4926337890625,2.586172103881836,-0.3510472774505615,0.34783458709716797
1772574220658566000,6.50256591796875,2.4149131774902344,-0.30149221420288086,0.6293232440948486
1772574220668503300,6.51250341796875,2.3751306533813477,-0.13189029693603516,0.689105749130249
1772574220678435600,6.522435546875,2.5412845611572266,0.23662328720092773,0.3643474578857422
1772574220688354600,6.5323544921875,2.680241584777832,0.543278694152832,-0.02749347686767578
1772574220698285800,6.542285888671875,2.8175182342529297,0.5979623794555664,-0.30056166648864746
1772574220708224000,6.55222412109375,2.816208839416504,0.5356636047363281,-0.317349910736084
1772574220718155800,6.56215576171875,2.430567741394043,0.4965956211090088,-0.14319634437561035
1772574220728090400,6.57209033203125,1.7518625259399414,0.6404004096984863,0.012572526931762695
1772574220738022400,6.5820224609375,1.220850944519043,0.8639848232269287,0.0758354663848877
1772574220747966700,6.591966796875,0.9233837127685547,0.9312059879302979,0.17306256294250488
1772574220757899800,6.601899658203125,0.7931833267211914,0.6583571434020996,0.5323522090911865
1772574220767820300,6.6118203125,1.0127906799316406,0.12378048896789551,1.0648674964904785
1772574220777752300,6.62175244140625,1.7286748886108398,-0.4781160354614258,1.273425817489624
1772574220787690800,6.631690673828125,2.785665512084961,-1.1036176681518555,1.1569145917892456
1772574220797623600,6.64162353515625,3.798734664916992,-1.6692339181900024,0.9211623668670654
1772574220807550700,6.65155078125,4.665885925292969,-1.927929162979126,0.5553860664367676
1772574220817483000,6.66148291015625,5.130762100219727,-1.9487757682800293,0.16550707817077637
1772574220827407400,6.671407470703125,4.950186729431152,-1.9708633422851562,0.07060647010803223
1772574220837339000,6.6813388671875,4.064960479736328,-1.963064432144165,0.3109867572784424
1772574220847272700,6.691272705078125,2.7223596572875977,-1.84128999710083,0.570817232131958
1772574220857204200,6.701204345703125,1.3378219604492188,-1.6674355268478394,0.7853658199310303
1772574220867140000,6.71114013671875,0.0965118408203125,-1.405400276184082,0.8541300296783447
1772574220877072100,6.721072021484375,-0.924562931060791,-1.0971176624298096,0.849013090133667
1772574220887002600,6.731002685546875,-1.7134599685668945,-0.8585224151611328,0.8932793140411377
1772574220896934700,6.7409345703125,-2.3634567260742188,-0.7480974197387695,1.0053261518478394
1772574220906864600,6.75086474609375,-2.7382373809814453,-0.7628912925720215,1.1655428409576416
1772574220916796400,6.76079638671875,-2.757870674133301,-0.8644678592681885,1.3457512855529785
1772574220926750000,6.77075,-2.494034767150879,-0.9800174236297607,1.5125759840011597
1772574220936683800,6.780683837890625,-2.097844123840332,-1.0883002281188965,1.6420515775680542
1772574220946591200,6.79059130859375,-1.7668867111206055,-1.113053321838379,1.6573312282562256
1772574220956522500,6.8005224609375,-1.622629165649414,-1.131580114364624,1.5881792306900024
1772574220966454000,6.8104541015625,-1.634521484375,-1.1586089134216309,1.4847484827041626
1772574220976385300,6.82038525390625,-1.715825080871582,-1.1167190074920654,1.4098228216171265
1772574220986301400,6.830301513671875,-1.847212791442871,-1.0187528133392334,1.3687211275100708
1772574220996231400,6.8402314453125,-2.014256477355957,-0.7945740222930908,1.4024864435195923
1772574221006165800,6.850165771484375,-2.217562675476074,-0.5636765956878662,1.3896418809890747
1772574221016096000,6.860095947265625,-2.376814842224121,-0.3974623680114746,1.236768364906311
1772574221025993200,6.8699931640625,-2.507534980773926,-0.27671003341674805,1.0696468353271484
1772574221045927200,6.88992724609375,-2.512497901916504,-0.1675095558166504,1.1667649745941162
1772574221055863800,6.89986376953125,-2.2692136764526367,-0.1181800365447998,1.266677975654602
1772574221065754400,6.90975439453125,-1.9892826080322266,0.012645959854125977,1.3101047277450562
1772574221075686400,6.919686279296875,-1.8145456314086914,0.08084702491760254,1.2825201749801636
1772574221085623800,6.929623779296875,-1.6111021041870117,0.12491202354431152,1.1552802324295044
1772574221095556400,6.939556396484375,-1.336085319519043,0.17764997482299805,0.9180865287780762
1772574221105486800,6.94948681640625,-1.046205997467041,0.2894563674926758,0.7242956161499023
1772574221115419100,6.959419189453125,-0.7977657318115234,0.3433690071105957,0.5273319482803345
1772574221125348900,6.969348876953125,-0.6384649276733398,0.4052150249481201,0.306746244430542
1772574221135281000,6.979281005859375,-0.5876588821411133,0.5363001823425293,0.0744180679321289
1772574221145210000,6.989210205078125,-0.47344493865966797,0.6832778453826904,-0.056911468505859375
1772574221155142000,6.999141845703125,-0.3438758850097656,0.8699932098388672,0.007456064224243164
1772574221165096400,7.009096435546875,-0.27535533905029297,1.0543432235717773,0.17279720306396484
1772574221175030800,7.01903076171875,-0.17743873596191406,1.3009617328643799,0.253865122795105
1772574221184960800,7.028960693359375,-0.04090595245361328,1.5402441024780273,0.21439969539642334
1772574221194894600,7.03889453125,0.029832839965820312,1.6818323135375977,0.18253695964813232
1772574221204833000,7.0488330078125,0.030655860900878906,1.7843499183654785,0.10947680473327637
1772574221214767400,7.058767333984375,0.07136058807373047,1.858652114868164,-0.0657050609588623
1772574221224689000,7.06868896484375,0.09457588195800781,1.8234593868255615,-0.2851383686065674
1772574221234621700,7.07862158203125,0.090789794921875,1.7554357051849365,-0.6058626174926758
1772574221244551200,7.08855126953125,0.12167739868164062,1.6741139888763428,-0.8523645401000977
1772574221254483700,7.098483642578125,0.21057891845703125,1.585158109664917,-1.0159258842468262
1772574221264416800,7.108416748046875,0.4665088653564453,1.5524649620056152,-1.068432331085205
1772574221274349600,7.118349609375,0.9264974594116211,1.5862798690795898,-1.1555230617523193
1772574221284290600,7.12829052734375,1.4999103546142578,1.6272928714752197,-1.3201842308044434
1772574221294224000,7.138223876953125,2.083146095275879,1.666745662689209,-1.6084392070770264
1772574221304145700,7.148145751953125,2.634763717651367,1.719510555267334,-2.1057517528533936
1772574221314078000,7.158077880859375,2.9616498947143555,1.7464303970336914,-2.34116792678833
1772574221324009000,7.168009033203125,2.708542823791504,1.486065149307251,-1.9437496662139893
1772574221333941000,7.17794091796875,2.2428340911865234,1.3050637245178223,-1.3160874843597412
1772574221343873500,7.18787353515625,1.8859939575195312,1.3957743644714355,-1.034306526184082
1772574221353805800,7.197805908203125,1.592057228088379,1.748683214187622,-0.9904575347900391
1772574221363749600,7.20774951171875,1.2344684600830078,2.0389084815979004,-0.8834586143493652
1772574221373683000,7.217682861328125,0.9381656646728516,2.1269400119781494,-0.7161779403686523
1772574221383600000,7.22760009765625,0.8896627426147461,1.9313135147094727,-0.7060756683349609
1772574221393532000,7.237531982421875,1.1063432693481445,1.4180271625518799,-1.0230493545532227
1772574221403469600,7.247469482421875,1.456538200378418,0.5127801895141602,-1.5757055282592773
1772574221413402000,7.257402099609375,1.7106800079345703,-0.5480480194091797,-2.1150357723236084
1772574221423329300,7.267329345703125,1.7303590774536133,-1.3385001420974731,-2.49927020072937
1772574221433261000,7.277260986328125,1.5013132095336914,-1.8156235218048096,-2.7736949920654297
1772574221443202000,7.2872021484375,0.9604501724243164,-2.0639536380767822,-2.8461480140686035
1772574221453134800,7.297134765625,0.13669776916503906,-2.24849271774292,-2.5921072959899902
1772574221463068700,7.307068603515625,-0.6398086547851562,-2.255429744720459,-2.262122869491577
1772574221473001500,7.31700146484375,-1.173112392425537,-2.040607452392578,-1.7962379455566406
1772574221482933500,7.32693359375,-1.3666696548461914,-1.7712554931640625,-1.2795305252075195
1772574221492866300,7.3368662109375,-1.1613574028015137,-1.516279935836792,-0.8872783184051514
1772574221502784300,7.3467841796875,-0.7824621200561523,-1.3054252862930298,-0.6962695121765137
1772574221512715500,7.356715576171875,-0.37161922454833984,-1.1851152181625366,-0.6559438705444336
1772574221522647300,7.366647216796875,-0.06521224975585938,-1.178320050239563,-0.6969707012176514
1772574221532578600,7.37657861328125,0.23904037475585938,-1.2686668634414673,-0.7457959651947021
1772574221542516700,7.386516845703125,0.49550819396972656,-1.3726341724395752,-0.6651244163513184
1772574221552448800,7.39644873046875,0.6971836090087891,-1.3970606327056885,-0.5599286556243896
1772574221562374100,7.4063740234375,0.7083530426025391,-1.425455093383789,-0.46634674072265625
1772574221572305400,7.416305419921875,0.5021877288818359,-1.5247831344604492,-0.3506333827972412
1772574221582240500,7.426240478515625,0.18389225006103516,-1.4924683570861816,-0.21192407608032227
1772574221592172300,7.43617236328125,-0.3085489273071289,-1.4511862993240356,0.03256845474243164
1772574221602091500,7.446091552734375,-1.0137548446655273,-1.411680817604065,0.3935428857803345
1772574221612021800,7.456021728515625,-1.756814956665039,-1.2433990240097046,0.7410898208618164
1772574221621969000,7.465968994140625,-2.353753089904785,-0.9981377124786377,1.0120011568069458
1772574221631901000,7.47590087890625,-2.773202896118164,-0.7679884433746338,1.1718851327896118
1772574221641847000,7.485846923828125,-3.0455102920532227,-0.6277239322662354,1.2571436166763306
1772574221651780600,7.495780517578125,-3.1576356887817383,-0.5438408851623535,1.3123294115066528
1772574221661712100,7.505712158203125,-3.1815905570983887,-0.518848180770874,1.3055351972579956
1772574221671645400,7.5156455078125,-3.174490451812744,-0.4934687614440918,1.3348209857940674
1772574221681572000,7.525572021484375,-3.17445707321167,-0.4354825019836426,1.3561248779296875
1772574221691505000,7.5355048828125,-3.1714749336242676,-0.26879096031188965,1.2514530420303345
1772574221701426200,7.54542626953125,-3.0551843643188477,-0.09357666969299316,1.1525803804397583
1772574221711357700,7.555357666015625,-2.8635902404785156,0.047841548919677734,1.1004873514175415
1772574221721287700,7.56528759765625,-2.619948387145996,0.150191068649292,0.9873965978622437
1772574221731219000,7.575218994140625,-2.318873405456543,0.2158491611480713,0.8174567222595215
1772574221741163000,7.5851630859375,-2.188661575317383,0.22101926803588867,0.6361939907073975
1772574221751095600,7.595095458984375,-2.2290782928466797,0.2572593688964844,0.3705897331237793
1772574221761014800,7.605014892578125,-2.225113868713379,0.37438201904296875,0.16424274444580078
1772574221770946000,7.614946044921875,-2.181227684020996,0.47956347465515137,-0.02205348014831543
1772574221780884000,7.624884033203125,-2.173603057861328,0.5479013919830322,-0.0788726806640625
1772574221790816000,7.63481591796875,-2.1682262420654297,0.6132485866546631,0.019029617309570312
1772574221800758000,7.644758056640625,-2.126556396484375,0.739516019821167,0.20254254341125488
1772574221810691000,7.654691162109375,-2.143688201904297,0.8183789253234863,0.36511504650115967
1772574221820614400,7.664614501953125,-2.5823774337768555,0.6614313125610352,0.6964278221130371
1772574221830546400,7.67454638671875,-3.3636631965637207,0.4062631130218506,0.9898194074630737
1772574221840477400,7.6844775390625,-3.6353201866149902,0.46457362174987793,0.8212728500366211
1772574221850409500,7.694409423828125,-3.1282401084899902,0.6414580345153809,0.37120652198791504
1772574221860348400,7.704348388671875,-1.8926115036010742,0.6040256023406982,0.1618332862854004
1772574221870281000,7.714281005859375,-0.6848688125610352,0.1500864028930664,0.2900562286376953
1772574221880212200,7.724212158203125,0.5253190994262695,-0.17012238502502441,0.29282379150390625
1772574221890144800,7.734144775390625,2.22244930267334,-0.17906594276428223,0.3327174186706543
1772574221900076300,7.744076171875,3.670816421508789,-0.20476794242858887,0.38769757747650146
1772574221910008600,7.754008544921875,4.803135871887207,-0.28933286666870117,0.33943307399749756
1772574221919930400,7.763930419921875,5.569687843322754,-0.36920762062072754,0.36551833152770996
1772574221929861600,7.773861572265625,5.966702461242676,-0.38486433029174805,0.4970571994781494
1772574221939794000,7.7837939453125,6.3182373046875,-0.15463924407958984,0.4213833808898926
1772574221949725200,7.79372509765625,6.599495887756348,0.26248788833618164,0.21363258361816406
1772574221959664000,7.8036640625,6.610669136047363,0.6334552764892578,0.049147605895996094
1772574221969596200,7.81359619140625,6.538954734802246,1.0192170143127441,0.15727698802947998
1772574221979521000,7.82352099609375,6.465203285217285,1.344161033630371,0.5939123034477234
1772574221989452500,7.83345263671875,6.236260414123535,1.6244053840637207,1.2406303882598877
1772574221999383800,7.8433837890625,5.942747116088867,1.8443031311035156,1.780450463294983
1772574222009315000,7.853315185546875,5.679452896118164,1.8658287525177002,2.012503147125244
1772574222019247400,7.863247314453125,5.431565284729004,1.4436321258544922,1.9349693059921265
1772574222029179000,7.873178955078125,5.1654052734375,0.5063445568084717,1.6123871803283691
1772574222039126800,7.883126708984375,4.957319259643555,-0.6942487955093384,1.0393478870391846
1772574222049059800,7.893059814453125,4.721993446350098,-1.8448243141174316,0.24686074256896973
1772574222058979600,7.9029794921875,4.289368629455566,-2.6605095863342285,-0.4703115224838257
1772574222068911400,7.912911376953125,3.6145267486572266,-2.8891069889068604,-0.8737003803253174
1772574222078850300,7.922850341796875,2.661595344543457,-2.7948498725891113,-0.9848089218139648
1772574222088782800,7.932782958984375,1.7755146026611328,-2.511878252029419,-0.8368936777114868
1772574222098705200,7.942705078125,0.7508268356323242,-2.145693302154541,-0.42491424083709717
1772574222108636700,7.95263671875,-0.42799854278564453,-1.8450227975845337,0.24330264329910278
1772574222118547500,7.96254736328125,-1.5245862007141113,-1.544363021850586,0.9076113700866699
1772574222128477000,7.972476806640625,-2.50907039642334,-1.1489721536636353,1.2011772394180298
1772574222138430500,7.982430419921875,-3.3758296966552734,-0.771324634552002,1.2105802297592163
1772574222148362500,7.992362548828125,-4.009257793426514,-0.6027426719665527,1.0903494358062744
1772574222158293500,8.00229345703125,-4.331167697906494,-0.6668543815612793,1.0089073181152344
1772574222168225300,8.012225341796874,-4.228602886199951,-0.8671762943267822,1.0417327880859375
1772574222178142000,8.022141845703125,-3.4959402084350586,-1.0214675664901733,1.094266414642334
1772574222188072200,8.032072265625,-2.41796875,-1.105204701423645,1.1478327512741089
1772574222198000000,8.042000244140626,-1.5785832405090332,-1.2500221729278564,1.267069935798645
1772574222207930000,8.05193017578125,-1.0544748306274414,-1.367713212966919,1.457582712173462
1772574222217872000,8.061871826171876,-0.8854942321777344,-1.3107905387878418,1.630170226097107
1772574222227803000,8.071802978515626,-0.8357915878295898,-1.0196161270141602,1.6128976345062256
1772574222237768000,8.081767822265626,-0.9761362075805664,-0.7142397165298462,1.6002498865127563
1772574222247702500,8.09170263671875,-1.4637484550476074,-0.5489732027053833,1.6720986366271973
1772574222257624800,8.101624755859374,-2.16536808013916,-0.44777703285217285,1.716693639755249
1772574222267558100,8.11155810546875,-2.9200429916381836,-0.22136330604553223,1.6285632848739624
1772574222277457400,8.12145751953125,-3.605470657348633,0.02390456199645996,1.3853962421417236
1772574222287387400,8.131387451171875,-3.9513745307922363,0.2479114532470703,1.0704699754714966
1772574222297321700,8.14132177734375,-3.9789586067199707,0.3801767826080322,0.7683860659599304
1772574222307252000,8.151251953125,-3.8324103355407715,0.3175528049468994,0.4973861873149872
1772574222317186800,8.161186767578124,-3.7310328483581543,0.1976630687713623,0.20049899816513062
1772574222327117800,8.171117919921874,-3.745828151702881,0.10570406913757324,-0.11888623237609863
1772574222337052000,8.181052001953125,-3.657421588897705,0.0901341438293457,-0.5367008447647095
1772574222346983200,8.190983154296875,-3.4618349075317383,0.16956758499145508,-0.9164153337478638
1772574222356932900,8.200932861328125,-3.26876163482666,0.2935664653778076,-1.1705608367919922
1772574222366866000,8.210865966796876,-2.9344844818115234,0.5841965675354004,-1.2825000286102295
1772574222376800500,8.220800537109374,-2.3782453536987305,0.9401638507843018,-1.3470182418823242
1772574222386733600,8.230733642578125,-1.5621600151062012,1.2744803428649902,-1.361011028289795
1772574222396674000,8.240674072265625,-0.6436147689819336,1.4226152896881104,-1.2271068096160889
1772574222406608000,8.25060791015625,0.221038818359375,1.5009429454803467,-1.038967490196228
1772574222416509200,8.26050927734375,0.9375782012939453,1.535423994064331,-0.8851483464241028
1772574222426440000,8.27043994140625,1.4447031021118164,1.6250383853912354,-1.0103466510772705
1772574222436391700,8.2803916015625,1.7480106353759766,1.6776244640350342,-1.3486311435699463
1772574222446324200,8.29032421875,1.9053144454956055,1.6876399517059326,-1.7088947296142578
1772574222456256500,8.300256591796876,2.040713310241699,1.6129200458526611,-2.0462796688079834
1772574222466189300,8.310189208984376,2.225555419921875,1.4731850624084473,-2.2689430713653564
1772574222476118500,8.320118408203125,2.440464973449707,1.325960636138916,-2.4126904010772705
1772574222486051000,8.330051025390626,2.585245132446289,1.2230644226074219,-2.4060754776000977
1772574222495983000,8.339983154296876,2.574247360229492,1.2256274223327637,-2.279534101486206
1772574222505915400,8.349915283203124,2.612696647644043,1.297173023223877,-2.0933821201324463
1772574222515857700,8.359857666015625,2.805025100708008,1.4396343231201172,-1.8973368406295776
1772574222525791000,8.369791015625,3.145880699157715,1.5535399913787842,-1.7347763776779175
1772574222535713800,8.3797138671875,3.563723564147949,1.6808826923370361,-1.7798917293548584
1772574222545646000,8.38964599609375,3.7254180908203125,1.8177862167358398,-1.9066691398620605
1772574222555576800,8.399576904296875,3.288637161254883,1.7563362121582031,-1.7879313230514526
1772574222565508900,8.4095087890625,2.711827278137207,1.3535635471343994,-1.349223017692566
1772574222575438800,8.41943896484375,2.6277570724487305,0.9195666313171387,-1.0392955541610718
1772574222585370600,8.42937060546875,3.1012611389160156,0.7492313385009766,-1.1191881895065308
1772574222595318800,8.43931884765625,3.5400238037109375,0.7297956943511963,-1.416698932647705
1772574222605252400,8.44925244140625,3.6107473373413086,0.7442326545715332,-1.8072932958602905
1772574222615180300,8.45918017578125,3.452911376953125,0.6058530807495117,-2.1274609565734863
1772574222625113300,8.46911328125,3.0902976989746094,0.2167220115661621,-2.295480489730835
1772574222635009000,8.479009033203125,2.60781192779541,-0.38407278060913086,-2.317387580871582
1772574222644938500,8.4889384765625,2.1712779998779297,-1.028609275817871,-2.3852105140686035
1772574222654895000,8.49889501953125,1.9278297424316406,-1.5231854915618896,-2.4278531074523926
1772574222664827000,8.508826904296875,1.3767528533935547,-1.990928053855896,-2.441896438598633
1772574222674758400,8.51875830078125,0.7628355026245117,-2.1901745796203613,-2.432687759399414
1772574222684690200,8.528690185546875,0.2971992492675781,-2.0720133781433105,-2.0159811973571777
1772574222694622500,8.53862255859375,-0.18121910095214844,-1.8430960178375244,-1.400552749633789
1772574222704554500,8.548554443359375,-0.7149410247802734,-1.6210863590240479,-0.82352614402771
1772574222714489000,8.558489013671876,-1.123392105102539,-1.4335240125656128,-0.3401666283607483
1772574222724421400,8.56842138671875,-1.3507843017578125,-1.26883065700531,-0.016616463661193848
1772574222734349600,8.578349609375,-1.3786625862121582,-1.0981932878494263,0.18145811557769775
1772574222744281300,8.58828125,-1.3217077255249023,-0.893700122833252,0.3297550678253174
1772574222754256000,8.598255859375,-1.2993650436401367,-0.7605559825897217,0.3304903507232666
1772574222764192300,8.608192138671875,-1.2302875518798828,-0.7520182132720947,0.19597017765045166
1772574222774094300,8.61809423828125,-1.0664358139038086,-0.8502795696258545,0.001194000244140625
1772574222784027100,8.628027099609374,-0.8407430648803711,-1.0038747787475586,-0.2032718062400818
1772574222793942000,8.63794189453125,-0.6286191940307617,-1.185740351676941,-0.29654204845428467
1772574222803872800,8.647872802734375,-0.7059297561645508,-1.3156644105911255,-0.19315719604492188
1772574222813820200,8.657820068359374,-1.0670413970947266,-1.3446940183639526,-0.10092872381210327
1772574222823752700,8.667752685546875,-1.5737452507019043,-1.2986661195755005,-0.2104460597038269
1772574222833676500,8.677676513671875,-2.0885543823242188,-1.2648342847824097,-0.2510024309158325
1772574222843608300,8.6876083984375,-2.512308120727539,-1.2308071851730347,-0.2735998034477234
1772574222853537800,8.697537841796875,-2.8128347396850586,-1.2230829000473022,-0.3921612501144409
1772574222863469300,8.70746923828125,-3.000962257385254,-1.3116704225540161,-0.3824284076690674
1772574222873401300,8.7174013671875,-2.967435836791992,-1.410509467124939,-0.277582049369812
1772574222883332900,8.727332763671875,-2.865144729614258,-1.4019402265548706,-0.12664824724197388
1772574222893262800,8.737262939453124,-2.731576919555664,-1.302921175956726,0.08558344841003418
1772574222903194000,8.747194091796874,-2.5660247802734375,-1.0916210412979126,0.3368428349494934
1772574222913131800,8.7571318359375,-2.3727598190307617,-0.8223621845245361,0.5132142305374146
1772574222923063800,8.767063720703124,-2.1657180786132812,-0.6014633178710938,0.5491488575935364
1772574222932993000,8.776992919921875,-1.9348745346069336,-0.45873236656188965,0.4365610182285309
1772574222942924800,8.7869248046875,-1.737187385559082,-0.376018762588501,0.22433865070343018
1772574222952854500,8.7968544921875,-1.5672221183776855,-0.27869510650634766,-0.05398356914520264
1772574222962786000,8.8067861328125,-1.3955883979797363,-0.08764243125915527,-0.24952495098114014
1772574222972719900,8.816719970703126,-1.3126263618469238,0.14808320999145508,-0.3707538843154907
1772574222982651400,8.8266513671875,-1.3230061531066895,0.3571634292602539,-0.41747963428497314
1772574222992584400,8.83658447265625,-1.488818645477295,0.5262281894683838,-0.4181457757949829
1772574223002516200,8.84651611328125,-1.7341060638427734,0.7061171531677246,-0.44394785165786743
1772574223012459300,8.856459228515625,-1.8503055572509766,0.8736448287963867,-0.5866037607192993
1772574223022392300,8.866392333984376,-1.6484456062316895,0.985954999923706,-0.738310694694519
1772574223032311600,8.8763115234375,-1.1013174057006836,1.073228359222412,-0.7769935727119446
1772574223042243000,8.8862431640625,-0.4573020935058594,1.0905699729919434,-0.7341135144233704
1772574223052176000,8.89617578125,0.0028438568115234375,0.97678542137146,-0.5333941578865051
1772574223062107600,8.906107666015625,0.4427471160888672,0.8715999126434326,-0.3515774607658386
1772574223072038700,8.91603857421875,0.9489574432373047,0.8583502769470215,-0.234158456325531
1772574223081970200,8.92597021484375,1.4308109283447266,0.7065551280975342,-0.12871044874191284
1772574223091868200,8.9358681640625,2.0177268981933594,0.54445481300354,-0.05843013525009155
1772574223101796400,8.94579638671875,2.405029296875,0.3070816993713379,-0.00047004222869873047
1772574223111781000,8.955781005859375,2.550786018371582,0.045209646224975586,-0.0606611967086792
1772574223121715000,8.96571484375,2.7037277221679688,0.05110883712768555,-0.06739288568496704
1772574223131625500,8.97562548828125,2.6776371002197266,0.08613944053649902,0.13454198837280273
1772574223141557200,8.98555712890625,2.577450752258301,0.11920380592346191,0.45450153946876526
1772574223151508700,8.9955087890625,2.5404911041259766,0.17356324195861816,0.7474213242530823
1772574223161442600,9.005442626953124,2.656224250793457,0.19524765014648438,0.8407230973243713
1772574223171357400,9.015357421875,2.8051538467407227,0.3229506015777588,0.619274914264679
1772574223181289200,9.025289306640625,2.691603660583496,0.5605237483978271,0.39869022369384766
1772574223191224800,9.035224853515626,2.2820281982421875,0.4986693859100342,0.5881900191307068
1772574223201157000,9.0451572265625,1.9862394332885742,0.3608717918395996,0.8349330425262451
1772574223211098000,9.05509814453125,1.9563770294189453,0.4630296230316162,0.8585236668586731
1772574223221031200,9.06503125,1.9540081024169922,0.6832101345062256,0.8557649850845337
1772574223230955000,9.074955078125,1.8549718856811523,0.7398030757904053,1.0270040035247803
1772574223240887300,9.08488720703125,1.696258544921875,0.570950984954834,1.3283932209014893
1772574223250818300,9.094818359375,1.4664182662963867,0.14481639862060547,1.6429634094238281
1772574223260750300,9.104750244140625,1.3503942489624023,-0.46248388290405273,1.9595367908477783
1772574223270679300,9.11467919921875,1.5817184448242188,-1.102048635482788,1.7920753955841064
1772574223280610800,9.12461083984375,2.028200149536133,-1.5653125047683716,1.2499115467071533
1772574223290540800,9.134540771484374,2.3782548904418945,-1.8018572330474854,0.6707746982574463
1772574223300472600,9.14447265625,2.3157854080200195,-1.9039478302001953,0.2770565152168274
1772574223310414600,9.15441455078125,1.8248920440673828,-1.9077465534210205,0.0957358181476593
1772574223320347400,9.164347412109375,1.2077608108520508,-1.877868413925171,0.12396088242530823
1772574223330273000,9.17427294921875,0.5354146957397461,-1.8795413970947266,0.3226926326751709
1772574223340205000,9.184205078125,-0.1170816421508789,-1.7841355800628662,0.5087368488311768
1772574223350115600,9.194115478515625,-0.7989797592163086,-1.5151232481002808,0.5422264933586121
1772574223360045300,9.20404541015625,-1.4831500053405762,-1.0675513744354248,0.5311756730079651
1772574223369980200,9.213980224609376,-2.062000274658203,-0.6596593856811523,0.609458863735199
1772574223379910700,9.22391064453125,-2.366548538208008,-0.40796732902526855,0.7665363550186157
1772574223389845800,9.233845703125,-2.285198211669922,-0.42975854873657227,0.9396026730537415
1772574223399776500,9.243776611328125,-1.7911138534545898,-0.6974170207977295,1.069862723350525
1772574223409710800,9.2537109375,-1.017751693725586,-0.9977984428405762,1.0872691869735718
1772574223419641900,9.263641845703125,-0.22563648223876953,-1.2085908651351929,0.9130091071128845
1772574223429606000,9.27360595703125,0.21114444732666016,-1.4103904962539673,0.6941844820976257
1772574223439540500,9.28354052734375,0.36327552795410156,-1.4453623294830322,0.3741193115711212
1772574223449438200,9.293438232421876,0.18085384368896484,-1.4261267185211182,0.19590309262275696
1772574223459369000,9.303368896484375,-0.3062295913696289,-1.3366020917892456,0.43965935707092285
1772574223469297400,9.31329736328125,-0.7686395645141602,-1.1234599351882935,0.8624935150146484
1772574223479228000,9.323227783203125,-1.1410913467407227,-0.7641751766204834,1.1935319900512695
1772574223489176600,9.333176513671875,-1.3390016555786133,-0.36520910263061523,1.4102373123168945
1772574223499109000,9.343109130859375,-1.501833438873291,0.018658161163330078,1.6700878143310547
1772574223509031000,9.353031005859375,-1.8209810256958008,0.20791935920715332,1.8054544925689697
1772574223528894700,9.372894775390625,-2.599745750427246,0.25177526473999023,1.4005193710327148
1772574223538826000,9.382825927734375,-2.8941211700439453,0.22184514999389648,0.9086413979530334
1772574223548758300,9.39275830078125,-2.9894933700561523,0.1544501781463623,0.34395360946655273
1772574223558690000,9.40268994140625,-2.924856185913086,0.0692756175994873,-0.1559053659439087
1772574223568650200,9.412650146484374,-2.7293148040771484,-0.043089866638183594,-0.4383121728897095
1772574223578584600,9.42258447265625,-2.4310855865478516,-0.08878970146179199,-0.5494224429130554
1772574223588502800,9.432502685546876,-2.0675859451293945,-0.06570625305175781,-0.5587593913078308
1772574223598435600,9.442435546875,-1.7145795822143555,0.057874441146850586,-0.5107070803642273
1772574223608380000,9.4523798828125,-1.4764914512634277,0.18036913871765137,-0.52594393491745
1772574223618313700,9.462313720703126,-1.319338321685791,0.3056044578552246,-0.6618560552597046
1772574223628235300,9.4722353515625,-1.1518745422363281,0.44185638427734375,-0.795056939125061
1772574223638168000,9.48216796875,-0.9929618835449219,0.6352169513702393,-0.8710769414901733
1772574223648112000,9.492112060546875,-0.8518943786621094,0.7831430435180664,-0.9668030738830566
1772574223658046000,9.5020458984375,-0.5898342132568359,1.0224223136901855,-1.1007176637649536
1772574223667964200,9.511964111328124,-0.33069515228271484,1.2562000751495361,-1.0752280950546265
1772574223677896400,9.521896484375,-0.05075550079345703,1.4958250522613525,-0.8538404703140259
1772574223687783200,9.531783203125,0.23042964935302734,1.7634873390197754,-0.535287618637085
1772574223697710800,9.5417109375,0.5411567687988281,2.076312303543091,-0.23589420318603516
1772574223707690500,9.5516904296875,0.7712135314941406,2.245189905166626,-0.13036125898361206
1772574223717623600,9.56162353515625,0.7626590728759766,2.2198903560638428,-0.34001678228378296
1772574223727555000,9.57155517578125,0.7302627563476562,2.068471670150757,-0.7720314264297485
1772574223737488000,9.58148779296875,0.9074459075927734,1.8337409496307373,-1.1515443325042725
1772574223747429400,9.591429443359376,1.1845951080322266,1.5509662628173828,-1.334566354751587
1772574223757363200,9.60136328125,1.4240751266479492,1.3560402393341064,-1.3766705989837646
1772574223767273200,9.611273193359375,1.7073698043823242,1.2722437381744385,-1.3399484157562256
1772574223777204500,9.62120458984375,2.077075958251953,1.2715222835540771,-1.28192138671875
1772574223787148500,9.6311484375,2.409280776977539,1.563732624053955,-1.4460980892181396
1772574223797081000,9.6410810546875,2.2707061767578125,2.085033416748047,-1.6171503067016602
1772574223807022300,9.651022216796875,1.4572315216064453,2.1184535026550293,-0.9028337001800537
1772574223816956000,9.660955810546875,0.7693815231323242,1.7518398761749268,0.35244494676589966
1772574223826885000,9.670885009765625,1.029191017150879,1.7133488655090332,1.1195175647735596
1772574223836818200,9.680818115234375,1.7616233825683594,2.0453877449035645,1.2900314331054688
1772574223846739500,9.690739501953125,2.1938228607177734,2.148002862930298,1.1616153717041016
1772574223856671200,9.700671142578125,2.3359413146972656,1.7557199001312256,0.7259931564331055
1772574223866605600,9.71060546875,2.4598703384399414,1.1110496520996094,0.0174100399017334
1772574223876537600,9.72053759765625,2.766371726989746,0.3391702175140381,-0.7307755947113037
1772574223886469600,9.7304697265625,3.08474063873291,-0.5286338329315186,-1.2819148302078247
1772574223896401700,9.740401611328124,3.050045967102051,-1.3193378448486328,-1.6629676818847656
1772574223906333200,9.750333251953125,2.4989280700683594,-1.8031140565872192,-2.004636287689209
1772574223916265200,9.76026513671875,1.5537185668945312,-2.0121254920959473,-2.152418375015259
1772574223926196200,9.7701962890625,0.4776420593261719,-2.090804100036621,-1.9000935554504395
1772574223936128300,9.780128173828125,-0.4923896789550781,-2.070071220397949,-1.2177385091781616
1772574223946067000,9.79006689453125,-1.3745112419128418,-1.899969458580017,-0.5459014177322388
1772574223955999500,9.79999951171875,-1.7959938049316406,-1.6072964668273926,-0.20348882675170898
1772574223965931500,9.809931640625,-0.9518470764160156,-1.2963716983795166,-0.034563422203063965
1772574223975864000,9.819864013671875,-1.0301518440246582,-0.6288695335388184,-0.01528167724609375
1772574223985795000,9.829795166015625,-1.8257408142089844,-0.2847261428833008,0.011350035667419434
1772574223995727400,9.839727294921875,-2.1380701065063477,-0.5160024166107178,0.1663140058517456
1772574224005699600,9.849699462890625,-1.5138568878173828,-0.8156929016113281,0.1712878942489624
1772574224015636000,9.859635986328126,0.21570301055908203,-1.021080493927002,0.17671585083007812
1772574224025510000,9.869510009765625,1.7952852249145508,-1.5786938667297363,-0.10310137271881104
1772574224035440000,9.879440185546875,2.4628477096557617,-2.2180323600769043,-0.8282655477523804
1772574224045377000,9.889376953125,2.0937976837158203,-2.3226332664489746,-1.632636547088623
1772574224055307800,9.899307861328126,0.7266511917114258,-1.9791394472122192,-1.7341974973678589
1772574224065243000,9.909242919921875,-0.9734349250793457,-1.6066358089447021,-1.179565668106079
1772574224075174100,9.919174072265625,-1.889256477355957,-1.2814929485321045,-0.6044971942901611
