time,seconds_elapsed,z,y,x
1772574214272015400,0.116015380859375,-0.06604444980621338,-0.07989247888326645,-0.16191542148590088
1772574214341851400,0.185851318359375,-0.20665520429611206,0.30252617597579956,-0.3173062801361084
1772574214351787300,0.195787353515625,-0.2354165017604828,0.400394469499588,-0.3503285050392151
1772574214371644000,0.215643798828125,-0.24819929897785187,0.5548532605171204,-0.3684374690055847
1772574214381565400,0.2255654296875,-0.23648172616958618,0.5644403696060181,-0.3364804685115814
1772574214391461000,0.235461181640625,-0.21517707407474518,0.5601794123649597,-0.2748301327228546
1772574214401387500,0.245387451171875,-0.18961147964000702,0.5857450366020203,-0.1800243854522705
1772574214411374000,0.2553740234375,-0.14700216054916382,0.6656374931335449,-0.06178351491689682
1772574214421324800,0.26532470703125,-0.08415340632200241,0.8019872903823853,0.0639139786362648
1772574214431238700,0.27523876953125,-0.0159784946590662,0.9307473301887512,0.1597849577665329
1772574214441174300,0.28517431640625,0.03941362351179123,1.0106397867202759,0.19706811010837555
1772574214451100000,0.295099853515625,0.07563154399394989,1.0979889631271362,0.20558997988700867
1772574214461031400,0.305031494140625,0.11291470378637314,1.3887975215911865,0.13528458774089813
1772574214470964200,0.314964111328125,0.13102366030216217,1.61981999874115,0.13315412402153015
1772574214480862500,0.324862548828125,0.15765449404716492,1.5134297609329224,0.25991687178611755
1772574214500759800,0.344759765625,0.15126308798789978,1.1544462442398071,0.40891632437705994
1772574214510705400,0.354705322265625,0.0426093190908432,0.9616391062736511,0.43767762184143066
1772574214520625200,0.364625244140625,-0.13528458774089813,0.6997249722480774,0.34287187457084656
1772574214530560300,0.374560302734375,-0.3077192008495331,0.43022099137306213,0.18641577661037445
1772574214540487700,0.38448779296875,-0.43980807065963745,0.21837277710437775,0.03515268862247467
1772574214550419700,0.394419677734375,-0.5090482234954834,0.02236989326775074,-0.06178351491689682
1772574214560353000,0.40435302734375,-0.5005263686180115,-0.16617634892463684,-0.0745663121342659
1772574214570285600,0.41428564453125,-0.42063388228416443,-0.2961347699165344,-0.0106523297727108
1772574214580216000,0.424216064453125,-0.30146095156669617,-0.381220281124115,0.09906667470932007
1772574214590147800,0.43414794921875,-0.1810896098613739,-0.5175700783729553,0.20665520429611206
1772574214600091000,0.4440908203125,-0.09480573982000351,-0.7359428405761719,0.3055887222290039
1772574214610027500,0.454027587890625,-0.07882724702358246,-0.9861394762992859,0.3929378390312195
1772574214619943200,0.463943115234375,-0.13421936333179474,-1.1842727661132812,0.4440690279006958
1772574214629871000,0.47387109375,-0.22582940757274628,-1.2971875667572021,0.4579170346260071
1772574214639822800,0.48382275390625,-0.32263246178627014,-1.3419272899627686,0.4525908827781677
1772574214649760500,0.493760498046875,-0.40891632437705994,-1.3483186960220337,0.4781564772129059
1772574214659670500,0.50367041015625,-0.4536561071872711,-1.337666392326355,0.5804188251495361
1772574214669597000,0.513596923828125,-0.43767762184143066,-1.283339500427246,0.7284862399101257
1772574214679546000,0.523546142578125,-0.36630702018737793,-1.192794680595398,0.8520532846450806
1772574214689481700,0.533481689453125,-0.27376487851142883,-1.122489333152771,0.9190297722816467
1772574214699398700,0.543398681640625,-0.19493764638900757,-1.0766842365264893,0.9424648880958557
1772574214709326600,0.55332666015625,-0.15339355170726776,-1.0351401567459106,0.9117063283920288
1772574214719266300,0.563266357421875,-0.15126308798789978,-0.9712262153625488,0.8435314297676086
1772574214729195500,0.573195556640625,-0.18748101592063904,-0.8659012913703918,0.7753564715385437
1772574214739126300,0.583126220703125,-0.2460688352584839,-0.7114425301551819,0.7167686820030212
1772574214749055700,0.5930556640625,-0.3183715343475342,-0.4664389193058014,0.6677679419517517
1772574214758999600,0.60299951171875,-0.36630702018737793,-0.10332760214805603,0.6091801524162292
1772574214768930300,0.612930419921875,-0.3684374690055847,0.3055887222290039,0.5165048837661743
1772574214778856000,0.62285595703125,-0.3258281648159027,0.6219629049301147,0.3940030634403229
1772574214788786200,0.6327861328125,-0.2865476906299591,0.8382052183151245,0.2343512624502182
1772574214798720800,0.642720703125,-0.31198012828826904,0.977617621421814,0.03621792420744896
1772574214808651500,0.652651611328125,-0.3268933892250061,0.977617621421814,-0.13315412402153015
1772574214818595000,0.662594970703125,-0.2588516175746918,0.9117063283920288,-0.2247641682624817
1772574214828527000,0.672527099609375,-0.1597849577665329,0.811574399471283,-0.25139498710632324
1772574214838460000,0.6824599609375,-0.09480573982000351,0.6933335661888123,-0.23967742919921875
1772574214848392200,0.69239208984375,-0.07243584841489792,0.5814840793609619,-0.19387240707874298
1772574214858312700,0.702312744140625,-0.06284874677658081,0.45152565836906433,-0.09800143539905548
1772574214868243500,0.712243408203125,-0.04580501839518547,0.33008909225463867,0.05965305119752884
1772574214878185000,0.72218505859375,-0.01917419396340847,0.23754696547985077,0.2460688352584839
1772574214888117000,0.732116943359375,0.02236989326775074,0.13528458774089813,0.4216991364955902
1772574214898035200,0.74203515625,0.08628387749195099,0.0426093190908432,0.5750926733016968
1772574214907966000,0.751966064453125,0.14487169682979584,-0.03941362351179123,0.680550754070282
1772574214917885200,0.76188525390625,0.16298064589500427,-0.12569749355316162,0.7348776459693909
1772574214927814700,0.771814697265625,0.14487169682979584,-0.18322007358074188,0.7593780159950256
1772574214937742800,0.781742919921875,0.09161003679037094,-0.19813334941864014,0.7615084648132324
1772574214947672000,0.791672119140625,0.01384802907705307,-0.18961147964000702,0.7370080947875977
1772574214957642800,0.801642822265625,-0.05539211630821228,-0.1821548491716385,0.6848116517066956
1772574214967576300,0.811576416015625,-0.0852186381816864,-0.19919857382774353,0.6272891163825989
1772574214977471000,0.821470947265625,-0.0852186381816864,-0.2130466103553772,0.5825493335723877
1772574214987400700,0.831400634765625,-0.09374050796031952,-0.17682868242263794,0.5239614844322205
1772574214997331700,0.841331787109375,-0.10545806586742401,-0.09374050796031952,0.43874284625053406
1772574215007261400,0.851261474609375,-0.11397993564605713,0.012782796286046505,0.33221954107284546
1772574215017201200,0.861201171875,-0.12037133425474167,0.09906667470932007,0.22795987129211426
1772574215027132000,0.8711318359375,-0.13315412402153015,0.17256775498390198,0.15339355170726776
1772574215037065200,0.881065185546875,-0.14487169682979584,0.29400432109832764,0.14274121820926666
1772574215046996500,0.89099658203125,-0.16191542148590088,0.44939517974853516,0.17789392173290253
1772574215056927000,0.900927001953125,-0.17895914614200592,0.5207657814025879,0.20558997988700867
1772574215066858000,0.91085791015625,-0.17682868242263794,0.48135218024253845,0.22156846523284912
1772574215076792000,0.9207919921875,-0.15339355170726776,0.4035901725292206,0.2439383566379547
1772574215086723300,0.930723388671875,-0.13208889961242676,0.34074142575263977,0.2460688352584839
1772574215096658200,0.940658203125,-0.08308817446231842,0.20985090732574463,0.21943800151348114
1772574215106589700,0.950589599609375,0.02876129187643528,0.12037133425474167,0.21943800151348114
1772574215116518400,0.960518310546875,0.10332760214805603,-0.02556559257209301,0.24819929897785187
1772574215126450000,0.970449951171875,0.10226237028837204,-0.2556559145450592,0.3003957271575928
1772574215136416000,0.980416015625,0.05432688444852829,-0.4643084406852722,0.39506828784942627
1772574215146350800,0.990350830078125,-0.02663082629442215,-0.6155715584754944,0.49413496255874634
1772574215156262700,1.0002626953125,-0.1288931965827942,-0.6773550510406494,0.5612446665763855
1772574215166195200,1.0101953125,-0.23648172616958618,-0.6794854998588562,0.535679042339325
1772574215176129000,1.02012890625,-0.30984964966773987,-0.6081148982048035,0.37376365065574646
1772574215186061600,1.0300615234375,-0.30252617597579956,-0.4536561071872711,0.08308817446231842
1772574215196007000,1.0400068359375,-0.20985090732574463,-0.2684387266635895,-0.25139498710632324
1772574215205940700,1.049940673828125,-0.05858781561255455,-0.03834838792681694,-0.4866783320903778
1772574215215858200,1.059858154296875,0.11397993564605713,0.23009033501148224,-0.5655055642127991
1772574215225790500,1.06979052734375,0.2854824364185333,0.46217799186706543,-0.5282224416732788
1772574215235720700,1.079720703125,0.4355471432209015,0.57296222448349,-0.4334166944026947
1772574215245652700,1.08965283203125,0.534613847732544,0.5537880063056946,-0.32369768619537354
1772574215255596000,1.099595947265625,0.57296222448349,0.41743817925453186,-0.23115555942058563
1772574215265529300,1.109529296875,0.5537880063056946,0.22156846523284912,-0.2013290375471115
1772574215275450000,1.1194501953125,0.5015916228294373,0.0010652330238372087,-0.23648172616958618
1772574215285382100,1.129382080078125,0.43874284625053406,-0.21517707407474518,-0.316241055727005
1772574215295312100,1.13931201171875,0.3726983964443207,-0.39826399087905884,-0.40785109996795654
1772574215305244000,1.149243896484375,0.3194367587566376,-0.5207657814025879,-0.4568518102169037
1772574215315174700,1.159174560546875,0.2972000241279602,-0.5953320860862732,-0.44300377368927
1772574215325106400,1.1691064453125,0.3045234978199005,-0.6294195652008057,-0.3929378390312195
1772574215335050200,1.17905029296875,0.34393709897994995,-0.5825493335723877,-0.3268933892250061
1772574215344983000,1.188983154296875,0.41637295484542847,-0.4664389193058014,-0.2577863931655884
1772574215354945300,1.1989453125,0.5058525204658508,-0.32369768619537354,-0.19387240707874298
1772574215364881200,1.208881103515625,0.5932016372680664,-0.17469821870326996,-0.14061075448989868
1772574215374768400,1.218768310546875,0.6592460870742798,-0.06178351491689682,-0.10545806586742401
1772574215384699400,1.228699462890625,0.6912030577659607,0.004260932095348835,-0.1065233051776886
1772574215394641000,1.238640869140625,0.6922683119773865,0.03302222490310669,-0.15658925473690033
1772574215404573000,1.248572998046875,0.6848116517066956,0.02663082629442215,-0.2354165017604828
1772574215414502700,1.258502685546875,0.6709636449813843,0.01384802907705307,-0.3173062801361084
1772574215424434400,1.268434326171875,0.6517894268035889,0.02556559257209301,-0.37376365065574646
1772574215434372400,1.278372314453125,0.6411371231079102,0.01384802907705307,-0.37695932388305664
1772574215444305000,1.288304931640625,0.6390066742897034,-0.0010652330238372087,-0.3173062801361084
1772574215454225000,1.298224853515625,0.6464632749557495,0.02023942768573761,-0.22582940757274628
1772574215464156000,1.308156005859375,0.6741593480110168,0.0639139786362648,-0.13634982705116272
1772574215474099000,1.318098876953125,0.7242252826690674,0.11291470378637314,-0.06817491352558136
1772574215484031200,1.32803125,0.7785521745681763,0.1810896098613739,-0.012782796286046505
1772574215493951700,1.33795166015625,0.8179658055305481,0.26311254501342773,0.03621792420744896
1772574215503882800,1.3478828125,0.8328790664672852,0.32050198316574097,0.07563154399394989
1772574215513827000,1.3578271484375,0.8094439506530762,0.35458943247795105,0.09693620353937149
1772574215523759600,1.367759521484375,0.7508561015129089,0.3716331720352173,0.09054480493068695
1772574215533678600,1.3776787109375,0.6698983907699585,0.3822855055332184,0.05539211630821228
1772574215543609600,1.387609619140625,0.5782883763313293,0.4035901725292206,0.0010652330238372087
1772574215553545000,1.397544921875,0.48028692603111267,0.43874284625053406,-0.05432688444852829
1772574215563476500,1.4074765625,0.3822855055332184,0.4866783320903778,-0.11184946447610855
1772574215573406000,1.417406005859375,0.2961347699165344,0.5516575574874878,-0.1704372763633728
1772574215583337200,1.427337158203125,0.2354165017604828,0.6027887463569641,-0.21730753779411316
1772574215593270500,1.4372705078125,0.18535055220127106,0.6368761658668518,-0.23861220479011536
1772574215603202300,1.447202392578125,0.11611039936542511,0.6070496439933777,-0.2790910601615906
1772574215613142500,1.457142578125,0.0745663121342659,0.6677679419517517,-0.2769605815410614
1772574215623074800,1.46707470703125,0.04687025398015976,0.7402037978172302,-0.2556559145450592
1772574215632997400,1.476997314453125,-0.02023942768573761,0.6816160082817078,-0.26950395107269287
1772574215642928600,1.4869287109375,-0.09693620353937149,0.634745717048645,-0.28015628457069397
1772574215652862000,1.496862060546875,-0.1597849577665329,0.6251586079597473,-0.2748301327228546
1772574215662793500,1.50679345703125,-0.23648172616958618,0.5772231221199036,-0.2865476906299591
1772574215672725200,1.516725341796875,-0.2790910601615906,0.634745717048645,-0.23861220479011536
1772574215682656800,1.52665673828125,-0.2972000241279602,0.7252905368804932,-0.14274121820926666
1772574215692586200,1.536586181640625,-0.33115431666374207,0.6656374931335449,-0.07137060910463333
1772574215702517800,1.546517822265625,-0.35245898365974426,0.5569837093353271,-0.01810896210372448
1772574215712454700,1.55645458984375,-0.3375457227230072,0.4770912528038025,-0.0063913981430232525
1772574215722386700,1.56638671875,-0.2780258059501648,0.43767762184143066,-0.04687025398015976
1772574215732316000,1.57631591796875,-0.17895914614200592,0.42063388228416443,-0.1288931965827942
1772574215742247700,1.58624755859375,-0.06924014538526535,0.39613354206085205,-0.21517707407474518
1772574215752184800,1.596184814453125,0.06178351491689682,0.3726983964443207,-0.23009033501148224
1772574215762117000,1.6061171875,0.20772044360637665,0.2577863931655884,-0.14593692123889923
1772574215772048400,1.61604833984375,0.3375457227230072,-0.01810896210372448,-0.004260932095348835
1772574215781980700,1.625980712890625,0.447264701128006,-0.33221954107284546,0.15126308798789978
1772574215791909600,1.63590966796875,0.6219629049301147,-0.3609808385372162,0.36524176597595215
1772574215801841700,1.645841552734375,0.8296833634376526,-0.1821548491716385,0.5239614844322205
1772574215811784200,1.6557841796875,0.970160961151123,-0.01491326279938221,0.5228962898254395
1772574215821717000,1.665717041015625,0.9659000635147095,0.0745663121342659,0.3567199110984802
1772574215831635200,1.67563525390625,0.8307486176490784,0.08628387749195099,0.0639139786362648
1772574215841566700,1.685566650390625,0.6070496439933777,0.0213046595454216,-0.2982652485370636
1772574215851501000,1.6955009765625,0.3364804685115814,-0.09054480493068695,-0.634745717048645
1772574215861432800,1.705432861328125,0.07563154399394989,-0.18322007358074188,-0.8712274432182312
1772574215871362000,1.715362060546875,-0.12037133425474167,-0.22050324082374573,-0.969095766544342
1772574215881293600,1.72529345703125,-0.2332860380411148,-0.26311254501342773,-0.9307473301887512
1772574215891273200,1.735273193359375,-0.26204732060432434,-0.4770912528038025,-0.8648360371589661
1772574215901209600,1.745209716796875,-0.2780258059501648,-0.6304848194122314,-0.726355791091919
1772574215911092700,1.7550927734375,-0.34500235319137573,-0.6272891163825989,-0.42809051275253296
1772574215921023700,1.765023681640625,-0.4866783320903778,-0.680550754070282,-0.06710968166589737
1772574215930956000,1.7749560546875,-0.6219629049301147,-0.8222267627716064,0.24074266850948334
1772574215940887000,1.784886962890625,-0.6986597180366516,-0.9179645776748657,0.4334166944026947
1772574215950831600,1.79483154296875,-0.7306166887283325,-0.9085106253623962,0.5015916228294373
1772574215960764200,1.80476416015625,-0.7540518045425415,-0.8680317401885986,0.4547213613986969
1772574215970678800,1.8146787109375,-0.7742912769317627,-0.8328790664672852,0.32156720757484436
1772574215980609500,1.824609619140625,-0.7764217257499695,-0.7753564715385437,0.1608501821756363
1772574215990546400,1.83454638671875,-0.7359428405761719,-0.6869421601295471,0.02450035884976387
1772574216000477700,1.844477783203125,-0.634745717048645,-0.5921363830566406,-0.04580501839518547
1772574216010410200,1.85441015625,-0.5612446665763855,-0.42702528834342957,-0.03621792420744896
1772574216020341800,1.864341796875,-0.5825493335723877,-0.21943800151348114,0.009587096981704235
1772574216030292200,1.874292236328125,-0.6656374931335449,-0.07776200771331787,0.04367455467581749
1772574216040225800,1.884225830078125,-0.7370080947875977,0.03515268862247467,0.06710968166589737
1772574216050138400,1.894138427734375,-0.7828131318092346,0.17469821870326996,0.07989247888326645
1772574216060070000,1.90406982421875,-0.8211615085601807,0.29293906688690186,0.05219641700387001
1772574216070003500,1.91400341796875,-0.8573794364929199,0.3567199110984802,-0.01917419396340847
1772574216079935000,1.92393505859375,-0.887205958366394,0.381220281124115,-0.11291470378637314
1772574216089864000,1.933864013671875,-0.8925321102142334,0.3886769115924835,-0.20665520429611206
1772574216099795200,1.943795166015625,-0.8829450011253357,0.3833507299423218,-0.30252617597579956
1772574216109741000,1.953740966796875,-0.8690969944000244,0.3929378390312195,-0.4121120274066925
1772574216119673900,1.963673828125,-0.8584446907043457,0.4525908827781677,-0.5207657814025879
1772574216129596000,1.973595947265625,-0.8573794364929199,0.587875485420227,-0.6240934133529663
1772574216139527400,1.98352734375,-0.8456618785858154,0.9850742220878601,-0.8137048482894897
1772574216149443800,1.99344384765625,-0.7987915873527527,1.3994499444961548,-1.0021179914474487
1772574216159374000,2.0033740234375,-0.7242252826690674,1.4665595293045044,-0.954182505607605
1772574216169298400,2.01329833984375,-0.6773550510406494,1.484668493270874,-0.9168993234634399
1772574216179228000,2.023227783203125,-0.658180832862854,1.3824061155319214,-0.8712274432182312
1772574216189168600,2.033168701171875,-0.6400718688964844,1.2311431169509888,-0.7987915873527527
1772574216199099400,2.043099365234375,-0.6166367530822754,1.1001193523406982,-0.7125077247619629
1772574216209025300,2.053025390625,-0.5921363830566406,0.9382039904594421,-0.6123758554458618
1772574216218955500,2.06295556640625,-0.5814840793609619,0.7274209856987,-0.5069177746772766
1772574216228926200,2.07292626953125,-0.5793536305427551,0.488808810710907,-0.3929378390312195
1772574216238860500,2.082860595703125,-0.5708317756652832,0.2535254657268524,-0.30359140038490295
1772574216248753200,2.092753173828125,-0.5484618544578552,0.02663082629442215,-0.24713405966758728
1772574216258683100,2.10268310546875,-0.512243926525116,-0.18854624032974243,-0.2119813710451126
1772574216268662000,2.112662109375,-0.4760259985923767,-0.3620460629463196,-0.17469821870326996
1772574216278596900,2.122596923828125,-0.4632432162761688,-0.503722071647644,-0.12569749355316162
1772574216288501800,2.132501708984375,-0.4770912528038025,-0.634745717048645,-0.07030537724494934
1772574216298433800,2.142433837890625,-0.5111786723136902,-0.7370080947875977,0.0063913981430232525
1772574216308346600,2.1523466796875,-0.5484618544578552,-0.8211615085601807,0.09693620353937149
1772574216318276600,2.162276611328125,-0.5708317756652832,-0.8978582620620728,0.17363297939300537
1772574216328213800,2.1722138671875,-0.5772231221199036,-0.9477910995483398,0.23009033501148224
1772574216338144300,2.182144287109375,-0.5665708184242249,-0.9339430332183838,0.26311254501342773
1772574216348105200,2.192105224609375,-0.5580489635467529,-0.8414009213447571,0.26950395107269287
1772574216358039000,2.2020390625,-0.5527228116989136,-0.6794854998588562,0.252460241317749
1772574216367960300,2.211960205078125,-0.535679042339325,-0.4536561071872711,0.22582940757274628
1772574216377892900,2.221892822265625,-0.48348262906074524,-0.1501978635787964,0.2023942768573761
1772574216387835400,2.23183544921875,-0.3918725848197937,0.18322007358074188,0.18428531289100647
1772574216397769000,2.24176904296875,-0.29293906688690186,0.46004751324653625,0.1395455300807953
1772574216407683300,2.251683349609375,-0.21517707407474518,0.6528546810150146,0.07882724702358246
1772574216417615000,2.261614990234375,-0.17682868242263794,0.7806826233863831,0.02236989326775074
1772574216427551000,2.271551025390625,-0.18854624032974243,0.8190310597419739,-0.01704372838139534
1772574216437483000,2.28148291015625,-0.25032976269721985,0.7103772759437561,-0.05539211630821228
1772574216447417900,2.29141796875,-0.3481980562210083,0.4632432162761688,-0.1065233051776886
1772574216457350100,2.30135009765625,-0.44832995533943176,0.15765449404716492,-0.14700216054916382
1772574216467279400,2.311279296875,-0.5111786723136902,-0.1065233051776886,-0.1608501821756363
1772574216477211400,2.32121142578125,-0.4962654411792755,-0.2673735022544861,-0.15232832729816437
1772574216487140400,2.331140380859375,-0.3822855055332184,-0.2972000241279602,-0.1278279572725296
1772574216497072000,2.341072021484375,-0.191741943359375,-0.2332860380411148,-0.09374050796031952
1772574216507004200,2.351004150390625,0.02343512699007988,-0.12250179797410965,-0.06817491352558136
1772574216516936000,2.36093603515625,0.20558997988700867,-0.0031956990715116262,-0.07989247888326645
1772574216526869000,2.370868896484375,0.3364804685115814,0.08628387749195099,-0.1395455300807953
1772574216536800800,2.38080078125,0.4142425060272217,0.12463226169347763,-0.22795987129211426
1772574216546716000,2.3907158203125,0.4451342523097992,0.12463226169347763,-0.33221954107284546
1772574216556646000,2.40064599609375,0.43980807065963745,0.11611039936542511,-0.4419385492801666
1772574216566580000,2.410580078125,0.4216991364955902,0.09800143539905548,-0.5569837093353271
1772574216576510500,2.420510498046875,0.3929378390312195,0.04900071769952774,-0.6869421601295471
1772574216586475300,2.430475341796875,0.3471328020095825,-0.04047885537147522,-0.8243572115898132
1772574216596409300,2.440409423828125,0.3087844252586365,-0.12995843589305878,-0.931812584400177
1772574216606306600,2.450306640625,0.28122150897979736,-0.18641577661037445,-0.9467258453369141
1772574216616236800,2.46023681640625,0.27163442969322205,-0.2013290375471115,-0.8754884004592896
1772574216626189300,2.470189208984375,0.28228676319122314,-0.18854624032974243,-0.7572475075721741
1772574216636121900,2.480121826171875,0.3268933892250061,-0.10758853703737259,-0.6283543109893799
1772574216646052000,2.490052001953125,0.4216991364955902,0.06604444980621338,-0.5090482234954834
1772574216655984400,2.499984375,0.5591141581535339,0.2854824364185333,-0.400394469499588
1772574216665924000,2.509924072265625,0.7007901668548584,0.4983958899974823,-0.3066539466381073
1772574216675857200,2.519857177734375,0.8009220957756042,0.6432675719261169,-0.2439383566379547
1772574216685795000,2.529795166015625,0.8541837334632874,0.7029206156730652,-0.2013290375471115
1772574216695728600,2.539728759765625,0.8818798065185547,0.6997249722480774,-0.16724158823490143
1772574216705644800,2.549644775390625,0.9031844735145569,0.6603113412857056,-0.12569749355316162
1772574216715576800,2.559576904296875,0.9200950264930725,0.587875485420227,-0.07669677585363388
1772574216725510400,2.569510498046875,0.931812584400177,0.5005263686180115,-0.02023942768573761
1772574216735442400,2.5794423828125,0.9435301423072815,0.41637295484542847,0.04047885537147522
1772574216745374000,2.5893740234375,0.9456605911254883,0.335415244102478,0.08202294260263443
1772574216755306000,2.599305908203125,0.9424648880958557,0.2545906901359558,0.10119713842868805
1772574216765239300,2.6092392578125,0.9531172513961792,0.1800243854522705,0.11397993564605713
1772574216775171600,2.619171630859375,0.9808133244514465,0.11504516750574112,0.12463226169347763
1772574216785108500,2.6291083984375,1.0127702951431274,0.0426093190908432,0.12356702983379364
1772574216795041000,2.639041015625,1.045792579650879,-0.03089175745844841,0.10971900075674057
1772574216804977400,2.648977294921875,1.0766842365264893,-0.11611039936542511,0.07776200771331787
1772574216814910200,2.65891015625,1.108641266822815,-0.2236989289522171,0.03941362351179123
1772574216824839700,2.668839599609375,1.1363372802734375,-0.381220281124115,0.0063913981430232525
1772574216834772200,2.678772216796875,1.1395330429077148,-0.5995930433273315,-0.0106523297727108
1772574216844697600,2.688697509765625,1.1107717752456665,-0.8914669156074524,0.0159784946590662
1772574216854629600,2.698629638671875,1.0649666786193848,-1.2354040145874023,0.08734910935163498
1772574216864561200,2.70856103515625,0.992530882358551,-1.5718845129013062,0.18322007358074188
1772574216874493200,2.7184931640625,0.8797492980957031,-1.8349970579147339,0.2545906901359558
1772574216884432400,2.728432373046875,0.7615084648132324,-1.9329984188079834,0.26950395107269287
1772574216894365000,2.738364990234375,0.6613765358924866,-1.81795334815979,0.24074266850948334
1772574216904285000,2.748284912109375,0.5718969702720642,-1.5017122030258179,0.19813334941864014
1772574216914216200,2.75821630859375,0.4749607741832733,-1.04046630859375,0.16298064589500427
1772574216924153000,2.768153076171875,0.37376365065574646,-0.5218310356140137,0.1480673849582672
1772574216934085000,2.778085205078125,0.29080861806869507,-0.06284874677658081,0.1480673849582672
1772574216944013800,2.788013916015625,0.2332860380411148,0.25139498710632324,0.16617634892463684
1772574216953945300,2.7979453125,0.191741943359375,0.4248948097229004,0.2130466103553772
1772574216963881700,2.8078818359375,0.14700216054916382,0.4579170346260071,0.28015628457069397
1772574216973813800,2.817813720703125,0.09374050796031952,0.3481980562210083,0.35352420806884766
1772574216983741700,2.82774169921875,0.06284874677658081,0.16724158823490143,0.45046040415763855
1772574216993673200,2.837673095703125,0.07137060910463333,0.004260932095348835,0.5889406800270081
1772574217003615700,2.84761572265625,0.0852186381816864,-0.04473978653550148,0.7625737190246582
1772574217013548500,2.857548583984375,0.05006595328450203,0.02343512699007988,0.9286168813705444
1772574217023467000,2.867467041015625,-0.05539211630821228,0.0852186381816864,0.9999874830245972
1772574217033398300,2.877398193359375,-0.21091613173484802,0.06497921794652939,0.9117063283920288
1772574217043334700,2.887334716796875,-0.3833507299423218,-0.0021304660476744175,0.6741593480110168
1772574217053266400,2.897266357421875,-0.5410051941871643,-0.10226237028837204,0.33328479528427124
1772574217063204600,2.90720458984375,-0.6485937833786011,-0.2556559145450592,-0.04687025398015976
1772574217073137000,2.917136962890625,-0.6848116517066956,-0.4579170346260071,-0.3726983964443207
1772574217083035400,2.927035400390625,-0.6422023773193359,-0.657115638256073,-0.5623098611831665
1772574217092964400,2.93696435546875,-0.503722071647644,-0.8520532846450806,-0.5718969702720642
1772574217102926800,2.9469267578125,-0.2556559145450592,-1.017031192779541,-0.3886769115924835
1772574217112859100,2.956859130859375,0.08947957307100296,-1.1576420068740845,-0.05965305119752884
1772574217122790700,2.966790771484375,0.5079829692840576,-1.347253441810608,0.2354165017604828
1772574217132723000,2.976722900390625,0.9190297722816467,-1.183207631111145,0.527157187461853
1772574217142659000,2.9866591796875,1.2279473543167114,-0.7359428405761719,0.8147701025009155
1772574217152592000,2.996591796875,1.3440577983856201,-0.46963462233543396,0.9445953965187073
1772574217162513200,3.00651318359375,1.2886656522750854,-0.4525908827781677,0.8861407041549683
1772574217172444700,3.016444580078125,1.1267502307891846,-0.4536561071872711,0.7295514941215515
1772574217182377500,3.02637744140625,0.9053149223327637,-0.404655396938324,0.534613847732544
1772574217192309000,3.03630908203125,0.6464632749557495,-0.38441595435142517,0.3183715343475342
1772574217202250500,3.04625048828125,0.3801550269126892,-0.43022099137306213,0.10119713842868805
1772574217212183000,3.05618310546875,0.15126308798789978,-0.5015916228294373,-0.07137060910463333
1772574217222096600,3.0660966796875,-0.0106523297727108,-0.5633751153945923,-0.18428531289100647
1772574217232027100,3.076027099609375,-0.11291470378637314,-0.5942668914794922,-0.24287313222885132
1772574217241952300,3.0859521484375,-0.18428531289100647,-0.5782883763313293,-0.25991687178611755
1772574217251882500,3.095882568359375,-0.24287313222885132,-0.5228962898254395,-0.24287313222885132
1772574217261816300,3.10581640625,-0.2972000241279602,-0.4131772518157959,-0.19387240707874298
1772574217271746800,3.115746826171875,-0.37695932388305664,-0.22689463198184967,-0.11291470378637314
1772574217281711000,3.125711181640625,-0.4962654411792755,-0.02450035884976387,-0.03089175745844841
1772574217291645200,3.135645263671875,-0.6390066742897034,0.13208889961242676,0.01917419396340847
1772574217301561300,3.145561279296875,-0.7678998708724976,0.23648172616958618,0.02343512699007988
1772574217311493600,3.15549365234375,-0.8595098853111267,0.3194367587566376,-0.01491326279938221
1772574217321425000,3.1654248046875,-0.9063801765441895,0.3908073604106903,-0.08734910935163498
1772574217331357200,3.175357177734375,-0.9085106253623962,0.423829585313797,-0.17789392173290253
1772574217341290500,3.18529052734375,-0.872292697429657,0.4121120274066925,-0.2673735022544861
1772574217351222800,3.195222900390625,-0.8073135018348694,0.3609808385372162,-0.339676171541214
1772574217361133000,3.205133056640625,-0.718899130821228,0.24926452338695526,-0.38761165738105774
1772574217371063000,3.21506298828125,-0.6272891163825989,0.07776200771331787,-0.40572062134742737
1772574217381004300,3.22500439453125,-0.5452661514282227,-0.10971900075674057,-0.40572062134742737
1772574217390935600,3.234935546875,-0.4792217016220093,-0.25991687178611755,-0.39932921528816223
1772574217400870100,3.2448701171875,-0.4312862157821655,-0.3588503897190094,-0.39719876646995544
1772574217410801700,3.2548017578125,-0.3918725848197937,-0.3822855055332184,-0.40572062134742737
1772574217420767200,3.264767333984375,-0.3481980562210083,-0.3940030634403229,-0.4525908827781677
1772574217430702300,3.274702392578125,-0.31411057710647583,-0.38548120856285095,-0.5260919332504272
1772574217440592600,3.284592529296875,-0.3066539466381073,-0.30146095156669617,-0.5697665214538574
1772574217450523100,3.294523193359375,-0.3290238380432129,-0.191741943359375,-0.6145063042640686
1772574217460451600,3.30445166015625,-0.3716331720352173,-0.07776200771331787,-0.6475285291671753
1772574217470381800,3.3143818359375,-0.3897421360015869,0.02982652559876442,-0.6592460870742798
1772574217480320000,3.324320068359375,-0.3673722445964813,0.17363297939300537,-0.6283543109893799
1772574217490251300,3.334251220703125,-0.316241055727005,0.3599156141281128,-0.5580489635467529
1772574217500180500,3.344180419921875,-0.2790910601615906,0.5750926733016968,-0.44939517974853516
1772574217510111200,3.354111328125,-0.299330472946167,0.7306166887283325,-0.32263246178627014
1772574217520078800,3.364078857421875,-0.3726983964443207,0.6997249722480774,-0.20878566801548004
1772574217530013400,3.374013427734375,-0.4461994767189026,0.5005263686180115,-0.1065233051776886
1772574217539942100,3.383942138671875,-0.4866783320903778,0.22156846523284912,0.0063913981430232525
1772574217549876200,3.393876220703125,-0.503722071647644,-0.09480573982000351,0.15552401542663574
1772574217559790000,3.4037900390625,-0.5175700783729553,-0.3918725848197937,0.335415244102478
1772574217569722000,3.41372216796875,-0.5431357026100159,-0.5857450366020203,0.5197005867958069
1772574217579655400,3.423655517578125,-0.5687012672424316,-0.6698983907699585,0.6688331961631775
1772574217589587700,3.433587646484375,-0.5484618544578552,-0.6145063042640686,0.7668346166610718
1772574217599529200,3.443529296875,-0.4557865858078003,-0.3290238380432129,0.8456618785858154
1772574217609462300,3.453462158203125,-0.35352420806884766,0.0639139786362648,0.8818798065185547
1772574217619363600,3.463363525390625,-0.3173062801361084,0.3513937294483185,0.8392704725265503
1772574217629293300,3.473293212890625,-0.35245898365974426,0.49413496255874634,0.7327471375465393
1772574217639247400,3.483247314453125,-0.4153077304363251,0.5410051941871643,0.6145063042640686
1772574217649179600,3.4931796875,-0.4536561071872711,0.48028692603111267,0.4983958899974823
1772574217659111000,3.50311083984375,-0.4738955497741699,0.2641777992248535,0.3780245780944824
1772574217669043200,3.513043212890625,-0.5079829692840576,-0.04047885537147522,0.2769605815410614
1772574217678977000,3.52297705078125,-0.5473966002464294,-0.3173062801361084,0.23754696547985077
1772574217688909600,3.53290966796875,-0.5527228116989136,-0.4770912528038025,0.26950395107269287
1772574217698846500,3.542846435546875,-0.5079829692840576,-0.49413496255874634,0.3620460629463196
1772574217708779300,3.552779296875,-0.4153077304363251,-0.3780245780944824,0.4738955497741699
1772574217718701800,3.562701904296875,-0.2897433936595917,-0.18535055220127106,0.5676360726356506
1772574217728633600,3.572633544921875,-0.14700216054916382,-0.01810896210372448,0.6123758554458618
1772574217738570000,3.582570068359375,-0.004260932095348835,0.01917419396340847,0.5889406800270081
1772574217748502300,3.592502197265625,0.12037133425474167,-0.05965305119752884,0.5154396295547485
1772574217758442500,3.6024423828125,0.21730753779411316,-0.15232832729816437,0.4110468029975891
1772574217768375600,3.61237548828125,0.27376487851142883,-0.2226337045431137,0.28122150897979736
1772574217778294300,3.622294189453125,0.28015628457069397,-0.28122150897979736,0.12569749355316162
1772574217788225800,3.632225830078125,0.25139498710632324,-0.33221954107284546,-0.0213046595454216
1772574217798159400,3.642159423828125,0.20772044360637665,-0.3790898025035858,-0.1065233051776886
1772574217808091100,3.652091064453125,0.16617634892463684,-0.3908073604106903,-0.09161003679037094
1772574217818033200,3.662033203125,0.12995843589305878,-0.3492632806301117,0.007456631399691105
1772574217827966000,3.671966064453125,0.14167599380016327,-0.27056917548179626,0.1395455300807953
1772574217837901300,3.6819013671875,0.2119813710451126,-0.17469821870326996,0.2641777992248535
1772574217847834400,3.69183447265625,0.34180665016174316,-0.08308817446231842,0.3705679476261139
1772574217857750000,3.70175,0.5069177746772766,0.02236989326775074,0.4557865858078003
1772574217867681500,3.711681640625,0.6496589779853821,0.13208889961242676,0.5069177746772766
1772574217877626600,3.721626708984375,0.7284862399101257,0.18535055220127106,0.5143743753433228
1772574217887559200,3.73155908203125,0.7433995008468628,0.1906767040491104,0.46963462233543396
1772574217897477600,3.7414775390625,0.7146382331848145,0.1928071826696396,0.36311131715774536
1772574217907408600,3.75140869140625,0.6645722389221191,0.1906767040491104,0.20558997988700867
1772574217917405400,3.761405517578125,0.6177020072937012,0.16511112451553345,0.02450035884976387
1772574217927343400,3.77134326171875,0.5889406800270081,0.10758853703737259,-0.13421936333179474
1772574217937208600,3.78120849609375,0.57296222448349,0.0532616525888443,-0.23861220479011536
1772574217947139000,3.79113916015625,0.57296222448349,0.007456631399691105,-0.30984964966773987
1772574217957069000,3.801069091796875,0.5665708184242249,0.0053261648863554,-0.35245898365974426
1772574217966999600,3.81099951171875,0.5452661514282227,0.06178351491689682,-0.3822855055332184
1772574217976933000,3.82093310546875,0.5133091807365417,0.15339355170726776,-0.4227643609046936
1772574217986863900,3.83086376953125,0.4547213613986969,0.24074266850948334,-0.47069984674453735
1772574217996796000,3.8407958984375,0.36630702018737793,0.3279586136341095,-0.5026568174362183
1772574218006727000,3.850726806640625,0.27056917548179626,0.404655396938324,-0.5015916228294373
1772574218016674600,3.860674560546875,0.20878566801548004,0.43022099137306213,-0.4685693681240082
1772574218026607000,3.870607177734375,0.18854624032974243,0.404655396938324,-0.39719876646995544
1772574218036527000,3.880527099609375,0.2023942768573761,0.3918725848197937,-0.2886781394481659
1772574218046458400,3.890458251953125,0.2332860380411148,0.447264701128006,-0.1384802907705307
1772574218056383500,3.900383544921875,0.26311254501342773,0.527157187461853,0.01171756349503994
1772574218066314000,3.91031396484375,0.2769605815410614,0.6017234921455383,0.12250179797410965
1772574218076255500,3.92025537109375,0.27376487851142883,0.6411371231079102,0.17363297939300537
1772574218086187300,3.930187255859375,0.27056917548179626,0.6358109712600708,0.1800243854522705
1772574218096116200,3.9401162109375,0.2577863931655884,0.5761579275131226,0.15339355170726776
1772574218106047700,3.9500478515625,0.21837277710437775,0.484547883272171,0.11291470378637314
1772574218115980500,3.95998046875,0.15339355170726776,0.40572062134742737,0.07563154399394989
1772574218125912000,3.969912109375,0.07669677585363388,0.3375457227230072,0.04687025398015976
1772574218135821600,3.979821533203125,0.0031956990715116262,0.28228676319122314,0.02236989326775074
1772574218145751000,3.9897509765625,-0.05432688444852829,0.23648172616958618,0.0010652330238372087
1772574218155719200,3.99971923828125,-0.08415340632200241,0.18641577661037445,-0.012782796286046505
1772574218165652500,4.009652587890625,-0.09800143539905548,0.14167599380016327,-0.0159784946590662
1772574218175574300,4.01957421875,-0.1171756312251091,0.1597849577665329,0.0159784946590662
1772574218185506600,4.029506591796875,-0.1374150663614273,0.1704372763633728,0.05645735189318657
1772574218195447000,4.039447021484375,-0.11184946447610855,0.14167599380016327,0.05752258375287056
1772574218205379800,4.0493798828125,-0.03408745676279068,0.24074266850948334,0.11930610239505768
1772574218215301600,4.059301513671875,0.11078423261642456,0.35565468668937683,0.191741943359375
1772574218225233400,4.0692333984375,0.25032976269721985,0.3897421360015869,0.22156846523284912
1772574218235164700,4.07916455078125,0.30984964966773987,0.3460675776004791,0.24713405966758728
1772574218245096700,4.0890966796875,0.27056917548179626,0.29400432109832764,0.28335198760032654
1772574218255048400,4.09904833984375,0.15445879101753235,0.2141118347644806,0.299330472946167
1772574218264982300,4.108982177734375,-0.01491326279938221,0.07350108027458191,0.2684387266635895
1772574218274891800,4.118891845703125,-0.19706811010837555,-0.07137060910463333,0.19387240707874298
1772574218284823000,4.128822998046875,-0.36524176597595215,-0.16830681264400482,0.10439283400774002
1772574218294763000,4.138762939453125,-0.48241740465164185,-0.20878566801548004,0.0426093190908432
1772574218304695300,4.1486953125,-0.5058525204658508,-0.17682868242263794,0.04473978653550148
1772574218314632200,4.158632080078125,-0.41637295484542847,-0.0319569893181324,0.1374150663614273
1772574218324564700,4.168564697265625,-0.24713405966758728,0.22050324082374573,0.34180665016174316
1772574218334485000,4.178485107421875,-0.1065233051776886,0.34180665016174316,0.5559184551239014
1772574218344416500,4.18841650390625,-0.05006595328450203,0.3087844252586365,0.6730940937995911
1772574218354367500,4.198367431640625,-0.05219641700387001,0.2897433936595917,0.703985869884491
1772574218364301000,4.208301025390625,-0.10439283400774002,0.29293906688690186,0.6475285291671753
1772574218374213000,4.218213134765625,-0.18322007358074188,0.24180789291858673,0.5005263686180115
1772574218384144400,4.228144287109375,-0.2556559145450592,0.12463226169347763,0.30146095156669617
1772574218394091000,4.238091064453125,-0.3194367587566376,-0.01384802907705307,0.08841434121131897
1772574218404024000,4.248024169921875,-0.3908073604106903,-0.1480673849582672,-0.13421936333179474
1772574218413951200,4.257951171875,-0.46963462233543396,-0.275895357131958,-0.3609808385372162
1772574218423883500,4.267883544921875,-0.5314181447029114,-0.31091487407684326,-0.5836145281791687
1772574218433816000,4.277816162109375,-0.574027419090271,-0.2556559145450592,-0.7987915873527527
1772574218443748400,4.287748291015625,-0.611310601234436,-0.14167599380016327,-0.9882699251174927
1772574218453669600,4.297669677734375,-0.634745717048645,0.009587096981704235,-1.1363372802734375
1772574218463601000,4.307600830078125,-0.6432675719261169,0.15339355170726776,-1.222621202468872
1772574218473530400,4.3175302734375,-0.658180832862854,0.2769605815410614,-1.246056318283081
1772574218483438600,4.3274384765625,-0.726355791091919,0.34500235319137573,-1.192794680595398
1772574218503330600,4.34733056640625,-0.7998568415641785,0.22689463198184967,-0.9893351793289185
1772574218513264600,4.3572646484375,-0.8318138122558594,0.11184946447610855,-0.8563141822814941
1772574218523192300,4.3671923828125,-0.8627055883407593,-0.04473978653550148,-0.7231600880622864
1772574218533125600,4.377125732421875,-0.8797492980957031,-0.22795987129211426,-0.5974625945091248
1772574218543056600,4.387056640625,-0.8786841034889221,-0.40678587555885315,-0.4898740351200104
1772574218552989700,4.39698974609375,-0.8627055883407593,-0.596397340297699,-0.41850343346595764
1772574218562898200,4.406898193359375,-0.8328790664672852,-0.7806826233863831,-0.3726983964443207
1772574218572829000,4.416828857421875,-0.825422465801239,-0.895727813243866,-0.30984964966773987
1772574218582798000,4.426798095703125,-0.848857581615448,-0.9563129544258118,-0.22156846523284912
1772574218592732700,4.436732666015625,-0.8690969944000244,-0.9275516271591187,-0.1374150663614273
1772574218602651600,4.446651611328125,-0.8861407041549683,-0.8190310597419739,-0.04687025398015976
1772574218612584700,4.456584716796875,-0.8520532846450806,-0.7604432106018066,0.01171756349503994
1772574218622514200,4.46651416015625,-0.7764217257499695,-0.764704167842865,0.02343512699007988
1772574218632446700,4.47644677734375,-0.6912030577659607,-0.8051829934120178,0.004260932095348835
1772574218642354000,4.48635400390625,-0.6081148982048035,-0.8424661755561829,-0.04367455467581749
1772574218652284000,4.496283935546875,-0.5324833393096924,-0.8531184792518616,-0.0958709716796875
1772574218662222600,4.50622265625,-0.4685693681240082,-0.8275529146194458,-0.1491326242685318
1772574218672153600,4.516153564453125,-0.41850343346595764,-0.7540518045425415,-0.19813334941864014
1772574218682082000,4.52608203125,-0.4014596939086914,-0.6432675719261169,-0.22156846523284912
1772574218692012800,4.5360126953125,-0.38441595435142517,-0.5410051941871643,-0.22156846523284912
1772574218701944600,4.545944580078125,-0.3386109471321106,-0.4248948097229004,-0.22050324082374573
1772574218711875300,4.555875244140625,-0.3045234978199005,-0.30146095156669617,-0.22050324082374573
1772574218721810700,4.565810791015625,-0.2865476906299591,-0.17576344311237335,-0.21943800151348114
1772574218731742000,4.575741943359375,-0.28335198760032654,-0.07030537724494934,-0.2247641682624817
1772574218741699600,4.585699462890625,-0.2663082480430603,-0.0063913981430232525,-0.22582940757274628
1772574218751633700,4.595633544921875,-0.2641777992248535,0.004260932095348835,-0.20985090732574463
1772574218761564000,4.60556396484375,-0.2780258059501648,-0.0319569893181324,-0.15445879101753235
1772574218771497500,4.61549755859375,-0.28015628457069397,-0.07882724702358246,-0.04580501839518547
1772574218781421800,4.625421875,-0.26204732060432434,-0.13634982705116272,0.09480573982000351
1772574218791354400,4.635354248046875,-0.20452474057674408,-0.19813334941864014,0.23009033501148224
1772574218801266000,4.645265869140625,-0.10971900075674057,-0.19493764638900757,0.34287187457084656
1772574218811196700,4.65519677734375,0.03302222490310669,-0.14274121820926666,0.4461994767189026
1772574218821112600,4.665112548828125,0.1384802907705307,-0.191741943359375,0.5165048837661743
1772574218831041500,4.67504150390625,0.1288931965827942,-0.35458943247795105,0.5442008972167969
1772574218840992500,4.684992431640625,0.05645735189318657,-0.43874284625053406,0.5665708184242249
1772574218850923800,4.694923828125,-0.0426093190908432,-0.4227643609046936,0.5825493335723877
1772574218860855800,4.704855712890625,-0.15445879101753235,-0.40998154878616333,0.5655055642127991
1772574218870787000,4.714787109375,-0.24926452338695526,-0.4153077304363251,0.5026568174362183
1772574218880757200,4.72475732421875,-0.28441721200942993,-0.4014596939086914,0.4142425060272217
1772574218890692600,4.734692626953125,-0.2450035959482193,-0.33221954107284546,0.3386109471321106
1772574218900606700,4.744606689453125,-0.14700216054916382,-0.1810896098613739,0.3077192008495331
1772574218910539800,4.754539794921875,-0.00852186419069767,0.10758853703737259,0.3268933892250061
1772574218920472000,4.76447216796875,0.17576344311237335,0.45046040415763855,0.3503285050392151
1772574218930405000,4.774405029296875,0.3918725848197937,0.7370080947875977,0.335415244102478
1772574218940336600,4.784336669921875,0.5942668914794922,0.8797492980957031,0.2545906901359558
1772574218950269400,4.79426953125,0.7444647550582886,0.872292697429657,0.10758853703737259
1772574218960205000,4.804205078125,0.82648766040802,0.7497909069061279,-0.0852186381816864
1772574218970138400,4.814138427734375,0.8456618785858154,0.5591141581535339,-0.28228676319122314
1772574218980068600,4.824068603515625,0.8200962543487549,0.34500235319137573,-0.44832995533943176
1772574218990001400,4.83400146484375,0.7433995008468628,0.14593692123889923,-0.5591141581535339
1772574218999927600,4.843927490234375,0.6251586079597473,0.004260932095348835,-0.6155715584754944
1772574219009859600,4.853859619140625,0.4983958899974823,-0.05858781561255455,-0.6208977103233337
1772574219019790300,4.863790283203125,0.3929378390312195,-0.06071828305721283,-0.5868102312088013
1772574219029722400,4.873722412109375,0.33328479528427124,-0.0021304660476744175,-0.5207657814025879
1772574219039668700,4.883668701171875,0.3258281648159027,0.09054480493068695,-0.4227643609046936
1772574219049602000,4.89360205078125,0.36417654156684875,0.18854624032974243,-0.29400432109832764
1772574219059520500,4.9035205078125,0.4312862157821655,0.2780258059501648,-0.1491326242685318
1772574219069452500,4.91345263671875,0.4994611442089081,0.34393709897994995,-0.02450035884976387
1772574219079383800,4.9233837890625,0.5516575574874878,0.36417654156684875,0.06178351491689682
1772574219089315600,4.933315673828125,0.5974625945091248,0.3364804685115814,0.10971900075674057
1772574219099259000,4.9432587890625,0.6358109712600708,0.2748301327228546,0.1267627328634262
1772574219109192000,4.95319189453125,0.6475285291671753,0.17363297939300537,0.10119713842868805
1772574219119111000,4.96311083984375,0.6485937833786011,0.07669677585363388,0.04367455467581749
1772574219129042400,4.97304248046875,0.657115638256073,0.03408745676279068,-0.02023942768573761
1772574219138975700,4.982975830078125,0.6709636449813843,0.03089175745844841,-0.05965305119752884
1772574219148907500,4.992907470703125,0.6890726089477539,0.06284874677658081,-0.05858781561255455
1772574219158840300,5.00284033203125,0.7018554210662842,0.12995843589305878,-0.0213046595454216
1772574219168772000,5.012772216796875,0.6986597180366516,0.2130466103553772,0.03834838792681694
1772574219178699800,5.02269970703125,0.680550754070282,0.2790910601615906,0.09906667470932007
1772574219188631000,5.032631103515625,0.6464632749557495,0.31198012828826904,0.14593692123889923
1772574219198563800,5.042563720703125,0.6070496439933777,0.2886781394481659,0.17363297939300537
1772574219208495400,5.052495361328125,0.5591141581535339,0.21091613173484802,0.1821548491716385
1772574219218443500,5.062443603515625,0.5026568174362183,0.12143656611442566,0.17363297939300537
1772574219228376800,5.072376953125,0.4355471432209015,0.05645735189318657,0.1480673849582672
1772574219238300000,5.0822998046875,0.36630702018737793,0.02450035884976387,0.12356702983379364
1772574219248232000,5.09223193359375,0.3066539466381073,0.0063913981430232525,0.11397993564605713
1772574219258168000,5.10216796875,0.2641777992248535,0.004260932095348835,0.13102366030216217
1772574219268100600,5.1121005859375,0.2535254657268524,0.02769605815410614,0.16830681264400482
1772574219278035500,5.122035400390625,0.2641777992248535,0.07669677585363388,0.21624229848384857
1772574219287968500,5.131968505859375,0.2769605815410614,0.15339355170726776,0.256721168756485
1772574219297883100,5.141883056640625,0.2790910601615906,0.23115555942058563,0.27269965410232544
1772574219307814400,5.151814453125,0.26950395107269287,0.2961347699165344,0.2545906901359558
1772574219317751600,5.16175146484375,0.25032976269721985,0.3471328020095825,0.22050324082374573
1772574219327683000,5.17168310546875,0.2247641682624817,0.38654643297195435,0.17895914614200592
1772574219337627600,5.181627685546875,0.18428531289100647,0.3897421360015869,0.1288931965827942
1772574219347560400,5.191560546875,0.14167599380016327,0.3567199110984802,0.06178351491689682
1772574219357474300,5.201474365234375,0.10226237028837204,0.3087844252586365,-0.02450035884976387
1772574219367405300,5.2114052734375,0.05965305119752884,0.2865476906299591,-0.12995843589305878
1772574219377346600,5.2213466796875,0.02450035884976387,0.29293906688690186,-0.2460688352584839
1772574219387278600,5.231278564453125,0.0010652330238372087,0.3194367587566376,-0.3471328020095825
1772574219397187000,5.24118701171875,-0.007456631399691105,0.35565468668937683,-0.404655396938324
1772574219407116800,5.25111669921875,0.007456631399691105,0.3940030634403229,-0.4110468029975891
1772574219417056800,5.261056884765625,0.0532616525888443,0.43980807065963745,-0.3790898025035858
1772574219426987500,5.270987548828125,0.08841434121131897,0.5069177746772766,-0.30252617597579956
1772574219436931600,5.280931640625,0.13634982705116272,0.5868102312088013,-0.18854624032974243
1772574219446863600,5.290863525390625,0.1928071826696396,0.657115638256073,-0.0639139786362648
1772574219456808700,5.30080859375,0.20665520429611206,0.6496589779853821,0.02982652559876442
1772574219466742000,5.310741943359375,0.17469821870326996,0.6304848194122314,0.10971900075674057
1772574219476662800,5.320662841796875,0.1384802907705307,0.6965292692184448,0.20665520429611206
1772574219486595000,5.330594970703125,0.11824086308479309,0.7913349866867065,0.2982652485370636
1772574219496483300,5.3404833984375,0.08734910935163498,0.811574399471283,0.339676171541214
1772574219516390400,5.360390380859375,-0.1693720519542694,0.5335485935211182,0.09054480493068695
1772574219526326300,5.370326171875,-0.4121120274066925,0.27269965410232544,-0.19387240707874298
1772574219536265000,5.380264892578125,-0.6294195652008057,0.05539211630821228,-0.4898740351200104
1772574219546201000,5.390201171875,-0.7402037978172302,-0.05858781561255455,-0.7082468271255493
1772574219556123000,5.400122802734375,-0.7274209856987,-0.07030537724494934,-0.7934654355049133
1772574219566057500,5.410057373046875,-0.619832456111908,-0.02982652559876442,-0.7274209856987
1772574219575980000,5.41997998046875,-0.4749607741832733,0.01491326279938221,-0.527157187461853
1772574219585913600,5.42991357421875,-0.335415244102478,0.01384802907705307,-0.26098209619522095
1772574219595846400,5.439846435546875,-0.2641777992248535,-0.03941362351179123,0.01810896210372448
1772574219605780000,5.449780029296875,-0.28015628457069397,-0.14487169682979584,0.29187384247779846
1772574219615712800,5.459712646484375,-0.3386109471321106,-0.28122150897979736,0.527157187461853
1772574219625646000,5.46964599609375,-0.404655396938324,-0.41743817925453186,0.6933335661888123
1772574219635586300,5.47958642578125,-0.4536561071872711,-0.5260919332504272,0.7732260227203369
1772574219645520400,5.489520263671875,-0.49200451374053955,-0.5900059342384338,0.7583127617835999
1772574219655436300,5.499436279296875,-0.5239614844322205,-0.6390066742897034,0.6464632749557495
1772574219665368600,5.50936865234375,-0.5537880063056946,-0.6901378631591797,0.4525908827781677
1772574219675300600,5.519300537109375,-0.5825493335723877,-0.7146382331848145,0.2119813710451126
1772574219685233000,5.52923291015625,-0.6081148982048035,-0.6741593480110168,-0.02769605815410614
1772574219695164700,5.53916455078125,-0.6390066742897034,-0.5442008972167969,-0.23115555942058563
1772574219705096700,5.5490966796875,-0.6741593480110168,-0.3481980562210083,-0.38761165738105774
1772574219715028200,5.5590283203125,-0.7018554210662842,-0.1480673849582672,-0.49200451374053955
1772574219724960300,5.568960205078125,-0.7050511240959167,0.0021304660476744175,-0.5410051941871643
1772574219734891300,5.578891357421875,-0.6826812028884888,0.08415340632200241,-0.527157187461853
1772574219744823300,5.5888232421875,-0.6677679419517517,0.1171756312251091,-0.47069984674453735
1772574219754730800,5.598730712890625,-0.6688331961631775,0.10439283400774002,-0.4025249183177948
1772574219764660500,5.608660400390625,-0.6507242321968079,0.07243584841489792,-0.34180665016174316
1772574219774633500,5.618633544921875,-0.6528546810150146,0.01384802907705307,-0.2961347699165344
1772574219784567300,5.6285673828125,-0.6848116517066956,-0.07669677585363388,-0.2577863931655884
1772574219794496800,5.638496826171875,-0.7284862399101257,-0.15658925473690033,-0.20878566801548004
1772574219804430300,5.648430419921875,-0.7732260227203369,-0.2332860380411148,-0.14167599380016327
1772574219814327800,5.658327880859375,-0.8243572115898132,-0.335415244102478,-0.07989247888326645
1772574219824257500,5.668257568359375,-0.8669665455818176,-0.4557865858078003,-0.02663082629442215
1772574219834188800,5.678188720703125,-0.8840102553367615,-0.5569837093353271,0.03408745676279068
1772574219844118800,5.688118896484375,-0.8680317401885986,-0.6177020072937012,0.09693620353937149
1772574219854088200,5.698088134765625,-0.8296833634376526,-0.657115638256073,0.15765449404716492
1772574219864022300,5.708022216796875,-0.7753564715385437,-0.6901378631591797,0.2130466103553772
1772574219873916200,5.717916259765625,-0.7061163187026978,-0.7199643850326538,0.2588516175746918
1772574219883846000,5.727845947265625,-0.619832456111908,-0.7348776459693909,0.29293906688690186
1772574219893798100,5.737798095703125,-0.5463314056396484,-0.7338123917579651,0.2982652485370636
1772574219903730200,5.747730224609375,-0.4973306655883789,-0.7082468271255493,0.2684387266635895
1772574219913647000,5.757647216796875,-0.4632432162761688,-0.6528546810150146,0.20878566801548004
1772574219923577600,5.76757763671875,-0.43767762184143066,-0.5708317756652832,0.13315412402153015
1772574219933541400,5.777541259765625,-0.42063388228416443,-0.46963462233543396,0.05219641700387001
1772574219943475500,5.787475341796875,-0.40998154878616333,-0.3503285050392151,-0.01491326279938221
1772574219953374000,5.7973740234375,-0.39932921528816223,-0.20665520429611206,-0.05432688444852829
1772574219963304400,5.807304443359375,-0.39613354206085205,-0.0532616525888443,-0.06924014538526535
1772574219973262600,5.8172626953125,-0.39932921528816223,0.05219641700387001,-0.07137060910463333
1772574219983196000,5.82719580078125,-0.3886769115924835,0.09054480493068695,-0.06178351491689682
1772574219993134800,5.837134765625,-0.3822855055332184,0.06710968166589737,-0.04154408723115921
1772574220003068700,5.847068603515625,-0.40572062134742737,-0.0021304660476744175,-0.01171756349503994
1772574220012995800,5.856995849609375,-0.44087332487106323,-0.07563154399394989,0.03941362351179123
1772574220022929200,5.86692919921875,-0.45898228883743286,-0.11824086308479309,0.09693620353937149
1772574220032850700,5.8768505859375,-0.43980807065963745,-0.1395455300807953,0.1278279572725296
1772574220042782700,5.88678271484375,-0.37376365065574646,-0.15232832729816437,0.1267627328634262
1772574220052713700,5.896713623046875,-0.2577863931655884,-0.1384802907705307,0.12037133425474167
1772574220062645800,5.906645751953125,-0.09161003679037094,-0.03834838792681694,0.14061075448989868
1772574220072578000,5.916578125,0.11611039936542511,0.18641577661037445,0.21517707407474518
1772574220082510000,5.926510009765625,0.35245898365974426,0.4632432162761688,0.32476291060447693
1772574220092429600,5.9364296875,0.5676360726356506,0.6922683119773865,0.4121120274066925
1772574220102360300,5.9463603515625,0.7114425301551819,0.8531184792518616,0.447264701128006
1772574220112306200,5.95630615234375,0.7828131318092346,0.9946613311767578,0.42915576696395874
1772574220122238500,5.966238525390625,0.7710955739021301,1.0947932004928589,0.34287187457084656
1772574220132174000,5.976174072265625,0.6283543109893799,1.0969237089157104,0.18641577661037445
1772574220142106600,5.986106689453125,0.37376365065574646,0.977617621421814,-0.03302222490310669
1772574220152045600,5.996045654296875,0.07882724702358246,0.7892045378684998,-0.2577863931655884
1772574220161979000,6.005978759765625,-0.14061075448989868,0.6272891163825989,-0.40572062134742737
1772574220171896800,6.015896728515625,-0.21624229848384857,0.5623098611831665,-0.44300377368927
1772574220181828400,6.025828369140625,-0.15126308798789978,0.5932016372680664,-0.38761165738105774
1772574220191762000,6.035761962890625,0.02023942768573761,0.6826812028884888,-0.2790910601615906
1772574220201693700,6.045693603515625,0.24819929897785187,0.7636389136314392,-0.1608501821756363
1772574220211625700,6.055625732421875,0.4653736650943756,0.764704167842865,-0.08947957307100296
1772574220221557800,6.065557861328125,0.6272891163825989,0.6656374931335449,-0.09693620353937149
1772574220231493000,6.0754931640625,0.7284862399101257,0.5197005867958069,-0.1693720519542694
1772574220241425200,6.085425048828125,0.7785521745681763,0.36630702018737793,-0.27056917548179626
1772574220251356400,6.0953564453125,0.7828131318092346,0.20558997988700867,-0.38441595435142517
1772574220261288400,6.105288330078125,0.7497909069061279,0.02450035884976387,-0.4770912528038025
1772574220271232500,6.115232421875,0.6901378631591797,-0.18322007358074188,-0.5218310356140137
1772574220281165800,6.125165771484375,0.634745717048645,-0.3929378390312195,-0.5026568174362183
1772574220291081000,6.1350810546875,0.6230281591415405,-0.5484618544578552,-0.42915576696395874
1772574220301012200,6.14501220703125,0.6592460870742798,-0.6294195652008057,-0.33008909225463867
1772574220310958000,6.1549580078125,0.7103772759437561,-0.6272891163825989,-0.20772044360637665
1772574220320891000,6.164890869140625,0.7924002408981323,-0.5420704483985901,-0.07137060910463333
1772574220330795300,6.174795166015625,0.9158340692520142,-0.35458943247795105,0.06497921794652939
1772574220340725500,6.1847255859375,1.0234225988388062,-0.06497921794652939,0.18854624032974243
1772574220350686500,6.1946865234375,1.068162441253662,0.24713405966758728,0.2663082480430603
1772574220360619800,6.204619873046875,1.0340749025344849,0.49093925952911377,0.27056917548179626
1772574220370541600,6.21454150390625,0.9488562941551208,0.6443328261375427,0.20452474057674408
1772574220380473600,6.2244736328125,0.848857581615448,0.7274209856987,0.08841434121131897
1772574220390405000,6.234405029296875,0.7551170587539673,0.7487256526947021,-0.03941362351179123
1772574220400337200,6.244337158203125,0.6762897968292236,0.718899130821228,-0.14487169682979584
1772574220410278100,6.254278076171875,0.6091801524162292,0.6826812028884888,-0.19706811010837555
1772574220420211200,6.264211181640625,0.5633751153945923,0.6613765358924866,-0.2013290375471115
1772574220430130400,6.27413037109375,0.535679042339325,0.6539199352264404,-0.17576344311237335
1772574220440062200,6.284062255859375,0.5175700783729553,0.6656374931335449,-0.14167599380016327
1772574220449993200,6.2939931640625,0.5058525204658508,0.7103772759437561,-0.10226237028837204
1772574220459924700,6.3039248046875,0.5005263686180115,0.7806826233863831,-0.05858781561255455
1772574220469857800,6.31385791015625,0.4983958899974823,0.8435314297676086,-0.007456631399691105
1772574220479789300,6.323789306640625,0.49200451374053955,0.8690969944000244,0.04154408723115921
1772574220489698300,6.3336982421875,0.48348262906074524,0.8584446907043457,0.0852186381816864
1772574220509585400,6.35358544921875,0.4461994767189026,0.7892045378684998,0.08734910935163498
1772574220519519200,6.363519287109375,0.41743817925453186,0.7370080947875977,0.03302222490310669
1772574220529451000,6.373450927734375,0.3897421360015869,0.6912030577659607,-0.04473978653550148
1772574220539384600,6.383384521484375,0.3503285050392151,0.6475285291671753,-0.11824086308479309
1772574220549324300,6.39332421875,0.29506954550743103,0.574027419090271,-0.16404588520526886
1772574220559258600,6.403258544921875,0.2247641682624817,0.46963462233543396,-0.16724158823490143
1772574220569179100,6.41317919921875,0.14593692123889923,0.3673722445964813,-0.1267627328634262
1772574220579112000,6.42311181640625,0.07669677585363388,0.2684387266635895,-0.05858781561255455
1772574220589054200,6.43305419921875,0.03089175745844841,0.1810896098613739,0.01171756349503994
1772574220598987800,6.44298779296875,-0.0031956990715116262,0.1278279572725296,0.06604444980621338
1772574220608920000,6.452920166015625,-0.03515268862247467,0.11611039936542511,0.11504516750574112
1772574220618853600,6.462853515625,-0.06284874677658081,0.15765449404716492,0.16191542148590088
1772574220628773000,6.472773193359375,-0.07350108027458191,0.23861220479011536,0.2119813710451126
1772574220638705200,6.482705078125,-0.06604444980621338,0.31198012828826904,0.25991687178611755
1772574220648633900,6.4926337890625,-0.04793548583984375,0.3620460629463196,0.29187384247779846
1772574220658566000,6.50256591796875,-0.05219641700387001,0.37695932388305664,0.29080861806869507
1772574220668503300,6.51250341796875,-0.10226237028837204,0.339676171541214,0.24287313222885132
1772574220678435600,6.522435546875,-0.1715025156736374,0.28228676319122314,0.1693720519542694
1772574220688354600,6.5323544921875,-0.22156846523284912,0.24819929897785187,0.1171756312251091
1772574220698285800,6.542285888671875,-0.23967742919921875,0.22050324082374573,0.10119713842868805
1772574220708224000,6.55222412109375,-0.22050324082374573,0.2013290375471115,0.12143656611442566
1772574220718155800,6.56215576171875,-0.17895914614200592,0.21837277710437775,0.17363297939300537
1772574220728090400,6.57209033203125,-0.1501978635787964,0.2450035959482193,0.20558997988700867
1772574220738022400,6.5820224609375,-0.15232832729816437,0.22795987129211426,0.16298064589500427
1772574220747966700,6.591966796875,-0.18535055220127106,0.16404588520526886,0.04047885537147522
1772574220757899800,6.601899658203125,-0.252460241317749,0.07243584841489792,-0.15232832729816437
1772574220767820300,6.6118203125,-0.3577851355075836,-0.06178351491689682,-0.400394469499588
1772574220777752300,6.62175244140625,-0.48135218024253845,-0.2013290375471115,-0.6709636449813843
1772574220787690800,6.631690673828125,-0.5687012672424316,-0.2865476906299591,-0.9021192193031311
1772574220797623600,6.64162353515625,-0.5804188251495361,-0.28441721200942993,-1.017031192779541
1772574220807550700,6.65155078125,-0.5207657814025879,-0.21517707407474518,-0.9754871129989624
1772574220817483000,6.66148291015625,-0.40572062134742737,-0.12143656611442566,-0.7710955739021301
1772574220827407400,6.671407470703125,-0.2460688352584839,-0.02663082629442215,-0.4248948097229004
1772574220837339000,6.6813388671875,-0.0852186381816864,0.0426093190908432,0
1772574220847272700,6.691272705078125,0.0319569893181324,0.0426093190908432,0.404655396938324
1772574220857204200,6.701204345703125,0.1065233051776886,-0.05752258375287056,0.7103772759437561
1772574220867140000,6.71114013671875,0.13528458774089813,-0.2332860380411148,0.8914669156074524
1772574220877072100,6.721072021484375,0.14167599380016327,-0.41956865787506104,0.9573782086372375
1772574220887002600,6.731002685546875,0.1395455300807953,-0.5676360726356506,0.9296821355819702
1772574220896934700,6.7409345703125,0.12143656611442566,-0.6741593480110168,0.811574399471283
1772574220906864600,6.75086474609375,0.07882724702358246,-0.7402037978172302,0.6145063042640686
1772574220916796400,6.76079638671875,0.01704372838139534,-0.7519213557243347,0.3673722445964813
1772574220926750000,6.77075,-0.04687025398015976,-0.7061163187026978,0.10865376889705658
1772574220936683800,6.780683837890625,-0.1171756312251091,-0.611310601234436,-0.1171756312251091
1772574220946591200,6.79059130859375,-0.18535055220127106,-0.4653736650943756,-0.2876129150390625
1772574220956522500,6.8005224609375,-0.23861220479011536,-0.30146095156669617,-0.39719876646995544
1772574220966454000,6.8104541015625,-0.27163442969322205,-0.1597849577665329,-0.4536561071872711
1772574220976385300,6.82038525390625,-0.2886781394481659,-0.05965305119752884,-0.47069984674453735
1772574220986301400,6.830301513671875,-0.2876129150390625,0,-0.4579170346260071
1772574220996231400,6.8402314453125,-0.29293906688690186,0.03515268862247467,-0.42596006393432617
1772574221006165800,6.850165771484375,-0.316241055727005,0.04154408723115921,-0.3918725848197937
1772574221016096000,6.860095947265625,-0.3513937294483185,0.01171756349503994,-0.3577851355075836
1772574221025993200,6.8699931640625,-0.3822855055332184,-0.05645735189318657,-0.3258281648159027
1772574221045927200,6.88992724609375,-0.39932921528816223,-0.28228676319122314,-0.30359140038490295
1772574221055863800,6.89986376953125,-0.4216991364955902,-0.400394469499588,-0.32156720757484436
1772574221065754400,6.90975439453125,-0.4440690279006958,-0.44939517974853516,-0.32263246178627014
1772574221075686400,6.919686279296875,-0.47283029556274414,-0.447264701128006,-0.31091487407684326
1772574221085623800,6.929623779296875,-0.5090482234954834,-0.45046040415763855,-0.3003957271575928
1772574221095556400,6.939556396484375,-0.5314181447029114,-0.46004751324653625,-0.2865476906299591
1772574221105486800,6.94948681640625,-0.5250267386436462,-0.4568518102169037,-0.256721168756485
1772574221115419100,6.959419189453125,-0.4983958899974823,-0.4323514401912689,-0.20772044360637665
1772574221125348900,6.969348876953125,-0.46217799186706543,-0.42063388228416443,-0.1480673849582672
1772574221135281000,6.979281005859375,-0.4131772518157959,-0.4334166944026947,-0.08308817446231842
1772574221145210000,6.989210205078125,-0.34180665016174316,-0.46111273765563965,-0.01704372838139534
1772574221155142000,6.999141845703125,-0.2535254657268524,-0.4898740351200104,0.04473978653550148
1772574221165096400,7.009096435546875,-0.1821548491716385,-0.5090482234954834,0.10013190656900406
1772574221175030800,7.01903076171875,-0.14487169682979584,-0.527157187461853,0.13634982705116272
1772574221184960800,7.028960693359375,-0.13315412402153015,-0.5335485935211182,0.15445879101753235
1772574221194894600,7.03889453125,-0.12995843589305878,-0.5015916228294373,0.1704372763633728
1772574221204833000,7.0488330078125,-0.14061075448989868,-0.4323514401912689,0.17789392173290253
1772574221214767400,7.058767333984375,-0.15339355170726776,-0.35245898365974426,0.17256775498390198
1772574221224689000,7.06868896484375,-0.15339355170726776,-0.2652430236339569,0.16617634892463684
1772574221234621700,7.07862158203125,-0.1384802907705307,-0.1704372763633728,0.15658925473690033
1772574221244551200,7.08855126953125,-0.09693620353937149,-0.08308817446231842,0.1374150663614273
1772574221254483700,7.098483642578125,-0.0319569893181324,0.0053261648863554,0.10332760214805603
1772574221264416800,7.108416748046875,0.03408745676279068,0.09054480493068695,0.04900071769952774
1772574221274349600,7.118349609375,0.0958709716796875,0.15126308798789978,-0.01384802907705307
1772574221284290600,7.12829052734375,0.15765449404716492,0.21091613173484802,-0.05645735189318657
1772574221294224000,7.138223876953125,0.23009033501148224,0.29187384247779846,-0.05752258375287056
1772574221304145700,7.148145751953125,0.33435001969337463,0.38654643297195435,-0.01917419396340847
1772574221314078000,7.158077880859375,0.49093925952911377,0.5260919332504272,0.06924014538526535
1772574221324009000,7.168009033203125,0.6613765358924866,0.7157034277915955,0.1928071826696396
1772574221333941000,7.17794091796875,0.7785521745681763,0.8382052183151245,0.29506954550743103
1772574221343873500,7.18787353515625,0.8051829934120178,0.849922776222229,0.3492632806301117
1772574221353805800,7.197805908203125,0.7678998708724976,0.8073135018348694,0.3588503897190094
1772574221363749600,7.20774951171875,0.6688331961631775,0.7348776459693909,0.32476291060447693
1772574221373683000,7.217682861328125,0.4792217016220093,0.5953320860862732,0.2226337045431137
1772574221383600000,7.22760009765625,0.17682868242263794,0.381220281124115,0.0532616525888443
1772574221393532000,7.237531982421875,-0.1821548491716385,0.1608501821756363,-0.1384802907705307
1772574221403469600,7.247469482421875,-0.4770912528038025,0.01917419396340847,-0.3066539466381073
1772574221413402000,7.257402099609375,-0.6134410500526428,-0.0031956990715116262,-0.42596006393432617
1772574221423329300,7.267329345703125,-0.6027887463569641,0.06924014538526535,-0.48348262906074524
1772574221433261000,7.277260986328125,-0.484547883272171,0.2130466103553772,-0.47069984674453735
1772574221443202000,7.2872021484375,-0.27056917548179626,0.40785109996795654,-0.404655396938324
1772574221453134800,7.297134765625,-0.01384802907705307,0.5718969702720642,-0.33221954107284546
1772574221463068700,7.307068603515625,0.24819929897785187,0.6123758554458618,-0.31091487407684326
1772574221473001500,7.31700146484375,0.4781564772129059,0.5644403696060181,-0.35458943247795105
1772574221482933500,7.32693359375,0.634745717048645,0.44939517974853516,-0.4355471432209015
1772574221492866300,7.3368662109375,0.7061163187026978,0.2673735022544861,-0.5207657814025879
1772574221502784300,7.3467841796875,0.7125077247619629,0.05432688444852829,-0.5708317756652832
1772574221512715500,7.356715576171875,0.6837464570999146,-0.14380645751953125,-0.5665708184242249
1772574221522647300,7.366647216796875,0.6517894268035889,-0.3183715343475342,-0.5143743753433228
1772574221532578600,7.37657861328125,0.634745717048645,-0.4675041437149048,-0.4323514401912689
1772574221542516700,7.386516845703125,0.6304848194122314,-0.5708317756652832,-0.32369768619537354
1772574221552448800,7.39644873046875,0.6400718688964844,-0.611310601234436,-0.1928071826696396
1772574221562374100,7.4063740234375,0.6826812028884888,-0.5633751153945923,-0.04793548583984375
1772574221572305400,7.416305419921875,0.7508561015129089,-0.44939517974853516,0.09054480493068695
1772574221582240500,7.426240478515625,0.8318138122558594,-0.32050198316574097,0.20558997988700867
1772574221592172300,7.43617236328125,0.9095758199691772,-0.17363297939300537,0.30146095156669617
1772574221602091500,7.446091552734375,0.9744219183921814,-0.01384802907705307,0.3609808385372162
1772574221612021800,7.456021728515625,1.001052737236023,0.1278279572725296,0.3577851355075836
1772574221621969000,7.465968994140625,0.9808133244514465,0.24074266850948334,0.3003957271575928
1772574221631901000,7.47590087890625,0.9328778386116028,0.33008909225463867,0.20985090732574463
1772574221641847000,7.485846923828125,0.8669665455818176,0.3886769115924835,0.10332760214805603
1772574221651780600,7.495780517578125,0.7828131318092346,0.4014596939086914,0.0031956990715116262
1772574221661712100,7.505712158203125,0.6997249722480774,0.37589409947395325,-0.06817491352558136
1772574221671645400,7.5156455078125,0.6262238621711731,0.3258281648159027,-0.10865376889705658
1772574221681572000,7.525572021484375,0.5612446665763855,0.2673735022544861,-0.1374150663614273
1772574221691505000,7.5355048828125,0.4952002167701721,0.2236989289522171,-0.16298064589500427
1772574221701426200,7.54542626953125,0.42809051275253296,0.20772044360637665,-0.1928071826696396
1772574221711357700,7.555357666015625,0.3599156141281128,0.2226337045431137,-0.23009033501148224
1772574221721287700,7.56528759765625,0.2876129150390625,0.26098209619522095,-0.25991687178611755
1772574221731219000,7.575218994140625,0.22156846523284912,0.29293906688690186,-0.26311254501342773
1772574221741163000,7.5851630859375,0.16830681264400482,0.30252617597579956,-0.21517707407474518
1772574221751095600,7.595095458984375,0.14167599380016327,0.252460241317749,-0.1278279572725296
1772574221761014800,7.605014892578125,0.15339355170726776,0.16298064589500427,-0.02023942768573761
1772574221770946000,7.614946044921875,0.18961147964000702,0.07243584841489792,0.10226237028837204
1772574221780884000,7.624884033203125,0.23967742919921875,-0.01704372838139534,0.2332860380411148
1772574221790816000,7.63481591796875,0.28015628457069397,-0.09054480493068695,0.36417654156684875
1772574221800758000,7.644758056640625,0.29187384247779846,-0.14061075448989868,0.48241740465164185
1772574221810691000,7.654691162109375,0.28228676319122314,-0.1587197184562683,0.5889406800270081
1772574221820614400,7.664614501953125,0.2588516175746918,-0.14380645751953125,0.6709636449813843
1772574221830546400,7.67454638671875,0.2247641682624817,-0.14274121820926666,0.6624417901039124
1772574221840477400,7.6844775390625,0.1608501821756363,-0.2535254657268524,0.488808810710907
1772574221850409500,7.694409423828125,0.07669677585363388,-0.4547213613986969,0.18854624032974243
1772574221860348400,7.704348388671875,0.0213046595454216,-0.633680522441864,-0.14061075448989868
1772574221870281000,7.714281005859375,-0.012782796286046505,-0.7252905368804932,-0.39506828784942627
1772574221880212200,7.724212158203125,-0.0106523297727108,-0.8424661755561829,-0.6006582975387573
1772574221890144800,7.734144775390625,0.02236989326775074,-0.9467258453369141,-0.7689650654792786
1772574221900076300,7.744076171875,0.04473978653550148,-0.9232907295227051,-0.849922776222229
1772574221910008600,7.754008544921875,0.05858781561255455,-0.7828131318092346,-0.8829450011253357
1772574221919930400,7.763930419921875,0.07776200771331787,-0.5825493335723877,-0.8786841034889221
1772574221929861600,7.773861572265625,0.11504516750574112,-0.4014596939086914,-0.8477923274040222
1772574221939794000,7.7837939453125,0.15552401542663574,-0.2972000241279602,-0.8222267627716064
1772574221949725200,7.79372509765625,0.19919857382774353,-0.2663082480430603,-0.7860088348388672
1772574221959664000,7.8036640625,0.24713405966758728,-0.2535254657268524,-0.7135729789733887
1772574221969596200,7.81359619140625,0.29187384247779846,-0.24074266850948334,-0.6283543109893799
1772574221979521000,7.82352099609375,0.32263246178627014,-0.24074266850948334,-0.550592303276062
1772574221989452500,7.83345263671875,0.3045234978199005,-0.2354165017604828,-0.48241740465164185
1772574221999383800,7.8433837890625,0.19919857382774353,-0.21730753779411316,-0.43767762184143066
1772574222009315000,7.853315185546875,-0.01491326279938221,-0.18428531289100647,-0.4323514401912689
1772574222019247400,7.863247314453125,-0.30146095156669617,-0.14700216054916382,-0.4440690279006958
1772574222029179000,7.873178955078125,-0.587875485420227,-0.14061075448989868,-0.447264701128006
1772574222039126800,7.883126708984375,-0.8137048482894897,-0.17895914614200592,-0.43022099137306213
1772574222049059800,7.893059814453125,-0.9211602807044983,-0.2663082480430603,-0.35458943247795105
1772574222058979600,7.9029794921875,-0.8765535950660706,-0.38441595435142517,-0.18428531289100647
1772574222068911400,7.912911376953125,-0.7050511240959167,-0.47283029556274414,0.06924014538526535
1772574222078850300,7.922850341796875,-0.48135218024253845,-0.5165048837661743,0.36524176597595215
1772574222088782800,7.932782958984375,-0.23967742919921875,-0.5473966002464294,0.6560503840446472
1772574222098705200,7.942705078125,-0.04367455467581749,-0.5292876362800598,0.9053149223327637
1772574222108636700,7.95263671875,0.06817491352558136,-0.5058525204658508,1.0702928304672241
1772574222118547500,7.96254736328125,0.09800143539905548,-0.47176507115364075,1.11503267288208
1772574222128477000,7.972476806640625,0.05432688444852829,-0.39613354206085205,1.0202269554138184
1772574222138430500,7.982430419921875,-0.02769605815410614,-0.2854824364185333,0.8009220957756042
1772574222148362500,7.992362548828125,-0.1171756312251091,-0.16830681264400482,0.484547883272171
1772574222158293500,8.00229345703125,-0.18961147964000702,-0.08628387749195099,0.11397993564605713
1772574222168225300,8.012225341796874,-0.24180789291858673,-0.05752258375287056,-0.2641777992248535
1772574222178142000,8.022141845703125,-0.2790910601615906,-0.06071828305721283,-0.5974625945091248
1772574222188072200,8.032072265625,-0.299330472946167,-0.05219641700387001,-0.8350095152854919
1772574222198000000,8.042000244140626,-0.3003957271575928,-0.009587096981704235,-0.9445953965187073
1772574222207930000,8.05193017578125,-0.2865476906299591,0.04793548583984375,-0.9232907295227051
1772574222217872000,8.061871826171876,-0.2748301327228546,0.07137060910463333,-0.7934654355049133
1772574222227803000,8.071802978515626,-0.28441721200942993,0.03728315606713295,-0.5910711884498596
1772574222237768000,8.081767822265626,-0.2897433936595917,-0.0159784946590662,-0.339676171541214
1772574222247702500,8.09170263671875,-0.30146095156669617,-0.0852186381816864,-0.07563154399394989
1772574222257624800,8.101624755859374,-0.3460675776004791,-0.1821548491716385,0.1501978635787964
1772574222267558100,8.11155810546875,-0.42596006393432617,-0.29400432109832764,0.2982652485370636
1772574222277457400,8.12145751953125,-0.5197005867958069,-0.39826399087905884,0.3567199110984802
1772574222287387400,8.131387451171875,-0.6123758554458618,-0.48348262906074524,0.33008909225463867
1772574222297321700,8.14132177734375,-0.6997249722480774,-0.5335485935211182,0.23967742919921875
1772574222307252000,8.151251953125,-0.7753564715385437,-0.5378095507621765,0.1288931965827942
1772574222317186800,8.161186767578124,-0.8339443206787109,-0.48028692603111267,0.03089175745844841
1772574222327117800,8.171117919921874,-0.8744231462478638,-0.381220281124115,-0.05858781561255455
1772574222337052000,8.181052001953125,-0.8925321102142334,-0.32156720757484436,-0.15765449404716492
1772574222346983200,8.190983154296875,-0.8754884004592896,-0.3268933892250061,-0.256721168756485
1772574222356932900,8.200932861328125,-0.8211615085601807,-0.35565468668937683,-0.33221954107284546
1772574222366866000,8.210865966796876,-0.7583127617835999,-0.40572062134742737,-0.3886769115924835
1772574222376800500,8.220800537109374,-0.703985869884491,-0.4973306655883789,-0.43767762184143066
1772574222386733600,8.230733642578125,-0.6720288991928101,-0.611310601234436,-0.4760259985923767
1772574222396674000,8.240674072265625,-0.6507242321968079,-0.7061163187026978,-0.4898740351200104
1772574222406608000,8.25060791015625,-0.6379414200782776,-0.7284862399101257,-0.4664389193058014
1772574222416509200,8.26050927734375,-0.6422023773193359,-0.680550754070282,-0.4121120274066925
1772574222426440000,8.27043994140625,-0.658180832862854,-0.5942668914794922,-0.3386109471321106
1772574222436391700,8.2803916015625,-0.6688331961631775,-0.4749607741832733,-0.252460241317749
1772574222446324200,8.29032421875,-0.6464632749557495,-0.35565468668937683,-0.1597849577665329
1772574222456256500,8.300256591796876,-0.5910711884498596,-0.26098209619522095,-0.07563154399394989
1772574222466189300,8.310189208984376,-0.512243926525116,-0.20026381313800812,0.0031956990715116262
1772574222476118500,8.320118408203125,-0.4035901725292206,-0.15552401542663574,0.07989247888326645
1772574222486051000,8.330051025390626,-0.27056917548179626,-0.10545806586742401,0.16298064589500427
1772574222495983000,8.339983154296876,-0.1288931965827942,-0.06817491352558136,0.2545906901359558
1772574222505915400,8.349915283203124,-0.004260932095348835,-0.06284874677658081,0.3258281648159027
1772574222515857700,8.359857666015625,0.09800143539905548,-0.08095771074295044,0.37589409947395325
1772574222525791000,8.369791015625,0.17789392173290253,-0.10758853703737259,0.41743817925453186
1772574222535713800,8.3797138671875,0.23967742919921875,-0.11184946447610855,0.47176507115364075
1772574222545646000,8.38964599609375,0.29400432109832764,-0.05219641700387001,0.5665708184242249
1772574222555576800,8.399576904296875,0.34180665016174316,0.02982652559876442,0.6890726089477539
1772574222565508900,8.4095087890625,0.3567199110984802,-0.01171756349503994,0.764704167842865
1772574222575438800,8.41943896484375,0.3279586136341095,-0.20665520429611206,0.7551170587539673
1772574222585370600,8.42937060546875,0.27056917548179626,-0.39613354206085205,0.7103772759437561
1772574222595318800,8.43931884765625,0.21730753779411316,-0.43980807065963745,0.6880073547363281
1772574222605252400,8.44925244140625,0.1800243854522705,-0.381220281124115,0.6880073547363281
1772574222615180300,8.45918017578125,0.1501978635787964,-0.31091487407684326,0.6901378631591797
1772574222625113300,8.46911328125,0.12356702983379364,-0.23222079873085022,0.6698983907699585
1772574222635009000,8.479009033203125,0.11611039936542511,-0.1065233051776886,0.5974625945091248
1772574222644938500,8.4889384765625,0.1480673849582672,0.07776200771331787,0.4653736650943756
1772574222654895000,8.49889501953125,0.2332860380411148,0.32263246178627014,0.3045234978199005
1772574222664827000,8.508826904296875,0.3684374690055847,0.6230281591415405,0.17789392173290253
1772574222674758400,8.51875830078125,0.5676360726356506,0.8360747694969177,0.06497921794652939
1772574222684690200,8.528690185546875,0.7977263927459717,0.9797480702400208,-0.0213046595454216
1772574222694622500,8.53862255859375,0.9829437732696533,1.0830756425857544,-0.05219641700387001
1772574222704554500,8.548554443359375,1.0809452533721924,1.0788147449493408,-0.05006595328450203
1772574222714489000,8.558489013671876,1.1033151149749756,0.9680305123329163,-0.05432688444852829
1772574222724421400,8.56842138671875,1.07135808467865,0.7934654355049133,-0.07350108027458191
1772574222734349600,8.578349609375,1.014900803565979,0.6155715584754944,-0.08947957307100296
1772574222744281300,8.58828125,0.9477910995483398,0.4738955497741699,-0.09480573982000351
1772574222754256000,8.598255859375,0.8648360371589661,0.35245898365974426,-0.09693620353937149
1772574222764192300,8.608192138671875,0.7678998708724976,0.2013290375471115,-0.08734910935163498
1772574222774094300,8.61809423828125,0.6730940937995911,0.03089175745844841,-0.05965305119752884
1772574222784027100,8.628027099609374,0.6038539409637451,-0.10119713842868805,-0.01917419396340847
1772574222793942000,8.63794189453125,0.5697665214538574,-0.15552401542663574,0.03728315606713295
1772574222803872800,8.647872802734375,0.5655055642127991,-0.09800143539905548,0.10226237028837204
1772574222813820200,8.657820068359374,0.5473966002464294,0.03728315606713295,0.15339355170726776
1772574222823752700,8.667752685546875,0.5250267386436462,0.17576344311237335,0.1715025156736374
1772574222833676500,8.677676513671875,0.5133091807365417,0.2961347699165344,0.1480673849582672
1772574222843608300,8.6876083984375,0.4962654411792755,0.381220281124115,0.09374050796031952
1772574222853537800,8.697537841796875,0.4760259985923767,0.4216991364955902,0.0159784946590662
1772574222863469300,8.70746923828125,0.4653736650943756,0.40785109996795654,-0.07989247888326645
1772574222873401300,8.7174013671875,0.4749607741832733,0.35458943247795105,-0.17576344311237335
1772574222883332900,8.727332763671875,0.5005263686180115,0.29506954550743103,-0.2535254657268524
1772574222893262800,8.737262939453124,0.5303528904914856,0.24713405966758728,-0.3055887222290039
1772574222903194000,8.747194091796874,0.5484618544578552,0.2141118347644806,-0.3364804685115814
1772574222913131800,8.7571318359375,0.5399399995803833,0.1810896098613739,-0.3481980562210083
1772574222923063800,8.767063720703124,0.4962654411792755,0.1491326242685318,-0.34500235319137573
1772574222932993000,8.776992919921875,0.43022099137306213,0.12250179797410965,-0.3258281648159027
1772574222942924800,8.7869248046875,0.37376365065574646,0.10758853703737259,-0.29506954550743103
1772574222952854500,8.7968544921875,0.3481980562210083,0.10119713842868805,-0.2460688352584839
1772574222962786000,8.8067861328125,0.3673722445964813,0.11611039936542511,-0.17895914614200592
1772574222972719900,8.816719970703126,0.40572062134742737,0.15126308798789978,-0.10226237028837204
1772574222982651400,8.8266513671875,0.43661239743232727,0.18854624032974243,-0.02982652559876442
1772574222992584400,8.83658447265625,0.4419385492801666,0.2226337045431137,0.03515268862247467
1772574223002516200,8.84651611328125,0.41956865787506104,0.2545906901359558,0.07030537724494934
1772574223012459300,8.856459228515625,0.3822855055332184,0.27056917548179626,0.04687025398015976
1772574223022392300,8.866392333984376,0.3481980562210083,0.26204732060432434,-0.02982652559876442
1772574223032311600,8.8763115234375,0.32156720757484436,0.23222079873085022,-0.12250179797410965
1772574223042243000,8.8862431640625,0.3003957271575928,0.22795987129211426,-0.19387240707874298
1772574223052176000,8.89617578125,0.27376487851142883,0.2226337045431137,-0.22050324082374573
1772574223062107600,8.906107666015625,0.23648172616958618,0.16617634892463684,-0.2034595012664795
1772574223072038700,8.91603857421875,0.18854624032974243,0.07882724702358246,-0.15658925473690033
1772574223081970200,8.92597021484375,0.13208889961242676,-0.01384802907705307,-0.09800143539905548
1772574223091868200,8.9358681640625,0.08415340632200241,-0.09693620353937149,-0.02876129187643528
1772574223101796400,8.94579638671875,0.0426093190908432,-0.1374150663614273,0.07137060910463333
1772574223111781000,8.955781005859375,0.02982652559876442,-0.17682868242263794,0.18854624032974243
1772574223121715000,8.96571484375,0.06284874677658081,-0.21091613173484802,0.29400432109832764
1772574223131625500,8.97562548828125,0.11291470378637314,-0.2119813710451126,0.3886769115924835
1772574223141557200,8.98555712890625,0.15339355170726776,-0.20772044360637665,0.4568518102169037
1772574223151508700,8.9955087890625,0.15658925473690033,-0.23115555942058563,0.48348262906074524
1772574223161442600,9.005442626953124,0.1374150663614273,-0.27056917548179626,0.4770912528038025
1772574223171357400,9.015357421875,0.1171756312251091,-0.26950395107269287,0.46963462233543396
1772574223181289200,9.025289306640625,0.13634982705116272,-0.20665520429611206,0.4643084406852722
1772574223191224800,9.035224853515626,0.1928071826696396,-0.1480673849582672,0.43767762184143066
1772574223201157000,9.0451572265625,0.23009033501148224,-0.1821548491716385,0.3801550269126892
1772574223211098000,9.05509814453125,0.23861220479011536,-0.26098209619522095,0.3194367587566376
1772574223221031200,9.06503125,0.23648172616958618,-0.2876129150390625,0.28122150897979736
1772574223230955000,9.074955078125,0.21517707407474518,-0.27269965410232544,0.23861220479011536
1772574223240887300,9.08488720703125,0.14380645751953125,-0.22795987129211426,0.1480673849582672
1772574223250818300,9.094818359375,0.02023942768573761,-0.17256775498390198,-0.0031956990715116262
1772574223260750300,9.104750244140625,-0.13208889961242676,-0.14487169682979584,-0.19493764638900757
1772574223270679300,9.11467919921875,-0.28122150897979736,-0.15445879101753235,-0.3908073604106903
1772574223280610800,9.12461083984375,-0.37589409947395325,-0.16191542148590088,-0.5186353325843811
1772574223290540800,9.134540771484374,-0.3940030634403229,-0.11504516750574112,-0.5282224416732788
1772574223300472600,9.14447265625,-0.35245898365974426,-0.02023942768573761,-0.42702528834342957
1772574223310414600,9.15441455078125,-0.28335198760032654,0.06924014538526535,-0.25032976269721985
1772574223320347400,9.164347412109375,-0.19919857382774353,0.08628387749195099,-0.05113118514418602
1772574223330273000,9.17427294921875,-0.1278279572725296,0.04367455467581749,0.12995843589305878
1772574223340205000,9.184205078125,-0.08202294260263443,-0.0213046595454216,0.2652430236339569
1772574223350115600,9.194115478515625,-0.0532616525888443,-0.05539211630821228,0.3471328020095825
1772574223360045300,9.20404541015625,-0.03728315606713295,-0.06604444980621338,0.3705679476261139
1772574223369980200,9.213980224609376,-0.05006595328450203,-0.08628387749195099,0.32369768619537354
1772574223379910700,9.22391064453125,-0.10013190656900406,-0.1278279572725296,0.19706811010837555
1772574223389845800,9.233845703125,-0.18961147964000702,-0.18854624032974243,0.0010652330238372087
1772574223399776500,9.243776611328125,-0.2897433936595917,-0.21624229848384857,-0.22795987129211426
1772574223409710800,9.2537109375,-0.3716331720352173,-0.16830681264400482,-0.4312862157821655
1772574223419641900,9.263641845703125,-0.42915576696395874,-0.03621792420744896,-0.5623098611831665
1772574223429606000,9.27360595703125,-0.4461994767189026,0.14487169682979584,-0.5974625945091248
1772574223439540500,9.28354052734375,-0.4142425060272217,0.2972000241279602,-0.5378095507621765
1772574223449438200,9.293438232421876,-0.31091487407684326,0.4121120274066925,-0.40572062134742737
1772574223459369000,9.303368896484375,-0.17895914614200592,0.4653736650943756,-0.24287313222885132
1772574223469297400,9.31329736328125,-0.07137060910463333,0.42809051275253296,-0.09161003679037094
1772574223479228000,9.323227783203125,-0.01491326279938221,0.34287187457084656,0.02236989326775074
1772574223489176600,9.333176513671875,-0.0063913981430232525,0.2545906901359558,0.09906667470932007
1772574223499109000,9.343109130859375,-0.05539211630821228,0.19600287079811096,0.15232832729816437
1772574223509031000,9.353031005859375,-0.16404588520526886,0.16617634892463684,0.18961147964000702
1772574223528894700,9.372894775390625,-0.4312862157821655,0.09693620353937149,0.19813334941864014
1772574223538826000,9.382825927734375,-0.5484618544578552,0.01917419396340847,0.1608501821756363
1772574223548758300,9.39275830078125,-0.6166367530822754,-0.08095771074295044,0.10865376889705658
1772574223558690000,9.40268994140625,-0.6294195652008057,-0.17469821870326996,0.04580501839518547
1772574223568650200,9.412650146484374,-0.5985277891159058,-0.2545906901359558,-0.02236989326775074
1772574223578584600,9.42258447265625,-0.5442008972167969,-0.30359140038490295,-0.0745663121342659
1772574223588502800,9.432502685546876,-0.4866783320903778,-0.32369768619537354,-0.10013190656900406
1772574223598435600,9.442435546875,-0.43767762184143066,-0.3066539466381073,-0.10758853703737259
1772574223608380000,9.4523798828125,-0.40572062134742737,-0.2556559145450592,-0.10226237028837204
1772574223618313700,9.462313720703126,-0.3780245780944824,-0.20878566801548004,-0.08628387749195099
1772574223628235300,9.4722353515625,-0.335415244102478,-0.1693720519542694,-0.05752258375287056
1772574223638168000,9.48216796875,-0.2790910601615906,-0.15658925473690033,-0.01171756349503994
1772574223648112000,9.492112060546875,-0.23222079873085022,-0.2023942768573761,0.05752258375287056
1772574223658046000,9.5020458984375,-0.18748101592063904,-0.29506954550743103,0.14700216054916382
1772574223667964200,9.511964111328124,-0.13421936333179474,-0.3673722445964813,0.24819929897785187
1772574223677896400,9.521896484375,-0.08841434121131897,-0.4035901725292206,0.33008909225463867
1772574223687783200,9.531783203125,-0.06284874677658081,-0.37376365065574646,0.3822855055332184
1772574223697710800,9.5417109375,-0.07030537724494934,-0.26311254501342773,0.4025249183177948
1772574223707690500,9.5516904296875,-0.1171756312251091,-0.09267527610063553,0.4025249183177948
1772574223717623600,9.56162353515625,-0.1821548491716385,0.09693620353937149,0.38654643297195435
1772574223727555000,9.57155517578125,-0.23861220479011536,0.19919857382774353,0.3609808385372162
1772574223737488000,9.58148779296875,-0.2748301327228546,0.17363297939300537,0.339676171541214
1772574223747429400,9.591429443359376,-0.2652430236339569,0.12037133425474167,0.3492632806301117
1772574223757363200,9.60136328125,-0.20558997988700867,0.10971900075674057,0.38548120856285095
1772574223767273200,9.611273193359375,-0.11397993564605713,0.11504516750574112,0.423829585313797
1772574223777204500,9.62120458984375,-0.0106523297727108,0.12463226169347763,0.44939517974853516
1772574223787148500,9.6311484375,0.09267527610063553,0.18961147964000702,0.4760259985923767
1772574223797081000,9.6410810546875,0.19919857382774353,0.3609808385372162,0.5143743753433228
1772574223807022300,9.651022216796875,0.29080861806869507,0.5175700783729553,0.5516575574874878
1772574223816956000,9.660955810546875,0.3045234978199005,0.4536561071872711,0.5367442965507507
1772574223826885000,9.670885009765625,0.2141118347644806,0.17895914614200592,0.4664389193058014
1772574223836818200,9.680818115234375,0.05006595328450203,-0.07137060910463333,0.400394469499588
1772574223846739500,9.690739501953125,-0.16298064589500427,-0.18428531289100647,0.3609808385372162
1772574223856671200,9.700671142578125,-0.3918725848197937,-0.2460688352584839,0.3055887222290039
1772574223866605600,9.71060546875,-0.57296222448349,-0.2886781394481659,0.21837277710437775
1772574223876537600,9.72053759765625,-0.658180832862854,-0.2535254657268524,0.11824086308479309
1772574223886469600,9.7304697265625,-0.634745717048645,-0.09161003679037094,0.03621792420744896
1772574223896401700,9.740401611328124,-0.5079829692840576,0.2439383566379547,-0.0106523297727108
1772574223906333200,9.750333251953125,-0.3055887222290039,0.7018554210662842,-0.02023942768573761
1772574223916265200,9.76026513671875,-0.06284874677658081,1.1427286863327026,-0.0063913981430232525
1772574223926196200,9.7701962890625,0.18428531289100647,1.4420591592788696,0.0063913981430232525
1772574223936128300,9.780128173828125,0.3918725848197937,1.5921238660812378,-0.01384802907705307
1772574223946067000,9.79006689453125,0.5154396295547485,1.6539074182510376,-0.10758853703737259
1772574223955999500,9.79999951171875,0.5633751153945923,1.5910587310791016,-0.27056917548179626
1772574223965931500,9.809931640625,0.5665708184242249,1.3717538118362427,-0.38441595435142517
1772574223975864000,9.819864013671875,0.4557865858078003,1.045792579650879,-0.09054480493068695
1772574223985795000,9.829795166015625,0.28335198760032654,0.20026381313800812,0.28335198760032654
1772574223995727400,9.839727294921875,0.17256775498390198,-0.6049191951751709,0.37589409947395325
1772574224005699600,9.849699462890625,0.12037133425474167,-1.0702928304672241,0.30252617597579956
1772574224015636000,9.859635986328126,0.07882724702358246,-1.3547101020812988,0.22689463198184967
1772574224025510000,9.869510009765625,0.03621792420744896,-1.3099702596664429,0.22795987129211426
1772574224035440000,9.879440185546875,0.04793548583984375,-0.9403344392776489,0.3003957271575928
1772574224045377000,9.889376953125,0.1597849577665329,-0.46004751324653625,0.4121120274066925
1772574224055307800,9.899307861328126,0.34287187457084656,-0.07350108027458191,0.5079829692840576
1772574224065243000,9.909242919921875,0.5015916228294373,0.06924014538526535,0.527157187461853
1772574224075174100,9.919174072265625,0.5569837093353271,0.01917419396340847,0.4525908827781677
