time,seconds_elapsed,z,y,x
1772574214381565400,0.2255654296875,9.686744689941406,5.806782245635986,-1.323829174041748
1772574214391461000,0.235461181640625,10.333404541015625,5.754140377044678,-1.3668999671936035
1772574214401387500,0.245387451171875,10.96032428741455,5.691926956176758,-1.3956137895584106
1772574214411374000,0.2553740234375,11.410773277282715,5.696712493896484,-1.4673985242843628
1772574214421324800,0.26532470703125,11.501700401306152,5.639284610748291,-1.4530415534973145
1772574214431238700,0.27523876953125,11.214561462402344,5.433502197265625,-1.1892328262329102
1772574214441174300,0.28517431640625,11.022537231445312,5.194219589233398,-0.8925228714942932
1772574214451100000,0.295099853515625,11.094322204589844,5.0602216720581055,-0.916451096534729
1772574214461031400,0.305031494140625,11.181061744689941,5.151148796081543,-1.098305583000183
1772574214480862500,0.324862548828125,11.142178535461426,5.380859851837158,-1.835893154144287
1772574214500759800,0.344759765625,10.917253494262695,5.074578762054443,-0.9499505758285522
1772574214510705400,0.354705322265625,10.069596290588379,4.89691162109375,-0.42831525206565857
1772574214520625200,0.364625244140625,9.67238712310791,4.810770034790039,-0.4091726839542389
1772574214530560300,0.374560302734375,9.686744689941406,4.628915309906006,-0.6484549641609192
1772574214540487700,0.38448779296875,9.8207426071167,4.25084924697876,-1.00259268283844
1772574214550419700,0.394419677734375,10.026525497436523,3.738187074661255,-1.3764712810516357
1772574214560353000,0.40435302734375,10.256834030151367,3.3266217708587646,-1.6444673538208008
1772574214570285600,0.41428564453125,10.232906341552734,3.005983352661133,-1.831107497215271
1772574214580216000,0.424216064453125,9.81117057800293,2.87198543548584,-1.9028922319412231
1772574214590147800,0.43414794921875,9.346963882446289,2.9150562286376953,-1.7018951177597046
1772574214600091000,0.4440908203125,9.011369705200195,3.0969107151031494,-1.222732424736023
1772574214610027500,0.454027587890625,8.805587768554688,3.2404799461364746,-0.5144568681716919
1772574214619943200,0.463943115234375,8.685946464538574,3.3026933670043945,0.0029910283628851175
1772574214629871000,0.47387109375,8.70508861541748,3.331407308578491,0.18484555184841156
1772574214639822800,0.48382275390625,9.020941734313965,3.4654054641723633,0.10827522724866867
1772574214649760500,0.493760498046875,9.53360366821289,3.4031920433044434,-0.1453639715909958
1772574214659670500,0.50367041015625,9.787242889404297,2.9772696495056152,-0.41874396800994873
1772574214669597000,0.513596923828125,9.562317848205566,2.7804598808288574,-0.7010970115661621
1772574214679546000,0.523546142578125,9.006584167480469,2.9246275424957275,-0.8398807644844055
1772574214689481700,0.533481689453125,8.317451477050781,3.173480987548828,-0.729810893535614
1772574214699398700,0.543398681640625,7.661220073699951,3.5132617950439453,-0.5000999569892883
1772574214709326600,0.55332666015625,7.350152969360352,3.968496322631836,-0.31824541091918945
1772574214719266300,0.563266357421875,7.4123663902282715,4.384847640991211,-0.2027917206287384
1772574214729195500,0.573195556640625,7.503293514251709,4.58584451675415,-0.049651071429252625
1772574214739126300,0.583126220703125,7.58943510055542,4.614558696746826,0.10827522724866867
1772574214749055700,0.5930556640625,7.670791149139404,4.466203689575195,0.13698910176753998
1772574214758999600,0.60299951171875,7.503293514251709,4.17427921295166,0.0029910283628851175
1772574214768930300,0.612930419921875,7.034300327301025,4.04985237121582,-0.05922235921025276
1772574214778856000,0.62285595703125,6.425925254821777,4.3178486824035645,0.026919255033135414
1772574214788786200,0.6327861328125,5.726622581481934,4.207778453826904,-0.054436713457107544
1772574214798720800,0.642720703125,5.525625705718994,4.064209461212158,-0.5144568681716919
1772574214808651500,0.652651611328125,5.774479389190674,4.169493675231934,-1.1892328262329102
1772574214818595000,0.662594970703125,6.033502101898193,4.475774765014648,-1.591825246810913
1772574214828527000,0.672527099609375,6.2297139167785645,4.628915309906006,-1.6444673538208008
1772574214838460000,0.6824599609375,6.49770975112915,4.681557655334473,-1.6109678745269775
1772574214848392200,0.69239208984375,6.928418159484863,4.801198482513428,-1.6253247261047363
1772574214858312700,0.702312744140625,7.498507976531982,4.872983455657959,-1.673181176185608
1772574214868243500,0.712243408203125,7.747361660003662,4.715056896209717,-1.6109678745269775
1772574214878185000,0.72218505859375,7.71386194229126,4.5714874267578125,-1.5487544536590576
1772574214888117000,0.732116943359375,7.522436141967773,4.604987144470215,-1.649253010749817
1772574214898035200,0.74203515625,7.130013465881348,4.753342151641846,-1.6588243246078491
1772574214907966000,0.751966064453125,6.708278179168701,5.146363258361816,-1.5487544536590576
1772574214917885200,0.76188525390625,6.55992317199707,5.6344990730285645,-1.4051851034164429
1772574214927814700,0.771814697265625,6.512066841125488,6.022734642028809,-1.2418749332427979
1772574214937742800,0.781742919921875,6.3254265785217285,6.290730953216553,-1.1270195245742798
1772574214947672000,0.791672119140625,6.08614444732666,6.463014125823975,-1.1988041400909424
1772574214957642800,0.801642822265625,6.028716564178467,6.606583118438721,-1.6013965606689453
1772574214967576300,0.811576416015625,6.134000778198242,6.716653347015381,-1.9411773681640625
1772574214977471000,0.821470947265625,6.2105712890625,6.888936519622803,-1.960319995880127
1772574214987400700,0.831400634765625,6.234499454498291,7.124031066894531,-1.9124635457992554
1772574214997331700,0.841331787109375,6.2775702476501465,7.34895658493042,-1.9268203973770142
1772574215007261400,0.851261474609375,6.416353702545166,7.549953460693359,-2.046461582183838
1772574215017201200,0.861201171875,6.890132904052734,7.679165840148926,-2.0751755237579346
1772574215027132000,0.8711318359375,7.694719314575195,7.693522930145264,-1.9555343389511108
1772574215037065200,0.881065185546875,8.303094863891602,7.674380302429199,-1.80717933177948
1772574215046996500,0.89099658203125,8.336593627929688,7.664809226989746,-1.8215361833572388
1772574215056927000,0.900927001953125,8.240880966186523,7.779664516448975,-2.1134605407714844
1772574215066858000,0.91085791015625,8.322237014770508,7.880163192749023,-2.458625316619873
1772574215076792000,0.9207919921875,8.283951759338379,7.846663475036621,-2.616551637649536
1772574215086723300,0.930723388671875,8.102097511291504,7.8179497718811035,-2.9276185035705566
1772574215096658200,0.940658203125,8.384450912475586,7.961519241333008,-3.617349624633789
1772574215106589700,0.950589599609375,8.551948547363281,8.067401885986328,-3.569493293762207
1772574215116518400,0.960518310546875,8.58066177368164,7.7940216064453125,-3.0999016761779785
1772574215126450000,0.970449951171875,8.930013656616211,7.607381343841553,-2.7361927032470703
1772574215136416000,0.980416015625,9.346963882446289,7.707880020141602,-2.520838737487793
1772574215146350800,0.990350830078125,9.634101867675781,7.937591075897217,-2.5495524406433105
1772574215156262700,1.0002626953125,9.29910659790039,7.985447406768799,-2.884547710418701
1772574215166195200,1.0101953125,8.585447311401367,7.602595806121826,-3.2817561626434326
1772574215176129000,1.02012890625,7.967501163482666,6.932007312774658,-3.741776466369629
1772574215186061600,1.0300615234375,7.752147197723389,6.343372821807861,-4.30169677734375
1772574215196007000,1.0400068359375,8.2695951461792,5.845067501068115,-4.776073932647705
1772574215205940700,1.049940673828125,9.020941734313965,5.347360610961914,-4.977071285247803
1772574215215858200,1.059858154296875,9.32303524017334,5.045864582061768,-4.934000492095947
1772574215225790500,1.06979052734375,9.217751502990723,4.9980082511901855,-4.694717884063721
1772574215235720700,1.079720703125,8.762516975402832,5.021936416625977,-4.253840446472168
1772574215245652700,1.08965283203125,8.029714584350586,4.959722995758057,-3.6364922523498535
1772574215255596000,1.099595947265625,7.153941631317139,4.887340068817139,-2.994617462158203
1772574215265529300,1.109529296875,6.392425537109375,5.026721954345703,-2.5974090099334717
1772574215275450000,1.1194501953125,5.961119174957275,5.242076396942139,-2.5160529613494873
1772574215285382100,1.129382080078125,6.009573936462402,5.481358528137207,-2.616551637649536
1772574215295312100,1.13931201171875,6.602993965148926,5.60099983215332,-2.803191661834717
1772574215305244000,1.149243896484375,7.383652687072754,5.443073272705078,-2.8893332481384277
1772574215315174700,1.159174560546875,7.957930088043213,5.007579803466797,-2.7936203479766846
1772574215325106400,1.1691064453125,8.35573673248291,4.561916351318359,-2.5782663822174072
1772574215335050200,1.17905029296875,8.518448829650879,4.293920040130615,-2.5160529613494873
1772574215344983000,1.188983154296875,8.499305725097656,4.193421840667725,-2.5112674236297607
1772574215354945300,1.1989453125,8.264809608459473,4.202992916107178,-2.42512583732605
1772574215364881200,1.208881103515625,7.809575080871582,4.241278171539307,-2.252244234085083
1772574215374768400,1.218768310546875,7.216155052185059,4.231706619262695,-1.9459630250930786
1772574215384699400,1.228699462890625,6.574280261993408,4.231706619262695,-1.6205391883850098
1772574215394641000,1.238640869140625,6.038288116455078,4.269991874694824,-1.4195420742034912
1772574215404573000,1.248572998046875,5.822335720062256,4.284348964691162,-1.342971682548523
1772574215414502700,1.258502685546875,5.985645771026611,4.346562385559082,-1.2610175609588623
1772574215424434400,1.268434326171875,6.344569206237793,4.336990833282471,-1.2323036193847656
1772574215434372400,1.278372314453125,6.760920524597168,4.150351047515869,-1.179661512374878
1772574215444305000,1.288304931640625,7.05344295501709,4.001996040344238,-1.1030912399291992
1772574215454225000,1.298224853515625,7.11565637588501,3.9493536949157715,-1.1174482107162476
1772574215464156000,1.308156005859375,7.05344295501709,4.04985237121582,-1.2131611108779907
1772574215474099000,1.318098876953125,7.091728210449219,4.226921081542969,-1.275374412536621
1772574215484031200,1.32803125,7.077371120452881,4.384847640991211,-1.3046865463256836
1772574215493951700,1.33795166015625,6.9475603103637695,4.58584451675415,-1.246660590171814
1772574215503882800,1.3478828125,6.732206344604492,4.868197441101074,-1.0887342691421509
1772574215513827000,1.3578271484375,6.507281303405762,5.227719306945801,-0.8877372145652771
1772574215523759600,1.367759521484375,6.315855503082275,5.5387864112854,-0.8159525394439697
1772574215533678600,1.3776787109375,6.267998695373535,5.811567783355713,-0.729810893535614
1772574215543609600,1.387609619140625,6.354140758514404,6.051448345184326,-0.7345965504646301
1772574215553545000,1.397544921875,6.521637916564941,6.214160442352295,-0.763310432434082
1772574215563476500,1.4074765625,6.803991317749023,6.276373863220215,-0.8303094506263733
1772574215573406000,1.417406005859375,7.125227451324463,6.238088607788086,-0.8781659007072449
1772574215583337200,1.427337158203125,7.517650604248047,6.204588890075684,-0.8350951075553894
1772574215593270500,1.4372705078125,7.58943510055542,5.998806476593018,-0.5910272002220154
1772574215603202300,1.447202392578125,7.9627156257629395,6.1088762283325195,-0.6436693072319031
1772574215613142500,1.457142578125,8.46580696105957,6.405586242675781,-0.8111668825149536
1772574215623074800,1.46707470703125,8.37009334564209,6.2668023109436035,-0.519242525100708
1772574215632997400,1.476997314453125,8.523234367370605,6.128018856048584,-0.3038884699344635
1772574215642928600,1.4869287109375,8.891729354858398,6.161518096923828,-0.32303106784820557
1772574215652862000,1.496862060546875,9.011369705200195,6.070590972900391,-0.23629122972488403
1772574215662793500,1.50679345703125,9.509675025939941,6.214160442352295,-0.380458801984787
1772574215672725200,1.516725341796875,10.012167930603027,6.439085960388184,-0.6867401003837585
1772574215682656800,1.52665673828125,9.835099220275879,6.2428741455078125,-0.672383189201355
1772574215692586200,1.536586181640625,9.638887405395508,5.974279880523682,-0.7154539823532104
1772574215702517800,1.546517822265625,9.46181869506836,5.797211170196533,-0.7680960893630981
1772574215712454700,1.55645458984375,9.284749984741211,5.691926956176758,-0.849452018737793
1772574215722386700,1.56638671875,9.251250267028809,5.687141418457031,-0.9786644577980042
1772574215732316000,1.57631591796875,9.466604232788086,5.663212776184082,-1.0217353105545044
1772574215742247700,1.58624755859375,10.050453186035156,5.768496990203857,-1.2705888748168945
1772574215752184800,1.596184814453125,10.587043762207031,6.0849480628967285,-1.6971094608306885
1772574215762117000,1.6061171875,10.816754341125488,6.137589931488037,-1.8502501249313354
1772574215772048400,1.61604833984375,10.802397727966309,5.67756986618042,-1.6061822175979614
1772574215781980700,1.625980712890625,11.477771759033203,5.691926956176758,-1.8454644680023193
1772574215791909600,1.63590966796875,11.650054931640625,5.6153564453125,-2.0416758060455322
1772574215801841700,1.645841552734375,10.945966720581055,5.395216941833496,-1.7545372247695923
1772574215811784200,1.6557841796875,9.79681396484375,5.510072231292725,-0.9212366938591003
1772574215821717000,1.665717041015625,8.863015174865723,5.945566177368164,-0.06400800496339798
1772574215831635200,1.67563525390625,8.312665939331055,6.281159400939941,0.6346961855888367
1772574215841566700,1.685566650390625,8.283951759338379,6.199803352355957,1.262213945388794
1772574215851501000,1.6955009765625,8.824729919433594,5.792425632476807,1.573280930519104
1772574215861432800,1.705432861328125,9.629316329956055,5.433502197265625,1.3435698747634888
1772574215871362000,1.715362060546875,10.3621187210083,5.1320061683654785,0.9128618240356445
1772574215881293600,1.72529345703125,10.333404541015625,4.590630054473877,0.5868397355079651
1772574215891273200,1.735273193359375,10.204192161560059,4.064209461212158,0.4097708761692047
1772574215901209600,1.745209716796875,10.63968563079834,3.954139471054077,0.44805604219436646
1772574215911092700,1.7550927734375,10.634900093078613,3.9637107849121094,0.5581258535385132
1772574215921023700,1.765023681640625,10.112667083740234,3.9637107849121094,0.37148571014404297
1772574215930956000,1.7749560546875,9.370891571044922,3.776472330093384,0.07956135272979736
1772574215950831600,1.79483154296875,7.58943510055542,3.321835994720459,0.06041877344250679
1772574215960764200,1.80476416015625,6.799205780029297,3.226123094558716,0.06041877344250679
1772574215970678800,1.8146787109375,6.492924213409424,3.211766242980957,-0.08315058797597885
1772574215980609500,1.824609619140625,6.641279220581055,3.0825538635253906,-0.4139583110809326
1772574215990546400,1.83454638671875,7.010372161865234,2.943770170211792,-0.6867401003837585
1772574216000477700,1.844477783203125,7.5080790519714355,3.0107691287994385,-0.45224347710609436
1772574216010410200,1.85441015625,7.766504287719727,3.111267566680908,0.01734796352684498
1772574216020341800,1.864341796875,7.532007694244385,3.2404799461364746,0.31405797600746155
1772574216030292200,1.874292236328125,7.211369037628174,3.321835994720459,0.3810569941997528
1772574216040225800,1.884225830078125,6.856633186340332,3.441477060317993,0.29012975096702576
1772574216050138400,1.894138427734375,6.258427619934082,3.5324044227600098,0.23748764395713806
1772574216060070000,1.90406982421875,5.673980712890625,3.5850465297698975,0.15613168478012085
1772574216070003500,1.91400341796875,5.252843856811523,3.675973892211914,0.026919255033135414
1772574216079935000,1.92393505859375,5.066203594207764,3.7669010162353516,-0.19800607860088348
1772574216089864000,1.933864013671875,5.0327043533325195,3.8913278579711914,-0.3565305769443512
1772574216099795200,1.943795166015625,5.090131759643555,3.9637107849121094,-0.380458801984787
1772574216109741000,1.953740966796875,5.3246283531188965,3.9732820987701416,-0.2991028428077698
1772574216119673900,1.963673828125,5.673980712890625,3.8530426025390625,-0.21714866161346436
1772574216129596000,1.973595947265625,6.095715522766113,3.5946178436279297,-0.29431718587875366
1772574216139527400,1.98352734375,6.282355785369873,3.34576416015625,-0.4570291340351105
1772574216149443800,1.99344384765625,6.650850772857666,3.226123094558716,-0.9499505758285522
1772574216159374000,2.0033740234375,6.626922130584717,3.5132617950439453,-1.222732424736023
1772574216169298400,2.01329833984375,6.602993965148926,3.920639991760254,-1.4530415534973145
1772574216179228000,2.023227783203125,6.856633186340332,4.303491592407227,-1.7688941955566406
1772574216189168600,2.033168701171875,7.24008321762085,4.628915309906006,-1.9794625043869019
1772574216199099400,2.043099365234375,7.4841508865356445,4.729413986206055,-2.070389747619629
1772574216209025300,2.053025390625,7.622934818267822,4.786841869354248,-2.046461582183838
1772574216218955500,2.06295556640625,7.603792190551758,4.89691162109375,-2.103889226913452
1772574216228926200,2.07292626953125,7.441080093383789,5.088935375213623,-2.328814744949341
1772574216238860500,2.082860595703125,7.354938507080078,5.380859851837158,-2.669193744659424
1772574216248753200,2.092753173828125,7.3884382247924805,5.720640659332275,-2.946761131286621
1772574216258683100,2.10268310546875,7.560721397399902,5.912066459655762,-3.0520453453063965
1772574216268662000,2.112662109375,7.790432453155518,6.027520179748535,-3.0233314037323
1772574216278596900,2.122596923828125,8.082955360412598,6.199803352355957,-3.032902717590332
1772574216288501800,2.132501708984375,8.446663856506348,6.39601469039917,-3.1238300800323486
1772574216298433800,2.142433837890625,8.724231719970703,6.477370738983154,-3.2865419387817383
1772574216308346600,2.1523466796875,8.93958568572998,6.424728870391846,-3.4785659313201904
1772574216318276600,2.162276611328125,9.17467975616455,6.295516490936279,-3.593421459197998
1772574216328213800,2.1722138671875,9.509675025939941,6.041877269744873,-3.6460635662078857
1772574216338144300,2.182144287109375,9.863813400268555,5.797211170196533,-3.6125640869140625
1772574216348105200,2.192105224609375,10.256834030151367,5.543571949005127,-3.57906436920166
1772574216358039000,2.2020390625,10.582258224487305,5.337789058685303,-3.7082769870758057
1772574216367960300,2.211960205078125,10.859825134277344,5.356931686401367,-4.201198577880859
1772574216377892900,2.221892822265625,10.955538749694824,5.6153564453125,-4.847858905792236
1772574216387835400,2.23183544921875,10.744970321655273,5.821139335632324,-5.26899528503418
1772574216397769000,2.24176904296875,10.534401893615723,5.921638011932373,-5.470590591430664
1772574216407683300,2.251683349609375,10.453045845031738,6.041877269744873,-5.494519233703613
1772574216417615000,2.261614990234375,10.280762672424316,6.147161483764648,-5.504090309143066
1772574216427551000,2.271551025390625,9.964311599731445,6.1088762283325195,-5.590231895446777
1772574216437483000,2.28148291015625,9.605388641357422,5.950351715087891,-5.66201639175415
1772574216447417900,2.29141796875,9.524032592773438,5.5483574867248535,-5.796014785766602
1772574216457350100,2.30135009765625,9.705886840820312,4.925625324249268,-5.963512420654297
1772574216467279400,2.311279296875,9.954740524291992,4.212564468383789,-6.135795593261719
1772574216477211400,2.32121142578125,10.170692443847656,3.4606196880340576,-6.422934055328369
1772574216487140400,2.331140380859375,10.25204849243164,2.9150562286376953,-6.619743824005127
1772574216497072000,2.341072021484375,10.112667083740234,2.612962245941162,-6.6149582862854
1772574216507004200,2.351004150390625,9.701101303100586,2.493321180343628,-6.255436420440674
1772574216516936000,2.36093603515625,9.150752067565918,2.531606435775757,-5.78644323348999
1772574216526869000,2.370868896484375,8.642875671386719,2.675175666809082,-5.383851051330566
1772574216536800800,2.38080078125,8.23130989074707,2.881556749343872,-4.967499732971191
1772574216546716000,2.3907158203125,7.867002487182617,3.0681967735290527,-4.675575256347656
1772574216556646000,2.40064599609375,7.493722438812256,3.235694408416748,-4.445864677429199
1772574216566580000,2.410580078125,7.067800045013428,3.384049415588379,-4.229912281036377
1772574216576510500,2.420510498046875,6.736992359161377,3.551547050476074,-4.105485439300537
1772574216586475300,2.430475341796875,6.971488952636719,3.6711881160736084,-4.1629133224487305
1772574216596409300,2.440409423828125,7.804789066314697,3.637688636779785,-4.148556232452393
1772574216606306600,2.450306640625,8.681160926818848,3.178266763687134,-3.8805601596832275
1772574216616236800,2.46023681640625,9.145966529846191,2.517249345779419,-3.5120654106140137
1772574216626189300,2.470189208984375,9.380462646484375,1.8999011516571045,-3.2099716663360596
1772574216636121900,2.480121826171875,9.514460563659668,1.516451358795166,-3.142972469329834
1772574216646052000,2.490052001953125,9.504889488220215,1.3537393808364868,-3.166900873184204
1772574216655984400,2.499984375,9.227322578430176,1.3010972738265991,-3.0855448246002197
1772574216665924000,2.509924072265625,8.671588897705078,1.4350954294204712,-2.8223342895507812
1772574216675857200,2.519857177734375,8.059026718139648,1.6791633367538452,-2.654836654663086
1772574216685795000,2.529795166015625,7.5942206382751465,1.8664016723632812,-2.568695068359375
1772574216695728600,2.539728759765625,7.244868755340576,2.0003998279571533,-2.520838737487793
1772574216705644800,2.549644775390625,6.976274490356445,2.043470621109009,-2.506481647491455
1772574216715576800,2.559576904296875,6.7417778968811035,2.124826431274414,-2.506481647491455
1772574216725510400,2.569510498046875,6.531209468841553,2.225325107574463,-2.520838737487793
1772574216735442400,2.5794423828125,6.282355785369873,2.3497519493103027,-2.5591237545013428
1772574216745374000,2.5893740234375,6.052644729614258,2.5076780319213867,-2.6452653408050537
1772574216755306000,2.599305908203125,5.976074695587158,2.60339093208313,-2.7696921825408936
1772574216765239300,2.6092392578125,5.922834396362305,2.641676187515259,-2.89890456199646
1772574216775171600,2.619171630859375,5.7888360023498535,2.66560435295105,-2.9180471897125244
1772574216785108500,2.6291083984375,5.736194133758545,2.7517459392547607,-2.884547710418701
1772574216795041000,2.639041015625,5.707480430603027,2.905484914779663,-2.827120065689087
1772574216804977400,2.648977294921875,5.745765209197998,3.0969107151031494,-2.7457640171051025
1772574216814910200,2.65891015625,5.91804838180542,3.1926236152648926,-2.616551637649536
1772574216824839700,2.668839599609375,6.196214199066162,3.3170504570007324,-2.396411895751953
1772574216834772200,2.678772216796875,6.751348972320557,3.417548894882202,-2.18045973777771
1772574216844697600,2.688697509765625,7.4506516456604,3.4749767780303955,-2.0368902683258057
1772574216854629600,2.698629638671875,8.14516830444336,3.43190598487854,-1.740180253982544
1772574216864561200,2.70856103515625,8.796015739440918,3.417548894882202,-1.25144624710083
1772574216874493200,2.7184931640625,9.46181869506836,3.47019100189209,-0.7824530005455017
1772574216884432400,2.728432373046875,10.261619567871094,3.6185460090637207,-0.4378865361213684
1772574216894365000,2.738364990234375,11.161321640014648,3.7716867923736572,-0.0975075215101242
1772574216904285000,2.748284912109375,11.985050201416016,3.8291144371032715,0.23748764395713806
1772574216914216200,2.75821630859375,12.555140495300293,3.800400495529175,0.5246263742446899
1772574216924153000,2.768153076171875,12.727423667907715,3.7956149578094482,0.5724828243255615
1772574216934085000,2.778085205078125,12.679567337036133,3.9493536949157715,0.4145565330982208
1772574216944013800,2.788013916015625,12.607782363891602,4.169493675231934,0.26620152592658997
1772574216953945300,2.7979453125,12.454642295837402,4.2987060546875,0.2805584669113159
1772574216963881700,2.8078818359375,12.339786529541016,4.470989227294922,0.3475574851036072
1772574216973813800,2.817813720703125,12.454642295837402,4.667200565338135,0.2709871530532837
1772574216983741700,2.82774169921875,12.78485107421875,4.89691162109375,0.0891326442360878
1772574216993673200,2.837673095703125,13.086346626281738,5.069792747497559,0.08434699475765228
1772574217003615700,2.84761572265625,13.01934814453125,5.347360610961914,0.3044866919517517
1772574217013548500,2.857548583984375,12.166905403137207,5.782854080200195,0.47198426723480225
1772574217023467000,2.867467041015625,10.859825134277344,6.238088607788086,0.3475574851036072
1772574217033398300,2.877398193359375,9.744172096252441,6.668796539306641,0.07956135272979736
1772574217043334700,2.887334716796875,9.030512809753418,6.7932233810424805,-0.15493527054786682
1772574217053266400,2.897266357421875,8.839086532592773,6.367300987243652,-0.380458801984787
1772574217063204600,2.90720458984375,9.289535522460938,5.514857769012451,-0.5288137793540955
1772574217073137000,2.917136962890625,10.27597713470459,4.604987144470215,-0.6867401003837585
1772574217083035400,2.927035400390625,11.382059097290039,3.7286159992218018,-0.973878800868988
1772574217092964400,2.93696435546875,12.330215454101562,2.7565317153930664,-1.3860424757003784
1772574217102926800,2.9469267578125,12.851850509643555,1.8616160154342651,-1.7976080179214478
1772574217112859100,2.956859130859375,12.075977325439453,0.99481600522995,-2.0129621028900146
1772574217122790700,2.966790771484375,11.458629608154297,0.784247636795044,-1.8454644680023193
1772574217132723000,2.976722900390625,10.917253494262695,0.9469595551490784,-1.1030912399291992
1772574217142659000,2.9866591796875,9.543174743652344,1.2532408237457275,0.06520441919565201
1772574217152592000,2.996591796875,8.14516830444336,1.9525432586669922,1.0133603811264038
1772574217162513200,3.00651318359375,7.340581893920898,2.895913600921631,1.5158531665802002
1772574217172444700,3.016444580078125,6.885347366333008,3.7429728507995605,1.7359927892684937
1772574217182377500,3.02637744140625,6.512066841125488,4.269991874694824,1.755135416984558
1772574217192309000,3.03630908203125,6.291927337646484,4.394418716430664,1.6546368598937988
1772574217202250500,3.04625048828125,6.4594244956970215,4.207778453826904,1.4344971179962158
1772574217212183000,3.05618310546875,6.8518476486206055,3.8530426025390625,1.1569297313690186
1772574217222096600,3.0660966796875,7.273582458496094,3.5228331089019775,0.989432156085968
1772574217232027100,3.076027099609375,7.58943510055542,3.3074791431427,0.9798609018325806
1772574217241952300,3.0859521484375,7.8526458740234375,3.1830523014068604,1.1186445951461792
1772574217251882500,3.095882568359375,8.154739379882812,3.116053342819214,1.3722838163375854
1772574217261816300,3.10581640625,8.35573673248291,3.111267566680908,1.6785650253295898
1772574217271746800,3.115746826171875,8.173882484436035,3.1926236152648926,1.932802438735962
1772574217281711000,3.125711181640625,7.646862983703613,3.2931220531463623,1.9663020372390747
1772574217291645200,3.135645263671875,7.048657417297363,3.422334671020508,1.7647067308425903
1772574217301561300,3.145561279296875,6.421139717102051,3.4893336296081543,1.4057832956314087
1772574217311493600,3.15549365234375,5.855835437774658,3.5132617950439453,1.022931694984436
1772574217321425000,3.1654248046875,5.439484119415283,3.551547050476074,0.6825526356697083
1772574217331357200,3.175357177734375,5.171487808227539,3.5994033813476562,0.4001995921134949
1772574217341290500,3.18529052734375,5.075775146484375,3.628117322921753,0.1704886108636856
1772574217351222800,3.195222900390625,5.0566325187683105,3.675973892211914,0.05563312768936157
1772574217361133000,3.205133056640625,5.219344615936279,3.7334015369415283,0.08434699475765228
1772574217371063000,3.21506298828125,5.530411243438721,3.8147575855255127,0.1944168359041214
1772574217381004300,3.22500439453125,5.870192050933838,4.045066833496094,0.39541393518447876
1772574217390935600,3.234935546875,6.2775702476501465,4.303491592407227,0.5437689423561096
1772574217400870100,3.2448701171875,6.674778938293457,4.566701889038086,0.6011967062950134
1772574217410801700,3.2548017578125,6.976274490356445,4.849055290222168,0.5724828243255615
1772574217420767200,3.264767333984375,7.192226886749268,5.146363258361816,0.4384847581386566
1772574217430702300,3.274702392578125,7.867002487182617,5.60099983215332,0.37148571014404297
1772574217440592600,3.284592529296875,8.331808090209961,5.868995666503906,0.3236292600631714
1772574217450523100,3.294523193359375,8.915657043457031,6.089733600616455,0.26620152592658997
1772574217460451600,3.30445166015625,9.471389770507812,6.056233882904053,0.01734796352684498
1772574217470381800,3.3143818359375,10.050453186035156,5.916851997375488,-0.37088751792907715
1772574217480320000,3.324320068359375,10.548758506774902,5.840281963348389,-0.7010970115661621
1772574217490251300,3.334251220703125,10.87418270111084,6.0370917320251465,-0.9595218896865845
1772574217500180500,3.344180419921875,10.99860954284668,6.453442573547363,-1.0600204467773438
1772574217510111200,3.354111328125,10.840682983398438,6.893722057342529,-1.246660590171814
1772574217520078800,3.364078857421875,10.692328453063965,7.181458950042725,-1.673181176185608
1772574217530013400,3.374013427734375,10.677970886230469,7.147959232330322,-2.09431791305542
1772574217539942100,3.383942138671875,10.993824005126953,6.826723098754883,-2.4299113750457764
1772574217549876200,3.393876220703125,11.525628089904785,6.501298904418945,-2.592623233795166
1772574217559790000,3.4037900390625,11.989835739135742,6.300302028656006,-2.664407968521118
1772574217569722000,3.41372216796875,12.234501838684082,6.166304111480713,-2.83669114112854
1772574217579655400,3.423655517578125,12.31107234954834,6.051448345184326,-3.2482566833496094
1772574217589587700,3.433587646484375,12.516855239868164,6.128018856048584,-3.789632797241211
1772574217599529200,3.443529296875,12.268001556396484,6.247660160064697,-3.9188451766967773
1772574217609462300,3.453462158203125,11.525628089904785,6.1710896492004395,-3.66520619392395
1772574217619363600,3.463363525390625,10.749755859375,6.128018856048584,-3.3828530311584473
1772574217629293300,3.473293212890625,10.285548210144043,6.2668023109436035,-3.421138286590576
1772574217639247400,3.483247314453125,9.969097137451172,6.348158359527588,-3.727419376373291
1772574217649179600,3.4931796875,9.772886276245117,6.276373863220215,-3.914059638977051
1772574217659111000,3.50311083984375,9.835099220275879,5.994020938873291,-3.7322051525115967
1772574217669043200,3.513043212890625,10.30469036102295,5.486144065856934,-3.4642090797424316
1772574217678977000,3.52297705078125,10.88853931427002,4.849055290222168,-3.3678979873657227
1772574217688909600,3.53290966796875,11.24327564239502,4.179064750671387,-3.253042459487915
1772574217698846500,3.542846435546875,11.20499038696289,3.5754752159118652,-3.1094729900360107
1772574217708779300,3.552779296875,10.749755859375,3.139981508255005,-2.937189817428589
1772574217718701800,3.562701904296875,9.873384475708008,2.7900311946868896,-2.750549554824829
1772574217728633600,3.572633544921875,8.776873588562012,2.531606435775757,-2.568695068359375
1772574217738570000,3.582570068359375,7.847859859466553,2.4263222217559814,-2.3533411026000977
1772574217748502300,3.592502197265625,7.292725086212158,2.526820659637451,-2.11824631690979
1772574217758442500,3.6024423828125,6.914061069488525,2.8187451362609863,-1.8693926334381104
1772574217768375600,3.61237548828125,6.756134510040283,3.1830523014068604,-1.6301103830337524
1772574217778294300,3.622294189453125,6.9475603103637695,3.479762315750122,-1.5487544536590576
1772574217788225800,3.632225830078125,7.503293514251709,3.5611183643341064,-1.5535401105880737
1772574217798159400,3.642159423828125,8.207381248474121,3.4127633571624756,-1.5248262882232666
1772574217808091100,3.652091064453125,8.666803359985352,3.163909673690796,-1.2323036193847656
1772574217818033200,3.662033203125,8.642875671386719,2.881556749343872,-1.155733346939087
1772574217827966000,3.671966064453125,8.365307807922363,2.713460922241211,-1.2993026971817017
1772574217837901300,3.6819013671875,7.991429328918457,2.5938198566436768,-1.4530415534973145
1772574217847834400,3.69183447265625,7.579864025115967,2.5220351219177246,-1.4817553758621216
1772574217857750000,3.70175,7.067800045013428,2.5698914527893066,-1.2801600694656372
1772574217867681500,3.711681640625,6.4594244956970215,2.799602508544922,-0.916451096534729
1772574217877626600,3.721626708984375,5.865406513214111,3.1543383598327637,-0.5000999569892883
1772574217887559200,3.73155908203125,5.386841773986816,3.446262836456299,-0.16929219663143158
1772574217897477600,3.7414775390625,4.9704909324646,3.6329028606414795,-0.030508488416671753
1772574217907408600,3.75140869140625,4.744967460632324,3.6807594299316406,-0.054436713457107544
1772574217917405400,3.761405517578125,4.783252239227295,3.6568312644958496,-0.10229317098855972
1772574217927343400,3.77134326171875,5.099703311920166,3.6424741744995117,-0.1501496136188507
1772574217937208600,3.78120849609375,5.429912567138672,3.6089746952056885,-0.1788634955883026
1772574217947139000,3.79113916015625,5.784050464630127,3.690330743789673,-0.15972091257572174
1772574217957069000,3.801069091796875,6.177071571350098,3.9014973640441895,-0.054436713457107544
1772574217966999600,3.81099951171875,6.406782627105713,4.064209461212158,0.03170489892363548
1772574217976933000,3.82093310546875,6.612565517425537,4.241278171539307,0.10827522724866867
1772574217986863900,3.83086376953125,7.034300327301025,4.490131855010986,0.15613168478012085
1772574217996796000,3.8407958984375,7.455437183380127,4.676771640777588,0.15613168478012085
1772574218006727000,3.850726806640625,7.761718273162842,4.64805793762207,-0.049651071429252625
1772574218016674600,3.860674560546875,8.140382766723633,4.604987144470215,-0.33738797903060913
1772574218026607000,3.870607177734375,8.652446746826172,4.581058979034424,-0.6340979933738708
1772574218036527000,3.880527099609375,9.21296501159668,4.662415027618408,-0.7728816866874695
1772574218046458400,3.890458251953125,9.46181869506836,4.676771640777588,-0.7920243144035339
1772574218056383500,3.900383544921875,9.519247055053711,4.738985061645508,-0.6771687865257263
1772574218066314000,3.91031396484375,9.375677108764648,4.820341110229492,-0.5575276613235474
1772574218076255500,3.92025537109375,9.22253704071045,4.964509010314941,-0.4905286431312561
1772574218086187300,3.930187255859375,9.141180992126465,5.165505886077881,-0.32303106784820557
1772574218096116200,3.9401162109375,9.189037322998047,5.318646430969238,-0.0975075215101242
1772574218106047700,3.9500478515625,9.394820213317871,5.400002479553223,0.13698910176753998
1772574218115980500,3.95998046875,9.681958198547363,5.42871618270874,0.2470589429140091
1772574218125912000,3.969912109375,9.93559741973877,5.486144065856934,0.2183450609445572
1772574218135821600,3.979821533203125,10.175477981567383,5.5244293212890625,0.08434699475765228
1772574218145751000,3.9897509765625,10.314262390136719,5.443073272705078,0.07477571070194244
1772574218155719200,3.99971923828125,10.438689231872559,5.270790100097656,0.1704886108636856
1772574218165652500,4.009652587890625,10.816754341125488,5.179862976074219,0.36191442608833313
1772574218175574300,4.01957421875,11.185847282409668,5.151148796081543,0.6299105882644653
1772574218185506600,4.029506591796875,11.12303638458252,4.863411903381348,0.6346961855888367
1772574218195447000,4.039447021484375,11.626127243041992,4.988437175750732,0.4576273262500763
1772574218205379800,4.0493798828125,11.798410415649414,5.20379114151001,0.22791635990142822
1772574218215301600,4.059301513671875,11.4442720413208,5.3904314041137695,0.1704886108636856
1772574218225233400,4.0692333984375,11.051251411437988,5.557928562164307,0.5676971673965454
1772574218235164700,4.07916455078125,10.76411247253418,5.797211170196533,0.9990034699440002
1772574218245096700,4.0890966796875,10.333404541015625,6.0370917320251465,1.2478569746017456
1772574218255048400,4.09904833984375,9.868598937988281,6.128018856048584,1.262213945388794
1772574218264982300,4.108982177734375,9.64367389678955,6.051448345184326,1.042074203491211
1772574218274891800,4.118891845703125,9.739386558532715,5.6153564453125,0.8027920126914978
1772574218284823000,4.128822998046875,10.088738441467285,4.762913703918457,0.6011967062950134
1772574218294763000,4.138762939453125,10.52483081817627,3.824328899383545,0.19920247793197632
1772574218304695300,4.1486953125,11.008180618286133,3.1686954498291016,-0.34695929288864136
1772574218314632200,4.158632080078125,11.4442720413208,3.0107691287994385,-0.9355936646461487
1772574218324564700,4.168564697265625,10.993824005126953,2.8863422870635986,-0.8542376756668091
1772574218334485000,4.178485107421875,9.78245735168457,2.8767709732055664,-0.3278166949748993
1772574218344416500,4.18841650390625,8.58066177368164,3.226123094558716,0.11306086927652359
1772574218354367500,4.198367431640625,7.431509017944336,3.5754752159118652,0.4384847581386566
1772574218364301000,4.208301025390625,6.3493547439575195,3.968496322631836,0.4815555512905121
1772574218374213000,4.218213134765625,5.511268615722656,4.442275047302246,0.2566302418708801
1772574218384144400,4.228144287109375,5.104488849639893,4.906482696533203,-0.06400800496339798
1772574218394091000,4.238091064453125,4.932205677032471,5.184648513793945,-0.2799602448940277
1772574218404024000,4.248024169921875,4.926821708679199,5.103292465209961,-0.34695929288864136
1772574218413951200,4.257951171875,5.219344615936279,4.930410861968994,-0.380458801984787
1772574218423883500,4.267883544921875,5.611767292022705,4.64805793762207,-0.4139583110809326
1772574218433816000,4.277816162109375,6.009573936462402,4.289134502410889,-0.28953152894973755
1772574218443748400,4.287748291015625,6.449853420257568,4.0833516120910645,-0.275174617767334
1772574218453669600,4.297669677734375,6.8997039794921875,4.006781578063965,-0.2991028428077698
1772574218463601000,4.307600830078125,7.331010341644287,3.8913278579711914,-0.24586252868175507
1772574218473530400,4.3175302734375,7.704290866851807,3.833899974822998,0.04127619042992592
1772574218483438600,4.3274384765625,7.785646915435791,3.652045488357544,0.1178465187549591
1772574218503330600,4.34733056640625,7.886145114898682,3.446262836456299,0.1944168359041214
1772574218513264600,4.3572646484375,7.737790107727051,3.2548370361328125,0.18005990982055664
1772574218523192300,4.3671923828125,7.541578769683838,3.2069804668426514,0.05563312768936157
1772574218533125600,4.377125732421875,7.321439266204834,3.149552822113037,-0.07357929646968842
1772574218543056600,4.387056640625,7.106084823608398,3.1064820289611816,-0.23629122972488403
1772574218552989700,4.39698974609375,7.086942672729492,3.1351959705352783,-0.47617170214653015
1772574218562898200,4.406898193359375,7.292725086212158,3.2883365154266357,-0.5958128571510315
1772574218572829000,4.416828857421875,7.618149280548096,3.4893336296081543,-0.5575276613235474
1772574218582798000,4.426798095703125,7.8382887840271,3.5994033813476562,-0.7154539823532104
1772574218592732700,4.436732666015625,7.905287742614746,3.637688636779785,-0.8925228714942932
1772574218602651600,4.446651611328125,7.608577728271484,3.604189157485962,-1.1892328262329102
1772574218612584700,4.456584716796875,7.182655334472656,3.6568312644958496,-1.5535401105880737
1772574218622514200,4.46651416015625,6.914061069488525,3.8434712886810303,-1.7066807746887207
1772574218632446700,4.47644677734375,6.775277137756348,4.035495281219482,-1.7688941955566406
1772574218642354000,4.48635400390625,6.904489517211914,4.322634220123291,-1.8454644680023193
1772574218652284000,4.496283935546875,7.211369037628174,4.557130813598633,-1.8406788110733032
1772574218662222600,4.50622265625,7.618149280548096,4.767699241638184,-1.8406788110733032
1772574218672153600,4.516153564453125,8.126026153564453,4.959722995758057,-1.74496591091156
1772574218682082000,4.52608203125,8.595019340515137,5.098506927490234,-1.7114664316177368
1772574218692012800,4.5360126953125,8.882157325744629,5.246861934661865,-1.9411773681640625
1772574218701944600,4.545944580078125,9.06401252746582,5.361717224121094,-2.032104730606079
1772574218711875300,4.555875244140625,9.303893089294434,5.433502197265625,-2.017747640609741
1772574218721810700,4.565810791015625,9.509675025939941,5.471786975860596,-2.0368902683258057
1772574218731742000,4.575741943359375,9.79681396484375,5.4765729904174805,-2.2235305309295654
1772574218741699600,4.585699462890625,10.271191596984863,5.395216941833496,-2.324028968811035
1772574218751633700,4.595633544921875,10.816754341125488,5.208576679229736,-2.3336002826690674
1772574218761564000,4.60556396484375,11.334202766418457,4.940580368041992,-2.328814744949341
1772574218771497500,4.61549755859375,11.635698318481445,4.619344234466553,-2.2570300102233887
1772574218781421800,4.625421875,11.80319595336914,4.466203689575195,-2.2857437133789062
1772574218791354400,4.635354248046875,12.071191787719727,4.628915309906006,-2.5974090099334717
1772574218801266000,4.645265869140625,12.200404167175293,5.160720348358154,-3.1860432624816895
1772574218811196700,4.65519677734375,11.989835739135742,5.438287734985352,-2.970689296722412
1772574218821112600,4.665112548828125,11.654840469360352,4.89691162109375,-1.7832510471343994
1772574218831041500,4.67504150390625,11.760125160217285,4.418346881866455,-1.0600204467773438
1772574218840992500,4.684992431640625,12.061620712280273,4.466203689575195,-0.8446664214134216
1772574218850923800,4.694923828125,12.142976760864258,4.614558696746826,-0.9260223507881165
1772574218860855800,4.704855712890625,12.032906532287598,4.600201606750488,-1.3573286533355713
1772574218870787000,4.714787109375,11.932408332824707,4.442275047302246,-2.017747640609741
1772574218880757200,4.72475732421875,11.951550483703613,4.030709743499756,-2.678765058517456
1772574218890692600,4.734692626953125,12.004193305969238,3.5132617950439453,-3.190829038619995
1772574218900606700,4.744606689453125,12.085549354553223,3.139981508255005,-3.4546377658843994
1772574218910539800,4.754539794921875,11.645269393920898,2.6943182945251465,-3.655634880065918
1772574218920472000,4.76447216796875,10.582258224487305,2.4119651317596436,-3.837489366531372
1772574218930405000,4.774405029296875,9.284749984741211,2.258824586868286,-3.717848300933838
1772574218940336600,4.784336669921875,8.073383331298828,2.273181438446045,-3.3535408973693848
1772574218950269400,4.79426953125,7.187440872192383,2.392822742462158,-2.827120065689087
1772574218960205000,4.804205078125,6.784848690032959,2.5746772289276123,-2.3048863410949707
1772574218970138400,4.814138427734375,6.885347366333008,2.9341988563537598,-1.8885352611541748
1772574218980068600,4.824068603515625,7.359724044799805,3.283550977706909,-1.5152549743652344
1772574218990001400,4.83400146484375,8.00100040435791,3.441477060317993,-1.184447169303894
1772574218999927600,4.843927490234375,8.642875671386719,3.4845480918884277,-1.0217353105545044
1772574219009859600,4.853859619140625,9.145966529846191,3.2213375568389893,-0.8877372145652771
1772574219019790300,4.863790283203125,9.514460563659668,2.905484914779663,-0.9882357716560364
1772574219029722400,4.873722412109375,9.734601020812988,2.7326035499572754,-1.3334003686904907
1772574219039668700,4.883668701171875,9.753743171691895,2.6321048736572266,-1.7641085386276245
1772574219049602000,4.89360205078125,9.495318412780762,2.6081767082214355,-2.05603289604187
1772574219059520500,4.9035205078125,8.963513374328613,2.6464617252349854,-2.05603289604187
1772574219069452500,4.91345263671875,8.264809608459473,2.6177480220794678,-1.922034740447998
1772574219079383800,4.9233837890625,7.57507848739624,2.589034080505371,-1.7784653902053833
1772574219089315600,4.933315673828125,7.015157699584961,2.5459632873535156,-1.5535401105880737
1772574219099259000,4.9432587890625,6.445067882537842,2.4263222217559814,-1.184447169303894
1772574219109192000,4.95319189453125,6.124429702758789,2.4119651317596436,-0.9068797826766968
1772574219119111000,4.96311083984375,6.196214199066162,2.4358935356140137,-0.7680960893630981
1772574219129042400,4.97304248046875,6.430710792541504,2.383251428604126,-0.6532405614852905
1772574219138975700,4.982975830078125,6.732206344604492,2.321038007736206,-0.519242525100708
1772574219148907500,4.992907470703125,7.039085865020752,2.3976082801818848,-0.4139583110809326
1772574219158840300,5.00284033203125,7.225726127624512,2.5842485427856445,-0.34695929288864136
1772574219168772000,5.012772216796875,7.182655334472656,2.857030153274536,-0.3086741268634796
1772574219178699800,5.02269970703125,7.010372161865234,3.077768087387085,-0.29431718587875366
1772574219188631000,5.032631103515625,6.760920524597168,3.2404799461364746,-0.4139583110809326
1772574219198563800,5.042563720703125,6.521637916564941,3.40797758102417,-0.5527420043945312
1772574219208495400,5.052495361328125,6.440282344818115,3.637688636779785,-0.6436693072319031
1772574219218443500,5.062443603515625,6.535995006561279,3.872185230255127,-0.672383189201355
1772574219228376800,5.072376953125,6.803991317749023,3.9828531742095947,-0.7106683254241943
1772574219238300000,5.0822998046875,7.120441913604736,4.030709743499756,-0.849452018737793
1772574219248232000,5.09223193359375,7.488936901092529,4.092923164367676,-1.1126625537872314
1772574219258168000,5.10216796875,7.886145114898682,4.217350006103516,-1.3860424757003784
1772574219268100600,5.1121005859375,8.298309326171875,4.356133460998535,-1.5535401105880737
1772574219278035500,5.122035400390625,8.575876235961914,4.442275047302246,-1.472184181213379
1772574219287968500,5.131968505859375,8.700303077697754,4.4997029304504395,-1.2370892763137817
1772574219297883100,5.141883056640625,8.776873588562012,4.600201606750488,-0.9643075466156006
1772574219307814400,5.151814453125,8.930013656616211,4.71027135848999,-0.7728816866874695
1772574219317751600,5.16175146484375,9.179466247558594,4.796412944793701,-0.6005984544754028
1772574219327683000,5.17168310546875,9.380462646484375,4.77248477935791,-0.3278166949748993
1772574219337627600,5.181627685546875,9.538389205932617,4.767699241638184,-0.2267199456691742
1772574219347560400,5.191560546875,9.725028991699219,4.77248477935791,-0.18843477964401245
1772574219357474300,5.201474365234375,9.940383911132812,4.810770034790039,-0.054436713457107544
1772574219367405300,5.2114052734375,10.232906341552734,4.8059844970703125,0.026919255033135414
1772574219377346600,5.2213466796875,10.62532901763916,4.758127689361572,0.07956135272979736
1772574219387278600,5.231278564453125,11.070393562316895,4.705485820770264,0.13220344483852386
1772574219397187000,5.24118701171875,11.59262752532959,4.614558696746826,0.22791635990142822
1772574219407116800,5.25111669921875,11.937193870544434,4.418346881866455,0.26141586899757385
1772574219417056800,5.261056884765625,12.258430480957031,4.394418716430664,0.39541393518447876
1772574219426987500,5.270987548828125,12.52164077758789,4.762913703918457,0.3188436031341553
1772574219436931600,5.280931640625,12.550354957580566,5.352146148681641,0.06041877344250679
1772574219446863600,5.290863525390625,12.291930198669434,5.514857769012451,0.2470589429140091
1772574219456808700,5.30080859375,12.166905403137207,5.270790100097656,0.5964110493659973
1772574219466742000,5.310741943359375,12.162118911743164,5.050650596618652,0.44327038526535034
1772574219476662800,5.320662841796875,11.860623359680176,4.930410861968994,-0.04007977992296219
1772574219496483300,5.3404833984375,10.309475898742676,5.093721389770508,-0.5910272002220154
1772574219516390400,5.360390380859375,8.824729919433594,4.4135613441467285,-0.15493527054786682
1772574219526326300,5.370326171875,8.944371223449707,3.8291144371032715,-0.20757736265659332
1772574219536265000,5.380264892578125,9.610174179077148,3.0346972942352295,-0.42352959513664246
1772574219546201000,5.390201171875,10.50090217590332,2.1774685382843018,-0.8255237936973572
1772574219556123000,5.400122802734375,11.315059661865234,1.6791633367538452,-1.2849457263946533
1772574219566057500,5.410057373046875,11.908479690551758,1.6169499158859253,-1.5343974828720093
1772574219575980000,5.41997998046875,11.908479690551758,1.6648063659667969,-1.4817553758621216
1772574219585913600,5.42991357421875,11.425129890441895,1.7940187454223633,-1.2275179624557495
1772574219595846400,5.439846435546875,10.835897445678711,2.0721843242645264,-0.916451096534729
1772574219605780000,5.449780029296875,10.18026351928711,2.4406790733337402,-0.8350951075553894
1772574219615712800,5.459712646484375,9.471389770507812,2.723032236099243,-0.9355936646461487
1772574219625646000,5.46964599609375,8.685946464538574,2.7661030292510986,-0.9260223507881165
1772574219635586300,5.47958642578125,7.871788501739502,2.761317253112793,-0.8781659007072449
1772574219645520400,5.489520263671875,7.101299285888672,2.8426733016967773,-0.8398807644844055
1772574219655436300,5.499436279296875,6.4594244956970215,2.895913600921631,-0.7393822073936462
1772574219665368600,5.50936865234375,6.1675004959106445,2.8911280632019043,-0.6101697683334351
1772574219675300600,5.519300537109375,6.311069488525391,2.8624141216278076,-0.44745782017707825
1772574219685233000,5.52923291015625,6.708278179168701,2.8043880462646484,-0.26560330390930176
1772574219695164700,5.53916455078125,7.206583499908447,2.8187451362609863,-0.13579268753528595
1772574219705096700,5.5490966796875,7.632505893707275,2.8767709732055664,-0.18364913761615753
1772574219715028200,5.5590283203125,7.910073280334473,2.8522446155548096,-0.3565305769443512
1772574219724960300,5.568960205078125,8.063812255859375,2.761317253112793,-0.4570291340351105
1772574219734891300,5.578891357421875,8.029714584350586,2.6847469806671143,-0.41874396800994873
1772574219744823300,5.5888232421875,7.862216949462891,2.737389087677002,-0.3278166949748993
1772574219754730800,5.598730712890625,7.699504852294922,2.9485557079315186,-0.47617170214653015
1772574219764660500,5.608660400390625,7.5463643074035645,3.077768087387085,-0.5144568681716919
1772574219774633500,5.618633544921875,7.40279483795166,3.111267566680908,-0.380458801984787
1772574219784567300,5.6285673828125,7.383652687072754,3.1591241359710693,-0.380458801984787
1772574219794496800,5.638496826171875,7.374081134796143,3.2644083499908447,-0.5000999569892883
1772574219804430300,5.648430419921875,7.311867713928223,3.3553354740142822,-0.6963114142417908
1772574219814327800,5.658327880859375,7.268796920776367,3.43190598487854,-0.9882357716560364
1772574219824257500,5.668257568359375,7.297510623931885,3.4366915225982666,-1.3046865463256836
1772574219834188800,5.678188720703125,7.378866672515869,3.336193084716797,-1.5822539329528809
1772574219844118800,5.688118896484375,7.421937465667725,3.273979663848877,-1.835893154144287
1772574219854088200,5.698088134765625,7.455437183380127,3.3074791431427,-2.0656042098999023
1772574219864022300,5.708022216796875,7.431509017944336,3.393620729446411,-2.2091734409332275
1772574219873916200,5.717916259765625,7.4841508865356445,3.4989049434661865,-2.372483730316162
1772574219883846000,5.727845947265625,7.4362945556640625,3.652045488357544,-2.328814744949341
1772574219893798100,5.737798095703125,7.378866672515869,3.857828378677368,-2.166102647781372
1772574219903730200,5.747730224609375,7.3645100593566895,4.116851329803467,-2.0656042098999023
1772574219913647000,5.757647216796875,7.4123663902282715,4.351347923278809,-2.0273189544677734
1772574219923577600,5.76757763671875,7.565506935119629,4.604987144470215,-2.032104730606079
1772574219933541400,5.777541259765625,7.886145114898682,4.858626365661621,-2.103889226913452
1772574219943475500,5.787475341796875,8.288737297058105,5.065007209777832,-2.1756739616394043
1772574219953374000,5.7973740234375,8.599804878234863,5.165505886077881,-2.1996021270751953
1772574219963304400,5.807304443359375,8.695517539978027,5.242076396942139,-2.18045973777771
1772574219973262600,5.8172626953125,8.70508861541748,5.333003520965576,-2.3676979541778564
1772574219983196000,5.82719580078125,8.767302513122559,5.419145107269287,-2.5160529613494873
1772574219993134800,5.837134765625,8.96829891204834,5.505286693572998,-2.606980323791504
1772574220003068700,5.847068603515625,9.29910659790039,5.543571949005127,-2.669193744659424
1772574220012995800,5.856995849609375,9.543174743652344,5.438287734985352,-2.7361927032470703
1772574220022929200,5.86692919921875,9.67238712310791,5.213362216949463,-2.851048231124878
1772574220032850700,5.8768505859375,9.835099220275879,4.9740800857543945,-3.0520453453063965
1772574220042782700,5.88678271484375,10.242477416992188,4.743771076202393,-3.363112211227417
1772574220052713700,5.896713623046875,10.97468090057373,4.5236310958862305,-3.7609190940856934
1772574220062645800,5.906645751953125,11.884552001953125,4.581058979034424,-4.387838363647461
1772574220072578000,5.916578125,12.43549919128418,4.681557655334473,-4.8574299812316895
1772574220082510000,5.926510009765625,12.44985580444336,4.3896331787109375,-4.780859470367432
1772574220092429600,5.9364296875,12.215359687805176,4.059423446655273,-4.311268329620361
1772574220102360300,5.9463603515625,11.951550483703613,4.135993957519531,-3.9571304321289062
1772574220112306200,5.95630615234375,11.496914863586426,4.403990268707275,-3.717848300933838
1772574220122238500,5.966238525390625,10.87418270111084,4.791627407073975,-3.2961132526397705
1772574220132174000,5.976174072265625,10.280762672424316,5.065007209777832,-2.9802606105804443
1772574220142106600,5.986106689453125,10.093523979187012,5.184648513793945,-3.1142587661743164
1772574220152045600,5.996045654296875,10.371689796447754,4.868197441101074,-3.559921979904175
1772574220161979000,6.005978759765625,10.883753776550293,4.035495281219482,-4.148556232452393
1772574220171896800,6.015896728515625,11.21934700012207,3.063411235809326,-4.67078971862793
1772574220181828400,6.025828369140625,11.12303638458252,2.3784656524658203,-5.063212871551514
1772574220191762000,6.035761962890625,10.615757942199707,2.062613010406494,-5.240281581878662
1772574220201693700,6.045693603515625,9.729815483093262,1.9525432586669922,-5.091926574707031
1772574220211625700,6.055625732421875,8.767302513122559,1.8807586431503296,-4.599005222320557
1772574220221557800,6.065557861328125,8.02492904663086,1.923829436302185,-4.033700942993164
1772574220231493000,6.0754931640625,7.627720355987549,2.1056840419769287,-3.5503506660461426
1772574220241425200,6.085425048828125,7.488936901092529,2.4023938179016113,-3.229114055633545
1772574220251356400,6.0953564453125,7.608577728271484,2.737389087677002,-3.142972469329834
1772574220261288400,6.105288330078125,7.9627156257629395,2.9629125595092773,-3.128615617752075
1772574220271232500,6.115232421875,8.441878318786621,2.9868409633636475,-3.0520453453063965
1772574220281165800,6.125165771484375,8.958727836608887,2.7900311946868896,-2.9563324451446533
1772574220291081000,6.1350810546875,9.251250267028809,2.5124638080596924,-2.8893332481384277
1772574220301012200,6.14501220703125,9.466604232788086,2.3162522315979004,-2.702693223953247
1772574220310958000,6.1549580078125,9.634101867675781,2.287538528442383,-2.5016961097717285
1772574220320891000,6.164890869140625,9.734601020812988,2.3784656524658203,-2.36291241645813
1772574220330795300,6.174795166015625,9.64367389678955,2.4885356426239014,-2.0129621028900146
1772574220340725500,6.1847255859375,9.150752067565918,2.5124638080596924,-1.4434702396392822
1772574220350686500,6.1946865234375,8.283951759338379,2.6464617252349854,-0.8398807644844055
1772574220360619800,6.204619873046875,7.426723480224609,2.919841766357422,-0.5144568681716919
1772574220370541600,6.21454150390625,6.799205780029297,3.178266763687134,-0.5096712112426758
1772574220380473600,6.2244736328125,6.401997089385986,3.250051259994507,-0.6867401003837585
1772574220390405000,6.234405029296875,6.291927337646484,3.178266763687134,-0.8638089895248413
1772574220400337200,6.244337158203125,6.449853420257568,2.991626501083374,-0.9547362327575684
1772574220410278100,6.254278076171875,6.689135551452637,2.761317253112793,-1.069591760635376
1772574220420211200,6.264211181640625,6.861418724060059,2.651247501373291,-1.160519003868103
1772574220430130400,6.27413037109375,6.976274490356445,2.641676187515259,-1.2945170402526855
1772574220440062200,6.284062255859375,7.082156658172607,2.675175666809082,-1.414756417274475
1772574220449993200,6.2939931640625,7.17786979675293,2.746960401535034,-1.5056836605072021
1772574220459924700,6.3039248046875,7.153941631317139,2.823530673980713,-1.6253247261047363
1772574220469857800,6.31385791015625,7.067800045013428,2.8911280632019043,-1.7497515678405762
1772574220479789300,6.323789306640625,6.928418159484863,3.053839921951294,-1.8837496042251587
1772574220489698300,6.3336982421875,6.770491600036621,3.235694408416748,-1.9268203973770142
1772574220509585400,6.35358544921875,6.516852378845215,3.7669010162353516,-2.05603289604187
1772574220519519200,6.363519287109375,6.540780544281006,4.006781578063965,-2.0895323753356934
1772574220529451000,6.373450927734375,6.7417778968811035,4.145565032958984,-2.0751755237579346
1772574220539384600,6.383384521484375,7.091728210449219,4.25084924697876,-2.0608184337615967
1772574220549324300,6.39332421875,7.5942206382751465,4.31306266784668,-2.070389747619629
1772574220559258600,6.403258544921875,8.154739379882812,4.284348964691162,-2.11824631690979
1772574220569179100,6.41317919921875,8.695517539978027,4.207778453826904,-2.2091734409332275
1772574220579112000,6.42311181640625,9.145966529846191,4.045066833496094,-2.2570300102233887
1772574220589054200,6.43305419921875,9.538389205932617,3.920639991760254,-2.276172637939453
1772574220598987800,6.44298779296875,10.016953468322754,3.7956149578094482,-2.2809581756591797
1772574220608920000,6.452920166015625,10.53918743133545,3.7094733715057373,-2.3676979541778564
1772574220618853600,6.462853515625,10.969895362854004,3.6424741744995117,-2.5399811267852783
1772574220628773000,6.472773193359375,11.209775924682617,3.5324044227600098,-2.6500511169433594
1772574220638705200,6.482705078125,11.238490104675293,3.455834150314331,-2.6452653408050537
1772574220648633900,6.4926337890625,11.161321640014648,3.4366915225982666,-2.482553482055664
1772574220658566000,6.50256591796875,10.97468090057373,3.5084762573242188,-2.2331018447875977
1772574220668503300,6.51250341796875,10.922039031982422,3.6951162815093994,-2.204387903213501
1772574220678435600,6.522435546875,11.079965591430664,4.073780536651611,-2.5591237545013428
1772574220688354600,6.5323544921875,11.214561462402344,4.384847640991211,-2.9802606105804443
1772574220698285800,6.542285888671875,11.348559379577637,4.442275047302246,-3.2817561626434326
1772574220708224000,6.55222412109375,11.34377384185791,4.384847640991211,-3.324826955795288
1772574220718155800,6.56215576171875,10.950753211975098,4.356133460998535,-3.1764719486236572
1772574220728090400,6.57209033203125,10.261619567871094,4.514060020446777,-3.047259569168091
1772574220738022400,6.5820224609375,9.720243453979492,4.748556613922119,-3.008974552154541
1772574220747966700,6.591966796875,9.418747901916504,4.815555572509766,-2.932404041290283
1772574220757899800,6.601899658203125,9.294321060180664,4.5236310958862305,-2.5878376960754395
1772574220767820300,6.6118203125,9.53360366821289,3.944568157196045,-2.0608184337615967
1772574220777752300,6.62175244140625,10.285548210144043,3.2691938877105713,-1.8502501249313354
1772574220787690800,6.631690673828125,11.391630172729492,2.5459632873535156,-1.960319995880127
1772574220797623600,6.64162353515625,12.459427833557129,1.8711873292922974,-2.190030813217163
1772574220807550700,6.65155078125,13.378870010375977,1.5068800449371338,-2.554338216781616
1772574220817483000,6.66148291015625,13.886148452758789,1.4015958309173584,-2.946761131286621
1772574220827407400,6.671407470703125,13.733007431030273,1.3298112154006958,-3.047259569168091
1772574220837339000,6.6813388671875,12.856636047363281,1.3298112154006958,-2.812762975692749
1772574220847272700,6.691272705078125,11.506485939025879,1.4829518795013428,-2.554338216781616
1772574220857204200,6.701204345703125,10.103095054626465,1.7174484729766846,-2.328814744949341
1772574220867140000,6.71114013671875,8.839086532592773,2.0578274726867676,-2.2331018447875977
1772574220877072100,6.721072021484375,7.795217990875244,2.4502503871917725,-2.1948165893554688
1772574220887002600,6.731002685546875,6.985845565795898,2.770888566970825,-2.09431791305542
1772574220896934700,6.7409345703125,6.320641040802002,2.953341245651245,-1.9172492027282715
1772574220906864600,6.75086474609375,5.937191009521484,2.991626501083374,-1.6875381469726562
1772574220916796400,6.76079638671875,5.91804838180542,2.919841766357422,-1.4386845827102661
1772574220926750000,6.77075,6.1914286613464355,2.809173822402954,-1.2083754539489746
1772574220936683800,6.780683837890625,6.602993965148926,2.6847469806671143,-1.0265209674835205
1772574220946591200,6.79059130859375,6.952346324920654,2.6273193359375,-0.973878800868988
1772574220956522500,6.8005224609375,7.11565637588501,2.56510591506958,-1.0217353105545044
1772574220966454000,6.8104541015625,7.120441913604736,2.4885356426239014,-1.1174482107162476
1772574220976385300,6.82038525390625,7.05344295501709,2.478964328765869,-1.1940184831619263
1772574220986301400,6.830301513671875,6.93320369720459,2.526820659637451,-1.2418749332427979
1772574220996231400,6.8402314453125,6.775277137756348,2.7038896083831787,-1.2179467678070068
1772574221006165800,6.850165771484375,6.579065799713135,2.8911280632019043,-1.2418749332427979
1772574221016096000,6.860095947265625,6.425925254821777,3.015554666519165,-1.4051851034164429
1772574221025993200,6.8699931640625,6.3014984130859375,3.0969107151031494,-1.5774682760238647
1772574221045927200,6.88992724609375,6.315855503082275,3.1304101943969727,-1.4626128673553467
1772574221055863800,6.89986376953125,6.574280261993408,3.139981508255005,-1.3381860256195068
1772574221065754400,6.90975439453125,6.87099027633667,3.2309088706970215,-1.2658032178878784
1772574221075686400,6.919686279296875,7.063014030456543,3.259622573852539,-1.2658032178878784
1772574221085623800,6.929623779296875,7.283154010772705,3.2644083499908447,-1.3668999671936035
1772574221095556400,6.939556396484375,7.57507848739624,3.2787652015686035,-1.5774682760238647
1772574221105486800,6.94948681640625,7.881359577178955,3.3553354740142822,-1.74496591091156
1772574221115419100,6.959419189453125,8.14516830444336,3.3792638778686523,-1.9172492027282715
1772574221125348900,6.969348876953125,8.317451477050781,3.417548894882202,-2.1134605407714844
1772574221135281000,6.979281005859375,8.37966537475586,3.5324044227600098,-2.3192434310913086
1772574221145210000,6.989210205078125,8.504091262817383,3.6711881160736084,-2.420340061187744
1772574221155142000,6.999141845703125,8.642875671386719,3.857828378677368,-2.3192434310913086
1772574221165096400,7.009096435546875,8.719446182250977,4.04985237121582,-2.1134605407714844
1772574221175030800,7.01903076171875,8.824729919433594,4.308277130126953,-1.989033818244934
1772574221184960800,7.028960693359375,8.96829891204834,4.561916351318359,-1.984248161315918
1772574221194894600,7.03889453125,9.044869422912598,4.719842433929443,-1.9746768474578857
1772574221204833000,7.0488330078125,9.049654960632324,4.839483737945557,-2.0129621028900146
1772574221214767400,7.058767333984375,9.093324661254883,4.930410861968994,-2.1613171100616455
1772574221224689000,7.06868896484375,9.117252349853516,4.911268711090088,-2.36291241645813
1772574221234621700,7.07862158203125,9.112466812133789,4.858626365661621,-2.6739792823791504
1772574221244551200,7.08855126953125,9.141180992126465,4.791627407073975,-2.9180471897125244
1772574221254483700,7.098483642578125,9.227322578430176,4.715056896209717,-3.0855448246002197
1772574221264416800,7.108416748046875,9.480961799621582,4.691128730773926,-3.1477582454681396
1772574221274349600,7.118349609375,9.940383911132812,4.729413986206055,-3.2482566833496094
1772574221284290600,7.12829052734375,10.5152587890625,4.77248477935791,-3.4307093620300293
1772574221294224000,7.138223876953125,11.09910774230957,4.815555572509766,-3.741776466369629
1772574221304145700,7.148145751953125,11.650054931640625,4.8777689933776855,-4.268197536468506
1772574221314078000,7.158077880859375,11.970693588256836,4.925625324249268,-4.541577339172363
1772574221324009000,7.168009033203125,11.70269775390625,4.700700283050537,-4.191627025604248
1772574221333941000,7.17794091796875,11.214561462402344,4.566701889038086,-3.617349624633789
1772574221343873500,7.18787353515625,10.831111907958984,4.71027135848999,-3.387638568878174
1772574221353805800,7.197805908203125,10.510473251342773,5.117649555206299,-3.3924243450164795
1772574221363749600,7.20774951171875,10.1276216506958,5.457430362701416,-3.3296127319335938
1772574221373683000,7.217682861328125,9.81117057800293,5.581857204437256,-3.2004003524780273
1772574221383600000,7.22760009765625,9.753743171691895,5.400002479553223,-3.219542980194092
1772574221393532000,7.237531982421875,9.973882675170898,4.872983455657959,-3.559921979904175
1772574221403469600,7.247469482421875,10.338190078735352,3.930211305618286,-4.134199142456055
1772574221413402000,7.257402099609375,10.61097240447998,2.8139593601226807,-4.6995038986206055
1772574221423329300,7.267329345703125,10.649256706237793,1.9621145725250244,-5.115854740142822
1772574221433261000,7.277260986328125,10.433902740478516,1.425524115562439,-5.431707382202148
1772574221443202000,7.2872021484375,9.897313117980957,1.1288141012191772,-5.556732177734375
1772574221453134800,7.297134765625,9.068798065185547,0.908674418926239,-5.359922885894775
1772574221463068700,7.307068603515625,8.283951759338379,0.875174880027771,-5.082355499267578
1772574221473001500,7.31700146484375,7.742575645446777,1.0666006803512573,-4.656432628631592
1772574221482933500,7.32693359375,7.5463643074035645,1.3106685876846313,-4.1629133224487305
1772574221492866300,7.3368662109375,7.756932735443115,1.5355939865112305,-3.775275945663452
1772574221502784300,7.3467841796875,8.149953842163086,1.7126628160476685,-3.569493293762207
1772574221512715500,7.356715576171875,8.58066177368164,1.7988044023513794,-3.497708559036255
1772574221522647300,7.366647216796875,8.910871505737305,1.7748762369155884,-3.492922782897949
1772574221532578600,7.37657861328125,9.241679191589355,1.6600207090377808,-3.483351469039917
1772574221542516700,7.386516845703125,9.524032592773438,1.540379524230957,-3.3343982696533203
1772574221552448800,7.39644873046875,9.748957633972168,1.51166570186615,-3.157329559326172
1772574221562374100,7.4063740234375,9.777671813964844,1.4925230741500854,-2.994617462158203
1772574221572305400,7.416305419921875,9.581459999084473,1.4159528017044067,-2.8175487518310547
1772574221582240500,7.426240478515625,9.265607833862305,1.4829518795013428,-2.6261229515075684
1772574221592172300,7.43617236328125,8.767302513122559,1.5690934658050537,-2.338385820388794
1772574221602091500,7.446091552734375,8.049455642700195,1.6600207090377808,-1.9459630250930786
1772574221612021800,7.456021728515625,7.287939548492432,1.8807586431503296,-1.5774682760238647
1772574221621969000,7.465968994140625,6.669992923736572,2.172683000564575,-1.2945170402526855
1772574221631901000,7.47590087890625,6.2297139167785645,2.4406790733337402,-1.1318050622940063
1772574221641847000,7.485846923828125,5.937191009521484,2.6081767082214355,-1.0504491329193115
1772574221651780600,7.495780517578125,5.807978630065918,2.7086751461029053,-1.00259268283844
1772574221661712100,7.505712158203125,5.769693374633789,2.7421748638153076,-1.0169496536254883
1772574221671645400,7.5156455078125,5.7649078369140625,2.770888566970825,-0.9930213689804077
1772574221681572000,7.525572021484375,5.755336761474609,2.8283164501190186,-0.973878800868988
1772574221691505000,7.5355048828125,5.750551223754883,2.991626501083374,-1.0791629552841187
1772574221701426200,7.54542626953125,5.860620975494385,3.1591241359710693,-1.179661512374878
1772574221711357700,7.555357666015625,6.047859191894531,3.2883365154266357,-1.2370892763137817
1772574221721287700,7.56528759765625,6.2871413230896,3.3744781017303467,-1.3621143102645874
1772574221731219000,7.575218994140625,6.583851337432861,3.422334671020508,-1.5487544536590576
1772574221741163000,7.5851630859375,6.708278179168701,3.4127633571624756,-1.7497515678405762
1772574221751095600,7.595095458984375,6.660421848297119,3.441477060317993,-2.032104730606079
1772574221761014800,7.605014892578125,6.655636310577393,3.5611183643341064,-2.2474586963653564
1772574221770946000,7.614946044921875,6.689135551452637,3.6807594299316406,-2.434697151184082
1772574221780884000,7.624884033203125,6.68435001373291,3.776472330093384,-2.482553482055664
1772574221790816000,7.63481591796875,6.674778938293457,3.881756544113159,-2.3676979541778564
1772574221800758000,7.644758056640625,6.698707103729248,4.059423446655273,-2.1613171100616455
1772574221810691000,7.654691162109375,6.660421848297119,4.198207378387451,-1.9746768474578857
1772574221820614400,7.664614501953125,6.196214199066162,4.107280254364014,-1.6205391883850098
1772574221830546400,7.67454638671875,5.386841773986816,3.9158542156219482,-1.3046865463256836
1772574221840477400,7.6844775390625,5.0949177742004395,4.021138668060303,-1.4434702396392822
1772574221850409500,7.694409423828125,5.597410202026367,4.217350006103516,-1.8502501249313354
1772574221860348400,7.704348388671875,6.847062110900879,4.169493675231934,-2.0033907890319824
1772574221870281000,7.714281005859375,8.082955360412598,3.6807594299316406,-1.811964988708496
1772574221880212200,7.724212158203125,9.332606315612793,3.3074791431427,-1.7353945970535278
1772574221890144800,7.734144775390625,11.079965591430664,3.2309088706970215,-1.6109678745269775
1772574221900076300,7.744076171875,12.583854675292969,3.1304101943969727,-1.472184181213379
1772574221910008600,7.754008544921875,13.771292686462402,2.967698335647583,-1.4482558965682983
1772574221919930400,7.763930419921875,14.590235710144043,2.809173822402954,-1.3668999671936035
1772574221929861600,7.773861572265625,15.035301208496094,2.7182464599609375,-1.1940184831619263
1772574221939794000,7.7837939453125,15.433107376098633,2.8767709732055664,-1.2370892763137817
1772574221949725200,7.79372509765625,15.75853157043457,3.226123094558716,-1.414756417274475
1772574221959664000,7.8036640625,15.811173439025879,3.5371899604797363,-1.5487544536590576
1772574221969596200,7.81359619140625,15.777674674987793,3.872185230255127,-1.409970760345459
1772574221979521000,7.82352099609375,15.739389419555664,4.155136585235596,-0.9403793215751648
1772574221989452500,7.83345263671875,15.543177604675293,4.399204254150391,-0.26081767678260803
1772574221999383800,7.8433837890625,15.279369354248047,4.58584451675415,0.30927231907844543
1772574222009315000,7.853315185546875,15.044872283935547,4.5714874267578125,0.5629115104675293
1772574222019247400,7.863247314453125,14.824732780456543,4.107280254364014,0.49591249227523804
1772574222029179000,7.873178955078125,14.585450172424316,3.1208388805389404,0.17527425289154053
1772574222039126800,7.883126708984375,14.403595924377441,1.8664016723632812,-0.39960137009620667
1772574222049059800,7.893059814453125,14.192429542541504,0.6640082597732544,-1.1892328262329102
1772574222058979600,7.9029794921875,13.780863761901855,-0.18783657252788544,-1.893320918083191
1772574222068911400,7.912911376953125,13.11984634399414,-0.42771705985069275,-2.2713868618011475
1772574222078850300,7.922850341796875,12.171690940856934,-0.3128615617752075,-2.348555326461792
1772574222088782800,7.932782958984375,11.281560897827148,0.02273181453347206,-2.15653133392334
1772574222098705200,7.942705078125,10.242477416992188,0.46779683232307434,-1.6971094608306885
1772574222108636700,7.95263671875,9.040083885192871,0.8656035661697388,-0.9786644577980042
1772574222118547500,7.96254736328125,7.914859294891357,1.2675977945327759,-0.26560330390930176
1772574222128477000,7.972476806640625,6.8997039794921875,1.755733609199524,0.06999006122350693
1772574222138430500,7.982430419921875,6.004788398742676,2.2061824798583984,0.10827522724866867
1772574222148362500,7.992362548828125,5.348556995391846,2.416750907897949,0.0029910283628851175
1772574222158293500,8.00229345703125,5.013561725616455,2.359323024749756,-0.07357929646968842
1772574222168225300,8.012225341796874,5.114060401916504,2.1296122074127197,-0.04007977992296219
1772574222178142000,8.022141845703125,5.855835437774658,1.9142581224441528,0.012562318705022335
1772574222188072200,8.032072265625,6.952346324920654,1.7461622953414917,0.06520441919565201
1772574222198000000,8.042000244140626,7.814360618591309,1.5068800449371338,0.18005990982055664
1772574222207930000,8.05193017578125,8.360522270202637,1.296311616897583,0.36191442608833313
1772574222217872000,8.061871826171876,8.547162055969238,1.272383451461792,0.5246263742446899
1772574222227803000,8.071802978515626,8.609375953674316,1.5020943880081177,0.5006981492042542
1772574222237768000,8.081767822265626,8.475378036499023,1.7700905799865723,0.4863412082195282
1772574222247702500,8.09170263671875,7.9866437911987305,1.923829436302185,0.5629115104675293
1772574222257624800,8.101624755859374,7.2783684730529785,2.0338993072509766,0.6203392744064331
1772574222267558100,8.11155810546875,6.512066841125488,2.282752752304077,0.5533402562141418
1772574222277457400,8.12145751953125,5.812764644622803,2.555534601211548,0.33798620104789734
1772574222287387400,8.131387451171875,5.453841209411621,2.8043880462646484,0.05563312768936157
1772574222297321700,8.14132177734375,5.415555953979492,2.953341245651245,-0.21236300468444824
1772574222307252000,8.151251953125,5.554339408874512,2.895913600921631,-0.45224347710609436
1772574222317186800,8.161186767578124,5.650052547454834,2.770888566970825,-0.7250252366065979
1772574222327117800,8.171117919921874,5.6309099197387695,2.66560435295105,-1.031306505203247
1772574222337052000,8.181052001953125,5.7170515060424805,2.6273193359375,-1.4434702396392822
1772574222346983200,8.190983154296875,5.913262844085693,2.675175666809082,-1.8167506456375122
1772574222356932900,8.200932861328125,6.110072612762451,2.761317253112793,-2.0608184337615967
1772574222366866000,8.210865966796876,6.449853420257568,3.0107691287994385,-2.15653133392334
1772574222376800500,8.220800537109374,7.015157699584961,3.321835994720459,-2.1948165893554688
1772574222386733600,8.230733642578125,7.843074321746826,3.6089746952056885,-2.1708884239196777
1772574222396674000,8.240674072265625,8.776873588562012,3.7094733715057373,-1.989033818244934
1772574222406608000,8.25060791015625,9.65803050994873,3.7429728507995605,-1.7497515678405762
1772574222416509200,8.26050927734375,10.39083194732666,3.738187074661255,-1.5487544536590576
1772574222426440000,8.27043994140625,10.912467956542969,3.7956149578094482,-1.6348960399627686
1772574222436391700,8.2803916015625,11.228918075561523,3.824328899383545,-1.9459630250930786
1772574222446324200,8.29032421875,11.396415710449219,3.8195431232452393,-2.290529489517212
1772574222456256500,8.300256591796876,11.539985656738281,3.738187074661255,-2.6213371753692627
1772574222466189300,8.310189208984376,11.73141098022461,3.5994033813476562,-2.8414769172668457
1772574222476118500,8.320118408203125,11.951550483703613,3.4606196880340576,-2.985046148300171
1772574222486051000,8.330051025390626,12.099905967712402,3.3744781017303467,-2.9802606105804443
1772574222495983000,8.339983154296876,12.09033489227295,3.4031920433044434,-2.8558337688446045
1772574222505915400,8.349915283203124,12.128620147705078,3.5084762573242188,-2.669193744659424
1772574222515857700,8.359857666015625,12.320643424987793,3.690330743789673,-2.4681966304779053
1772574222525791000,8.369791015625,12.66042423248291,3.848257064819336,-2.2953150272369385
1772574222535713800,8.3797138671875,13.076775550842285,4.025924205780029,-2.328814744949341
1772574222545646000,8.38964599609375,13.234702110290527,4.222135543823242,-2.449054002761841
1772574222555576800,8.399576904296875,12.789636611938477,4.231706619262695,-2.328814744949341
1772574222565508900,8.4095087890625,12.200404167175293,3.906282901763916,-1.8837496042251587
1772574222575438800,8.41943896484375,12.104691505432129,3.5467612743377686,-1.5487544536590576
1772574222585370600,8.42937060546875,12.569497108459473,3.446262836456299,-1.587039589881897
1772574222595318800,8.43931884765625,13.000205039978027,3.494119167327881,-1.8406788110733032
1772574222605252400,8.44925244140625,13.062418937683105,3.5754752159118652,-2.1948165893554688
1772574222615180300,8.45918017578125,12.89492130279541,3.503690481185913,-2.4873390197753906
1772574222625113300,8.46911328125,12.52164077758789,3.178266763687134,-2.6356940269470215
1772574222635009000,8.479009033203125,12.028120994567871,2.6321048736572266,-2.6500511169433594
1772574222644938500,8.4889384765625,11.583056449890137,2.029113531112671,-2.726621389389038
1772574222654895000,8.49889501953125,11.334202766418457,1.5595221519470215,-2.7984061241149902
1772574222664827000,8.508826904296875,10.778470039367676,1.1048858165740967,-2.8654050827026367
1772574222674758400,8.51875830078125,10.161121368408203,0.908674418926239,-2.92283296585083
1772574222684690200,8.528690185546875,9.691530227661133,1.0235298871994019,-2.5782663822174072
1772574222694622500,8.53862255859375,9.208179473876953,1.2484551668167114,-2.0368902683258057
1772574222704554500,8.548554443359375,8.666803359985352,1.4685949087142944,-1.5296118259429932
1772574222714489000,8.558489013671876,8.250452041625977,1.6552350521087646,-1.1030912399291992
1772574222724421400,8.56842138671875,8.015357971191406,1.8179470300674438,-0.8207381963729858
1772574222734349600,8.578349609375,7.981858253479004,1.9860427379608154,-0.6484549641609192
1772574222744281300,8.58828125,8.034500122070312,2.187039852142334,-0.5144568681716919
1772574222754256000,8.598255859375,8.054241180419922,2.3162522315979004,-0.519242525100708
1772574222764192300,8.608192138671875,8.12123966217041,2.321038007736206,-0.6484549641609192
1772574222774094300,8.61809423828125,8.283951759338379,2.2205393314361572,-0.8255237936973572
1772574222784027100,8.628027099609374,8.508877754211426,2.0673987865448,-1.00259268283844
1772574222793942000,8.63794189453125,8.719446182250977,1.8903298377990723,-1.0648061037063599
1772574222803872800,8.647872802734375,8.638090133666992,1.7700905799865723,-0.9355936646461487
1772574222813820200,8.657820068359374,8.2695951461792,1.755733609199524,-0.8303094506263733
1772574222823752700,8.667752685546875,7.752147197723389,1.8179470300674438,-0.9403793215751648
1772574222833676500,8.677676513671875,7.225726127624512,1.8664016723632812,-0.9930213689804077
1772574222843608300,8.6876083984375,6.7896342277526855,1.9094724655151367,-1.0360921621322632
1772574222853537800,8.697537841796875,6.478567123413086,1.919043779373169,-1.179661512374878
1772574222863469300,8.70746923828125,6.282355785369873,1.8233308792114258,-1.1940184831619263
1772574222873401300,8.7174013671875,6.311069488525391,1.7078771591186523,-1.1078768968582153
1772574222883332900,8.727332763671875,6.4115681648254395,1.693520188331604,-0.9690931439399719
1772574222893262800,8.737262939453124,6.545566558837891,1.7653049230575562,-0.763310432434082
1772574222903194000,8.747194091796874,6.713063716888428,1.947757601737976,-0.5144568681716919
1772574222913131800,8.7571318359375,6.909275531768799,2.187039852142334,-0.33738797903060913
1772574222923063800,8.767063720703124,7.120441913604736,2.3784656524658203,-0.2991028428077698
1772574222932993000,8.776992919921875,7.354938507080078,2.493321180343628,-0.4091726839542389
1772574222942924800,8.7869248046875,7.555935859680176,2.550748825073242,-0.6197410821914673
1772574222952854500,8.7968544921875,7.728219032287598,2.6273193359375,-0.8973084688186646
1772574222962786000,8.8067861328125,7.9005022048950195,2.8043880462646484,-1.093519926071167
1772574222972719900,8.816719970703126,7.981858253479004,3.0346972942352295,-1.2179467678070068
1772574222982651400,8.8266513671875,7.967501163482666,3.2452657222747803,-1.2705888748168945
1772574222992584400,8.83658447265625,7.795217990875244,3.422334671020508,-1.2801600694656372
1772574223002516200,8.84651611328125,7.541578769683838,3.613760471343994,-1.319043517112732
1772574223012459300,8.856459228515625,7.417151927947998,3.7908291816711426,-1.4769697189331055
1772574223022392300,8.866392333984376,7.613363265991211,3.906282901763916,-1.6444673538208008
1772574223032311600,8.8763115234375,8.159524917602539,3.9876389503479004,-1.6971094608306885
1772574223042243000,8.8862431640625,8.805587768554688,3.992424488067627,-1.6683956384658813
1772574223052176000,8.89617578125,9.270393371582031,3.8626139163970947,-1.4817553758621216
1772574223062107600,8.906107666015625,9.715457916259766,3.7429728507995605,-1.3094722032546997
1772574223072038700,8.91603857421875,10.228120803833008,3.7190446853637695,-1.1940184831619263
1772574223081970200,8.92597021484375,10.716256141662598,3.5611183643341064,-1.0839486122131348
1772574223091868200,8.9358681640625,11.310274124145508,3.3984062671661377,-1.00259268283844
1772574223101796400,8.94579638671875,11.70269775390625,3.1686954498291016,-0.9308080077171326
1772574223111781000,8.955781005859375,11.851052284240723,2.9246275424957275,-0.973878800868988
1772574223121715000,8.96571484375,12.004193305969238,2.958127021789551,-0.9595218896865845
1772574223131625500,8.97562548828125,11.975479125976562,3.029911756515503,-0.7345965504646301
1772574223141557200,8.98555712890625,11.870195388793945,3.1064820289611816,-0.3900300860404968
1772574223151508700,8.9955087890625,11.82712459564209,3.2069804668426514,-0.0687936544418335
1772574223161442600,9.005442626953124,11.937193870544434,3.273979663848877,0.05563312768936157
1772574223171357400,9.015357421875,12.08076286315918,3.446262836456299,-0.13579268753528595
1772574223181289200,9.025289306640625,11.961122512817383,3.7286159992218018,-0.3326023519039154
1772574223191224800,9.035224853515626,11.544771194458008,3.7094733715057373,-0.12143574655056
1772574223201157000,9.0451572265625,11.24327564239502,3.6089746952056885,0.15134602785110474
1772574223211098000,9.05509814453125,11.209775924682617,3.7429728507995605,0.20877377688884735
1772574223221031200,9.06503125,11.20499038696289,3.992424488067627,0.24227328598499298
1772574223230955000,9.074955078125,11.103893280029297,4.073780536651611,0.44805604219436646
1772574223240887300,9.08488720703125,10.945966720581055,3.920639991760254,0.7782655358314514
1772574223250818300,9.094818359375,10.721041679382324,3.494119167327881,1.113858938217163
1772574223260750300,9.104750244140625,10.615757942199707,2.867199659347534,1.444068431854248
1772574223270679300,9.11467919921875,10.864611625671387,2.187039852142334,1.2861422300338745
1772574223280610800,9.12461083984375,11.334202766418457,1.669592022895813,0.7495517134666443
1772574223290540800,9.134540771484374,11.707483291625977,1.3776676654815674,0.1704886108636856
1772574223300472600,9.14447265625,11.664412498474121,1.2293126583099365,-0.2315055876970291
1772574223310414600,9.15441455078125,11.185847282409668,1.1958130598068237,-0.42831525206565857
1772574223320347400,9.164347412109375,10.572687149047852,1.2149556875228882,-0.4139583110809326
1772574223330273000,9.17427294921875,9.897313117980957,1.2197413444519043,-0.22193430364131927
1772574223340205000,9.184205078125,9.236893653869629,1.334596872329712,-0.03529413416981697
1772574223350115600,9.194115478515625,8.542376518249512,1.6313068866729736,0.0029910283628851175
1772574223360045300,9.20404541015625,7.843074321746826,2.1104695796966553,-0.001794616924598813
1772574223369980200,9.213980224609376,7.249654293060303,2.5459632873535156,0.08434699475765228
1772574223379910700,9.22391064453125,6.93320369720459,2.8139593601226807,0.251844584941864
1772574223389845800,9.233845703125,7.010372161865234,2.7900311946868896,0.4384847581386566
1772574223399776500,9.243776611328125,7.5080790519714355,2.4981069564819336,0.582054078578949
1772574223409710800,9.2537109375,8.293522834777832,2.1535403728485107,0.6059823632240295
1772574223419641900,9.263641845703125,9.102895736694336,1.8855443000793457,0.42412781715393066
1772574223429606000,9.27360595703125,9.55753231048584,1.6217355728149414,0.18005990982055664
1772574223439540500,9.28354052734375,9.725028991699219,1.5308083295822144,-0.1788634955883026
1772574223449438200,9.293438232421876,9.552745819091797,1.5068800449371338,-0.4043870270252228
1772574223459369000,9.303368896484375,9.068798065185547,1.5690934658050537,-0.20757736265659332
1772574223469297400,9.31329736328125,8.60459041595459,1.7700905799865723,0.17527425289154053
1772574223479228000,9.323227783203125,8.226524353027344,2.1296122074127197,0.47676992416381836
1772574223489176600,9.333176513671875,8.020143508911133,2.5363919734954834,0.6729813814163208
1772574223499109000,9.343109130859375,7.847859859466553,2.9341988563537598,0.9176474809646606
1772574223509031000,9.353031005859375,7.517650604248047,3.139981508255005,1.0372886657714844
1772574223528894700,9.372894775390625,6.713063716888428,3.2165517807006836,0.5964110493659973
1772574223538826000,9.382825927734375,6.406782627105713,3.197409152984619,0.0891326442360878
1772574223548758300,9.39275830078125,6.3014984130859375,3.1351959705352783,-0.48574298620224
1772574223558690000,9.40268994140625,6.358926296234131,3.0490541458129883,-0.9882357716560364
1772574223568650200,9.412650146484374,6.550352096557617,2.929413080215454,-1.2658032178878784
1772574223578584600,9.42258447265625,6.847062110900879,2.87198543548584,-1.3668999671936035
1772574223588502800,9.432502685546876,7.211369037628174,2.881556749343872,-1.3621143102645874
1772574223598435600,9.442435546875,7.565506935119629,2.991626501083374,-1.2993026971817017
1772574223608380000,9.4523798828125,7.804789066314697,3.101696252822876,-1.3046865463256836
1772574223618313700,9.462313720703126,7.9627156257629395,3.2165517807006836,-1.43389892578125
1772574223628235300,9.4722353515625,8.13081169128418,3.34576416015625,-1.563111424446106
1772574223638168000,9.48216796875,8.288737297058105,3.5371899604797363,-1.6348960399627686
1772574223648112000,9.492112060546875,8.427521705627441,3.690330743789673,-1.721037745475769
1772574223658046000,9.5020458984375,8.685946464538574,3.944568157196045,-1.835893154144287
1772574223667964200,9.511964111328124,8.93958568572998,4.202992916107178,-1.7832510471343994
1772574223677896400,9.521896484375,9.21296501159668,4.475774765014648,-1.5296118259429932
1772574223687783200,9.531783203125,9.485747337341309,4.782055854797363,-1.179661512374878
1772574223697710800,9.5417109375,9.787242889404297,5.136792182922363,-0.8590233325958252
1772574223707690500,9.5516904296875,10.0073823928833,5.347360610961914,-0.7489534616470337
1772574223717623600,9.56162353515625,9.988240242004395,5.361717224121094,-0.973878800868988
1772574223727555000,9.57155517578125,9.945169448852539,5.246861934661865,-1.43389892578125
1772574223737488000,9.58148779296875,10.112667083740234,5.045864582061768,-1.8406788110733032
1772574223747429400,9.591429443359376,10.381260871887207,4.796412944793701,-2.046461582183838
1772574223757363200,9.60136328125,10.61097240447998,4.638486862182617,-2.108675003051758
1772574223767273200,9.611273193359375,10.883753776550293,4.595416069030762,-2.0895323753356934
1772574223777204500,9.62120458984375,11.24327564239502,4.638486862182617,-2.046461582183838
1772574223787148500,9.6311484375,11.563913345336914,4.978865623474121,-2.228316068649292
1772574223797081000,9.6410810546875,11.410773277282715,5.55314302444458,-2.4299113750457764
1772574223807022300,9.651022216796875,10.577472686767578,5.644070625305176,-1.7545372247695923
1772574223816956000,9.660955810546875,9.868598937988281,5.333003520965576,-0.5288137793540955
1772574223826885000,9.670885009765625,10.112667083740234,5.342574596405029,0.23270200192928314
1772574223836818200,9.680818115234375,10.835897445678711,5.715855121612549,0.4145565330982208
1772574223846739500,9.690739501953125,11.262417793273926,5.854638576507568,0.2997010350227356
1772574223856671200,9.700671142578125,11.401201248168945,5.49092960357666,-0.12622138857841492
1772574223866605600,9.71060546875,11.525628089904785,4.863411903381348,-0.8303094506263733
1772574223876537600,9.72053759765625,11.836695671081543,4.097708702087402,-1.5822539329528809
1772574223886469600,9.7304697265625,12.162118911743164,3.226123094558716,-2.1517457962036133
1772574223896401700,9.740401611328124,12.133405685424805,2.4263222217559814,-2.5782663822174072
1772574223906333200,9.750333251953125,11.583056449890137,1.9334007501602173,-2.999403238296509
1772574223916265200,9.76026513671875,10.630114555358887,1.7174484729766846,-3.2578279972076416
1772574223926196200,9.7701962890625,9.538389205932617,1.6360924243927002,-3.1334011554718018
1772574223936128300,9.780128173828125,8.547162055969238,1.6552350521087646,-2.583052158355713
1772574223946067000,9.79006689453125,7.642077445983887,1.8179470300674438,-2.0416758060455322
1772574223955999500,9.79999951171875,7.201797962188721,2.091326951980591,-1.8215361833572388
1772574223965931500,9.809931640625,8.034500122070312,2.3736801147460938,-1.7545372247695923
1772574223975864000,9.819864013671875,7.938787460327148,3.039483070373535,-1.811964988708496
1772574223985795000,9.829795166015625,7.125227451324463,3.4127633571624756,-1.7928223609924316
1772574223995727400,9.839727294921875,6.803991317749023,3.2165517807006836,-1.5774682760238647
1772574224005699600,9.849699462890625,7.431509017944336,2.943770170211792,-1.472184181213379
1772574224015636000,9.859635986328126,9.17467975616455,2.7565317153930664,-1.342971682548523
1772574224025510000,9.869510009765625,10.768898010253906,2.2157537937164307,-1.5056836605072021
1772574224035440000,9.879440185546875,11.4442720413208,1.5978072881698608,-2.1469600200653076
1772574224045377000,9.889376953125,11.070393562316895,1.5260226726531982,-2.908475875854492
1772574224055307800,9.899307861328126,9.686744689941406,1.9142581224441528,-2.994617462158203
1772574224065243000,9.909242919921875,7.9627156257629395,2.335394859313965,-2.4299113750457764
1772574224075174100,9.919174072265625,7.024729251861572,2.7038896083831787,-1.835893154144287
