time,seconds_elapsed,z,y,x
1772533201241316000,0.243316162109375,8.034500122070312,1.6313068866729736,2.8564319610595703
1772533201251263200,0.25326318359375,7.407580852508545,2.187039852142334,1.5493526458740234
1772533201261183000,0.263182861328125,6.540780544281006,3.1351959705352783,-0.01615155301988125
1772533201271119000,0.273119140625,5.080560684204102,3.6807594299316406,-0.5814558863639832
1772533201281075700,0.28307568359375,3.6915271282196045,2.9724838733673096,0.6681957244873047
1772533201291020000,0.29302001953125,3.600599765777588,1.7940187454223633,1.3866406679153442
1772533201300918000,0.30291796875,4.41475772857666,1.3250255584716797,0.12263216078281403
1772533201310843400,0.312843505859375,5.673980712890625,1.4159528017044067,-0.5670989751815796
1772533201320776400,0.3227763671875,5.8749775886535645,1.4398809671401978,0.10348957777023315
1772533201330705000,0.332704833984375,4.457828521728516,1.430309772491455,0.7836494445800781
1772533201340620500,0.34262060546875,2.877967357635498,1.2436695098876953,0.8889335989952087
1772533201350544000,0.3525439453125,1.7569299936294556,0.47258245944976807,0.4863412082195282
1772533201360515800,0.362515869140625,1.2305090427398682,-0.34636107087135315,-0.001794616924598813
1772533201370459100,0.372459228515625,0.9864411354064941,-0.5377869009971619,-0.48574298620224
1772533201380369700,0.38236962890625,0.7998009920120239,-0.3080759048461914,-0.4618147611618042
1772533201390299600,0.392299560546875,1.77607262134552,-0.389431893825531,-0.04486542567610741
1772533201400236000,0.402236083984375,3.050250768661499,-0.50907301902771,-0.054436713457107544
1772533201410168800,0.4121689453125,3.7872400283813477,-0.3846462368965149,0.8123632669448853
1772533201420111000,0.422111083984375,4.366901397705078,0.8225327730178833,1.8323038816452026
1772533201430047700,0.4320478515625,5.176273345947266,1.090528964996338,2.4879374504089355
1772533201439953200,0.441953125,6.320641040802002,0.33858439326286316,2.8325037956237793
1772533201449877000,0.451876953125,7.536793231964111,0.7938188910484314,1.113858938217163
1772533201459831300,0.461831298828125,7.867002487182617,-0.2745763957500458,-0.6005984544754028
1772533201469767400,0.471767333984375,7.943572998046875,-1.1072787046432495,-1.0791629552841187
1772533201479696100,0.481696044921875,7.689933776855469,-0.37028929591178894,-1.0600204467773438
1772533201489629200,0.491629150390625,6.502495765686035,0.9996016621589661,0.39062830805778503
1772533201499552300,0.50155224609375,5.980860233306885,2.641676187515259,1.3196417093276978
1772533201509481200,0.511481201171875,5.769693374633789,4.169493675231934,0.768694281578064
1772533201539253800,0.541253662109375,6.339783668518066,6.434299945831299,-0.7776673436164856
1772533201559129600,0.561129638671875,9.500103950500488,7.420741081237793,-1.3286148309707642
1772533201569066200,0.571066162109375,11.85583782196045,7.655237674713135,-1.7066807746887207
1772533201579018500,0.5810185546875,14.020146369934082,7.569096088409424,-1.922034740447998
1772533201588957000,0.59095703125,15.471392631530762,7.1718878746032715,-2.472982168197632
1772533201598893800,0.600893798828125,16.02174186706543,7.7940216064453125,-2.908475875854492
1772533201608832000,0.61083203125,15.30329704284668,10.39920711517334,-2.7840490341186523
1772533201618748200,0.620748046875,11.831910133361816,14.176876068115234,-0.7585247755050659
1772533201628684300,0.630684326171875,7.034300327301025,16.877775192260742,2.334796667098999
1772533201638611200,0.640611083984375,5.697908878326416,16.954345703125,3.6610186100006104
1772533201648546300,0.65054638671875,7.747361660003662,15.685550689697266,3.1920254230499268
1772533201658488600,0.660488525390625,12.142976760864258,13.765310287475586,2.248655080795288
1772533201668424400,0.670424560546875,16.878971099853516,11.672786712646484,1.6067804098129272
1772533201678342100,0.680342041015625,20.571096420288086,9.699904441833496,0.9942178130149841
1772533201688276200,0.690276123046875,22.55295181274414,8.344968795776367,-0.054436713457107544
1772533201698203400,0.700203369140625,22.088743209838867,7.63609504699707,-1.5343974828720093
1772533201708137000,0.710136962890625,19.809579849243164,8.187042236328125,-1.9172492027282715
1772533201718070500,0.720070556640625,15.935600280761719,8.823533058166504,-0.5670989751815796
1772533201728003800,0.73000390625,11.319846153259277,8.986245155334473,0.5054838061332703
1772533201737949400,0.739949462890625,6.937989234924316,8.842676162719727,0.6299105882644653
1772533201747884000,0.749884033203125,2.7146573066711426,8.028517723083496,0.6059823632240295
1772533201757801000,0.759801025390625,0.07657032459974289,6.668796539306641,1.2335001230239868
1772533201767733800,0.769733642578125,0.5072783827781677,5.562714576721191,2.531008243560791
1772533201777649200,0.779649169921875,3.7872400283813477,3.250051259994507,2.799004316329956
1772533201787580200,0.789580078125,7.158727169036865,0.1136590763926506,2.1003000736236572
1772533201797532000,0.799531982421875,9.29910659790039,-2.2325034141540527,1.0612168312072754
1772533201807465200,0.80946533203125,9.835099220275879,-3.2093734741210938,-0.01615155301988125
1772533201817394700,0.819394775390625,8.461020469665527,-3.070589542388916,-0.7824530005455017
1772533201827327500,0.829327392578125,6.1435723304748535,-2.659024238586426,-0.5383850932121277
1772533201837259300,0.83925927734375,4.749752998352051,-2.1367905139923096,-0.12143574655056
1772533201847192000,0.849192138671875,4.778466701507568,-1.4763715267181396,0.5150550603866577
1772533201857135400,0.85913525390625,5.185844898223877,-0.9254241585731506,1.1377872228622437
1772533201867069200,0.869069091796875,4.902893543243408,-1.0163514614105225,0.8554341197013855
1772533201876988000,0.87898779296875,3.586242914199829,-1.4141582250595093,0.3236292600631714
1772533201886920200,0.888920166015625,1.6564314365386963,-1.2556337118148804,0.2709871530532837
1772533201896866000,0.898865966796875,-0.04307080805301666,-0.6957131624221802,1.3100703954696655
1772533201906799900,0.9087998046875,-1.043868899345398,0.13280165195465088,2.4735803604125977
1772533201916718000,0.918718017578125,-2.087737798690796,0.7022934556007385,3.029313564300537
1772533201926650000,0.928650146484375,-3.002394199371338,0.8512466549873352,4.355535507202148
1772533201936582100,0.93858203125,-2.5429723262786865,0.9565308690071106,1.7982062101364136
1772533201946514200,0.94851416015625,-1.4799607992172241,0.5682953596115112,-0.6197410821914673
1772533201956461800,0.9584619140625,-0.15314064919948578,0.3720839321613312,-1.587039589881897
1772533201966395600,0.968395751953125,1.2305090427398682,0.6687939167022705,-1.591825246810913
1772533201976310000,0.97831005859375,1.2544373273849487,0.9565308690071106,-0.6245267391204834
1772533201986241800,0.98824169921875,1.6995022296905518,1.0666006803512573,0.6873382925987244
1772533201996151800,0.99815185546875,3.1411778926849365,0.8799605369567871,0.7932206988334656
1772533202006081300,1.008081298828125,4.553541660308838,0.6592226624488831,1.109073281288147
1772533202016018400,1.018018310546875,5.453841209411621,-0.005982056725770235,2.1816561222076416
1772533202025948700,1.02794873046875,6.880561351776123,-0.355932354927063,2.3204398155212402
1772533202035918600,1.037918701171875,7.004988193511963,-0.28893333673477173,2.7463622093200684
1772533202045853000,1.04785302734375,5.7409796714782715,0.4773681163787842,3.9535412788391113
1772533202055748900,1.057748779296875,4.620540618896484,2.4837498664855957,6.290132522583008
1772533202065679400,1.067679443359375,4.893322467803955,4.088137626647949,8.473583221435547
1772533202075613000,1.077613037109375,6.3493547439575195,2.8522446155548096,9.378668785095215
1772533202085544000,1.0875439453125,8.930013656616211,0.8273184299468994,6.677769660949707
1772533202095479300,1.097479248046875,12.373286247253418,-0.18305093050003052,2.0476579666137695
1772533202105410600,1.10741064453125,15.361323356628418,0.31465616822242737,-0.7010970115661621
1772533202115343400,1.11734326171875,17.00339698791504,2.124826431274414,-0.049651071429252625
1772533202125275000,1.12727490234375,17.496917724609375,4.681557655334473,4.173680782318115
1772533202135209500,1.13720947265625,17.520845413208008,7.200601577758789,10.360323905944824
1772533202145141200,1.147141357421875,18.985851287841797,8.919246673583984,14.736796379089355
1772533202155070700,1.15707080078125,22.34716796875,10.034899711608887,16.929819107055664
1772533202165002200,1.167002197265625,25.742584228515625,8.785248756408691,15.603596687316895
1772533202174936600,1.1769365234375,25.83829689025879,3.6329028606414795,10.61396312713623
1772533202184868400,1.186868408203125,18.607786178588867,2.6464617252349854,3.5988051891326904
1772533202194823700,1.19682373046875,10.773683547973633,5.696712493896484,0.5246263742446899
1772533202204757800,1.2067578125,2.3126630783081055,9.45583724975586,0.5198407173156738
1772533202214717200,1.21671728515625,-0.34995031356811523,10.595418930053711,1.506281852722168
1772533202224653800,1.22665380859375,5.1906304359436035,8.656036376953125,1.0372886657714844
1772533202234534400,1.236534423828125,14.590235710144043,4.863411903381348,1.439282774925232
1772533202244465700,1.246465576171875,23.24268341064453,-0.26500511169433594,4.680959224700928
1772533202254419500,1.25641943359375,31.31606674194336,-3.147160053253174,7.3052873611450195
1772533202264352800,1.266352783203125,36.71726608276367,-3.1998021602630615,7.247859954833984
1772533202274284500,1.276284423828125,37.56492233276367,-2.3431715965270996,6.424130439758301
1772533202284217600,1.286217529296875,33.82015609741211,-1.3088740110397339,6.529414653778076
1772533202294177000,1.296177001953125,28.5577392578125,0.8273184299468994,5.964110374450684
1772533202304113000,1.30611279296875,21.844676971435547,3.1304101943969727,5.571687698364258
1772533202314015700,1.316015625,13.728221893310547,4.030709743499756,4.872385025024414
1772533202323948300,1.3259482421875,6.598208427429199,3.455834150314331,2.430509567260742
1772533202343783200,1.345783203125,1.0630114078521729,-1.9070796966552734,-4.057629108428955
1772533202353746700,1.35574658203125,4.285545349121094,-4.655834674835205,-4.685146808624268
1772533202363679700,1.3656796875,7.957930088043213,-4.813760757446289,-4.28734016418457
1772533202373606400,1.3756064453125,9.509675025939941,-4.128815650939941,-3.6269209384918213
1772533202383538700,1.38553857421875,9.09811019897461,-4.401597023010254,-2.7457640171051025
1772533202393473800,1.395473876953125,6.87099027633667,-4.152743816375732,-1.1174482107162476
1772533202403406600,1.405406494140625,3.4953157901763916,-2.8217360973358154,0.3810569941997528
1772533202413340400,1.41534033203125,-0.45523449778556824,-1.5146567821502686,1.6689938306808472
1772533202423273200,1.425273193359375,-3.9122650623321533,-0.6239284873008728,2.6697919368743896
1772533202433163300,1.435163330078125,-5.971288681030273,-0.015553346835076809,2.665006160736084
1772533202443092000,1.445092041015625,-6.699305057525635,0.08015955984592438,1.975873351097107
1772533202453064700,1.455064697265625,-6.718447685241699,-0.5712863802909851,0.9750752449035645
1772533202462997800,1.464997802734375,-6.22492790222168,-1.0737791061401367,0.22791635990142822
1772533202472906000,1.474906005859375,-5.248058319091797,-1.0211371183395386,-0.14057832956314087
1772533202482836500,1.48483642578125,-3.8739798069000244,-0.877567708492279,0.07477571070194244
1772533202492801500,1.494801513671875,-2.2743778228759766,-0.5042873620986938,0.7782655358314514
1772533202502735600,1.504735595703125,-1.225723385810852,0.21415762603282928,1.82273268699646
1772533202512661000,1.514660888671875,-0.8093722462654114,0.9373882412910461,3.187239646911621
1772533202522594300,1.52459423828125,-0.22013968229293823,1.1240284442901611,4.034897327423096
1772533202532525600,1.534525634765625,1.1156535148620605,0.6592226624488831,3.9870407581329346
1772533202542458600,1.544458740234375,3.098107099533081,0.25244277715682983,3.0723843574523926
1772533202552389600,1.5543896484375,5.0566325187683105,0.14715859293937683,2.5262224674224854
1772533202562322400,1.564322509765625,6.1675004959106445,0.22372891008853912,2.521436929702759
1772533202572264000,1.574263916015625,6.296712875366211,0.6592226624488831,2.554936408996582
1772533202582197500,1.584197509765625,5.688337802886963,1.0618150234222412,3.469592809677124
1772533202592122600,1.59412255859375,4.572684288024902,1.578664779663086,4.202394962310791
1772533202602055400,1.604055419921875,3.19860577583313,1.9525432586669922,4.025325775146484
1772533202611986700,1.613986572265625,1.8963119983673096,2.00518536567688,3.273381471633911
1772533202621919500,1.62391943359375,0.8045865893363953,1.852044701576233,2.397010087966919
1772533202631852300,1.633852294921875,0.23449662327766418,1.755733609199524,1.2287144660949707
1772533202641784800,1.643784912109375,0.5024927258491516,1.6456637382507324,0.6011967062950134
1772533202651714000,1.653714111328125,2.7290141582489014,1.4590235948562622,2.837289333343506
1772533202661646300,1.663646240234375,8.078168869018555,2.895913600921631,7.377072334289551
1772533202671584800,1.673584716796875,14.513666152954102,6.6592254638671875,11.082956314086914
1772533202681517600,1.683517578125,18.396617889404297,9.259625434875488,13.300504684448242
1772533202691461000,1.693461181640625,19.44527244567871,9.135198593139648,14.449657440185547
1772533202701395000,1.70339501953125,19.31606101989746,8.244470596313477,14.368301391601562
1772533202711317200,1.713317138671875,19.02413558959961,6.798008918762207,14.22413444519043
1772533202721250300,1.723250244140625,20.729022979736328,3.4127633571624756,13.58764362335205
1772533202731176000,1.733176025390625,27.221946716308594,0.9708877801895142,10.164112091064453
1772533202741108000,1.74310791015625,34.792240142822266,2.0673987865448,4.168895244598389
1772533202751047000,1.753046875,34.222747802734375,-0.753140926361084,1.8029918670654297
1772533202760979700,1.762979736328125,28.189245223999023,-4.631906509399414,0.9128618240356445
1772533202770901800,1.77290185546875,23.951557159423828,-3.817748546600342,-0.11186445504426956
1772533202780833300,1.782833251953125,23.11347007751465,-2.194218397140503,-0.1501496136188507
1772533202790779000,1.79277880859375,25.000211715698242,-2.4197418689727783,-0.5910272002220154
1772533202800712000,1.8027119140625,28.09353256225586,-2.146361827850342,-2.2235305309295654
1772533202810630700,1.812630615234375,30.11427116394043,-0.7148557901382446,-3.9667017459869385
1772533202820562200,1.822562255859375,28.490741729736328,0.25722843408584595,-4.067200183868408
1772533202830493000,1.832492919921875,23.81755828857422,0.8464609980583191,-3.0759735107421875
1772533202840424400,1.842424560546875,19.004993438720703,1.272383451461792,-1.9268203973770142
1772533202850367200,1.8523671875,15.820745468139648,1.5212370157241821,-0.37088751792907715
1772533202860300000,1.862300048828125,13.579866409301758,2.0673987865448,0.8602197170257568
1772533202870224400,1.872224365234375,10.855039596557617,2.4023938179016113,2.2821545600891113
1772533202890092800,1.8920927734375,5.511268615722656,1.358525037765503,2.239083766937256
1772533202900025300,1.902025390625,4.5391845703125,-0.34636107087135315,0.6538388133049011
1772533202909963300,1.91196337890625,5.511268615722656,-2.0793628692626953,-0.8255237936973572
1772533202919896300,1.921896240234375,6.354140758514404,-3.281157970428467,-1.8263218402862549
1772533202929823000,1.931822998046875,5.879763603210449,-3.6885361671447754,-1.898106575012207
1772533202939755300,1.94175537109375,4.639683246612549,-3.3822548389434814,-1.1988041400909424
1772533202949686300,1.951686279296875,2.954537868499756,-2.8552355766296387,-0.25064817070961
1772533202959618300,1.961618408203125,0.9864411354064941,-2.4436700344085693,0.18005990982055664
1772533202969546500,1.97154638671875,-1.0295119285583496,-2.2707886695861816,0.18005990982055664
1772533202979478000,1.98147802734375,-2.8971099853515625,-2.2085752487182617,0.251844584941864
1772533202989411800,1.991411865234375,-4.027120590209961,-2.1032910346984863,0.44327038526535034
1772533202999343900,2.00134375,-4.204189300537109,-1.7922241687774658,0.44805604219436646
1772533203009255700,2.011255615234375,-4.309473514556885,-1.3567304611206055,0.29012975096702576
1772533203019185700,2.021185546875,-4.884349346160889,-0.96370929479599,0.17527425289154053
1772533203029118200,2.0311181640625,-5.746363639831543,-0.40378883481025696,0.19920247793197632
1772533203039048400,2.04104833984375,-6.358926296234131,0.33858439326286316,0.6825526356697083
1772533203049007900,2.0510078125,-5.995217323303223,1.0474581718444824,1.3627125024795532
1772533203058941000,2.06094091796875,-4.5445685386657715,1.3441680669784546,1.7886348962783813
1772533203068870000,2.070869873046875,-2.197807550430298,1.2867404222488403,1.3435698747634888
1772533203078802400,2.080802490234375,0.04307080805301666,1.1910275220870972,0.768694281578064
1772533203088743400,2.090743408203125,1.7521443367004395,1.2580264806747437,0.9750752449035645
1772533203098677000,2.100677001953125,3.11246395111084,1.6360924243927002,1.7407784461975098
1772533203108600000,2.11060009765625,4.319045066833496,2.0003998279571533,2.6841487884521484
1772533203118532400,2.120532470703125,5.3246283531188965,2.1296122074127197,3.3547372817993164
1772533203128466700,2.130466796875,6.129215240478516,2.0865414142608643,3.651447296142578
1772533203138399200,2.140399169921875,6.890132904052734,1.9142581224441528,3.751945972442627
1772533203148330500,2.15033056640625,7.149155616760254,1.7126628160476685,3.9535412788391113
1772533203158262800,2.1602626953125,6.842276573181152,1.454237937927246,4.020540237426758
1772533203168203800,2.170203857421875,6.540780544281006,1.3920245170593262,4.264608383178711
1772533203178137000,2.18013720703125,6.760920524597168,1.9142581224441528,5.810969829559326
1772533203188063200,2.190063232421875,8.662017822265625,2.9341988563537598,8.440083503723145
1772533203197995800,2.199995849609375,11.879766464233398,4.045066833496094,10.494321823120117
1772533203207906800,2.20990673828125,15.212369918823242,4.068994998931885,11.600403785705566
1772533203217837300,2.21983740234375,19.306489944458008,3.0251259803771973,12.586845397949219
1772533203227767800,2.229767822265625,22.01696014404297,2.785245656967163,10.494321823120117
1772533203237698300,2.2396982421875,21.715463638305664,3.2644083499908447,7.822137355804443
1772533203247630800,2.249630859375,19.086349487304688,4.327419757843018,7.16650390625
1772533203257561600,2.2595615234375,15.001801490783691,5.447858810424805,6.897909641265869
1772533203267494400,2.269494384765625,11.602198600769043,6.386443614959717,6.26141881942749
1772533203277425400,2.27942529296875,10.30469036102295,6.970292568206787,5.676971912384033
1772533203287361500,2.289361572265625,11.1373929977417,6.534798622131348,3.996612071990967
1772533203297293000,2.29929296875,15.279369354248047,6.745367050170898,-1.2370892763137817
1772533203307227000,2.309226806640625,21.523439407348633,6.530013084411621,-5.762515068054199
1772533203317158700,2.31915869140625,25.0289249420166,2.517249345779419,-5.398207664489746
1772533203327095600,2.329095458984375,25.344778060913086,-0.6526423692703247,-4.167698860168457
1772533203337027800,2.33902783203125,25.229921340942383,1.1718848943710327,-3.8662030696868896
1772533203346962700,2.348962646484375,24.525833129882812,3.920639991760254,-1.6348960399627686
1772533203356895200,2.358895263671875,24.200410842895508,5.624927997589111,-0.4713860750198364
1772533203366836500,2.36883642578125,24.92842674255371,6.946363925933838,-1.811964988708496
1772533203376769800,2.378769775390625,25.196422576904297,7.114459991455078,-2.9898319244384766
1772533203386689800,2.388689697265625,23.611177444458008,6.467799663543701,-2.9802606105804443
1772533203396621600,2.39862158203125,20.877378463745117,5.9264235496521,-2.338385820388794
1772533203406579200,2.4085791015625,17.439489364624023,5.457430362701416,-1.7928223609924316
1772533203416513800,2.418513671875,13.484153747558594,4.767699241638184,-1.1126625537872314
1772533203426412800,2.428412841796875,10.016953468322754,4.183850288391113,0.649053156375885
1772533203436343800,2.43834375,7.58943510055542,4.202992916107178,3.4648072719573975
1772533203446304800,2.4483046875,5.971288681030273,4.4997029304504395,5.653043270111084
1772533203456238800,2.45823876953125,4.5583271980285645,4.18863582611084,6.352345943450928
1772533203466167800,2.468167724609375,3.3278181552886963,2.9485557079315186,5.691328525543213
1772533203476101000,2.47810107421875,3.4713873863220215,1.0761719942092896,3.9152560234069824
1772533203486034400,2.488034423828125,4.634897232055664,-0.906281590461731,1.812563180923462
1772533203495968000,2.497968017578125,5.36769962310791,-2.462812662124634,0.18484555184841156
1772533203505902300,2.50790234375,4.572684288024902,-3.5258240699768066,-0.4713860750198364
1772533203515836000,2.5178359375,3.208176851272583,-3.961317777633667,-0.3326023519039154
1772533203525765600,2.527765625,1.2065808773040771,-3.544966697692871,0.1417747437953949
1772533203535698700,2.53769873046875,-1.4416756629943848,-2.9557342529296875,0.5389832854270935
1772533203545626400,2.54762646484375,-4.1659040451049805,-2.630310297012329,0.9320043921470642
1772533203555559000,2.557558837890625,-6.296712875366211,-2.5537400245666504,1.5014961957931519
1772533203565491000,2.567490966796875,-7.345367431640625,-2.4532413482666016,1.2717852592468262
1772533203575423500,2.577423583984375,-6.981658458709717,-2.558525562286377,-0.3756731450557709
1772533203585366300,2.5873662109375,-6.019145488739014,-2.960519790649414,-1.007378339767456
1772533203595299800,2.5972998046875,-4.668995380401611,-2.410170555114746,-0.6915257573127747
1772533203605196500,2.607196533203125,-2.7391836643218994,-1.0211371183395386,-0.9786644577980042
1772533203615126500,2.61712646484375,-0.5461617708206177,-0.058624155819416046,-0.8350951075553894
1772533203625064400,2.627064453125,0.5934200286865234,0.534795880317688,0.6107679605484009
1772533203634995200,2.6369951171875,0.771087110042572,1.2005987167358398,2.176870346069336
1772533203644950500,2.646950439453125,1.2544373273849487,1.919043779373169,3.067598581314087
1772533203654883600,2.656883544921875,2.575873613357544,2.8911280632019043,3.335594654083252
1772533203664814800,2.66681494140625,4.266402721405029,3.8434712886810303,2.8809585571289062
1772533203674748000,2.676747802734375,5.91804838180542,4.351347923278809,2.1098713874816895
1772533203684688100,2.686688232421875,7.297510623931885,4.657629489898682,1.4679967164993286
1772533203694622000,2.6966220703125,8.097311973571777,4.911268711090088,1.3770694732666016
1772533203704548900,2.706548828125,8.58066177368164,4.729413986206055,1.9902302026748657
1772533203714482000,2.71648193359375,8.997013092041016,3.824328899383545,2.7798616886138916
1772533203724417800,2.726417724609375,9.241679191589355,2.857030153274536,2.895315408706665
1772533203734351000,2.73635107421875,8.97787094116211,1.852044701576233,1.9232312440872192
1772533203744278000,2.746278076171875,8.097311973571777,0.7310073375701904,0.6873382925987244
1772533203754210800,2.7562109375,6.751348972320557,-0.07776673883199692,-0.049651071429252625
1772533203764139500,2.766139404296875,5.458626747131348,-0.03469592705368996,-0.28953152894973755
1772533203774071800,2.77607177734375,4.524827480316162,0.5874379873275757,0.30927231907844543
1772533203784011500,2.786011474609375,4.170690059661865,1.583450436592102,1.4727823734283447
1772533203793944600,2.795944580078125,4.6540398597717285,2.9964120388031006,2.3443679809570312
1772533203803860000,2.80585986328125,6.330212116241455,4.140779495239258,3.4025938510894775
1772533203813791200,2.815791259765625,9.260822296142578,4.743771076202393,4.805386066436768
1772533203823733200,2.825733154296875,13.579866409301758,5.189434051513672,6.33798885345459
1772533203833665500,2.83566552734375,19.852651596069336,5.734997749328613,7.635497093200684
1772533203843597000,2.84559716796875,27.14059066772461,7.8179497718811035,6.639484405517578
1772533203853529300,2.855529296875,30.789047241210938,9.5802640914917,4.934598445892334
1772533203863468300,2.86546826171875,28.0648193359375,8.038089752197266,4.680959224700928
1772533203873401000,2.875401123046875,23.60639190673828,7.569096088409424,4.00618314743042
1772533203883329300,2.885329345703125,21.3128719329834,9.747760772705078,3.4552359580993652
1772533203893261800,2.89526171875,21.945175170898438,10.217352867126465,3.2925238609313965
1772533203903190300,2.905190185546875,24.818355560302734,8.301898002624512,1.2574282884597778
1772533203913122300,2.915122314453125,29.620752334594727,6.496513366699219,-2.8414769172668457
1772533203923055000,2.92505517578125,35.2187614440918,4.786841869354248,-4.986642360687256
1772533203932987100,2.934987060546875,39.714874267578125,3.661616802215576,-3.435495138168335
1772533203942921200,2.944921142578125,39.51866149902344,4.566701889038086,1.1569297313690186
1772533203952853800,2.954853759765625,35.29054641723633,6.5874409675598145,5.897111415863037
1772533203962763500,2.964763427734375,30.023344039916992,7.736593723297119,7.798209190368652
1772533203972693500,2.974693603515625,25.22035026550293,7.22452974319458,6.845267295837402
1772533203982662000,2.984661865234375,20.65245246887207,5.667998790740967,5.117051124572754
1772533203992596000,2.994595947265625,16.308881759643555,3.954139471054077,3.627519130706787
1772533204002524400,3.0045244140625,12.75613784790039,2.148754835128784,2.272583246231079
1772533204012457700,3.014457763671875,9.619745254516602,0.6448656916618347,1.439282774925232
1772533204022384400,3.02438427734375,6.291927337646484,-0.26979073882102966,1.1856436729431152
1772533204032317200,3.034317138671875,2.9928228855133057,-0.7387840151786804,1.0516455173492432
1772533204042242800,3.044242919921875,-0.890728235244751,-1.4572290182113647,0.5150550603866577
1772533204052174800,3.0541748046875,-4.463212490081787,-2.4532413482666016,-0.4139583110809326
1772533204072040400,3.07404052734375,-7.968099594116211,-4.818546772003174,-1.4386845827102661
1772533204081977600,3.0839775390625,-7.585247993469238,-5.048257350921631,-1.5056836605072021
1772533204091910400,3.093910400390625,-6.507281303405762,-4.6271209716796875,-0.6628118753433228
1772533204101839600,3.103839599609375,-5.8133625984191895,-4.104887008666992,0.6634100675582886
1772533204111772000,3.11377197265625,-5.909075736999512,-3.6023945808410645,1.5445669889450073
1772533204121705500,3.12370556640625,-6.57966423034668,-3.1519455909729004,1.8418751955032349
1772533204131637800,3.1336376953125,-7.335795879364014,-2.606382131576538,1.9710876941680908
1772533204141566500,3.14356640625,-7.934599876403809,-1.9022940397262573,1.6977076530456543
1772533204151498500,3.15349853515625,-7.905886173248291,-1.4715858697891235,1.2574282884597778
1772533204161444000,3.163444091796875,-7.125227451324463,-1.1694921255111694,0.7932206988334656
1772533204171377400,3.17337744140625,-5.641079425811768,-0.6622136831283569,0.6873382925987244
1772533204181299200,3.18329931640625,-3.1890344619750977,0.02751746028661728,1.1521440744400024
1772533204191231500,3.1932314453125,-0.02871387079358101,0.9756734371185303,2.152942180633545
1772533204201174000,3.203174072265625,2.6141586303710938,1.7365909814834595,2.9240293502807617
1772533204211107300,3.213107421875,3.7393836975097656,2.0817556381225586,2.8277182579040527
1772533204221033700,3.22303369140625,3.490530014038086,2.1104695796966553,2.0237298011779785
1772533204230966300,3.23296630859375,2.6668007373809814,1.6360924243927002,0.9128618240356445
1772533204240891000,3.242890869140625,2.159522533416748,1.1431710720062256,-0.030508488416671753
1772533204250822700,3.25282275390625,2.695514678955078,1.5020943880081177,-0.3852444589138031
1772533204260757200,3.26275732421875,2.9832515716552734,1.6504493951797485,-0.31824541091918945
1772533204270689300,3.272689208984375,2.3461625576019287,1.3728820085525513,0.6586244106292725
1772533204280622300,3.282622314453125,2.0781664848327637,1.4590235948562622,1.7886348962783813
1772533204290554400,3.292554443359375,2.819941520690918,2.148754835128784,2.114656925201416
1772533204300474000,3.30247412109375,4.108476638793945,2.115255117416382,1.5493526458740234
1772533204310405000,3.312405029296875,5.463412284851074,0.7262216806411743,1.113858938217163
1772533204320350000,3.322349853515625,7.0199432373046875,0.17108681797981262,0.6681957244873047
1772533204330282200,3.3322822265625,8.484949111938477,1.339382529258728,0.0891326442360878
1772533204340217300,3.34221728515625,9.078369140625,3.053839921951294,0.01734796352684498
1772533204350150000,3.35214990234375,8.86780071258545,5.624927997589111,0.20398813486099243
1772533204360072000,3.362072021484375,8.542376518249512,8.761320114135742,0.9702895879745483
1772533204370003500,3.37200341796875,8.800801277160645,11.054841041564941,3.22552490234375
1772533204379947500,3.381947509765625,10.768898010253906,12.410374641418457,5.715256690979004
1772533204389880300,3.39188037109375,14.30309772491455,11.696715354919434,7.860422611236572
1772533204399815400,3.4018154296875,19.459630966186523,9.738189697265625,9.488738059997559
1772533204409748500,3.41174853515625,27.145376205444336,9.374481201171875,7.932207107543945
1772533204419656200,3.42165625,32.49871826171875,8.823533058166504,4.374678134918213
1772533204429586700,3.431586669921875,28.4859561920166,6.553941249847412,3.7710886001586914
1772533204439517000,3.441516845703125,21.5718936920166,6.798008918762207,4.858027935028076
1772533204449447400,3.451447509765625,17.453845977783203,9.288339614868164,6.964908599853516
1772533204459385900,3.4613857421875,17.228322982788086,10.356136322021484,7.29093074798584
1772533204469317000,3.471317138671875,20.69552230834961,9.072386741638184,5.504688262939453
1772533204479255000,3.481255126953125,26.982664108276367,5.902495384216309,3.3547372817993164
1772533204489186800,3.491186767578125,33.17887878417969,3.4749767780303955,1.9184455871582031
1772533204499157500,3.501157470703125,35.42932891845703,2.1678972244262695,2.1720848083496094
1772533204509093400,3.51109326171875,33.901512145996094,2.1774685382843018,2.688934564590454
1772533204519011000,3.521010986328125,29.77389144897461,3.5228331089019775,4.101896286010742
1772533204528945000,3.53094482421875,23.879772186279297,5.356931686401367,6.845267295837402
1772533204538843100,3.540843017578125,17.6213436126709,7.234101295471191,8.655437469482422
1772533204548773400,3.5507734375,12.277572631835938,8.004590034484863,8.803792953491211
1772533204558708700,3.560708740234375,8.005785942077637,6.994220733642578,7.611568927764893
1772533204568639500,3.570639404296875,5.090131759643555,5.127220630645752,5.351547718048096
1772533204578590700,3.5805908203125,3.1651060581207275,3.5754752159118652,3.0723843574523926
1772533204588523800,3.590523681640625,0.828514814376831,2.4646072387695312,1.6307085752487183
1772533204598436000,3.60043603515625,-1.9202401638031006,1.181456208229065,0.6346961855888367
1772533204608366800,3.610366943359375,-3.7399818897247314,-1.2508480548858643,-0.025722842663526535
1772533204618326300,3.620326171875,-4.0319061279296875,-3.8560338020324707,-0.34695929288864136
1772533204628260000,3.630260009765625,-2.705684185028076,-4.588835716247559,-0.39960137009620667
1772533204638186500,3.6401865234375,-0.8380861282348633,-3.45882511138916,-0.8925228714942932
1772533204648119600,3.65011962890625,-0.5892325639724731,-2.5154547691345215,-1.3956137895584106
1772533204658037200,3.660037353515625,-2.1882362365722656,-2.9557342529296875,-0.8063812255859375
1772533204667968800,3.66996875,-3.8883368968963623,-2.816950559616089,-0.2799602448940277
1772533204677919200,3.679919189453125,-5.36769962310791,-1.6247265338897705,-0.8685946464538574
1772533204687852800,3.689852783203125,-6.751947402954102,-0.844068169593811,-1.25144624710083
1772533204697790000,3.6997900390625,-7.517650604248047,-0.37507495284080505,-1.3716856241226196
1772533204707723500,3.7097236328125,-7.905886173248291,-0.9014959335327148,-0.7010970115661621
1772533204717651700,3.719651611328125,-7.9250288009643555,-1.801795482635498,0.0029910283628851175
1772533204727584800,3.729584716796875,-6.99122953414917,-1.643869161605835,-0.6149554252624512
1772533204737517000,3.73951708984375,-4.759922504425049,-0.6717849373817444,-0.973878800868988
1772533204747450000,3.7494501953125,-2.0829520225524902,0.4534398913383484,0.18484555184841156
1772533204757372400,3.759372314453125,-0.47916272282600403,0.8368897438049316,2.0620148181915283
1772533204767304400,3.769304443359375,0.4450650215148926,0.9613165259361267,3.920041799545288
1772533204777243100,3.7792431640625,1.197009563446045,1.1575279235839844,4.580460548400879
1772533204787175700,3.78917578125,2.135594129562378,0.9804590940475464,3.958326816558838
1772533204797113300,3.79911328125,3.3134610652923584,0.6975077986717224,2.9383862018585205
1772533204807046400,3.80904638671875,4.386044025421143,0.6783652305603027,2.162513494491577
1772533204816972800,3.818972900390625,4.946562767028809,0.8656035661697388,1.7982062101364136
1772533204826905300,3.8289052734375,4.946562767028809,1.4063814878463745,1.4488540887832642
1772533204836834800,3.838834716796875,4.6540398597717285,2.038684844970703,0.5246263742446899
1772533204846767000,3.84876708984375,4.151547431945801,2.5698914527893066,-1.069591760635376
1772533204856703200,3.858703125,3.538386583328247,3.0442686080932617,-1.9076778888702393
1772533204866635800,3.8686357421875,2.973680257797241,3.3984062671661377,-0.41874396800994873
1772533204876567800,3.87856787109375,4.807180881500244,3.1830523014068604,3.0388846397399902
1772533204886500400,3.888500244140625,11.166107177734375,2.699103832244873,7.252645492553711
1772533204896436200,3.898436279296875,20.513071060180664,2.321038007736206,11.279766082763672
1772533204906369300,3.908369384765625,28.639095306396484,1.731805443763733,14.420944213867188
1772533204926230300,3.928230224609375,32.2307243347168,1.7078771591186523,17.6817626953125
1772533204936163800,3.938163818359375,28.686952590942383,1.8951154947280884,18.184255599975586
1772533204946096400,3.948096435546875,24.904497146606445,2.541177749633789,16.446468353271484
1772533204956034000,3.958033935546875,21.25065803527832,4.518845558166504,12.06939697265625
1772533204965967000,3.967967041015625,21.55694007873535,5.189434051513672,7.582854747772217
1772533204975887600,3.9778876953125,24.918855667114258,1.7796618938446045,6.002993583679199
1772533204985819400,3.9878193359375,23.46282196044922,-0.5330012440681458,5.949753284454346
1772533204995756300,3.99775634765625,16.280166625976562,0.6735795736312866,6.26141881942749
1772533205005688800,4.007688720703125,10.438689231872559,2.8911280632019043,8.373085021972656
1772533205015624000,4.0176240234375,11.82712459564209,3.092125177383423,9.460023880004883
1772533205025556700,4.027556640625,18.851852416992188,0.6592226624488831,8.564510345458984
1772533205035485200,4.037485107421875,25.450061798095703,-2.0793628692626953,6.299703598022461
1772533205045417200,4.047417236328125,28.82573699951172,-3.4683964252471924,4.513461589813232
1772533205055371300,4.057371337890625,29.036903381347656,-3.717249870300293,4.97348165512085
1772533205065305600,4.0673056640625,26.872594833374023,-3.33858585357666,6.184848308563232
1772533205075215000,4.077215087890625,23.615962982177734,-2.5154547691345215,6.352345943450928
1772533205085147000,4.08714697265625,19.282560348510742,-1.4428720474243164,6.017350673675537
1772533205105011700,4.10701171875,11.079965591430664,-0.005982056725770235,3.043670415878296
1772533205114970600,4.116970703125,7.532007694244385,-0.02512463741004467,0.4097708761692047
1772533205124905200,4.1269052734375,4.453042984008789,-0.4133601188659668,-2.070389747619629
1772533205134807600,4.1368076171875,1.6372889280319214,-0.5186443328857422,-3.8709888458251953
1772533205144739000,4.146739013671875,-0.8668000102043152,-0.3367897868156433,-4.804787635803223
1772533205164600000,4.16660009765625,-3.4480574131011963,-0.5665007829666138,-2.9563324451446533
1772533205174534000,4.176533935546875,-2.317448616027832,-0.39900317788124084,-1.160519003868103
1772533205184465700,4.186465576171875,-1.1204391717910767,-0.4707878530025482,-0.049651071429252625
1772533205194398500,4.1963984375,-1.3459627628326416,-0.9780662655830383,0.44805604219436646
1772533205204330200,4.206330322265625,-2.6386852264404297,-0.9924231767654419,0.8602197170257568
1772533205214269400,4.21626953125,-4.194618225097656,-0.6574280261993408,0.9128618240356445
1772533205224202000,4.226201904296875,-5.2384867668151855,-0.4085744619369507,0.4576273262500763
1772533205234136800,4.23613671875,-5.13320255279541,-0.5760720372200012,-0.03529413416981697
1772533205244069400,4.2460693359375,-4.405186653137207,-0.8536394834518433,-0.20757736265659332
1772533205253992000,4.255991943359375,-3.3708889484405518,-0.8488538265228271,-0.01615155301988125
1772533205263923700,4.265923828125,-1.9680966138839722,-0.633499801158905,0.7208378314971924
1772533205273872000,4.275871826171875,-0.1579262912273407,-0.4707878530025482,1.5158531665802002
1772533205283805200,4.28580517578125,1.7425731420516968,-0.5617151260375977,2.3922245502471924
1772533205293701400,4.295701416015625,3.5814573764801025,-0.9254241585731506,2.7176482677459717
1772533205303631000,4.305631103515625,4.4721856117248535,-1.236491084098816,2.4783661365509033
1772533205313586700,4.315586669921875,4.094119548797607,-1.2987045049667358,2.8181469440460205
1772533205323519000,4.32551904296875,3.4857444763183594,-0.6239284873008728,3.7902309894561768
1772533205333463600,4.335463623046875,2.575873613357544,0.41994038224220276,4.762315273284912
1772533205343396900,4.34539697265625,1.532004714012146,1.3489537239074707,4.968696117401123
1772533205353317400,4.3553173828125,0.8668000102043152,1.7174484729766846,4.7575297355651855
1772533205363249700,4.365249755859375,1.0055837631225586,1.784447431564331,4.336392879486084
1772533205373159200,4.3751591796875,1.7377874851226807,1.8855443000793457,3.665804386138916
1772533205383089000,4.3850888671875,2.355733871459961,1.947757601737976,2.895315408706665
1772533205393047300,4.39504736328125,2.748156785964966,2.124826431274414,2.5836503505706787
1772533205402980000,4.40497998046875,3.514458179473877,2.7278177738189697,2.665006160736084
1772533205412912000,4.414912109375,4.548755645751953,3.8626139163970947,2.9048867225646973
1772533205422844700,4.4248447265625,5.463412284851074,5.175076961517334,3.4983067512512207
1772533205432769500,4.43476953125,5.453841209411621,6.128018856048584,4.058825492858887
1772533205442701300,4.444701416015625,4.735395908355713,6.879364967346191,4.369892120361328
1772533205452620000,4.4546201171875,4.299902439117432,7.712665557861328,4.183252334594727
1772533205462550800,4.46455078125,5.099703311920166,9.07717227935791,5.107480049133301
1772533205472507000,4.4745068359375,8.236095428466797,9.014959335327148,6.873981475830078
1772533205482440000,4.48443994140625,15.159728050231934,6.6352972984313965,7.35314416885376
1772533205492350000,4.494349853515625,28.299314498901367,5.098506927490234,4.719244480133057
1772533205502280700,4.50428076171875,45.796234130859375,5.629713535308838,0.20877377688884735
1772533205512240000,4.514240234375,54.137611389160156,-0.7339983582496643,2.6219353675842285
1772533205522174000,4.524174072265625,50.04827880859375,-2.7451658248901367,3.761517286300659
1772533205532084000,4.534083984375,42.10410690307617,0.8656035661697388,2.1577277183532715
1772533205551965200,4.553965087890625,31.698917388916016,1.1958130598068237,-6.178866386413574
1772533205561900500,4.563900634765625,26.680570602416992,2.7804598808288574,-6.437291145324707
1772533205571841500,4.573841552734375,21.792034149169922,4.3417768478393555,-4.148556232452393
1772533205581777400,4.58377734375,16.7736873626709,6.376872539520264,-0.14057832956314087
1772533205591702500,4.59370263671875,12.301501274108887,8.388039588928223,2.703291416168213
1772533205601637000,4.60363720703125,8.920442581176758,9.125627517700195,3.34995174407959
1772533205611589400,4.61358935546875,6.818347930908203,7.861020565032959,2.349153518676758
1772533205621525800,4.62352587890625,7.082156658172607,4.695914268493652,-0.3326023519039154
1772533205631438000,4.63343798828125,9.102895736694336,1.052243709564209,-3.593421459197998
1772533205641372200,4.6433720703125,10.352546691894531,-1.3663017749786377,-5.5998029708862305
1772533205651271700,4.653271728515625,11.252846717834473,-3.3481571674346924,-5.9539408683776855
1772533205661202200,4.6632021484375,12.703495025634766,-4.813760757446289,-4.599005222320557
1772533205671138300,4.67313818359375,13.326227188110352,-5.167898654937744,-2.583052158355713
1772533205681069600,4.683069580078125,11.041680335998535,-4.607978343963623,-1.0169496536254883
1772533205700928300,4.70292822265625,2.0829520225524902,-2.045863389968872,-0.7872386574745178
1772533205710863000,4.712863037109375,-2.001596212387085,-0.5042873620986938,-0.9355936646461487
1772533205720794400,4.72279443359375,-5.540580749511719,0.4247260093688965,-0.4713860750198364
1772533205730729500,4.7327294921875,-8.236095428466797,0.7890332937240601,0.26620152592658997
1772533205740661200,4.7426611328125,-9.466604232788086,0.9038887619972229,0.5964110493659973
1772533205750595000,4.752594970703125,-8.446663856506348,0.4821537733078003,0.10348957777023315
1772533205760526800,4.76252685546875,-5.856433391571045,-0.32721850275993347,-1.0504491329193115
1772533205770491400,4.772491455078125,-3.5150563716888428,-0.6957131624221802,-2.1278176307678223
1772533205780426800,4.7824267578125,-2.059023857116699,-0.9397810697555542,-2.717050075531006
1772533205790330000,4.792330078125,-1.5756736993789673,-1.212562918663025,-2.5112674236297607
1772533205800262100,4.80226220703125,-1.604387640953064,-1.2795618772506714,-1.5487544536590576
1772533205810214700,4.812214599609375,-1.542174220085144,-1.332802176475525,0.22791635990142822
1772533205820148700,4.822148681640625,-0.8859425783157349,-1.1886346340179443,3.383451223373413
1772533205830084400,4.83208447265625,0.25363919138908386,-0.4372883439064026,6.328417778015137
1772533205840018400,4.842018310546875,1.3836497068405151,0.3290131092071533,8.032705307006836
1772533205849959700,4.851959716796875,2.80558443069458,0.5778666734695435,7.554141044616699
1772533205859894800,4.861894775390625,4.400400638580322,0.4342973232269287,5.126622676849365
1772533205869805300,4.871805419921875,5.295914649963379,0.49172505736351013,2.191227436065674
1772533205879737900,4.88173779296875,4.625326156616211,0.9230313301086426,-0.27038896083831787
1772533205889715200,4.891715087890625,2.293520450592041,1.755733609199524,-1.414756417274475
1772533205899652400,4.90165234375,-0.02392822690308094,2.6608188152313232,-1.155733346939087
1772533205909532400,4.911532470703125,-0.3643072545528412,3.178266763687134,-0.4426721930503845
1772533205919463700,4.921463623046875,1.9441684484481812,2.9006991386413574,-0.7393822073936462
1772533205929396000,4.93139599609375,5.836692810058594,1.9669002294540405,-2.142174482345581
1772533205939327200,4.9413271484375,9.203393936157227,0.5587241053581238,-3.4067811965942383
1772533205949266200,4.95126611328125,11.127821922302246,-0.50907301902771,-3.8087754249572754
1772533205959198500,4.961198486328125,11.46820068359375,-0.5138586759567261,-2.6739792823791504
1772533205969126100,4.971126220703125,10.807183265686035,0.4821537733078003,0.5389832854270935
1772533205979058000,4.981057861328125,10.314262390136719,1.5690934658050537,4.633102893829346
1772533205988999700,4.990999755859375,10.323833465576172,2.2540390491485596,5.9545392990112305
1772533205998932200,5.00093212890625,10.48654556274414,2.282752752304077,3.675375461578369
1772533206008832500,5.01083251953125,10.161121368408203,1.7174484729766846,1.2717852592468262
1772533206018762000,5.020761962890625,9.629316329956055,1.828116536140442,0.49591249227523804
1772533206028698600,5.03069873046875,9.65803050994873,2.2540390491485596,1.4584254026412964
1772533206038628900,5.04062890625,13.048062324523926,2.043470621109009,3.105883836746216
1772533206048591600,5.050591552734375,22.677976608276367,3.163909673690796,2.215155601501465
1772533206058525000,5.06052490234375,33.140594482421875,2.4263222217559814,-0.4378865361213684
1772533206068453000,5.070453125,36.47319793701172,-5.431109428405762,0.5246263742446899
1772533206078386000,5.080385986328125,38.33600997924805,-7.950153350830078,1.8562321662902832
1772533206088319500,5.090319580078125,40.2508659362793,-6.743572235107422,3.5461630821228027
1772533206098252500,5.10025244140625,39.351165771484375,-6.877570629119873,4.374678134918213
1772533206118117400,5.120117431640625,30.21476936340332,-3.631108283996582,3.2685956954956055
1772533206128046300,5.13004638671875,24.689144134521484,-0.3080759048461914,2.991028308868408
1772533206137979000,5.139978759765625,19.881364822387695,2.258824586868286,3.1920254230499268
1772533206147918600,5.149918701171875,16.395620346069336,4.092923164367676,3.3403804302215576
1772533206157852000,5.159851806640625,14.925230979919434,4.595416069030762,2.9048867225646973
1772533206177681400,5.179681396484375,15.705889701843262,2.392822742462158,0.8889335989952087
1772533206187636700,5.18963671875,17.10868263244629,1.033101201057434,0.022133609279990196
1772533206197569000,5.199569091796875,17.937196731567383,-0.355932354927063,-1.031306505203247
1772533206207514000,5.20951416015625,16.9603271484375,-0.96370929479599,-1.246660590171814
1772533206217448000,5.219447998046875,13.977075576782227,-0.6622136831283569,-0.7393822073936462
1772533206227381000,5.229381103515625,10.247262954711914,-0.18783657252788544,-0.6915257573127747
1772533206237314600,5.239314453125,6.535995006561279,0.061016976833343506,-1.0648061037063599
1772533206247232300,5.249232177734375,3.1555347442626953,0.02751746028661728,-1.5056836605072021
1772533206257164000,5.2591640625,0.6460621356964111,-0.13519448041915894,-2.15653133392334
1772533206267103700,5.269103759765625,-1.5948163270950317,-0.2069791555404663,-2.89890456199646
1772533206277036500,5.27903662109375,-3.94097900390625,-0.08733802288770676,-3.1094729900360107
1772533206286964000,5.2889638671875,-5.152345180511475,0.04187439754605293,-3.008974552154541
1772533206296896300,5.298896240234375,-4.994419097900391,0.02273181453347206,-2.884547710418701
1772533206306839300,5.30883935546875,-4.506283283233643,0.06580262631177902,-1.567897081375122
1772533206316772600,5.318772705078125,-4.5206403732299805,0.6975077986717224,1.999801516532898
1772533206326696000,5.328696044921875,-3.672982692718506,1.6983058452606201,5.509474277496338
1772533206336628200,5.338628173828125,-1.810170292854309,1.8233308792114258,5.911468505859375
1772533206346558000,5.348557861328125,-0.09571290761232376,0.8991031050682068,4.010969161987305
1772533206356490000,5.358489990234375,1.2975081205368042,-0.3128615617752075,1.9280169010162354
1772533206366456000,5.3684560546875,2.5902304649353027,-1.241276741027832,0.7591229677200317
1772533206376391700,5.3783916015625,3.538386583328247,-1.8305093050003052,0.836291491985321
1772533206386299400,5.38829931640625,3.6293137073516846,-1.9022940397262573,1.6354942321777344
1772533206396232000,5.39823193359375,2.9593234062194824,-1.581655740737915,2.042872428894043
1772533206406178600,5.408178466796875,2.0685951709747314,-1.3471591472625732,1.8801604509353638
1772533206416113000,5.41811279296875,1.9680966138839722,-1.404586911201477,1.7838492393493652
1772533206425991700,5.42799169921875,2.695514678955078,-1.667797327041626,1.2526426315307617
1772533206435920100,5.437920166015625,3.3613176345825195,-2.045863389968872,0.5772684812545776
1772533206445881900,5.4478818359375,3.294318675994873,-2.069791555404663,0.5629115104675293
1772533206455814000,5.45781396484375,2.3030917644500732,-1.6342978477478027,1.1042876243591309
1772533206465751800,5.467751708984375,0.4211367964744568,-0.9158528447151184,1.2287144660949707
1772533206475684400,5.477684326171875,-1.6761722564697266,-0.4660021960735321,0.6251249313354492
1772533206485611500,5.487611572265625,-2.8971099853515625,-0.31764721870422363,-0.020937198773026466
1772533206495543600,5.49754345703125,-2.7391836643218994,-0.02512463741004467,-0.638883650302887
1772533206505475800,5.507475830078125,-1.8005990982055664,0.5730810165405273,-1.246660590171814
1772533206515408000,5.517407958984375,-0.4169493317604065,1.2628121376037598,-1.1653046607971191
1772533206525346300,5.52734619140625,1.1730812788009644,2.1439690589904785,-0.8973084688186646
1772533206535278800,5.53727880859375,2.5471596717834473,3.163909673690796,-1.1700903177261353
1772533206545202700,5.54720263671875,2.7672994136810303,4.3417768478393555,-2.3533411026000977
1772533206555134500,5.557134521484375,0.7369893789291382,6.056233882904053,-3.1094729900360107
1772533206565071000,5.567071044921875,-2.073380708694458,8.292326927185059,-3.545564889907837
1772533206575003400,5.57700341796875,-2.6626133918762207,9.245268821716309,-5.201996326446533
1772533206584948500,5.586948486328125,-0.8237292170524597,7.894520282745361,-4.938786029815674
1772533206594882000,5.596882080078125,6.425925254821777,4.882554531097412,0.29012975096702576
1772533206604809500,5.6068095703125,23.046470642089844,2.3784656524658203,9.359525680541992
1772533206614742500,5.616742431640625,44.66143798828125,4.925625324249268,16.747962951660156
1772533206624675600,5.626675537109375,55.1671257019043,6.7932233810424805,16.575679779052734
1772533206634608600,5.636608642578125,51.62813949584961,3.556332588195801,9.550951957702637
1772533206644534800,5.64653466796875,46.188655853271484,3.235694408416748,3.0484559535980225
1772533206654467000,5.656467041015625,42.42534255981445,1.4733805656433105,0.3475574851036072
1772533206664396300,5.666396240234375,40.639102935791016,-1.6247265338897705,-1.673181176185608
1772533206674328000,5.676328125,39.274593353271484,-2.3330020904541016,-2.874976396560669
1772533206684270300,5.686270263671875,36.84647750854492,-1.8640087842941284,-2.228316068649292
1772533206694203100,5.696203125,32.79064178466797,-0.26500511169433594,-0.5240281820297241
1772533206704123000,5.706122802734375,26.786453247070312,2.124826431274414,2.1481566429138184
1772533206714054700,5.7160546875,19.709081649780273,4.576273441314697,4.513461589813232
1772533206723992800,5.725992919921875,13.455439567565918,6.31944465637207,5.715256690979004
1772533206733925000,5.735925048828125,9.260822296142578,6.759724140167236,6.409773826599121
1772533206743853600,5.745853515625,7.532007694244385,5.854638576507568,6.6490559577941895
1772533206753785600,5.75578564453125,7.814360618591309,3.7094733715057373,5.624329566955566
1772533206763736800,5.76573681640625,10.156335830688477,0.4582255482673645,3.1250264644622803
1772533206773670700,5.775670654296875,12.75613784790039,-2.242074728012085,1.1330015659332275
1772533206783566300,5.78556640625,13.03370475769043,-3.180659532546997,0.6394818425178528
1772533206793496300,5.795496337890625,10.295119285583496,-3.1375887393951416,1.0085747241973877
1772533206803446000,5.805446044921875,6.2105712890625,-2.8456642627716064,1.4727823734283447
1772533206813378000,5.8153779296875,2.2648067474365234,-2.620738983154297,1.2143574953079224
1772533206823289000,5.8252890625,-0.857228696346283,-2.4915266036987305,-0.3852444589138031
1772533206833219000,5.835218994140625,-4.232903480529785,-2.2468605041503906,-2.242672920227051
1772533206843187500,5.8451875,-7.934599876403809,-1.7922241687774658,-3.0520453453063965
1772533206853121300,5.855121337890625,-10.678568840026855,-1.3519448041915894,-2.985046148300171
1772533206863020000,5.86502001953125,-11.645269393920898,-0.8919246196746826,-2.606980323791504
1772533206872950300,5.8749501953125,-11.544771194458008,-0.6622136831283569,-2.017747640609741
1772533206882888200,5.88488818359375,-10.85563850402832,-0.877567708492279,-1.2035897970199585
1772533206892819500,5.8948193359375,-9.064610481262207,-0.997208833694458,-0.6915257573127747
1772533206902782500,5.904782470703125,-6.632306098937988,-0.9254241585731506,-0.380458801984787
1772533206912716500,5.914716552734375,-4.323830604553223,-0.719641387462616,0.05563312768936157
1772533206922617000,5.9246171875,-1.9872392416000366,-0.9828519225120544,0.050847481936216354
1772533206932547800,5.9345478515625,0.2967100143432617,-1.5385849475860596,-0.15493527054786682
1772533206942513700,5.944513671875,2.149951219558716,-2.0027925968170166,-0.020937198773026466
1772533206952448000,5.954447998046875,3.07417893409729,-2.3234307765960693,0.3188436031341553
1772533206962346800,5.9643466796875,2.781656265258789,-2.2755744457244873,0.6873382925987244
1772533206972277500,5.974277587890625,1.7808582782745361,-1.8831514120101929,1.176072359085083
1772533206982210800,5.9842109375,1.220937728881836,-1.1407781839370728,1.817348837852478
1772533206992141800,5.994141845703125,1.848455548286438,-0.50907301902771,2.2295124530792236
1772533207002109000,6.00410888671875,3.1076784133911133,-0.2793620526790619,1.755135416984558
1772533207012043500,6.01404345703125,3.8733816146850586,-0.18305093050003052,0.8745766878128052
1772533207021937700,6.023937744140625,3.5718860626220703,0.26201409101486206,0.28534409403800964
1772533207031868400,6.033868408203125,2.513660192489624,0.7405785918235779,0.30927231907844543
1772533207041838000,6.043838134765625,1.536790370941162,1.1766705513000488,0.6586244106292725
1772533207051772700,6.053772705078125,1.158724308013916,1.5355939865112305,0.8123632669448853
1772533207061664800,6.063664794921875,1.7282161712646484,1.852044701576233,0.7639086246490479
1772533207071595000,6.073594970703125,3.5575289726257324,2.1056840419769287,0.050847481936216354
1772533207081554700,6.0835546875,5.56869649887085,2.368894338607788,-0.8590233325958252
1772533207091488000,6.093488037109375,6.732206344604492,3.0442686080932617,-1.1270195245742798
1772533207101404000,6.10340380859375,7.4506516456604,4.633700847625732,-0.29431718587875366
1772533207111335400,6.11333544921875,8.029714584350586,6.601797580718994,0.45284169912338257
1772533207121279700,6.12327978515625,8.197810173034668,8.407182693481445,-0.049651071429252625
1772533207131212800,6.133212890625,8.10688304901123,10.212567329406738,-1.3286148309707642
1772533207141159400,6.143159423828125,8.695517539978027,11.179865837097168,-0.9595218896865845
1772533207151093500,6.153093505859375,12.018549919128418,10.628918647766113,3.3547372817993164
1772533207161023500,6.1630234375,21.154945373535156,9.460622787475586,10.086943626403809
1772533207170957300,6.172957275390625,37.147972106933594,10.313065528869629,12.6347017288208
1772533207180881000,6.182880859375,49.9429931640625,11.495718002319336,9.852447509765625
1772533207190813700,6.192813720703125,47.71168899536133,7.846663475036621,8.38265609741211
1772533207200747300,6.202747314453125,38.78586196899414,6.185446739196777,7.630711555480957
1772533207210680000,6.21268017578125,34.80181121826172,5.313860893249512,6.572485446929932
1772533207220607200,6.222607177734375,34.24188995361328,3.163909673690796,4.997410297393799
1772533207230539500,6.23253955078125,30.942785263061523,2.746960401535034,2.9958138465881348
1772533207240475600,6.2424755859375,25.30649185180664,3.9254255294799805,2.349153518676758
1772533207250408200,6.252408203125,20.402999877929688,5.873781204223633,2.6985056400299072
1772533207260338200,6.262338134765625,16.78325843811035,7.358527660369873,3.4887354373931885
1772533207270270500,6.2722705078125,14.00100326538086,8.402397155761719,4.886742115020752
1772533207280201200,6.282201171875,12.21057415008545,9.22134017944336,6.2566328048706055
1772533207290133500,6.292133544921875,10.754541397094727,9.07717227935791,6.99840784072876
1772533207300049700,6.302049560546875,9.720243453979492,7.607381343841553,6.467201232910156
1772533207309980400,6.31198046875,10.965109825134277,4.322634220123291,3.7088751792907715
1772533207319933200,6.32193310546875,12.780065536499023,1.1048858165740967,1.573280930519104
1772533207329866000,6.331865966796875,13.771292686462402,-0.5521438121795654,0.8075776696205139
1772533207339795000,6.341794921875,12.981062889099121,-1.3471591472625732,1.042074203491211
1772533207349727500,6.3517275390625,10.25204849243164,-1.8687944412231445,1.812563180923462
1772533207359671600,6.361671630859375,6.502495765686035,-2.0315065383911133,1.755135416984558
1772533207369605000,6.371605224609375,2.719442844390869,-2.194218397140503,0.42412781715393066
1772533207379526100,6.381526123046875,-0.7136593461036682,-2.5250260829925537,-1.25144624710083
1772533207389458700,6.391458740234375,-3.6155550479888916,-2.7212376594543457,-2.5160529613494873
1772533207399391000,6.401390869140625,-6.067001819610596,-2.3234307765960693,-2.812762975692749
1772533207409323500,6.411323486328125,-8.288737297058105,-1.5290136337280273,-1.9986051321029663
1772533207419252500,6.42125244140625,-9.9409818649292,-0.9493523836135864,-0.6484549641609192
1772533207429184500,6.4311845703125,-10.707283020019531,-0.6382854580879211,0.30927231907844543
1772533207439123500,6.44112353515625,-10.491331100463867,-0.7435696125030518,0.706480860710144
1772533207449056300,6.45105615234375,-10.261619567871094,-1.0402796268463135,1.482353687286377
1772533207458960100,6.460960205078125,-9.1986083984375,-0.8584251403808594,0.6825526356697083
1772533207468889900,6.470889892578125,-6.100501537322998,-0.9589236974716187,-0.8063812255859375
1772533207478848500,6.4808486328125,-2.1882362365722656,-0.8536394834518433,-1.5822539329528809
1772533207488781300,6.49078125,-0.20578274130821228,-0.8919246196746826,-1.2275179624557495
1772533207498713300,6.50071337890625,0.5455635786056519,-0.9110672473907471,-1.0887342691421509
1772533207508646000,6.51064599609375,0.37806597352027893,-0.9014959335327148,-0.8925228714942932
1772533207518583000,6.5205830078125,-0.33080771565437317,-0.8392825126647949,-0.6819544434547424
1772533207528516000,6.53051611328125,-1.2400803565979004,-0.5617151260375977,-0.41874396800994873
1772533207538444000,6.540444091796875,-1.7479569911956787,-0.3032902777194977,-0.2554338276386261
1772533207548376600,6.55037646484375,-1.9154545068740845,-0.039481572806835175,0.18005990982055664
1772533207558305800,6.560305908203125,-1.657029628753662,0.05144568532705307,0.5629115104675293
1772533207568238000,6.570238037109375,0.20578274130821228,0.12323036789894104,0.768694281578064
1772533207578179600,6.5801796875,2.9593234062194824,0.4486542344093323,1.2382856607437134
1772533207588112600,6.590112548828125,5.3246283531188965,0.8847461938858032,2.6841487884521484
1772533207598053600,6.6000537109375,6.990631580352783,1.5978072881698608,4.135395526885986
1772533207607987500,6.609987548828125,8.02492904663086,1.947757601737976,4.762315273284912
1772533207617906000,6.619906005859375,8.891729354858398,1.688734531402588,4.9878387451171875
1772533207627838200,6.629838134765625,10.945966720581055,1.4733805656433105,5.006981372833252
1772533207637767400,6.639767333984375,14.590235710144043,1.6169499158859253,4.494318962097168
1772533207647699500,6.649699462890625,17.75055694580078,2.478964328765869,3.90568470954895
1772533207657609200,6.659609130859375,17.72662925720215,3.6424741744995117,3.6323046684265137
1772533207667539000,6.6695390625,15.51924991607666,4.485345840454102,3.603590965270996
1772533207677499600,6.679499755859375,13.953146934509277,5.86421012878418,4.599603176116943
1772533207687432400,6.689432373046875,14.216357231140137,7.765307903289795,5.8683977127075195
1772533207697372000,6.699371826171875,17.056039810180664,8.569893836975098,6.917052268981934
1772533207707305200,6.70930517578125,23.15654182434082,7.798807144165039,8.129016876220703
1772533207717229600,6.7192294921875,32.972496032714844,7.593024253845215,7.582854747772217
1772533207727162000,6.729162109375,41.71168518066406,8.967103004455566,3.5030922889709473
1772533207737091600,6.739091552734375,39.14957046508789,5.112864017486572,1.6689938306808472
1772533207747024000,6.74902392578125,30.774690628051758,1.7270197868347168,2.1816561222076416
1772533207756955400,6.758955322265625,26.08715057373047,3.7812578678131104,3.6323046684265137
1772533207766887700,6.7688876953125,24.05205535888672,5.275575637817383,4.322035789489746
1772533207776821500,6.778821533203125,24.320051193237305,5.467001438140869,2.3922245502471924
1772533207786754000,6.788754150390625,25.71805763244629,5.2181477546691895,0.5724828243255615
1772533207796686800,6.798686767578125,25.46920394897461,5.6344990730285645,0.9655039310455322
1772533207806619400,6.808619384765625,23.094327926635742,6.5874409675598145,1.913659930229187
1772533207816550000,6.8185498046875,21.346370697021484,6.764509677886963,2.3204398155212402
1772533207826482400,6.828482421875,20.336002349853516,6.563512325286865,2.430509567260742
1772533207836416500,6.83841650390625,18.382261276245117,6.123233318328857,3.0484559535980225
1772533207846348800,6.848348876953125,15.686746597290039,5.031507968902588,3.3068809509277344
1772533207856285000,6.858284912109375,13.009777069091797,3.7094733715057373,2.957528829574585
1772533207866217700,6.8682177734375,10.419546127319336,2.66560435295105,2.6123640537261963
1772533207876149200,6.878149169921875,8.21695327758789,1.76051926612854,2.444866418838501
1772533207886082000,6.88808203125,7.077371120452881,0.17108681797981262,1.750349760055542
1772533207896019000,6.89801904296875,6.153143405914307,-1.6199408769607544,1.022931694984436
1772533207905952000,6.907951904296875,5.090131759643555,-2.5872395038604736,0.6442674994468689
1772533207915879000,6.91787890625,3.0167510509490967,-2.6973092555999756,0.357128769159317
1772533207925811500,6.9278115234375,-0.3355933725833893,-2.65423846244812,0.07956135272979736
1772533207935742700,6.93774267578125,-3.548556089401245,-2.6638097763061523,-0.1453639715909958
1772533207945675000,6.947675048828125,-5.966503143310547,-2.606382131576538,-0.6819544434547424
1772533207955603500,6.957603515625,-7.043871879577637,-2.256431818008423,-0.9882357716560364
1772533207965535500,6.967535400390625,-7.8628153800964355,-2.936591625213623,-1.2179467678070068
1772533207975467300,6.97746728515625,-9.165108680725098,-3.583251953125,-2.1517457962036133
1772533207985399300,6.9873994140625,-9.806983947753906,-3.108874797821045,-1.8885352611541748
1772533207995333000,6.9973330078125,-8.978468894958496,-2.146361827850342,-0.6628118753433228
1772533208005265400,7.007265380859375,-6.570092678070068,-1.179063320159912,-0.19800607860088348
1772533208015180000,7.017179931640625,-2.3706889152526855,-0.39900317788124084,-1.0504491329193115
1772533208025110300,7.0271103515625,-0.13878370821475983,-0.010767702013254166,-1.563111424446106
1772533208035070500,7.037070556640625,-0.05742774158716202,-0.1495514214038849,-0.8063812255859375
1772533208045003800,7.047003662109375,-0.06699903309345245,0.25722843408584595,-0.39481574296951294
1772533208054938000,7.056938232421875,0.24406790733337402,0.6305087804794312,0.4863412082195282
1772533208064871700,7.06687158203125,0.9385846853256226,0.9373882412910461,1.4057832956314087
1772533208074771200,7.076771240234375,2.20737886428833,0.8560323119163513,1.176072359085083
1772533208084701400,7.086701416015625,4.18983268737793,0.18544375896453857,0.1178465187549591
1772533208094637600,7.096637451171875,6.153143405914307,-0.42771705985069275,-0.7824530005455017
1772533208104568000,7.106568115234375,6.832705020904541,-0.6861419081687927,-1.3334003686904907
1772533208114497000,7.1164970703125,6.440282344818115,-0.7818548083305359,-1.3573286533355713
1772533208124427500,7.126427490234375,5.520840167999268,-1.4093725681304932,-1.4578272104263306
1772533208134402000,7.136402099609375,3.73459792137146,-2.5393829345703125,-1.3142578601837158
1772533208144337200,7.146337158203125,-0.11485548317432404,-2.2468605041503906,0.022133609279990196
1772533208154266000,7.15626611328125,-5.224130153656006,-0.666999340057373,2.0955145359039307
1772533208164200400,7.166200439453125,-9.22253704071045,0.8321040868759155,2.6075785160064697
1772533208174118400,7.176118408203125,-10.707283020019531,0.9326026439666748,0.22791635990142822
1772533208184051200,7.18605126953125,-8.394021987915039,-0.3607180118560791,-3.190829038619995
1772533208193980200,7.195980224609375,-3.500699520111084,-1.4380863904953003,-4.517649173736572
1772533208203912400,7.205912353515625,1.0773683786392212,-1.1694921255111694,-3.119044303894043
1772533208213849000,7.21584912109375,5.420341491699219,1.210170030593872,0.31405797600746155
1772533208223782000,7.225781982421875,10.677970886230469,4.705485820770264,6.366703033447266
1772533208233700000,7.2357001953125,16.481761932373047,8.421539306640625,12.261421203613281
1772533208243631400,7.24563134765625,21.23630142211914,11.84985637664795,14.535799026489258
1772533208253577200,7.2555771484375,26.412574768066406,14.421542167663574,13.252050399780273
1772533208263510000,7.265510009765625,34.14139175415039,15.340984344482422,10.494321823120117
1772533208273460000,7.2754599609375,37.72763442993164,11.845069885253906,8.894720077514648
1772533208283394300,7.285394287109375,32.843284606933594,10.518848419189453,6.486343860626221
1772533208293318700,7.295318603515625,28.811378479003906,12.726226806640625,3.460021495819092
1772533208303252200,7.305252197265625,31.000213623046875,12.410374641418457,3.321237802505493
1772533208313172700,7.3151728515625,34.663028717041016,10.542776107788086,4.862813949584961
1772533208323104800,7.325104736328125,35.99403381347656,9.058030128479004,5.667400360107422
1772533208333048600,7.335048583984375,36.23870086669922,8.311469078063965,5.423332691192627
1772533208342982000,7.34498193359375,35.42932891845703,8.196614265441895,5.365904808044434
1772533208352900000,7.354900146484375,33.32244873046875,8.23968505859375,5.303691387176514
1772533208362832000,7.364831787109375,30.387052536010742,7.693522930145264,4.623531341552734
1772533208372778500,7.374778564453125,27.083162307739258,6.994220733642578,3.799802303314209
1772533208382711800,7.3847119140625,23.81755828857422,6.463014125823975,3.6227335929870605
1772533208392629000,7.39462890625,20.8438777923584,5.644070625305176,4.06839656829834
1772533208402560800,7.404560791015625,17.626129150390625,4.58584451675415,4.633102893829346
1772533208412494600,7.41449462890625,13.83829116821289,3.3744781017303467,4.9639105796813965
1772533208422426600,7.424426513671875,11.08475112915039,1.6313068866729736,4.216751575469971
1772533208432369400,7.434369384765625,9.55753231048584,-0.4707878530025482,2.8516464233398438
1772533208442302200,7.44430224609375,8.293522834777832,-2.03629207611084,1.176072359085083
1772533208452221700,7.4542216796875,6.095715522766113,-2.9318058490753174,-0.1501496136188507
1772533208462153200,7.4641533203125,3.122035264968872,-3.4396824836730957,-0.5814558863639832
1772533208472091100,7.474091064453125,0.09092725813388824,-3.6741790771484375,-0.6915257573127747
1772533208482023400,7.4840234375,-2.586043119430542,-3.535395383834839,-0.9499505758285522
1772533208491964200,7.493964111328125,-4.826921463012695,-3.7698919773101807,-1.5583257675170898
1772533208501897200,7.503897216796875,-6.598806858062744,-4.128815650939941,-2.0991036891937256
1772533208511830800,7.513830810546875,-8.240880966186523,-3.8321053981781006,-2.669193744659424
1772533208521763800,7.523763916015625,-10.070194244384766,-3.3098719120025635,-2.86061954498291
1772533208531685400,7.533685302734375,-11.472986221313477,-2.998805046081543,-2.0751755237579346
1772533208541617400,7.543617431640625,-11.885149955749512,-2.6733810901641846,-1.031306505203247
1772533208551548000,7.5535478515625,-10.989636421203613,-2.069791555404663,-0.18843477964401245
1772533208561479700,7.563479736328125,-9.064610481262207,-1.5625132322311401,0.2231307178735733
1772533208581349000,7.58334912109375,-5.25762939453125,-1.4859428405761719,0.9415757060050964
1772533208591280600,7.59328076171875,-3.840480327606201,-1.6247265338897705,1.171286702156067
1772533208601213000,7.603212890625,-2.3946173191070557,-1.8687944412231445,1.0660024881362915
1772533208611144400,7.61314453125,-0.5078766345977783,-2.620738983154297,-0.4139583110809326
1772533208621076700,7.62307666015625,1.1874382495880127,-3.463610887527466,-2.2091734409332275
1772533208631006700,7.6330068359375,2.0207388401031494,-3.655036687850952,-2.4538395404815674
1772533208640938800,7.642938720703125,2.011167526245117,-3.1758737564086914,-1.5056836605072021
1772533208650872000,7.6528720703125,1.9202401638031006,-2.6398816108703613,-0.48095735907554626
1772533208660804000,7.66280419921875,1.689931035041809,-2.3814568519592285,-0.054436713457107544
1772533208670745300,7.672745361328125,1.1778669357299805,-2.2372891902923584,-0.5383850932121277
1772533208680678400,7.682678466796875,0.6221339106559753,-2.1607189178466797,-1.654038667678833
1772533208690580500,7.69258056640625,0.6364908218383789,-2.289931297302246,-2.6356940269470215
1772533208700510500,7.702510498046875,0.9050851464271545,-2.2612173557281494,-2.8462624549865723
1772533208710479000,7.71247900390625,1.5032907724380493,-1.8305093050003052,-2.1134605407714844
1772533208720413000,7.722412841796875,2.33180570602417,-1.155135154724121,-0.7058826684951782
1772533208730336500,7.73233642578125,3.2751760482788086,-0.4899304509162903,0.357128769159317
1772533208740269300,7.742269287109375,4.0797624588012695,0.5060819983482361,1.2239288091659546
1772533208750202600,7.75220263671875,4.88853645324707,2.0482561588287354,2.459223508834839
1772533208760135400,7.762135498046875,5.7792649269104,3.714258909225464,3.3690943717956543
1772533208770061600,7.7720615234375,6.196214199066162,5.36650276184082,4.001397609710693
1772533208779993900,7.781993896484375,6.449853420257568,7.138388156890869,4.680959224700928
1772533208789961700,7.791961669921875,8.35573673248291,8.560322761535645,4.360321044921875
1772533208799897900,7.80189794921875,12.899706840515137,9.704689979553223,3.3164522647857666
1772533208809799000,7.811798828125,20.925233840942383,11.419147491455078,3.895515203475952
1772533208819731500,7.8217314453125,30.43490982055664,11.548359870910645,7.051648139953613
1772533208829640400,7.831640380859375,36.64548110961914,8.46461009979248,11.796615600585938
1772533208839570700,7.84157080078125,38.55136489868164,4.021138668060303,13.96092414855957
1772533208849525000,7.85152490234375,40.23172378540039,1.2628121376037598,11.375478744506836
1772533208859457500,7.86145751953125,42.832122802734375,0.20458634197711945,8.449654579162598
1772533208869383400,7.871383544921875,44.40719985961914,-0.6765705943107605,6.701697826385498
1772533208879315200,7.881315185546875,45.12564468383789,-1.5242279767990112,3.570091485977173
1772533208889248500,7.89124853515625,44.88636016845703,-2.0027925968170166,1.0564311742782593
1772533208899180500,7.9011806640625,42.50669860839844,-1.495514154434204,2.6362924575805664
1772533208909118500,7.911118408203125,36.54019546508789,0.41994038224220276,3.8045880794525146
1772533208919051000,7.921051025390625,28.696523666381836,2.2923240661621094,3.129812002182007
1772533208928983600,7.930983642578125,22.845474243164062,3.7812578678131104,3.2781670093536377
1772533208938916000,7.940916015625,19.68515396118164,4.959722995758057,4.365106582641602
1772533208948820500,7.950820556640625,17.697914123535156,5.155934810638428,5.346762180328369
1772533208958750200,7.960750244140625,15.710675239562988,4.638486862182617,5.55733060836792
1772533208968705000,7.970705078125,13.182060241699219,3.7956149578094482,4.767100811004639
1772533208978637000,7.980636962890625,10.156335830688477,2.6608188152313232,3.311666488647461
1772533208988575000,7.990574951171875,7.235297679901123,1.1288141012191772,1.4297115802764893
1772533208998507800,8.0005078125,5.1667022705078125,-0.5952146053314209,-0.4713860750198364
1772533209008415500,8.01041552734375,3.7393836975097656,-2.0745773315429688,-1.5487544536590576
1772533209018345700,8.020345703125,2.111665964126587,-2.8600213527679443,-1.6588243246078491
1772533209028280300,8.0302802734375,0.20578274130821228,-3.2380871772766113,-1.0552347898483276
1772533209038210800,8.0402109375,-1.7623138427734375,-3.5880374908447266,-0.24586252868175507
1772533209048173000,8.050173095703125,-3.7160534858703613,-3.9804604053497314,0.04127619042992592
1772533209058107000,8.06010693359375,-5.875576019287109,-4.152743816375732,-0.08315058797597885
1772533209068036400,8.070036376953125,-8.279166221618652,-4.033102512359619,-0.23629122972488403
1772533209077969700,8.0799697265625,-10.285548210144043,-3.9900317192077637,-0.6580262184143066
1772533209087898000,8.089898193359375,-11.48255729675293,-3.9900317192077637,-1.098305583000183
1772533209097831000,8.099830810546875,-11.933006286621094,-3.6502509117126465,-0.8685946464538574
1772533209107766300,8.109766357421876,-11.348559379577637,-3.0514471530914307,-0.3900300860404968
1772533209117699300,8.11969921875,-9.826126098632812,-2.4532413482666016,-0.16929219663143158
1772533209127621400,8.129621337890624,-8.49452018737793,-1.8113667964935303,0.44327038526535034
1772533209137553400,8.139553466796874,-7.3884382247924805,-1.155135154724121,1.2765709161758423
1772533209147497000,8.1494970703125,-5.674578666687012,-0.9349954724311829,1.5828521251678467
1772533209157430300,8.15943017578125,-3.4432718753814697,-1.3040883541107178,1.2239288091659546
1772533209167359500,8.169359375,-1.3316057920455933,-1.8592232465744019,0.6107679605484009
1772533209177292300,8.179292236328125,0.6699903607368469,-2.1415762901306152,0.0891326442360878
1772533209187203000,8.189203125,2.2648067474365234,-2.179861545562744,0.13698910176753998
1772533209197133600,8.199133544921875,3.576671600341797,-2.194218397140503,0.6394818425178528
1772533209207068400,8.209068359375,4.835894584655762,-2.1032910346984863,0.6681957244873047
1772533209216999400,8.21899951171875,5.343770980834961,-1.8687944412231445,0.2470589429140091
1772533209226930000,8.228929931640625,4.706682205200195,-1.3567304611206055,-0.025722842663526535
1772533209236861000,8.23886083984375,3.6197423934936523,-0.6143572330474854,0.0029910283628851175
1772533209256727300,8.258727294921876,1.3310075998306274,1.454237937927246,0.8602197170257568
1772533209266656000,8.268656005859375,0.890728235244751,2.4406790733337402,1.2430713176727295
1772533209276587300,8.278587158203125,1.3597214221954346,2.6847469806671143,0.7639086246490479
1772533209286530800,8.28853076171875,3.064607620239258,2.56510591506958,-0.1740778535604477
1772533209296463400,8.29846337890625,5.750551223754883,2.794816732406616,-1.1892328262329102
1772533209306395000,8.308394775390624,8.317451477050781,3.7429728507995605,-1.4913266897201538
1772533209316327000,8.318326904296875,10.572687149047852,5.251647472381592,-0.6293123364448547
1772533209326257700,8.328257568359374,12.354143142700195,6.970292568206787,-0.7776673436164856
1772533209336189700,8.338189697265625,13.359726905822754,7.88494873046875,-1.9794625043869019
1772533209346120400,8.348120361328125,14.135001182556152,8.191828727722168,-2.458625316619873
1772533209356052500,8.358052490234375,16.35673713684082,8.301898002624512,-1.246660590171814
1772533209366019800,8.368019775390625,24.511476516723633,7.894520282745361,0.3236292600631714
1772533209375955500,8.37795556640625,38.59443283081055,8.560322761535645,-0.27038896083831787
1772533209385878300,8.387878173828126,46.25086975097656,7.430312633514404,-0.2267199456691742
1772533209395812600,8.3978125,42.860836029052734,4.021138668060303,0.7980063557624817
1772533209405748000,8.407748046875,38.28336715698242,2.4981069564819336,0.06520441919565201
1772533209415682300,8.417682373046874,37.8759880065918,0.7405785918235779,-0.1501496136188507
1772533209425575400,8.427575439453125,38.84328842163086,-0.8871390223503113,-0.4618147611618042
1772533209435505700,8.437505615234375,38.043487548828125,-1.1024930477142334,-0.34695929288864136
1772533209445467000,8.447466796875,34.792240142822266,0.3720839321613312,1.2382856607437134
1772533209455400200,8.457400146484375,29.749963760375977,2.1439690589904785,2.521436929702759
1772533209465318400,8.467318359375,24.032913208007812,3.1686954498291016,2.4735803604125977
1772533209475250200,8.477250244140626,18.803997039794922,4.600201606750488,2.8666014671325684
1772533209485197300,8.487197265625,14.934802055358887,5.931209087371826,4.226323127746582
1772533209495130600,8.497130615234376,12.09033489227295,6.367300987243652,5.136193752288818
1772533209505062000,8.507061767578126,9.452247619628906,6.051448345184326,5.198407173156738
1772533209514995000,8.516994873046874,7.421937465667725,5.065007209777832,4.460819721221924
1772533209524926000,8.526926025390624,6.602993965148926,3.4031920433044434,3.3786656856536865
1772533209534858800,8.536858642578125,6.483353137969971,1.8855443000793457,2.4879374504089355
1772533209544790300,8.546790283203125,6.344569206237793,0.6783652305603027,1.9710876941680908
1772533209554723000,8.55672314453125,5.851049423217773,-0.3367897868156433,1.415354609489441
1772533209564747300,8.566747314453124,4.548755645751953,-1.0115658044815063,0.9224331378936768
1772533209574689300,8.576689208984375,2.365305185317993,-1.4141582250595093,0.3762713670730591
1772533209584521000,8.58652099609375,-0.2153540402650833,-1.8735800981521606,-0.3278166949748993
1772533209594451700,8.59645166015625,-2.8588249683380127,-2.108076810836792,-0.7537391185760498
1772533209604388600,8.606388671875,-5.425127029418945,-1.9022940397262573,-0.7776673436164856
1772533209614319900,8.61631982421875,-7.503293514251709,-1.5433706045150757,-0.7680960893630981
1772533209624255500,8.62625537109375,-8.777471542358398,-1.2987045049667358,-0.9020941257476807
1772533209634187300,8.636187255859374,-9.562317848205566,-1.404586911201477,-0.7776673436164856
1772533209644124700,8.646124755859375,-9.53360366821289,-1.7252250909805298,-0.6628118753433228
1772533209654057200,8.65605712890625,-8.470592498779297,-1.8831514120101929,-0.7537391185760498
1772533209663980000,8.66597998046875,-6.914659023284912,-1.6965112686157227,-0.9308080077171326
1772533209673911600,8.67591162109375,-5.204987525939941,-1.5720844268798828,-0.8925228714942932
1772533209683821800,8.68582177734375,-3.2033913135528564,-1.8735800981521606,-0.6580262184143066
1772533209693751300,8.695751220703125,-0.7471588850021362,-2.021935224533081,-0.8685946464538574
1772533209703704300,8.705704345703126,1.4171491861343384,-1.8735800981521606,-0.8638089895248413
1772533209713636000,8.715635986328126,2.513660192489624,-1.4428720474243164,0.1657029688358307
1772533209723579600,8.72557958984375,2.135594129562378,-1.1838489770889282,1.9567307233810425
1772533209733512400,8.735512451171875,2.561516523361206,-0.600000262260437,2.4735803604125977
1772533209743432700,8.7454326171875,3.5575289726257324,-0.5473581552505493,2.4735803604125977
1772533209753364200,8.7553642578125,3.9361932277679443,-1.1407781839370728,2.052443504333496
1772533209763304700,8.7653046875,3.7058839797973633,-1.7204394340515137,0.4097708761692047
1772533209773237000,8.775237060546875,2.8342983722686768,-1.9214365482330322,-0.4331009089946747
1772533209783165000,8.7851650390625,2.0829520225524902,-1.7874385118484497,0.10827522724866867
1772533209793097000,8.795096923828124,2.451446771621704,-0.9780662655830383,1.5206388235092163
1772533209803032800,8.80503271484375,3.0215368270874023,-0.17347964644432068,3.1728827953338623
1772533209812965400,8.81496533203125,2.9114668369293213,0.592223584651947,3.4552359580993652
1772533209822876700,8.824876708984375,2.403590440750122,1.1670992374420166,3.531806230545044
1772533209832807000,8.834806884765625,2.3365912437438965,1.6839489936828613,3.5748770236968994
1772533209842759400,8.844759521484375,2.892324447631836,2.612962245941162,3.2063822746276855
1772533209852692000,8.85469189453125,2.819941520690918,3.690330743789673,2.42093825340271
1772533209862631400,8.86463134765625,1.6420745849609375,4.427918434143066,1.8705891370773315
1772533209872564500,8.874564453125,0.1579262912273407,5.32821798324585,1.6498512029647827
1772533209882490400,8.884490478515625,-0.4217349886894226,7.186244487762451,0.865005373954773
1772533209892423000,8.8944228515625,0.397208571434021,9.479764938354492,-0.2799602448940277
1772533209902359600,8.904359619140624,2.8971099853515625,10.729416847229004,-0.14057832956314087
1772533209912292400,8.914292236328125,9.155537605285645,10.825129508972168,3.641875982284546
1772533209922221600,8.9242216796875,21.576679229736328,10.600204467773438,10.733604431152344
1772533209932154000,8.934154052734375,37.631919860839844,13.01815128326416,15.88594913482666
1772533209942085600,8.944085693359375,45.4032096862793,14.004592895507812,19.36690902709961
1772533209952018200,8.95401806640625,43.06183624267578,9.963115692138672,19.740787506103516
1772533209961958400,8.96395849609375,41.15116500854492,7.018148899078369,14.736796379089355
1772533209971891500,8.973891357421875,41.9222526550293,4.001996040344238,9.369096755981445
1772533209981793000,8.98379296875,42.79383850097656,0.8225327730178833,4.412963390350342
1772533209991723000,8.993722900390624,42.61198425292969,-1.2747762203216553,1.1234302520751953
1772533210001688600,9.0036884765625,41.17509460449219,-1.4811571836471558,0.23270200192928314
1772533210011622100,9.0136220703125,36.45405578613281,-0.4420739710330963,0.8410771489143372
1772533210021544000,9.0235439453125,29.056045532226562,1.44945228099823,0.3332005441188812
1772533210031476500,9.0334765625,20.762521743774414,3.3505499362945557,-0.6771687865257263
1772533210041410000,9.04341015625,13.766507148742676,4.3752760887146,-1.0552347898483276
1772533210051342600,9.053342529296875,9.452247619628906,4.9501519203186035,0.28534409403800964
1772533210061277000,9.06327685546875,7.5702924728393555,5.194219589233398,3.431307554244995
1772533210071209500,9.07320947265625,7.206583499908447,5.1080780029296875,5.485546112060547
1772533210081137400,9.083137451171876,6.847062110900879,4.088137626647949,5.193621635437012
1772533210091069400,9.0930693359375,7.642077445983887,1.947757601737976,3.053241729736328
1772533210101001700,9.103001708984374,9.605388641357422,-0.5617151260375977,0.3858426511287689
1772533210110934000,9.11293408203125,10.797612190246582,-1.7874385118484497,-0.8542376756668091
1772533210120874500,9.12287451171875,9.375677108764648,-1.9310078620910645,-0.882951557636261
1772533210130807600,9.1328076171875,6.009573936462402,-1.490728497505188,-0.7680960893630981
1772533210140747000,9.1427470703125,1.8963119983673096,-0.9349954724311829,-1.5726827383041382
1772533210150680600,9.1526806640625,-2.3222343921661377,-0.6957131624221802,-2.779263496398926
1772533210160570600,9.162570556640626,-5.2384867668151855,-0.4707878530025482,-2.7696921825408936
1772533210170500000,9.1725,-6.5318074226379395,0.20937198400497437,-1.7497515678405762
1772533210180459000,9.182458984375,-7.5565338134765625,1.1910275220870972,-1.246660590171814
1772533210190391300,9.192391357421876,-8.236095428466797,1.2675977945327759,-1.0600204467773438
1772533210200327700,9.20232763671875,-9.22253704071045,-1.1072787046432495,0.6586244106292725
1772533210210260500,9.212260498046875,-7.5080790519714355,-0.9254241585731506,0.3858426511287689
1772533210220166400,9.22216650390625,-4.932205677032471,-0.42293140292167664,-0.18364913761615753
1772533210230096400,9.232096435546875,-3.308675527572632,-1.083350419998169,-1.1700903177261353
1772533210240060400,9.242060302734375,-0.737587571144104,-0.7962117195129395,-2.530410051345825
1772533210249994000,9.251993896484375,0.7465606927871704,-0.50907301902771,-2.132603168487549
1772533210259894300,9.261894287109374,1.7904295921325684,-0.08733802288770676,-2.0033907890319824
1772533210269824500,9.271824462890624,3.6532418727874756,0.30987054109573364,-1.3716856241226196
1772533210279785000,9.281784912109375,5.817550182342529,1.1910275220870972,0.24227328598499298
1772533210289718300,9.29171826171875,6.990631580352783,1.8759729862213135,1.1377872228622437
1772533210299594800,9.3015947265625,7.091728210449219,2.0099709033966064,0.8602197170257568
1772533210309522200,9.311522216796876,6.464210510253906,1.856830358505249,0.7884350419044495
1772533210319518000,9.32151806640625,6.282355785369873,2.335394859313965,1.195214867591858
1772533210329452300,9.331452392578125,6.440282344818115,2.6703901290893555,1.4105689525604248
1772533210339383600,9.341383544921875,7.015157699584961,2.2540390491485596,1.2765709161758423
1772533210349317600,9.351317626953126,8.398807525634766,1.6552350521087646,0.7782655358314514
1772533210359255800,9.361255859375,9.413962364196777,1.1479566097259521,1.3244273662567139
1772533210369190400,9.3711904296875,9.79681396484375,0.7262216806411743,2.1242282390594482
1772533210379089400,9.38108935546875,9.466604232788086,0.6496513485908508,1.5876377820968628
1772533210389020400,9.3910205078125,8.700303077697754,1.5020943880081177,0.5054838061332703
1772533210398956000,9.4009560546875,7.709076404571533,2.8426733016967773,0.33798620104789734
1772533210408887600,9.410887451171876,6.311069488525391,4.552345275878906,-0.06400800496339798
1772533210418821600,9.420821533203124,3.3134610652923584,6.3529438972473145,-0.6245267391204834
1772533210428753400,9.43075341796875,4.548755645751953,7.80837869644165,-0.6005984544754028
1772533210438690000,9.44068994140625,12.287144660949707,7.497311592102051,1.022931694984436
1772533210448622000,9.4506220703125,17.91326904296875,6.065805435180664,3.555734395980835
1772533210458544000,9.460544189453126,19.000207901000977,5.0362935066223145,4.700101852416992
1772533210468475400,9.470475341796876,18.123836517333984,4.748556613922119,3.531806230545044
1772533210478416600,9.480416748046874,17.60698699951172,5.323431968688965,1.3722838163375854
1772533210488349000,9.490348876953124,16.93161392211914,5.567500114440918,0.04127619042992592
1772533210498277400,9.50027734375,13.340584754943848,4.102494239807129,0.7016952633857727
1772533210508209400,9.51020947265625,8.992227554321289,2.857030153274536,1.7886348962783813
1772533210518137000,9.52013720703125,5.516054630279541,2.6273193359375,1.9423737525939941
1772533210528068600,9.530068603515625,4.390829563140869,3.039483070373535,0.4863412082195282
1772533210538008300,9.54000830078125,6.703492641448975,3.613760471343994,-0.5910272002220154
1772533210547940600,9.549940673828125,11.908479690551758,4.207778453826904,2.191227436065674
1772533210557907500,9.559907470703125,14.695520401000977,3.1830523014068604,1.4488540887832642
1772533210567843300,9.56984326171875,16.472190856933594,2.9341988563537598,0.3475574851036072
1772533210577758200,9.57975830078125,17.487346649169922,2.7421748638153076,-0.5670989751815796
1772533210587691800,9.58969189453125,17.099111557006836,2.3162522315979004,-1.074377417564392
1772533210597619500,9.599619384765624,15.648462295532227,2.3306093215942383,-0.7968099117279053
1772533210607552500,9.609552490234375,13.03370475769043,2.9341988563537598,-0.4618147611618042
1772533210617482200,9.619482177734374,9.5862455368042,3.881756544113159,-0.025722842663526535
1772533210627415000,9.6294150390625,6.464210510253906,4.71027135848999,0.11306086927652359
1772533210637350700,9.6393505859375,5.343770980834961,4.959722995758057,-0.21714866161346436
1772533210647283700,9.64928369140625,6.488138675689697,4.3657050132751465,-0.1501496136188507
1772533210657242400,9.659242431640624,8.403593063354492,3.6951162815093994,0.357128769159317
1772533210667178000,9.669177978515625,10.083952903747559,3.259622573852539,0.9032905697822571
1772533210677081900,9.679081787109375,11.338988304138184,2.982055187225342,1.7647067308425903
1772533210687014100,9.68901416015625,11.918051719665527,2.770888566970825,2.6123640537261963
1772533210696955100,9.698955078125,11.894123077392578,2.7038896083831787,3.177668571472168
1772533210706888400,9.708888427734376,11.233704566955566,2.7038896083831787,3.0963125228881836
1772533210716814300,9.718814453125,9.78245735168457,2.5220351219177246,2.35872483253479
1772533210726747000,9.728746826171875,8.049455642700195,2.139183521270752,1.3387842178344727
1772533210736675800,9.73867578125,7.086942672729492,1.7174484729766846,0.26620152592658997
1772533210746608000,9.748608154296875,6.990631580352783,1.3106685876846313,-0.4139583110809326
1772533210756545000,9.758544921875,7.5272216796875,1.0809576511383057,-0.5431707501411438
1772533210766477800,9.768477783203124,8.738588333129883,1.358525037765503,-0.05922235921025276
1772533210776407000,9.778406982421876,10.189835548400879,1.9812572002410889,0.8315058946609497
1772533210796271000,9.79827099609375,10.878968238830566,2.713460922241211,1.7216359376907349
1772533210806203400,9.808203369140625,9.926026344299316,2.7565317153930664,1.353141188621521
1772533210816147200,9.818147216796875,8.24566650390625,2.833101987838745,1.113858938217163
1772533210826080500,9.82808056640625,6.521637916564941,3.116053342819214,0.7836494445800781
1772533210835995100,9.8379951171875,5.597410202026367,3.3026933670043945,0.19920247793197632
1772533210845926700,9.8479267578125,5.611767292022705,3.1304101943969727,-0.4091726839542389
1772533210855862800,9.85786279296875,6.320641040802002,2.881556749343872,-0.8207381963729858
1772533210865794800,9.867794921875,7.249654293060303,2.847458839416504,-0.9355936646461487
1772533210875727000,9.87772705078125,8.173882484436035,3.015554666519165,-0.7680960893630981
1772533210885659100,9.8876591796875,7.996214866638184,3.2691938877105713,-0.8063812255859375
1772533210895601200,9.89760107421875,7.814360618591309,3.417548894882202,-0.7106683254241943
1772533210905534200,9.9075341796875,8.250452041625977,3.5371899604797363,-0.39481574296951294
1772533210915459600,9.91745947265625,8.863015174865723,3.336193084716797,-0.2267199456691742
1772533210925392100,9.92739208984375,9.232108116149902,2.9485557079315186,-0.3852444589138031
1772533210935321000,9.937321044921875,9.681958198547363,2.7182464599609375,-0.5527420043945312
1772533210945253000,9.947253173828125,10.48654556274414,2.531606435775757,-0.5240281820297241
1772533210955189800,9.957189697265624,11.08475112915039,2.258824586868286,-0.48574298620224
1772533210965122300,9.967122314453125,11.142178535461426,1.7988044023513794,-0.8542376756668091
1772533210975049700,9.9770498046875,10.41476058959961,1.3824533224105835,-1.5439687967300415
