time,seconds_elapsed,z,y,x
1772533201131513300,0.133513427734375,0.39560091495513916,-0.875754714012146,-1.8993104696273804
1772533201231395600,0.2333955078125,-0.18694838881492615,-0.19094301760196686,-0.8800156116485596
1772533201241316000,0.243316162109375,-0.35525521636009216,-0.05033225938677788,-0.8098434209823608
1772533201251263200,0.25326318359375,-0.35525521636009216,0.33621418476104736,-0.8449960947036743
1772533201261183000,0.263182861328125,-0.16138280928134918,1.1222230195999146,-0.9013202786445618
1772533201271119000,0.273119140625,0.06657706201076508,2.096778154373169,-0.9300816059112549
1772533201281075700,0.28307568359375,0.11344731599092484,2.84110951423645,-0.9854736924171448
1772533201291020000,0.29302001953125,-0.0037283156998455524,3.061612844467163,-1.1111712455749512
1772533201300918000,0.30291796875,-0.039946239441633224,2.9763941764831543,-1.1505848169326782
1772533201310843400,0.312843505859375,0.137947678565979,2.715545177459717,-0.9567124247550964
1772533201320776400,0.3227763671875,0.19973118603229523,2.373605489730835,-0.5051867365837097
1772533201330705000,0.332704833984375,-0.0015978495357558131,1.960428237915039,0.1199718713760376
1772533201340620500,0.34262060546875,-0.33395054936408997,1.0689613819122314,0.8292838931083679
1772533201350544000,0.3525439453125,-0.6342130899429321,-0.21437814831733704,1.4640296697616577
1772533201360515800,0.362515869140625,-0.7535192370414734,-1.3709548711776733,1.8654893636703491
1772533201370459100,0.372459228515625,-0.6832138299942017,-2.08772349357605,2.0156872272491455
1772533201380369700,0.38236962890625,-0.45844966173171997,-2.7361841201782227,1.9421861171722412
1772533201390299600,0.392299560546875,-0.26151469349861145,-3.3837127685546875,1.7248785495758057
1772533201400236000,0.402236083984375,-0.11025162041187286,-3.5158016681671143,1.50983464717865
1772533201410168800,0.4121689453125,0.10492545366287231,-3.1249942779541016,1.2840052843093872
1772533201420111000,0.422111083984375,0.12090394645929337,-2.5200750827789307,1.0613715648651123
1772533201430047700,0.4320478515625,-0.15286093950271606,-1.9833307266235352,0.9548482298851013
1772533201439953200,0.441953125,-0.757780134677887,-1.5721508264541626,1.0027837753295898
1772533201449877000,0.451876953125,-1.4660269021987915,-1.3539111614227295,1.1348726749420166
1772533201459831300,0.461831298828125,-1.675744652748108,-1.2910624742507935,1.2861356735229492
1772533201469767400,0.471767333984375,-1.4649617671966553,-1.0833419561386108,1.416094183921814
1772533201479696100,0.481696044921875,-1.1752183437347412,-0.6914693713188171,1.5332697629928589
1772533201489629200,0.491629150390625,-0.9228912591934204,-0.3729647099971771,1.5874634981155396
1772533201499552300,0.50155224609375,-0.8302159905433655,-0.3442034125328064,1.4874647855758667
1772533201509481200,0.511481201171875,-0.8919994831085205,-0.2612484097480774,1.3362016677856445
1772533201539253800,0.541253662109375,-0.9207608103752136,-0.0482017956674099,0.6449986100196838
1772533201559129600,0.561129638671875,-0.5149070024490356,-0.40385645627975464,0.15938548743724823
1772533201569066200,0.571066162109375,-0.310515433549881,-0.5497934222221375,-0.00359516148455441
1772533201579018500,0.5810185546875,-0.11451254785060883,-0.7053174376487732,-0.02916075475513935
1772533201588957000,0.59095703125,0.13049104809761047,-0.9054480791091919,0.14447222650051117
1772533201598893800,0.600893798828125,0.5447335243225098,-0.9065132737159729,0.5651060938835144
1772533201608832000,0.61083203125,1.0260857343673706,-0.4720313847064972,1.1742862462997437
1772533201618748200,0.620748046875,1.3893301486968994,0.018907885998487473,1.76748788356781
1772533201628684300,0.630684326171875,1.3563079833984375,0.07110430300235748,1.6055724620819092
1772533201638611200,0.640611083984375,0.9291495084762573,-0.3878779709339142,0.6556509137153625
1772533201648546300,0.65054638671875,0.5351464152336121,-1.0513850450515747,-0.31983622908592224
1772533201658488600,0.660488525390625,0.4211665093898773,-1.3251498937606812,-1.2848042249679565
1772533201668424400,0.670424560546875,0.5532553791999817,-0.7862751483917236,-2.1260719299316406
1772533201678342100,0.680342041015625,0.8440639972686768,0.38947582244873047,-2.656558036804199
1772533201688276200,0.690276123046875,1.2210233211517334,1.73885977268219,-2.8247315883636475
1772533201698203400,0.700203369140625,1.6395267248153687,2.791043758392334,-2.6512317657470703
1772533201708137000,0.710136962890625,2.0846610069274902,3.18837571144104,-2.221942901611328
1772533201718070500,0.720070556640625,2.346708297729492,3.033916711807251,-1.6330022811889648
1772533201728003800,0.73000390625,2.249772071838379,2.4598894119262695,-1.1420629024505615
1772533201737949400,0.739949462890625,1.9196830987930298,1.6674891710281372,-0.8821461200714111
1772533201747884000,0.749884033203125,1.558569073677063,0.883743941783905,-0.8577789068222046
1772533201757801000,0.759801025390625,1.2401975393295288,0.014646953903138638,-1.1388672590255737
1772533201767733800,0.769733642578125,0.9547150731086731,-0.8512543439865112,-1.7523083686828613
1772533201777649200,0.779649169921875,0.6246260404586792,-1.3698896169662476,-2.456294298171997
1772533201787580200,0.789580078125,0.2965342402458191,-1.4774781465530396,-2.8375144004821777
1772533201797532000,0.799531982421875,0.16670896112918854,-1.2750838994979858,-2.7767961025238037
1772533201807465200,0.80946533203125,0.27949050068855286,-0.9022523760795593,-2.3742711544036865
1772533201817394700,0.819394775390625,0.48081955313682556,-0.5061188340187073,-1.8513749837875366
1772533201827327500,0.829327392578125,0.6395393013954163,-0.3228987455368042,-1.3561748266220093
1772533201837259300,0.83925927734375,0.6821485757827759,-0.5593804717063904,-0.9119726419448853
1772533201847192000,0.849192138671875,0.6203650832176208,-1.0279498100280762,-0.5158390998840332
1772533201857135400,0.85913525390625,0.49147188663482666,-1.3038451671600342,-0.1474016159772873
1772533201867069200,0.869069091796875,0.3412740230560303,-1.117429494857788,0.13914605975151062
1772533201876988000,0.87898779296875,0.2720338702201843,-0.5679023265838623,0.2925396263599396
1772533201886920200,0.888920166015625,0.3263607621192932,0.026364516466856003,0.3202356696128845
1772533201896866000,0.898865966796875,0.40731847286224365,0.500260055065155,0.17536398768424988
1772533201906799900,0.9087998046875,0.3721657991409302,0.783612072467804,-0.13994498550891876
1772533201916718000,0.918718017578125,0.2114487588405609,1.0146344900131226,-0.5051867365837097
1772533201926650000,0.928650146484375,-0.06977276504039764,0.950720489025116,-0.8842765688896179
1772533201936582100,0.93858203125,-0.4893414080142975,0.4523245692253113,-1.2411296367645264
1772533201946514200,0.94851416015625,-0.7300840616226196,0.08814803510904312,-1.5669578313827515
1772533201956461800,0.9584619140625,-0.7247579097747803,0.07110430300235748,-1.903571367263794
1772533201966395600,0.968395751953125,-0.5266245603561401,0.30758604407310486,-2.1729421615600586
1772533201976310000,0.97831005859375,-0.310515433549881,0.6280879974365234,-2.296509265899658
1772533201986241800,0.98824169921875,-0.23914481699466705,0.7889382243156433,-2.2570955753326416
1772533201996151800,0.99815185546875,-0.28281936049461365,0.7473941445350647,-2.115419626235962
1772533202006081300,1.008081298828125,-0.306254506111145,0.4395417869091034,-1.8439183235168457
1772533202016018400,1.018018310546875,-0.30199354887008667,0.2596505582332611,-1.5286093950271606
1772533202025948700,1.02794873046875,-0.30518925189971924,-0.006657706573605537,-1.2879998683929443
1772533202035918600,1.037918701171875,-0.264710396528244,-0.10998530685901642,-0.9961260557174683
1772533202045853000,1.04785302734375,-0.13688243925571442,-0.35059481859207153,-0.6031882166862488
1772533202055748900,1.057748779296875,-0.08894696086645126,-0.7873403429985046,-0.15166255831718445
1772533202065679400,1.067679443359375,-0.3509942889213562,-1.2260831594467163,0.2477998286485672
1772533202075613000,1.077613037109375,-0.9314131140708923,-1.6669565439224243,0.47243085503578186
1772533202085544000,1.0875439453125,-1.6139612197875977,-1.8469809293746948,0.46284374594688416
1772533202095479300,1.097479248046875,-1.8610951900482178,-1.7766755819320679,0.4074516296386719
1772533202105410600,1.10741064453125,-1.4330047369003296,-1.6136949062347412,0.5469971299171448
1772533202115343400,1.11734326171875,-0.6310173869132996,-1.4465864896774292,0.9017197489738464
1772533202125275000,1.12727490234375,0.016511112451553345,-1.418890357017517,1.3809415102005005
1772533202135209500,1.13720947265625,0.1272953450679779,-1.916221022605896,1.8324670791625977
1772533202145141200,1.147141357421875,-0.38601380586624146,-2.8214027881622314,2.0519051551818848
1772533202155070700,1.15707080078125,-1.2444584369659424,-3.362407922744751,2.0710792541503906
1772533202165002200,1.167002197265625,-2.1997060775756836,-2.6926426887512207,1.9485775232315063
1772533202174936600,1.1769365234375,-2.8248648643493652,-0.9576444625854492,1.8814678192138672
1772533202184868400,1.186868408203125,-2.52992844581604,0.8155690431594849,2.542844295501709
1772533202194823700,1.19682373046875,-1.8302035331726074,1.923145055770874,3.607811212539673
1772533202204757800,1.2067578125,-1.3637645244598389,1.9380583763122559,3.7260520458221436
1772533202214717200,1.21671728515625,-1.2561759948730469,-0.2888112962245941,2.04551362991333
1772533202224653800,1.22665380859375,-1.3903954029083252,-2.6787948608398438,-0.5872097015380859
1772533202234534400,1.236534423828125,-1.1911967992782593,-4.037632465362549,-3.027125835418701
1772533202244465700,1.246465576171875,-0.6427350044250488,-4.195287227630615,-4.78116512298584
1772533202254419500,1.25641943359375,-0.0740336924791336,-3.2837140560150146,-5.761978626251221
1772533202264352800,1.266352783203125,0.38388335704803467,-1.4625649452209473,-5.869566917419434
1772533202274284500,1.276284423828125,0.7982590198516846,0.5034557580947876,-5.120974540710449
1772533202284217600,1.286217529296875,1.084673523902893,1.860296368598938,-3.870657444000244
1772533202294177000,1.296177001953125,1.1208914518356323,2.270277976989746,-2.4818596839904785
1772533202304113000,1.30611279296875,0.757780134677887,2.424736738204956,-1.1420629024505615
1772533202314015700,1.316015625,0.1390129029750824,2.237255573272705,-0.15059731900691986
1772533202323948300,1.3259482421875,-0.4563191831111908,1.6749458312988281,0.2563216984272003
1772533202333853400,1.335853515625,-0.864303469657898,0.9677641987800598,0.01664426550269127
1772533202343783200,1.345783203125,-0.8930647373199463,-0.06737598776817322,-0.7459294199943542
1772533202353746700,1.35574658203125,-0.5031894445419312,-1.0812115669250488,-1.5989147424697876
1772533202363679700,1.3656796875,0.10386022180318832,-1.267627239227295,-1.9302022457122803
1772533202373606400,1.3756064453125,0.7130403518676758,-0.7724270820617676,-1.5658925771713257
1772533202383538700,1.38553857421875,1.1901315450668335,-0.06418029218912125,-0.8045172691345215
1772533202393473800,1.395473876953125,1.4701547622680664,0.7782858610153198,0.0667102187871933
1772533202403406600,1.405406494140625,1.582004189491272,1.2702903747558594,0.9336767196655273
1772533202413340400,1.41534033203125,1.4967855215072632,1.3107692003250122,1.6716169118881226
1772533202423273200,1.425273193359375,1.1975882053375244,0.9901341199874878,2.1552326679229736
1772533202433163300,1.435163330078125,0.7545844316482544,0.4533897936344147,2.3383195400238037
1772533202443092000,1.445092041015625,0.3039908707141876,-0.04713656008243561,2.261622905731201
1772533202453064700,1.455064697265625,-0.015445878729224205,-0.3111811876296997,1.9784040451049805
1772533202462997800,1.464997802734375,-0.0857512578368187,-0.30585503578186035,1.5364655256271362
1772533202472906000,1.474906005859375,0.039946239441633224,-0.132355198264122,0.9985228180885315
1772533202482836500,1.48483642578125,0.22955772280693054,0.15845340490341187,0.413843035697937
1772533202492801500,1.494801513671875,0.4105141758918762,0.6035876870155334,-0.1793586164712906
1772533202502735600,1.504735595703125,0.5447335243225098,1.243659496307373,-0.7278204560279846
1772533202512661000,1.514660888671875,0.5926690101623535,1.7505773305892944,-1.1740199327468872
1772533202522594300,1.52459423828125,0.49147188663482666,1.7931866645812988,-1.5392616987228394
1772533202532525600,1.534525634765625,0.22849248349666595,1.487597942352295,-1.8385921716690063
1772533202542458600,1.544458740234375,-0.07190322875976562,1.0678961277008057,-2.011159896850586
1772533202552389600,1.5543896484375,-0.25831902027130127,0.6696321368217468,-1.909962773323059
1772533202562322400,1.564322509765625,-0.35525521636009216,0.354323148727417,-1.4477847814559937
1772533202572264000,1.574263916015625,-0.4105141758918762,0.0583215095102787,-0.7832126021385193
1772533202582197500,1.584197509765625,-0.4573844373226166,-0.1983996480703354,-0.08881380409002304
1772533202592122600,1.59412255859375,-0.5607120394706726,-0.3250292241573334,0.4926702678203583
1772533202602055400,1.604055419921875,-0.7055837512016296,-0.29626792669296265,0.8165011405944824
1772533202611986700,1.613986572265625,-0.795063316822052,-0.1664426624774933,0.8111749291419983
1772533202621919500,1.62391943359375,-0.7545844316482544,0.05725627392530441,0.4905398190021515
1772533202631852300,1.633852294921875,-0.5617772936820984,0.1531272530555725,-0.09840089827775955
1772533202641784800,1.643784912109375,-0.19760072231292725,-0.33887726068496704,-0.8258218765258789
1772533202651714000,1.653714111328125,0.25818586349487305,-1.487065315246582,-1.4955871105194092
1772533202661646300,1.663646240234375,0.5511249303817749,-2.7287275791168213,-1.901440978050232
1772533202671584800,1.673584716796875,0.4243622124195099,-2.9982314109802246,-1.7405908107757568
1772533202681517600,1.683517578125,-0.061250898987054825,-1.9183515310287476,-0.9993217587471008
1772533202691461000,1.693461181640625,-0.7535192370414734,-0.2090519815683365,-0.03129122033715248
1772533202701395000,1.70339501953125,-1.567224144935608,0.9125052094459534,0.8931978940963745
1772533202711317200,1.713317138671875,-2.39357852935791,0.6344794034957886,1.5140955448150635
1772533202721250300,1.723250244140625,-3.275458335876465,-0.6957303285598755,1.6172900199890137
1772533202731176000,1.733176025390625,-4.0187249183654785,-2.0855932235717773,1.363897681236267
1772533202741108000,1.74310791015625,-4.1497483253479,-2.2250053882598877,1.3117012977600098
1772533202751047000,1.753046875,-3.509676456451416,-0.5604457259178162,1.7547050714492798
1772533202760979700,1.762979736328125,-2.4681448936462402,1.5641615390777588,1.9624255895614624
1772533202770901800,1.77290185546875,-1.293459177017212,3.005155563354492,1.3212884664535522
1772533202780833300,1.782833251953125,-0.2849498391151428,3.6217923164367676,0.09227581322193146
1772533202790779000,1.79277880859375,0.22849248349666595,3.414071798324585,-1.006778359413147
1772533202800712000,1.8027119140625,0.350861132144928,2.438584804534912,-1.3625662326812744
1772533202810630700,1.812630615234375,0.36577439308166504,1.0710917711257935,-0.8609746098518372
1772533202820562200,1.822562255859375,0.41690558195114136,-0.1536598652601242,0.13808083534240723
1772533202830493000,1.832492919921875,0.4978632926940918,-1.1206251382827759,1.0549801588058472
1772533202840424400,1.842424560546875,0.5841471552848816,-1.7468490600585938,1.4405945539474487
1772533202850367200,1.8523671875,0.6981270909309387,-1.885329246520996,1.2840052843093872
1772533202860300000,1.862300048828125,0.8897358775138855,-1.402911901473999,0.8196967840194702
1772533202870224400,1.872224365234375,1.1134347915649414,-0.3953346014022827,0.22329947352409363
1772533202880156400,1.882156494140625,1.213566780090332,0.776155412197113,-0.4860125780105591
1772533202890092800,1.8920927734375,1.1496527194976807,1.7271422147750854,-1.2581733465194702
1772533202900025300,1.902025390625,1.007976770401001,2.1616241931915283,-1.9930509328842163
1772533202909963300,1.91196337890625,0.90145343542099,2.062690496444702,-2.504229784011841
1772533202919896300,1.921896240234375,0.915301501750946,1.762294888496399,-2.555360794067383
1772533202929823000,1.931822998046875,1.0196943283081055,1.4439233541488647,-2.16228985786438
1772533202939755300,1.94175537109375,1.1102391481399536,1.0316781997680664,-1.520087480545044
1772533202949686300,1.951686279296875,1.1336742639541626,0.6099790334701538,-0.7970606088638306
1772533202959618300,1.961618408203125,1.0750864744186401,0.2841508984565735,-0.14207544922828674
1772533202969546500,1.97154638671875,0.9738892912864685,0.05086487531661987,0.3637770712375641
1772533202979478000,1.98147802734375,0.9025186896324158,-0.12702903151512146,0.689738392829895
1772533202989411800,1.991411865234375,0.8684312105178833,-0.24633513391017914,0.8186315894126892
1772533202999343900,2.00134375,0.8323464393615723,-0.2877460718154907,0.8090444803237915
1772533203009255700,2.011255615234375,0.8408682942390442,-0.21224768459796906,0.7888050675392151
1772533203019185700,2.021185546875,0.9302147626876831,-0.03967992961406708,0.774957001209259
1772533203029118200,2.0311181640625,1.0580426454544067,0.13714875280857086,0.6535204648971558
1772533203039048400,2.04104833984375,1.1507179737091064,0.23195448517799377,0.34779858589172363
1772533203049007900,2.0510078125,1.1443265676498413,0.22343263030052185,-0.11224892735481262
1772533203058941000,2.06094091796875,1.0047810077667236,0.19999749958515167,-0.6340799331665039
1772533203068870000,2.070869873046875,0.7982590198516846,0.1861494779586792,-1.0696271657943726
1772533203078802400,2.080802490234375,0.6597787141799927,0.19893226027488708,-1.2869346141815186
1772533203088743400,2.090743408203125,0.626756489276886,0.23301972448825836,-1.282673716545105
1772533203098677000,2.100677001953125,0.5947995185852051,0.19467133283615112,-1.1335411071777344
1772533203108600000,2.11060009765625,0.48295003175735474,0.05725627392530441,-0.8832113146781921
1772533203118532400,2.120532470703125,0.2826862037181854,-0.08974587917327881,-0.5595136284828186
1772533203128466700,2.130466796875,0.026098208501935005,-0.14833369851112366,-0.2102503627538681
1772533203138399200,2.140399169921875,-0.21784014999866486,-0.08868064731359482,0.11464570462703705
1772533203148330500,2.15033056640625,-0.4105141758918762,0.06364767253398895,0.4170387387275696
1772533203158262800,2.1602626953125,-0.589473307132721,0.23621542751789093,0.6545857191085815
1772533203168203800,2.170203857421875,-0.7684324979782104,0.3415403366088867,0.7696308493614197
1772533203178137000,2.18013720703125,-0.9271522164344788,0.12330072373151779,0.7323477268218994
1772533203188063200,2.190063232421875,-1.1805444955825806,-0.5338149070739746,0.5065183043479919
1772533203197995800,2.199995849609375,-1.740723967552185,-1.2548445463180542,0.2989310026168823
1772533203207906800,2.20990673828125,-2.516080379486084,-1.992917776107788,0.35418999195098877
1772533203217837300,2.21983740234375,-3.2914369106292725,-2.484922409057617,0.7557828426361084
1772533203227767800,2.229767822265625,-3.8175289630889893,-2.204766035079956,1.5460525751113892
1772533203237698300,2.2396982421875,-3.603416919708252,-1.2495183944702148,2.51408314704895
1772533203247630800,2.249630859375,-2.984649896621704,0.42143282294273376,3.4640047550201416
1772533203257561600,2.2595615234375,-2.632190704345703,1.9764066934585571,4.232969760894775
1772533203267494400,2.269494384765625,-2.6630825996398926,2.2212772369384766,4.6493425369262695
1772533203277425400,2.27942529296875,-2.94204044342041,0.9848079085350037,4.648277282714844
1772533203287361500,2.289361572265625,-3.318067789077759,-0.9597749710083008,4.132837772369385
1772533203297293000,2.29929296875,-3.578916549682617,-2.7969024181365967,3.072132110595703
1772533203307227000,2.309226806640625,-3.4361753463745117,-3.700086832046509,1.8782721757888794
1772533203317158700,2.31915869140625,-2.778127670288086,-3.0216665267944336,1.1306116580963135
1772533203327095600,2.329095458984375,-1.7684199810028076,-1.5156934261322021,0.7941312193870544
1772533203337027800,2.33902783203125,-0.49040666222572327,-0.07057169079780579,0.4553871154785156
1772533203346962700,2.348962646484375,0.7183665037155151,0.9933298230171204,-0.12716218829154968
1772533203356895200,2.358895263671875,1.3158290386199951,1.4258143901824951,-0.8364742398262024
1772533203366836500,2.36883642578125,1.4511137008666992,1.3001168966293335,-1.2879998683929443
1772533203376769800,2.378769775390625,1.5287425518035889,0.9188966155052185,-1.273086667060852
1772533203386689800,2.388689697265625,1.650179147720337,0.5545869469642639,-0.9386034607887268
1772533203396621600,2.39862158203125,1.757767677307129,0.19147562980651855,-0.5264914035797119
1772533203406579200,2.4085791015625,1.8600300550460815,-0.015179570764303207,-0.1889457106590271
1772533203416513800,2.418513671875,2.019814968109131,0.16271434724330902,-0.03022598661482334
1772533203426412800,2.428412841796875,2.2178151607513428,0.4821510910987854,-0.15166255831718445
1772533203436343800,2.43834375,2.309425115585327,0.7910686731338501,-0.5477960705757141
1772533203446304800,2.4483046875,2.1762709617614746,1.1286144256591797,-1.044061541557312
1772533203456238800,2.45823876953125,1.811029314994812,1.511033058166504,-1.4520457983016968
1772533203466167800,2.468167724609375,1.3190248012542725,1.7345988750457764,-1.6937204599380493
1772533203476101000,2.47810107421875,0.8227593302726746,1.472684621810913,-1.8087656497955322
1772533203486034400,2.488034423828125,0.435014545917511,0.8997224569320679,-1.7555040121078491
1772533203495968000,2.497968017578125,0.3071865737438202,0.5322170257568359,-1.3753490447998047
1772533203505902300,2.50790234375,0.4680367708206177,0.2926727831363678,-0.6756240725517273
1772533203515836000,2.5178359375,0.7247579097747803,0.05086487531661987,0.10292813926935196
1772533203525765600,2.527765625,0.863105058670044,0.09347419440746307,0.8601756691932678
1772533203535698700,2.53769873046875,0.90145343542099,0.2926727831363678,1.4810733795166016
1772533203545626400,2.54762646484375,0.9131709933280945,0.4587159752845764,1.8441846370697021
1772533203555559000,2.557558837890625,0.8758878707885742,0.43208515644073486,1.912359595298767
1772533203565491000,2.567490966796875,0.7524539828300476,0.1009308323264122,1.7408571243286133
1772533203575423500,2.577423583984375,0.6171693801879883,-0.49972742795944214,1.3862676620483398
1772533203585366300,2.5873662109375,0.6331478953361511,-1.0886681079864502,0.9176982641220093
1772533203595299800,2.5972998046875,0.7588453888893127,-1.4348689317703247,0.43088674545288086
1772533203605196500,2.607196533203125,0.9142362475395203,-1.4881305694580078,-0.03022598661482334
1772533203615126500,2.61712646484375,1.1262176036834717,-1.2218222618103027,-0.42422905564308167
1772533203625064400,2.627064453125,1.3563079833984375,-0.45605289936065674,-0.7491251230239868
1772533203634995200,2.6369951171875,1.488263726234436,0.48854249715805054,-1.130345344543457
1772533203644950500,2.646950439453125,1.4276785850524902,0.9242228269577026,-1.6138280630111694
1772533203654883600,2.656883544921875,1.1752183437347412,0.907179057598114,-2.058030128479004
1772533203664814800,2.66681494140625,0.8302159905433655,0.7356765866279602,-2.283726453781128
1772533203674748000,2.676747802734375,0.5010589957237244,0.5588479042053223,-2.246443271636963
1772533203684688100,2.686688232421875,0.22103585302829742,0.4512593448162079,-1.9887900352478027
1772533203694622000,2.6966220703125,-0.026098208501935005,0.4182371199131012,-1.573349118232727
1772533203704548900,2.706548828125,-0.26897132396698,0.42462852597236633,-1.1164973974227905
1772533203714482000,2.71648193359375,-0.5415378212928772,0.522629976272583,-0.723559558391571
1772533203724417800,2.726417724609375,-0.8387378454208374,0.8017209768295288,-0.4082505702972412
1772533203734351000,2.73635107421875,-1.0750864744186401,1.2596380710601807,-0.1250317245721817
1772533203744278000,2.746278076171875,-1.168826937675476,1.70796799659729,0.16471165418624878
1772533203754210800,2.7562109375,-1.0974563360214233,1.9668196439743042,0.47456130385398865
1772533203764139500,2.766139404296875,-0.8983908891677856,1.9263408184051514,0.8282186985015869
1772533203774071800,2.77607177734375,-0.641669750213623,1.5449873208999634,1.2147650718688965
1772533203784011500,2.786011474609375,-0.46164536476135254,0.883743941783905,1.5268783569335938
1772533203793944600,2.795944580078125,-0.40625324845314026,0.09666989743709564,1.6268771886825562
1772533203803860000,2.80585986328125,-0.4041227698326111,-0.7362091541290283,1.4917256832122803
1772533203813791200,2.815791259765625,-0.435014545917511,-1.5497808456420898,1.1817429065704346
1772533203823733200,2.825733154296875,-0.5031894445419312,-2.1238083839416504,0.8271534442901611
1772533203833665500,2.83566552734375,-0.5394073724746704,-2.163222074508667,0.5704323053359985
1772533203843597000,2.84559716796875,-0.4552539587020874,-1.4977176189422607,0.46390897035598755
1772533203853529300,2.855529296875,-0.20399212837219238,-0.06631075590848923,0.6204982399940491
1772533203863468300,2.86546826171875,0.0005326165119186044,1.5417916774749756,0.9889357089996338
1772533203873401000,2.875401123046875,0.054859500378370285,1.8411221504211426,1.216895580291748
1772533203883329300,2.885329345703125,0.10279498994350433,0.8762873411178589,1.0677629709243774
1772533203893261800,2.89526171875,0.09214265644550323,-0.15152940154075623,0.3605813682079315
1772533203903190300,2.905190185546875,-0.010119713842868805,-0.7244915962219238,-0.6500584483146667
1772533203913122300,2.915122314453125,0.08681648969650269,-1.3123670816421509,-1.4030450582504272
1772533203923055000,2.92505517578125,0.6011908650398254,-2.0195486545562744,-1.7011771202087402
1772533203932987100,2.934987060546875,1.3808083534240723,-2.354964017868042,-1.4902609586715698
1772533203942921200,2.944921142578125,2.047511100769043,-2.08772349357605,-0.639406144618988
1772533203952853800,2.954853759765625,2.1911842823028564,-1.701043963432312,0.43088674545288086
1772533203962763500,2.964763427734375,1.7492457628250122,-1.5625636577606201,1.2552440166473389
1772533203972693500,2.974693603515625,1.0729559659957886,-1.5689550638198853,1.7557703256607056
1772533203982662000,2.984661865234375,0.5404726266860962,-1.5220848321914673,2.0401875972747803
1772533203992596000,2.994595947265625,0.25712060928344727,-1.3411283493041992,2.1700127124786377
1772533204002524400,3.0045244140625,0.18588316440582275,-0.9874709844589233,2.133928060531616
1772533204012457700,3.014457763671875,0.31144750118255615,-0.37083426117897034,2.042318105697632
1772533204022384400,3.02438427734375,0.5671034455299377,0.4928034245967865,1.9943825006484985
1772533204032317200,3.034317138671875,0.7918676137924194,1.4417928457260132,1.9400556087493896
1772533204042242800,3.044242919921875,0.9440627694129944,2.4268672466278076,1.8473803997039795
1772533204052174800,3.0541748046875,1.0654993057250977,3.1532227993011475,1.6236814260482788
1772533204062108200,3.064108154296875,1.108108639717102,3.535508394241333,1.2179608345031738
1772533204072040400,3.07404052734375,1.0750864744186401,3.197962760925293,0.6822817325592041
1772533204081977600,3.0839775390625,1.023955225944519,2.237255573272705,0.19773387908935547
1772533204091910400,3.093910400390625,0.9760197401046753,1.213832974433899,0.03049229457974434
1772533204101839600,3.103839599609375,0.8971925377845764,0.4278241991996765,0.22329947352409363
1772533204111772000,3.11377197265625,0.7790848016738892,-0.017310036346316338,0.6119763851165771
1772533204121705500,3.12370556640625,0.688539981842041,-0.16218173503875732,0.9772181510925293
1772533204131637800,3.1336376953125,0.5628424882888794,0.026364516466856003,1.148720622062683
1772533204141566500,3.14356640625,0.39453569054603577,0.3330184817314148,1.058175802230835
1772533204151498500,3.15349853515625,0.27736005187034607,0.5247604250907898,0.6801512837409973
1772533204161444000,3.163444091796875,0.2146444469690323,0.5950657725334167,0.11464570462703705
1772533204171377400,3.17337744140625,0.17842653393745422,0.5705654621124268,-0.4977301359176636
1772533204181299200,3.18329931640625,0.14220860600471497,0.3564535975456238,-1.0504529476165771
1772533204191231500,3.1932314453125,0.07190322875976562,0.08601756393909454,-1.429675817489624
1772533204201174000,3.203174072265625,-0.09214265644550323,-0.023701434955000877,-1.4881305694580078
1772533204211107300,3.213107421875,-0.33714625239372253,0.03169068321585655,-1.2251511812210083
1772533204221033700,3.22303369140625,-0.5830819010734558,0.09240896254777908,-0.8439308404922485
1772533204230966300,3.23296630859375,-0.749258279800415,0.08388710021972656,-0.5573831796646118
1772533204240891000,3.242890869140625,-0.8014547228813171,0.03382114693522453,-0.5009258389472961
1772533204250822700,3.25282275390625,-0.7279536128044128,-0.0077229393646121025,-0.6372756361961365
1772533204260757200,3.26275732421875,-0.5596467852592468,0.017842652276158333,-0.7608426809310913
1772533204270689300,3.272689208984375,-0.3806876540184021,0.027429750189185143,-0.8077129125595093
1772533204280622300,3.282622314453125,-0.3328853249549866,-0.0002663082559593022,-0.7800168991088867
1772533204290554400,3.292554443359375,-0.4435364007949829,0.04660394415259361,-0.6607108116149902
1772533204300474000,3.30247412109375,-0.5585815906524658,-0.018375270068645477,-0.4870778024196625
1772533204310405000,3.312405029296875,-0.5692338943481445,-0.2708354890346527,-0.30918389558792114
1772533204320350000,3.322349853515625,-0.4786891043186188,-0.5178363919258118,-0.1367492824792862
1772533204330282200,3.3322822265625,-0.28388461470603943,-0.6520557403564453,0.13381989300251007
1772533204340217300,3.34221728515625,-0.051663801074028015,-0.5284887552261353,0.5533885359764099
1772533204350150000,3.35214990234375,0.13049104809761047,-0.1962691843509674,1.0123708248138428
1772533204360072000,3.362072021484375,0.25818586349487305,-0.2292914092540741,1.3734848499298096
1772533204370003500,3.37200341796875,0.2528596818447113,-0.9491226077079773,1.5183565616607666
1772533204379947500,3.381947509765625,0.0026630824431777,-1.9790698289871216,1.378811001777649
1772533204389880300,3.39188037109375,-0.40518802404403687,-2.64896821975708,0.9230244159698486
1772533204399815400,3.4018154296875,-0.7620410919189453,-2.5850541591644287,0.1732335239648819
1772533204409748500,3.41174853515625,-0.8866733312606812,-1.7937192916870117,-0.6916025280952454
1772533204419656200,3.42165625,-0.6928009390830994,-0.2888112962245941,-1.2166292667388916
1772533204429586700,3.431586669921875,-0.21997061371803284,1.7889257669448853,-0.9396686553955078
1772533204439517000,3.441516845703125,0.222101092338562,3.0733304023742676,-0.03022598661482334
1772533204449447400,3.451447509765625,0.32103461027145386,2.2734735012054443,0.6407376527786255
1772533204459385900,3.4613857421875,-0.08788172155618668,-0.12383333593606949,0.40958210825920105
1772533204469317000,3.471317138671875,-0.6619091629981995,-2.7425756454467773,-0.5307523608207703
1772533204479255000,3.481255126953125,-0.8408682942390442,-4.432834148406982,-1.4520457983016968
1772533204489186800,3.491186767578125,-0.40731847286224365,-4.890750885009766,-1.8449835777282715
1772533204499157500,3.501157470703125,0.4009270668029785,-4.301810264587402,-1.5392616987228394
1772533204509093400,3.51109326171875,1.152848482131958,-3.376255989074707,-0.7022548913955688
1772533204519011000,3.521010986328125,1.6853318214416504,-2.615946054458618,0.41171255707740784
1772533204528945000,3.53094482421875,1.8781390190124512,-2.1983747482299805,1.5746806859970093
1772533204538843100,3.540843017578125,1.588395595550537,-2.3017022609710693,2.528996467590332
1772533204548773400,3.5507734375,0.8908011317253113,-2.762814998626709,3.161611557006836
1772533204558708700,3.560708740234375,0.09320788830518723,-3.1111462116241455,3.4650697708129883
1772533204568639500,3.570639404296875,-0.4563191831111908,-3.0269927978515625,3.4075472354888916
1772533204578590700,3.5805908203125,-0.5820167064666748,-2.269745349884033,3.0508272647857666
1772533204588523800,3.590523681640625,-0.3382114768028259,-0.7894708514213562,2.5534965991973877
1772533204598436000,3.60043603515625,0.11451254785060883,1.0615047216415405,1.9315338134765625
1772533204608366800,3.610366943359375,0.5596467852592468,2.752828359603882,1.0837414264678955
1772533204618326300,3.620326171875,0.8270202875137329,3.4481592178344727,-0.05153064802289009
1772533204628260000,3.630260009765625,0.8705616593360901,3.1404402256011963,-1.16549813747406
1772533204638186500,3.6401865234375,0.8067808747291565,2.6271309852600098,-1.6702853441238403
1772533204648119600,3.65011962890625,0.7449973225593567,2.0520381927490234,-1.4733504056930542
1772533204658037200,3.660037353515625,0.6746919751167297,1.3608351945877075,-0.9428643584251404
1772533204667968800,3.66996875,0.47336292266845703,0.9327446818351746,-0.3688369393348694
1772533204677919200,3.679919189453125,0.24021004140377045,0.8027862310409546,0.08694964647293091
1772533204687852800,3.689852783203125,0.1496652364730835,0.7452636361122131,0.31597474217414856
1772533204697790000,3.6997900390625,0.20718781650066376,0.7069152593612671,0.270169734954834
1772533204707723500,3.7097236328125,0.3380783200263977,0.6760234832763672,-0.06963960826396942
1772533204717651700,3.719651611328125,0.34553495049476624,0.6387403607368469,-0.7544512748718262
1772533204727584800,3.729584716796875,0.26990342140197754,0.5641740560531616,-1.6638939380645752
1772533204737517000,3.73951708984375,0.36364391446113586,0.4949339032173157,-2.4733378887176514
1772533204747450000,3.7494501953125,0.5862776041030884,0.49812960624694824,-2.949363946914673
1772533204757372400,3.759372314453125,0.6917356848716736,0.6568493247032166,-3.0825181007385254
1772533204767304400,3.769304443359375,0.604386568069458,0.9114400148391724,-3.0122127532958984
1772533204777243100,3.7792431640625,0.3796224296092987,1.104114055633545,-2.859884262084961
1772533204787175700,3.78917578125,0.11131685227155685,1.1382014751434326,-2.681058406829834
1772533204797113300,3.79911328125,-0.12303441762924194,0.9347419738769531,-2.4775989055633545
1772533204807046400,3.80904638671875,-0.25831902027130127,0.4906729757785797,-2.2070295810699463
1772533204816972800,3.818972900390625,-0.2956021726131439,0.08175663650035858,-1.864157795906067
1772533204826905300,3.8289052734375,-0.264710396528244,-0.12063764035701752,-1.517957091331482
1772533204836834800,3.838834716796875,-0.19333979487419128,-0.10785484313964844,-1.3093045949935913
1772533204846767000,3.84876708984375,-0.058055199682712555,-0.0695064514875412,-1.327413558959961
1772533204856703200,3.858703125,0.19547025859355927,-0.21011722087860107,-1.5296746492385864
1772533204866635800,3.8686357421875,0.5276898145675659,-0.46670523285865784,-1.8598968982696533
1772533204876567800,3.87856787109375,0.7215622067451477,-1.1941262483596802,-2.372140884399414
1772533204886500400,3.888500244140625,0.5830819010734558,-2.66707706451416,-3.0079517364501953
1772533204896436200,3.898436279296875,0.21890538930892944,-4.025915145874023,-3.187976121902466
1772533204906369300,3.908369384765625,-0.17310036718845367,-4.5882248878479,-2.464816093444824
1772533204916297700,3.918297607421875,-0.5127765536308289,-3.9417617321014404,-1.0291482210159302
1772533204926230300,3.928230224609375,-0.8525858521461487,-1.7021092176437378,0.8378057479858398
1772533204936163800,3.938163818359375,-1.1123695373535156,0.8421998620033264,2.5875842571258545
1772533204946096400,3.948096435546875,-1.3435251712799072,2.4886505603790283,3.419264793395996
1772533204956034000,3.958033935546875,-1.4724183082580566,2.880523204803467,3.06787109375
1772533204965967000,3.967967041015625,-1.4319394826889038,2.114886999130249,1.7653573751449585
1772533204975887600,3.9778876953125,-1.2029143571853638,1.9796024560928345,0.5917369723320007
1772533204985819400,3.9878193359375,-0.6299521923065186,2.8826537132263184,0.5203663110733032
1772533205005688800,4.007688720703125,0.2752295732498169,2.280930280685425,1.142329216003418
1772533205025556700,4.027556640625,-0.3509942889213562,-1.6967830657958984,-1.938724160194397
1772533205035485200,4.037485107421875,-0.19333979487419128,-1.530606746673584,-3.0814528465270996
1772533205045417200,4.047417236328125,0.45205825567245483,-0.06524552404880524,-3.5510873794555664
1772533205055371300,4.057371337890625,1.1890664100646973,1.576944351196289,-3.383845806121826
1772533205065305600,4.0673056640625,1.568156123161316,2.522738218307495,-2.709686517715454
1772533205075215000,4.077215087890625,1.490394115447998,2.5120856761932373,-1.8268746137619019
1772533205085147000,4.08714697265625,1.1581746339797974,1.8336654901504517,-0.8045172691345215
1772533205095080000,4.097079833984375,0.7045184969902039,0.8400694131851196,0.2680392563343048
1772533205105011700,4.10701171875,0.2146444469690323,-0.006657706573605537,1.1508511304855347
1772533205114970600,4.116970703125,-0.11025162041187286,-0.319703072309494,1.6567037105560303
1772533205124905200,4.1269052734375,-0.08255556225776672,0.0050598569214344025,1.7738792896270752
1772533205134807600,4.1368076171875,0.24433782696723938,0.9114400148391724,1.5364655256271362
1772533205144739000,4.146739013671875,0.6800181269645691,2.0435163974761963,0.9953271150588989
1772533205154668800,4.156668701171875,1.0420641899108887,3.005155563354492,0.33834463357925415
1772533205164600000,4.16660009765625,1.239132285118103,3.3641390800476074,-0.16977150738239288
1772533205174534000,4.176533935546875,1.2444584369659424,3.0136773586273193,-0.34220612049102783
1772533205184465700,4.186465576171875,1.0761516094207764,2.448171854019165,-0.16124965250492096
1772533205194398500,4.1963984375,0.8854749798774719,1.9849286079406738,0.25206077098846436
1772533205204330200,4.206330322265625,0.7471278309822083,1.6429888010025024,0.6364767551422119
1772533205214269400,4.21626953125,0.6075822710990906,1.4354015588760376,0.78241366147995
1772533205224202000,4.226201904296875,0.4957328140735626,1.2841384410858154,0.6716294288635254
1772533205234136800,4.23613671875,0.49040666222572327,1.1009182929992676,0.4053211510181427
1772533205244069400,4.2460693359375,0.589473307132721,0.9411333799362183,0.10612384229898453
1772533205253992000,4.255991943359375,0.7481930255889893,0.7857425212860107,-0.13994498550891876
1772533205263923700,4.265923828125,0.8961272835731506,0.5503259897232056,-0.3379451632499695
1772533205273872000,4.275871826171875,0.9568455815315247,0.2585853040218353,-0.4732297658920288
1772533205283805200,4.28580517578125,0.9291495084762573,-0.0023967742454260588,-0.5062519907951355
1772533205293701400,4.295701416015625,0.8408682942390442,-0.197334423661232,-0.4306204617023468
1772533205303631000,4.305631103515625,0.7535192370414734,-0.1877473145723343,-0.2635120153427124
1772533205313586700,4.315586669921875,0.7513887286186218,-0.0023967742454260588,-0.06218297779560089
1772533205323519000,4.32551904296875,0.772693395614624,0.15951864421367645,0.14553746581077576
1772533205333463600,4.335463623046875,0.6746919751167297,0.2383458912372589,0.36803799867630005
1772533205343396900,4.34539697265625,0.43927547335624695,0.18401899933815002,0.5661713480949402
1772533205353317400,4.3553173828125,0.1720351278781891,-0.021570969372987747,0.6886731386184692
1772533205363249700,4.365249755859375,-0.052729032933712006,-0.2623136341571808,0.735543429851532
1772533205373159200,4.3751591796875,-0.19866596162319183,-0.40172600746154785,0.7664351463317871
1772533205383089000,4.3850888671875,-0.26151469349861145,-0.35805144906044006,0.8399362564086914
1772533205393047300,4.39504736328125,-0.21677492558956146,-0.13555090129375458,0.949522078037262
1772533205402980000,4.40497998046875,-0.1166430190205574,0.1872147023677826,1.0496540069580078
1772533205412912000,4.414912109375,-0.044207170605659485,0.49706435203552246,1.1678948402404785
1772533205422844700,4.4248447265625,-0.036750540137290955,0.6280879974365234,1.4363335371017456
1772533205432769500,4.43476953125,-0.1496652364730835,0.5641740560531616,1.882533073425293
1772533205442701300,4.444701416015625,-0.40625324845314026,0.19999749958515167,2.331928253173828
1772533205452620000,4.4546201171875,-0.7375407218933105,-0.6200987696647644,2.625932455062866
1772533205462550800,4.46455078125,-1.0836082696914673,-1.9950482845306396,2.6813247203826904
1772533205472507000,4.4745068359375,-1.588395595550537,-3.6585428714752197,2.3212759494781494
1772533205482440000,4.48443994140625,-2.1700127124786377,-4.707530975341797,1.2254174947738647
1772533205492350000,4.494349853515625,-2.3403170108795166,-4.1888957023620605,-0.5392742156982422
1772533205502280700,4.50428076171875,-1.8120945692062378,-1.7266095876693726,-2.176137924194336
1772533205512240000,4.514240234375,-0.9802806973457336,2.0882561206817627,-2.601165771484375
1772533205522174000,4.524174072265625,-0.5159722566604614,5.087286472320557,-1.7128946781158447
1772533205532084000,4.534083984375,-0.4371449947357178,5.086221218109131,-0.5520570278167725
1772533205551965200,4.553965087890625,-0.7854762077331543,1.1680279970169067,0.6503247618675232
1772533205561900500,4.563900634765625,-0.31264588236808777,-0.07589785009622574,0.8633713722229004
1772533205571841500,4.573841552734375,0.2752295732498169,-0.6552514433860779,0.7302172183990479
1772533205581777400,4.58377734375,0.7034532427787781,-0.7724270820617676,0.42129966616630554
1772533205591702500,4.59370263671875,0.7428668737411499,-0.57748943567276,-0.09627043455839157
1772533205601637000,4.60363720703125,0.43927547335624695,-0.13022473454475403,-0.8959941267967224
1772533205611589400,4.61358935546875,0.0079892473295331,0.4704335331916809,-1.91741943359375
1772533205621525800,4.62352587890625,-0.3913399875164032,0.906113862991333,-2.958950996398926
1772533205631438000,4.63343798828125,-0.5947995185852051,0.9784165620803833,-3.665067434310913
1772533205641372200,4.6433720703125,-0.5223636627197266,0.7537854909896851,-3.7801125049591064
1772533205651271700,4.653271728515625,-0.3499290347099304,0.07962616533041,-3.4051504135131836
1772533205661202200,4.6632021484375,-0.13581721484661102,-1.0172975063323975,-2.652297019958496
1772533205671138300,4.67313818359375,0.055924732238054276,-1.8278067111968994,-1.5818710327148438
1772533205681069600,4.683069580078125,0.1262301206588745,-1.885329246520996,-0.3549889028072357
1772533205690997200,4.692997314453125,0.09214265644550323,-1.5828031301498413,0.7057169079780579
1772533205700928300,4.70292822265625,0.029293907806277275,-1.3102365732192993,1.3862676620483398
1772533205710863000,4.712863037109375,0.013315413147211075,-1.1046466827392578,1.7014434337615967
1772533205720794400,4.72279443359375,0.044207170605659485,-0.8065145611763,1.6524426937103271
1772533205730729500,4.7327294921875,0.0964035913348198,-0.3111811876296997,1.2254174947738647
1772533205740661200,4.7426611328125,0.10386022180318832,0.25752007961273193,0.5065183043479919
1772533205750595000,4.752594970703125,0.047402869910001755,0.606783390045166,-0.28681400418281555
1772533205760526800,4.76252685546875,0.038881003856658936,0.6653711795806885,-0.8800156116485596
1772533205770491400,4.772491455078125,0.15286093950271606,0.584413468837738,-1.1026493310928345
1772533205780426800,4.7824267578125,0.350861132144928,0.377758264541626,-1.0429962873458862
1772533205790330000,4.792330078125,0.6150389313697815,0.04127778112888336,-0.8524527549743652
1772533205800262100,4.80226220703125,0.9067795872688293,-0.35805144906044006,-0.6884068250656128
1772533205810214700,4.812214599609375,1.1635007858276367,-0.684012770652771,-0.6745588183403015
1772533205820148700,4.822148681640625,1.3147639036178589,-0.8842765688896179,-0.7810820937156677
1772533205830084400,4.83208447265625,1.2583065032958984,-0.911839485168457,-0.8938636779785156
1772533205840018400,4.842018310546875,0.9696283340454102,-0.7713618874549866,-0.9694951772689819
1772533205849959700,4.851959716796875,0.4999937415122986,-0.5210320949554443,-1.0493876934051514
1772533205859894800,4.861894775390625,0.018641578033566475,-0.21331290900707245,-1.06003999710083
1772533205869805300,4.871805419921875,-0.27216702699661255,0.06151720881462097,-0.8428656458854675
1772533205879737900,4.88173779296875,-0.32436347007751465,0.2404763549566269,-0.3997286856174469
1772533205889715200,4.891715087890625,-0.21570968627929688,0.3129121959209442,0.04007939249277115
1772533205899652400,4.90165234375,-0.09320788830518723,0.2500634491443634,0.17749445140361786
1772533205909532400,4.911532470703125,-0.10492545366287231,0.10838746279478073,-0.09840089827775955
1772533205919463700,4.921463623046875,-0.25831902027130127,-0.00133154122158885,-0.6106448173522949
1772533205929396000,4.93139599609375,-0.4201012849807739,0.09134373068809509,-1.0014522075653076
1772533205939327200,4.9413271484375,-0.39773139357566833,0.4299546778202057,-0.9705604314804077
1772533205949266200,4.95126611328125,-0.15712186694145203,0.845395565032959,-0.5499265193939209
1772533205959198500,4.961198486328125,0.2114487588405609,1.14139723777771,0.09760197252035141
1772533205969126100,4.971126220703125,0.5149070024490356,1.1147663593292236,0.8165011405944824
1772533205979058000,4.981057861328125,0.5031894445419312,0.6781539916992188,1.4778776168823242
1772533205988999700,4.990999755859375,0.09746882319450378,0.15845340490341187,2.0114262104034424
1772533205998932200,5.00093212890625,-0.4030575454235077,-0.1866820901632309,2.373472213745117
1772533206008832500,5.01083251953125,-0.6192998290061951,-0.41237834095954895,2.5321919918060303
1772533206018762000,5.020761962890625,-0.5372769236564636,-0.48587942123413086,2.392646551132202
1772533206028698600,5.03069873046875,-0.3817528784275055,-0.43261775374412537,1.8005101680755615
1772533206038628900,5.04062890625,-0.3595161437988281,-0.366573303937912,0.6567161679267883
1772533206048591600,5.050591552734375,-0.477623850107193,-0.17389929294586182,-0.7629731297492981
1772533206058525000,5.06052490234375,-0.5532553791999817,0.5343475341796875,-1.7246122360229492
1772533206068453000,5.070453125,-0.4999937415122986,1.5737485885620117,-1.8982452154159546
1772533206078386000,5.080385986328125,-0.2870802879333496,1.5875966548919678,-1.580805778503418
1772533206088319500,5.090319580078125,-0.022902509197592735,0.7910686731338501,-1.0248873233795166
1772533206098252500,5.10025244140625,0.021837277337908745,0.38947582244873047,-0.4007939398288727
1772533206108184600,5.1101845703125,0.020772043615579605,0.31930360198020935,0.27549588680267334
1772533206118117400,5.120117431640625,0.1262301206588745,-0.04713656008243561,0.9368724226951599
1772533206128046300,5.13004638671875,0.16564373672008514,-0.7063826322555542,1.3425930738449097
1772533206137979000,5.139978759765625,0.10386022180318832,-1.309171438217163,1.340462565422058
1772533206147918600,5.149918701171875,-0.01118494663387537,-1.5753464698791504,0.8942631483078003
1772533206157852000,5.159851806640625,-0.1699046641588211,-1.471086859703064,0.07949301600456238
1772533206177681400,5.179681396484375,-0.20399212837219238,-0.24313943088054657,-1.6670897006988525
1772533206187636700,5.18963671875,-0.1177082508802414,0.2607157826423645,-2.15696382522583
1772533206197569000,5.199569091796875,-0.020772043615579605,0.5354127287864685,-2.1931817531585693
1772533206207514000,5.20951416015625,0.1166430190205574,0.6888062953948975,-1.7746782302856445
1772533206217448000,5.219447998046875,0.18801362812519073,0.6131747364997864,-1.0483224391937256
1772533206227381000,5.229381103515625,0.09853405505418777,0.20212796330451965,-0.22303315997123718
1772533206237314600,5.239314453125,-0.0644465982913971,-0.3995955288410187,0.5352795720100403
1772533206247232300,5.249232177734375,-0.20718781650066376,-0.9874709844589233,1.1274160146713257
1772533206257164000,5.2591640625,-0.2860150635242462,-1.3411283493041992,1.5077041387557983
1772533206267103700,5.269103759765625,-0.24766667187213898,-1.265496850013733,1.6503123044967651
1772533206277036500,5.27903662109375,-0.09214265644550323,-0.9789491295814514,1.5587022304534912
1772533206286964000,5.2889638671875,0.07935985922813416,-0.8682980537414551,1.308505654335022
1772533206296896300,5.298896240234375,0.20079642534255981,-1.0684287548065186,1.0656324625015259
1772533206306839300,5.30883935546875,0.2975994646549225,-1.473217248916626,0.9750877022743225
1772533206316772600,5.318772705078125,0.25925108790397644,-1.97693932056427,0.964435338973999
1772533206326696000,5.328696044921875,-0.061250898987054825,-2.4327259063720703,0.9017197489738464
1772533206336628200,5.338628173828125,-0.6427350044250488,-2.4135518074035645,0.7270215153694153
1772533206346558000,5.348557861328125,-1.1805444955825806,-1.8384590148925781,0.4575175940990448
1772533206356490000,5.358489990234375,-1.3829387426376343,-1.0172975063323975,0.15618979930877686
1772533206366456000,5.3684560546875,-1.2849373817443848,-0.015179570764303207,-0.1559234857559204
1772533206376391700,5.3783916015625,-1.0505861043930054,0.9698946475982666,-0.40398961305618286
1772533206386299400,5.38829931640625,-0.8749557733535767,1.609966516494751,-0.47749069333076477
1772533206396232000,5.39823193359375,-0.8994561433792114,1.7590991258621216,-0.33901041746139526
1772533206406178600,5.408178466796875,-1.0623036623001099,1.4045097827911377,-0.07922670245170593
1772533206416113000,5.41811279296875,-1.2572412490844727,0.714371919631958,0.18601632118225098
1772533206425991700,5.42799169921875,-1.4170262813568115,0.1126483902335167,0.4074516296386719
1772533206435920100,5.437920166015625,-1.454309344291687,-0.0790935531258583,0.6141068339347839
1772533206445881900,5.4478818359375,-1.3403294086456299,0.07856093347072601,0.8473928570747375
1772533206455814000,5.45781396484375,-1.1816097497940063,0.3948020040988922,1.0911980867385864
1772533206465751800,5.467751708984375,-1.1091738939285278,0.6398055553436279,1.285070538520813
1772533206475684400,5.477684326171875,-1.1230219602584839,0.6387403607368469,1.369223952293396
1772533206485611500,5.487611572265625,-1.1358046531677246,0.3617797791957855,1.3053098917007446
1772533206495543600,5.49754345703125,-1.0868040323257446,-0.0023967742454260588,1.1082417964935303
1772533206505475800,5.507475830078125,-0.9484568238258362,-0.21331290900707245,0.867632269859314
1772533206515408000,5.517407958984375,-0.71197509765625,-0.19307348132133484,0.6684337258338928
1772533206525346300,5.52734619140625,-0.46058014035224915,-0.0077229393646121025,0.5704323053359985
1772533206535278800,5.53727880859375,-0.23807957768440247,0.2905423045158386,0.6183677911758423
1772533206545202700,5.54720263671875,-0.021837277337908745,0.6845453977584839,0.8335448503494263
1772533206555134500,5.557134521484375,0.22849248349666595,1.03593909740448,1.1210246086120605
1772533206565071000,5.567071044921875,0.35192635655403137,0.907179057598114,1.2744181156158447
1772533206575003400,5.57700341796875,0.2432725876569748,-0.10359390825033188,1.172155737876892
1772533206584948500,5.586948486328125,0.24021004140377045,-1.8288719654083252,0.8378057479858398
1772533206594882000,5.596882080078125,0.5617772936820984,-3.6031506061553955,-0.007856093347072601
1772533206604809500,5.6068095703125,1.0196943283081055,-4.431768894195557,-1.543522596359253
1772533206614742500,5.616742431640625,1.29132878780365,-2.9471004009246826,-2.8939719200134277
1772533206634608600,5.636608642578125,0.4850804805755615,4.420583724975586,-2.213421106338501
1772533206644534800,5.64653466796875,0.2954690158367157,5.319374084472656,-1.6734811067581177
1772533206654467000,5.656467041015625,0.37323102355003357,4.761325359344482,-1.4861332178115845
1772533206664396300,5.666396240234375,0.46058014035224915,3.9030137062072754,-1.382805585861206
1772533206674328000,5.676328125,0.627821683883667,2.63991379737854,-0.9620385766029358
1772533206684270300,5.686270263671875,0.8673660159111023,1.0945268869400024,-0.21451130509376526
1772533206694203100,5.696203125,1.1070433855056763,-0.17709499597549438,0.6194329857826233
1772533206704123000,5.706122802734375,1.2977200746536255,-0.8182321190834045,1.2722877264022827
1772533206714054700,5.7160546875,1.337133765220642,-0.7255568504333496,1.418224573135376
1772533206723992800,5.725992919921875,1.2103710174560547,-0.2516613006591797,0.987870454788208
1772533206733925000,5.735925048828125,0.9547150731086731,0.23515018820762634,0.15405932068824768
1772533206743853600,5.745853515625,0.5798861980438232,0.5812177658081055,-0.7832126021385193
1772533206753785600,5.75578564453125,0.14753477275371552,0.7463288903236389,-1.4786765575408936
1772533206763736800,5.76573681640625,-0.2125139832496643,0.6866758465766907,-1.741655945777893
1772533206773670700,5.775670654296875,-0.3307548463344574,0.5204994678497314,-1.500913381576538
1772533206783566300,5.78556640625,-0.2444709837436676,0.3639102280139923,-0.7374075651168823
1772533206793496300,5.795496337890625,-0.1581871062517166,0.05512581020593643,0.36590754985809326
1772533206803446000,5.805446044921875,-0.2231663167476654,-0.5838808417320251,1.471486210823059
1772533206813378000,5.8153779296875,-0.4456668794155121,-1.389063835144043,2.3308629989624023
1772533206823289000,5.8252890625,-0.672561526298523,-1.8991773128509521,2.8601505756378174
1772533206833219000,5.835218994140625,-0.7098446488380432,-1.687195897102356,3.029522657394409
1772533206843187500,5.8451875,-0.5287550687789917,-0.9278179407119751,2.8079543113708496
1772533206853121300,5.855121337890625,-0.2636451721191406,-0.15152940154075623,2.2520358562469482
1772533206863020000,5.86502001953125,-0.019706811755895615,0.35964930057525635,1.5268783569335938
1772533206872950300,5.8749501953125,0.1603175699710846,0.6632407307624817,0.7802832126617432
1772533206882888200,5.88488818359375,0.24753352999687195,0.7069152593612671,0.12103710323572159
1772533206892819500,5.8948193359375,0.23701435327529907,0.42462852597236633,-0.3975982367992401
1772533206902782500,5.904782470703125,0.16138280928134918,-0.005592473316937685,-0.7075810432434082
1772533206912716500,5.914716552734375,0.055924732238054276,-0.4592485725879669,-0.7874734997749329
1772533206922617000,5.9246171875,-0.08149032294750214,-0.9597749710083008,-0.724624752998352
1772533206932547800,5.9345478515625,-0.19760072231292725,-1.37947678565979,-0.6106448173522949
1772533206942513700,5.944513671875,-0.2252967804670334,-1.5593680143356323,-0.4434032440185547
1772533206952448000,5.954447998046875,-0.20079642534255981,-1.4487168788909912,-0.24433782696723938
1772533206962346800,5.9643466796875,-0.15392617881298065,-1.1451255083084106,-0.08668334037065506
1772533206972277500,5.974277587890625,-0.09214265644550323,-0.754318118095398,-0.08348763734102249
1772533206982210800,5.9842109375,-0.047402869910001755,-0.4070521593093872,-0.24753352999687195
1772533206992141800,5.994141845703125,-0.08149032294750214,-0.21970431506633759,-0.4497946500778198
1772533207002109000,6.00410888671875,-0.17842653393745422,-0.13661614060401917,-0.5339480638504028
1772533207012043500,6.01404345703125,-0.23062294721603394,-0.04607132822275162,-0.42635950446128845
1772533207021937700,6.023937744140625,-0.19760072231292725,0.03169068321585655,-0.1878804713487625
1772533207031868400,6.033868408203125,-0.11131685227155685,0.10838746279478073,0.04007939249277115
1772533207041838000,6.043838134765625,-0.030359141528606415,0.20425842702388763,0.1295589655637741
1772533207051772700,6.053772705078125,-0.010119713842868805,0.29586848616600037,0.07203638553619385
1772533207061664800,6.063664794921875,-0.031424373388290405,0.33940985798835754,-0.04833494871854782
1772533207071595000,6.073594970703125,-0.051663801074028015,0.30758604407310486,-0.12077079713344574
1772533207081554700,6.0835546875,-0.016511112451553345,0.24793298542499542,-0.02170412242412567
1772533207091488000,6.093488037109375,0.1070559173822403,0.16164910793304443,0.29573532938957214
1772533207101404000,6.10340380859375,0.24646829068660736,-0.07270215451717377,0.750456690788269
1772533207111335400,6.11333544921875,0.2252967804670334,-0.4816184937953949,1.2350045442581177
1772533207121279700,6.12327978515625,0.037815771996974945,-1.1025161743164062,1.7270090579986572
1772533207131212800,6.133212890625,-0.14753477275371552,-2.0142223834991455,2.139254331588745
1772533207141159400,6.143159423828125,-0.17736129462718964,-3.0280580520629883,2.201969861984253
1772533207151093500,6.153093505859375,0.013315413147211075,-3.606346368789673,1.5725502967834473
1772533207161023500,6.1630234375,0.3082517981529236,-3.2229957580566406,0.06457975506782532
1772533207170957300,6.172957275390625,0.496798038482666,-1.4668258428573608,-1.7288732528686523
1772533207180881000,6.182880859375,0.5255593657493591,1.386400818824768,-2.3455100059509277
1772533207190813700,6.192813720703125,0.4872109591960907,3.53124737739563,-1.1921288967132568
1772533207200747300,6.202747314453125,0.346600204706192,3.3778538703918457,0.205190509557724
1772533207210680000,6.21268017578125,0.11451254785060883,1.6887937784194946,0.6588466167449951
1772533207220607200,6.222607177734375,0.015445878729224205,0.48960772156715393,0.675890326499939
1772533207230539500,6.23253955078125,0.18588316440582275,0.4086500108242035,0.8122401833534241
1772533207240475600,6.2424755859375,0.5415378212928772,0.5173037648200989,0.949522078037262
1772533207250408200,6.252408203125,0.8302159905433655,0.28521615266799927,0.9134373068809509
1772533207260338200,6.262338134765625,0.9483237266540527,-0.10465914756059647,0.7259563207626343
1772533207270270500,6.2722705078125,0.9461932182312012,-0.40172600746154785,0.4063864052295685
1772533207280201200,6.282201171875,0.8259550333023071,-0.5178363919258118,-0.06005251035094261
1772533207290133500,6.292133544921875,0.5862776041030884,-0.30585503578186035,-0.6298190355300903
1772533207300049700,6.302049560546875,0.28801238536834717,0.22343263030052185,-1.2613691091537476
1772533207309980400,6.31198046875,0.027163442224264145,0.7441984415054321,-1.9025062322616577
1772533207319933200,6.32193310546875,0.0026630824431777,1.0785484313964844,-2.2336604595184326
1772533207329866000,6.331865966796875,0.15179570019245148,1.14139723777771,-2.0260732173919678
1772533207339795000,6.341794921875,0.2539249360561371,0.9826774597167969,-1.3551095724105835
1772533207349727500,6.3517275390625,0.22849248349666595,0.7452636361122131,-0.4540555775165558
1772533207359671600,6.361671630859375,0.0740336924791336,0.4075847864151001,0.4287562966346741
1772533207369605000,6.371605224609375,-0.13368675112724304,0.030625449493527412,1.123155117034912
1772533207379526100,6.381526123046875,-0.23914481699466705,-0.26763978600502014,1.5449873208999634
1772533207389458700,6.391458740234375,-0.16457849740982056,-0.3985303044319153,1.7270090579986572
1772533207399391000,6.401390869140625,0.055924732238054276,-0.3442034125328064,1.728074312210083
1772533207409323500,6.411323486328125,0.3071865737438202,-0.16324695944786072,1.5725502967834473
1772533207419252500,6.42125244140625,0.454188734292984,-0.020505735650658607,1.2605701684951782
1772533207429184500,6.4311845703125,0.4435364007949829,-0.031158065423369408,0.8356752991676331
1772533207439123500,6.44112353515625,0.3359478712081909,-0.09613727778196335,0.36910325288772583
1772533207449056300,6.45105615234375,0.16351327300071716,-0.14726845920085907,-0.08135717362165451
1772533207458960100,6.460960205078125,-0.07083799690008163,-0.32822492718696594,-0.5477960705757141
1772533207468889900,6.470889892578125,-0.24234052002429962,-0.6946650743484497,-0.9929303526878357
1772533207478848500,6.4808486328125,-0.26257994771003723,-1.2644315958023071,-1.161237120628357
1772533207488781300,6.49078125,-0.2146444469690323,-1.6765435934066772,-0.9215596914291382
1772533207498713300,6.50071337890625,-0.2146444469690323,-1.8991773128509521,-0.5243609547615051
1772533207508646000,6.51064599609375,-0.19866596162319183,-2.1037020683288574,-0.2315550297498703
1772533207518583000,6.5205830078125,-0.13368675112724304,-2.081332206726074,-0.14101022481918335
1772533207528516000,6.53051611328125,-0.019706811755895615,-1.8608289957046509,-0.28574874997138977
1772533207538444000,6.540444091796875,0.11983871459960938,-1.607303500175476,-0.6276885867118835
1772533207548376600,6.55037646484375,0.2635120153427124,-1.4199556112289429,-1.0174306631088257
1772533207558305800,6.560305908203125,0.3689700961112976,-1.302780032157898,-1.404110312461853
1772533207568238000,6.570238037109375,0.4009270668029785,-1.3613678216934204,-1.778939127922058
1772533207578179600,6.5801796875,0.37536147236824036,-1.440195083618164,-1.9898552894592285
1772533207588112600,6.590112548828125,0.3806876540184021,-1.2921276092529297,-1.9110280275344849
1772533207598053600,6.6000537109375,0.3380783200263977,-0.9171656370162964,-1.6713505983352661
1772533207607987500,6.609987548828125,0.20399212837219238,-0.33994248509407043,-1.4499152898788452
1772533207617906000,6.619906005859375,0.051663801074028015,0.3841496706008911,-1.3167611360549927
1772533207627838200,6.629838134765625,-0.09107742458581924,0.9837427139282227,-1.1953246593475342
1772533207637767400,6.639767333984375,-0.22849248349666595,1.2713556289672852,-0.9098421335220337
1772533207647699500,6.649699462890625,-0.2849498391151428,1.4364666938781738,-0.262446790933609
1772533207657609200,6.659609130859375,-0.28388461470603943,1.58440101146698,0.7344781756401062
1772533207667539000,6.6695390625,-0.2998631000518799,1.4673584699630737,1.6865302324295044
1772533207677499600,6.679499755859375,-0.32329821586608887,0.9986559748649597,2.1806652545928955
1772533207687432400,6.689432373046875,-0.41690558195114136,0.45445504784584045,2.0859925746917725
1772533207697372000,6.699371826171875,-0.5702991485595703,0.026364516466856003,1.4437901973724365
1772533207707305200,6.70930517578125,-0.6523220539093018,-0.06524552404880524,0.4905398190021515
1772533207717229600,6.7192294921875,-0.6523220539093018,0.49706435203552246,-0.39333727955818176
1772533207727162000,6.729162109375,-0.5671034455299377,1.9007751941680908,-0.5712311863899231
1772533207737091600,6.739091552734375,-0.310515433549881,3.774120569229126,0.31703996658325195
1772533207747024000,6.74902392578125,0.09959928691387177,4.537759304046631,1.301048994064331
1772533207756955400,6.758955322265625,0.40518802404403687,3.7517507076263428,1.502377986907959
1772533207766887700,6.7688876953125,0.38494858145713806,2.6228699684143066,1.2041127681732178
1772533207776821500,6.778821533203125,0.15925233066082,1.6270103454589844,0.7398043274879456
1772533207786754000,6.788754150390625,0.1294258087873459,0.8571131229400635,0.34353765845298767
1772533207796686800,6.798686767578125,0.3721657991409302,0.5865439176559448,0.15405932068824768
1772533207806619400,6.808619384765625,0.5585815906524658,0.7196980714797974,0.0347532257437706
1772533207816550000,6.8185498046875,0.5553858876228333,0.699458658695221,-0.1793586164712906
1772533207826482400,6.828482421875,0.5319507122039795,0.5918700695037842,-0.3773587942123413
1772533207836416500,6.83841650390625,0.5479292273521423,0.7505898475646973,-0.471099317073822
1772533207846348800,6.848348876953125,0.5149070024490356,1.063635230064392,-0.5520570278167725
1772533207856285000,6.858284912109375,0.4371449947357178,1.257507562637329,-0.6202319264411926
1772533207866217700,6.8682177734375,0.33488261699676514,1.1382014751434326,-0.5733616948127747
1772533207876149200,6.878149169921875,0.1805569976568222,0.6472622156143188,-0.37096738815307617
1772533207886082000,6.88808203125,-0.043141938745975494,-0.07270215451717377,-0.05472634732723236
1772533207896019000,6.89801904296875,-0.23168818652629852,-0.7884055972099304,0.37762510776519775
1772533207905952000,6.907951904296875,-0.3179720640182495,-1.3485850095748901,0.9612396359443665
1772533207915879000,6.91787890625,-0.3392767310142517,-1.5348676443099976,1.6098333597183228
1772533207925811500,6.9278115234375,-0.28175413608551025,-1.244192123413086,2.0678834915161133
1772533207935742700,6.93774267578125,-0.19333979487419128,-0.5806851387023926,2.1360585689544678
1772533207945675000,6.947675048828125,-0.1486000120639801,0.26497671008110046,1.8559021949768066
1772533207955603500,6.957603515625,-0.10172975063323975,0.9635032415390015,1.4342031478881836
1772533207965535500,6.967535400390625,-0.041011471301317215,1.1137011051177979,1.1306116580963135
1772533207975467300,6.97746728515625,-0.01438064593821764,0.8826786875724792,0.943263828754425
1772533207985399300,6.9873994140625,0.07190322875976562,0.3639102280139923,0.7153039574623108
1772533207995333000,6.9973330078125,0.12516488134860992,-0.515705943107605,0.43195199966430664
1772533208005265400,7.007265380859375,0.031424373388290405,-1.5338023900985718,0.19773387908935547
1772533208015180000,7.017179931640625,-0.07616416364908218,-2.297441244125366,0.08694964647293091
1772533208025110300,7.0271103515625,-0.0026630824431777,-2.5871846675872803,0.1615159511566162
1772533208035070500,7.037070556640625,0.1709699034690857,-2.060027599334717,0.2158428430557251
1772533208045003800,7.047003662109375,0.2656424939632416,-1.3038451671600342,0.05925358831882477
1772533208054938000,7.056938232421875,0.28801238536834717,-0.730883002281189,-0.22942456603050232
1772533208064871700,7.06687158203125,0.22103585302829742,-0.43474823236465454,-0.4316856861114502
1772533208074771200,7.076771240234375,0.033554840832948685,-0.43581345677375793,-0.4828168749809265
1772533208084701400,7.086701416015625,-0.14433906972408295,-0.6914693713188171,-0.3794892728328705
1772533208094637600,7.096637451171875,-0.16564373672008514,-0.9651011228561401,-0.03768261894583702
1772533208104568000,7.106568115234375,-0.021837277337908745,-1.0013190507888794,0.5406057834625244
1772533208114497000,7.1164970703125,0.21997061371803284,-0.7489919662475586,1.2073085308074951
1772533208124427500,7.126427490234375,0.4552539587020874,-0.20053011178970337,1.8164886236190796
1772533208134402000,7.136402099609375,0.7077142000198364,0.5971962809562683,2.308493137359619
1772533208144337200,7.146337158203125,0.9824111461639404,1.4673584699630737,2.608888864517212
1772533208154266000,7.15626611328125,1.017563819885254,2.015820264816284,2.599301815032959
1772533208164200400,7.166200439453125,0.6161041259765625,1.9497759342193604,2.1678824424743652
1772533208174118400,7.176118408203125,0.06870753318071365,1.2915949821472168,1.3468539714813232
1772533208184051200,7.18605126953125,-0.1486000120639801,0.39373674988746643,0.3616466224193573
1772533208193980200,7.195980224609375,0.13581721484661102,-0.1760297566652298,-0.4732297658920288
1772533208203912400,7.205912353515625,0.7247579097747803,-0.24526990950107574,-0.9545819163322449
1772533208213849000,7.21584912109375,1.313698649406433,-0.1643121987581253,-1.175085186958313
1772533208223782000,7.225781982421875,1.5873303413391113,-0.3750951886177063,-1.2858693599700928
1772533208233700000,7.2357001953125,1.344590425491333,-0.8704285621643066,-1.2677603960037231
1772533208243631400,7.24563134765625,0.6374087929725647,-1.1536474227905273,-1.2560428380966187
1772533208253577200,7.2555771484375,-0.16564373672008514,-1.0631026029586792,-1.5381964445114136
1772533208263510000,7.265510009765625,-0.6704310178756714,-0.5178363919258118,-2.015420913696289
1772533208273460000,7.2754599609375,-0.8025199174880981,0.7484593391418457,-1.9983772039413452
1772533208283394300,7.285394287109375,-0.7460625767707825,2.2489731311798096,-1.4861332178115845
1772533208293318700,7.295318603515625,-0.665104866027832,2.443910837173462,-1.429675817489624
1772533208303252200,7.305252197265625,-0.47016721963882446,1.1371362209320068,-1.7405908107757568
1772533208313172700,7.3151728515625,-0.28388461470603943,-0.020505735650658607,-1.7917219400405884
1772533208323104800,7.325104736328125,-0.22849248349666595,-0.43687868118286133,-1.5360660552978516
1772533208333048600,7.335048583984375,-0.2018616646528244,-0.6296858787536621,-1.2176945209503174
1772533208342982000,7.34498193359375,-0.15179570019245148,-0.48800987005233765,-0.9641690254211426
1772533208352900000,7.354900146484375,-0.14646953344345093,-0.030092833563685417,-0.7736254930496216
1772533208362832000,7.364831787109375,-0.2231663167476654,0.3649754524230957,-0.6095796227455139
1772533208372778500,7.374778564453125,-0.3073197305202484,0.5726959109306335,-0.4732297658920288
1772533208382711800,7.3847119140625,-0.3721657991409302,0.5865439176559448,-0.37309786677360535
1772533208392629000,7.39462890625,-0.45951488614082336,0.5055862069129944,-0.2942706346511841
1772533208402560800,7.404560791015625,-0.5937342643737793,0.6419360637664795,-0.21557652950286865
1772533208412494600,7.41449462890625,-0.7908023595809937,0.989068865776062,-0.1676410436630249
1772533208422426600,7.424426513671875,-1.0591078996658325,1.3097039461135864,-0.21877223253250122
1772533208432369400,7.434369384765625,-1.2955896854400635,1.5833357572555542,-0.26670771837234497
1772533208442302200,7.44430224609375,-1.405308723449707,1.8272740840911865,-0.16338011622428894
1772533208452221700,7.4542216796875,-1.3786778450012207,1.9859938621520996,0.14340700209140778
1772533208462153200,7.4641533203125,-1.2817416191101074,1.915688395500183,0.568301796913147
1772533208472091100,7.474091064453125,-1.1890664100646973,1.5588353872299194,0.9931966662406921
1772533208482023400,7.4840234375,-1.1283481121063232,1.0700265169143677,1.3681586980819702
1772533208491964200,7.493964111328125,-1.0665645599365234,0.6280879974365234,1.646051287651062
1772533208501897200,7.503897216796875,-0.94100022315979,0.27562904357910156,1.8164886236190796
1772533208511830800,7.513830810546875,-0.7439321279525757,-0.04287562891840935,1.9134248495101929
1772533208521763800,7.523763916015625,-0.4999937415122986,-0.30798548460006714,1.896381139755249
1772533208531685400,7.533685302734375,-0.23062294721603394,-0.5465977191925049,1.697182536125183
1772533208541617400,7.543617431640625,-0.042076703161001205,-0.8086450099945068,1.3234188556671143
1772533208551548000,7.5535478515625,0.029293907806277275,-1.1706911325454712,0.8953283429145813
1772533208561479700,7.563479736328125,0.018641578033566475,-1.5242153406143188,0.5129097104072571
1772533208571416800,7.573416748046875,-0.022902509197592735,-1.7266095876693726,0.205190509557724
1772533208581349000,7.58334912109375,-0.0846860259771347,-1.7415227890014648,-0.04726971685886383
1772533208591280600,7.59328076171875,-0.18801362812519073,-1.5529766082763672,-0.2942706346511841
1772533208601213000,7.603212890625,-0.3115806579589844,-1.2452573776245117,-0.5616441369056702
1772533208611144400,7.61314453125,-0.4467321038246155,-0.9416660070419312,-0.817300021648407
1772533208621076700,7.62307666015625,-0.4360797703266144,-0.70744788646698,-0.9822779893875122
1772533208631006700,7.6330068359375,-0.2338186502456665,-0.5274235010147095,-1.0195611715316772
1772533208640938800,7.642938720703125,-0.035685304552316666,-0.43581345677375793,-0.9865389466285706
1772533208650872000,7.6528720703125,0.052729032933712006,-0.47416186332702637,-0.9311468005180359
1772533208660804000,7.66280419921875,0.031424373388290405,-0.4304873049259186,-0.9087769389152527
1772533208670745300,7.672745361328125,-0.034620072692632675,-0.21970431506633759,-0.9354077577590942
1772533208680678400,7.682678466796875,-0.06551183015108109,0.026364516466856003,-1.0280829668045044
1772533208690580500,7.69258056640625,-0.006924014538526535,0.21171505749225616,-1.182541847229004
1772533208700510500,7.702510498046875,0.14433906972408295,0.3564535975456238,-1.327413558959961
1772533208710479000,7.71247900390625,0.30186042189598083,0.3033251166343689,-1.3678923845291138
1772533208720413000,7.722412841796875,0.39453569054603577,-0.07057169079780579,-1.243260145187378
1772533208730336500,7.73233642578125,0.4094489514827728,-0.5519238710403442,-1.0035827159881592
1772533208740269300,7.742269287109375,0.4030575454235077,-0.9139699339866638,-0.7459294199943542
1772533208750202600,7.75220263671875,0.4232969582080841,-1.097190022468567,-0.5382089614868164
1772533208760135400,7.762135498046875,0.4264926612377167,-1.1387341022491455,-0.4125114977359772
1772533208770061600,7.7720615234375,0.3593829870223999,-1.1919957399368286,-0.3145100474357605
1772533208779993900,7.781993896484375,0.20718781650066376,-1.4199556112289429,-0.2825530469417572
1772533208789961700,7.791961669921875,-0.039946239441633224,-1.8576332330703735,-0.4625774323940277
1772533208799897900,7.80189794921875,-0.22636201977729797,-2.383725166320801,-0.8535179495811462
1772533208809799000,7.811798828125,-0.14540430903434753,-2.6830556392669678,-1.3721532821655273
1772533208819731500,7.8217314453125,0.13368675112724304,-2.335789680480957,-1.880136251449585
1772533208829640400,7.831640380859375,0.3274259865283966,-1.3315412998199463,-2.089987277984619
1772533208839570700,7.84157080078125,0.16670896112918854,0.024234050884842873,-2.06655216217041
1772533208849525000,7.85152490234375,-0.1720351278781891,1.1158316135406494,-2.1463112831115723
1772533208859457500,7.86145751953125,-0.27110180258750916,1.5003807544708252,-2.199573040008545
1772533208869383400,7.871383544921875,-0.16457849740982056,1.623814582824707,-1.9728115797042847
1772533208879315200,7.881315185546875,-0.043141938745975494,1.7335336208343506,-1.5147613286972046
1772533208889248500,7.89124853515625,0.2730991244316101,1.4907935857772827,-0.7523208260536194
1772533208899180500,7.9011806640625,0.7418016195297241,0.8613740801811218,0.3818860352039337
1772533208909118500,7.911118408203125,0.8929315805435181,0.20958459377288818,1.6918563842773438
1772533208919051000,7.921051025390625,0.7386059761047363,-0.3101159632205963,2.5886495113372803
1772533208928983600,7.930983642578125,0.6565830111503601,-0.6563166975975037,2.710085868835449
1772533208938916000,7.940916015625,0.6320826411247253,-0.5316844582557678,2.2786664962768555
1772533208948820500,7.950820556640625,0.5255593657493591,0.1318225860595703,1.636464238166809
1772533208958750200,7.960750244140625,0.3274259865283966,1.0242215394973755,1.0368711948394775
1772533208968705000,7.970705078125,0.07722939550876617,1.768686294555664,0.6428681015968323
1772533208978637000,7.980636962890625,-0.17842653393745422,2.163754463195801,0.47349607944488525
1772533208988575000,7.990574951171875,-0.37642672657966614,2.2212772369384766,0.43088674545288086
1772533208998507800,8.0005078125,-0.44992780685424805,1.9817328453063965,0.46177852153778076
1772533209008415500,8.01041552734375,-0.36803799867630005,1.5503134727478027,0.6311505436897278
1772533209018345700,8.020345703125,-0.18907886743545532,1.1030488014221191,0.9782834053039551
1772533209028280300,8.0302802734375,-0.030359141528606415,0.7282199263572693,1.4107680320739746
1772533209038210800,8.0402109375,0.058055199682712555,0.47895538806915283,1.7877273559570312
1772533209048173000,8.050173095703125,0.08681648969650269,0.4416722357273102,2.031665802001953
1772533209058107000,8.06010693359375,0.10812114924192429,0.6227618455886841,2.149906635284424
1772533209068036400,8.070036376953125,0.18268746137619019,0.8933310508728027,2.1413846015930176
1772533209077969700,8.0799697265625,0.2720338702201843,1.0604394674301147,1.9698821306228638
1772533209087898000,8.089898193359375,0.36470916867256165,0.9922645688056946,1.669486403465271
1772533209097831000,8.099830810546875,0.4659062922000885,0.6387403607368469,1.314897060394287
1772533209107766300,8.109766357421876,0.5159722566604614,0.11371362209320068,0.9251548647880554
1772533209117699300,8.11969921875,0.4978632926940918,-0.3527252972126007,0.5203663110733032
1772533209127621400,8.129621337890624,0.47229769825935364,-0.5785546898841858,0.15832026302814484
1772533209137553400,8.139553466796874,0.40731847286224365,-0.6169030666351318,-0.19320663809776306
1772533209147497000,8.1494970703125,0.24540305137634277,-0.615837812423706,-0.6074491143226624
1772533209157430300,8.15943017578125,0.07083799690008163,-0.5103797912597656,-1.0451267957687378
1772533209167359500,8.169359375,-0.023967742919921875,-0.25698745250701904,-1.4243496656417847
1772533209177292300,8.179292236328125,-0.035685304552316666,0.0476691760122776,-1.711829423904419
1772533209187203000,8.189203125,0.006924014538526535,0.2500634491443634,-1.8353965282440186
1772533209197133600,8.199133544921875,0.037815771996974945,0.2596505582332611,-1.7800043821334839
1772533209207068400,8.209068359375,0.018641578033566475,0.19893226027488708,-1.587197184562683
1772533209216999400,8.21899951171875,0.0079892473295331,0.20958459377288818,-1.2549777030944824
1772533209226930000,8.228929931640625,0.06870753318071365,0.14034445583820343,-0.8002563118934631
1772533209236861000,8.23886083984375,0.13688243925571442,-0.13448566198349,-0.3571193814277649
1772533209256727300,8.258727294921876,0.09746882319450378,-0.7969274520874023,0.14873315393924713
1772533209266656000,8.268656005859375,0.01438064593821764,-0.8406019806861877,0.08055824786424637
1772533209276587300,8.278587158203125,-0.0740336924791336,-0.5327496528625488,-0.2613815665245056
1772533209286530800,8.28853076171875,-0.09746882319450378,0.05619104206562042,-0.7363423109054565
1772533209296463400,8.29846337890625,-0.033554840832948685,0.6653711795806885,-1.0685619115829468
1772533209306395000,8.308394775390624,0.056989967823028564,1.1115707159042358,-1.0579094886779785
1772533209316327000,8.318326904296875,0.025032976642251015,1.143527626991272,-0.6756240725517273
1772533209326257700,8.328257568359374,-0.2540580630302429,0.5151733160018921,0.01770949922502041
1772533209336189700,8.338189697265625,-0.6171693801879883,-0.6776213645935059,0.774957001209259
1772533209346120400,8.348120361328125,-0.7908023595809937,-1.8267414569854736,1.1050461530685425
1772533209356052500,8.358052490234375,-0.6619091629981995,-2.260158061981201,0.5533885359764099
1772533209366019800,8.368019775390625,-0.29240646958351135,-1.7053048610687256,-1.0035827159881592
1772533209375955500,8.37795556640625,0.1272953450679779,-0.1227681040763855,-2.6309924125671387
1772533209385878300,8.387878173828126,0.4446016252040863,1.8592311143875122,-2.7927746772766113
1772533209395812600,8.3978125,0.4765586256980896,2.5451080799102783,-1.6351326704025269
1772533209405748000,8.407748046875,0.3039908707141876,1.487597942352295,-0.6117100715637207
1772533209415682300,8.417682373046874,0.20612259209156036,-0.018375270068645477,-0.18361954391002655
1772533209425575400,8.427575439453125,0.30079516768455505,-0.646729588508606,-0.0014646954368799925
1772533209435505700,8.437505615234375,0.6746919751167297,-0.2410089671611786,0.21903854608535767
1772533209445467000,8.447466796875,1.1464570760726929,0.23621542751789093,0.6854774355888367
1772533209455400200,8.457400146484375,1.3328728675842285,0.14567062258720398,1.361767292022705
1772533209465318400,8.467318359375,1.2828068733215332,-0.2708354890346527,1.9208815097808838
1772533209475250200,8.477250244140626,1.2455236911773682,-0.6776213645935059,2.1424498558044434
1772533209485197300,8.487197265625,1.1911967992782593,-0.9842753410339355,2.0401875972747803
1772533209495130600,8.497130615234376,1.0271509885787964,-1.082276701927185,1.7579008340835571
1772533209505062000,8.507061767578126,0.8003894686698914,-0.9097089767456055,1.394789457321167
1772533209514995000,8.516994873046874,0.5937342643737793,-0.6286206245422363,0.943263828754425
1772533209524926000,8.526926025390624,0.4531235098838806,-0.3559209704399109,0.46497422456741333
1772533209534858800,8.536858642578125,0.40838369727134705,-0.13128997385501862,0.13808083534240723
1772533209544790300,8.546790283203125,0.4041227698326111,0.0018641578499227762,0.04647079110145569
1772533209554723000,8.55672314453125,0.38388335704803467,0.06471290439367294,0.15832026302814484
1772533209564747300,8.566747314453124,0.3572525382041931,0.1339530497789383,0.45006096363067627
1772533209574689300,8.576689208984375,0.32209983468055725,0.22130216658115387,0.8090444803237915
1772533209584521000,8.58652099609375,0.305056095123291,0.2830856740474701,1.0911980867385864
1772533209594451700,8.59645166015625,0.3252955377101898,0.3139774203300476,1.2371350526809692
1772533209604388600,8.606388671875,0.3476654291152954,0.3118469715118408,1.2424612045288086
1772533209614319900,8.61631982421875,0.3167736828327179,0.24154159426689148,1.1135679483413696
1772533209624255500,8.62625537109375,0.2517944574356079,0.07536523789167404,0.8644366264343262
1772533209634187300,8.636187255859374,0.19973118603229523,-0.16005125641822815,0.5267577171325684
1772533209644124700,8.646124755859375,0.15179570019245148,-0.4283568263053894,0.09973244369029999
1772533209654057200,8.65605712890625,0.11131685227155685,-0.6094464659690857,-0.3880111277103424
1772533209663980000,8.66597998046875,0.08894696086645126,-0.5828156471252441,-0.8769530653953552
1772533209673911600,8.67591162109375,0.07296846061944962,-0.42196542024612427,-1.3178263902664185
1772533209683821800,8.68582177734375,0.044207170605659485,-0.2697702646255493,-1.6692200899124146
1772533209693751300,8.695751220703125,-0.010119713842868805,-0.2069215178489685,-1.8875929117202759
1772533209703704300,8.705704345703126,-0.029293907806277275,-0.2591179311275482,-1.8833320140838623
1772533209713636000,8.715635986328126,-0.056989967823028564,-0.4954665005207062,-1.602110505104065
1772533209723579600,8.72557958984375,-0.22103585302829742,-1.0162322521209717,-1.1473891735076904
1772533209733512400,8.735512451171875,-0.5063851475715637,-1.6669565439224243,-0.7171681523323059
1772533209743432700,8.7454326171875,-0.7396711707115173,-2.0472447872161865,-0.36138030886650085
1772533209753364200,8.7553642578125,-0.9005213379859924,-1.9343299865722656,-0.07922670245170593
1772533209763304700,8.7653046875,-0.9431306719779968,-1.433803677558899,0.05392742156982422
1772533209773237000,8.775237060546875,-0.781215250492096,-0.7351439595222473,0.02410089783370495
1772533209783165000,8.7851650390625,-0.5244941115379333,-0.12915951013565063,-0.1569887101650238
1772533209793097000,8.795096923828124,-0.33608102798461914,0.12330072373151779,-0.3592498302459717
1772533209803032800,8.80503271484375,-0.3083849549293518,0.21171505749225616,-0.40612009167671204
1772533209812965400,8.81496533203125,-0.45951488614082336,0.331953227519989,-0.2910749316215515
1772533209822876700,8.824876708984375,-0.641669750213623,0.38947582244873047,-0.10692276805639267
1772533209832807000,8.834806884765625,-0.7151708006858826,0.2809551954269409,0.05818835273385048
1772533209842759400,8.844759521484375,-0.7098446488380432,0.1126483902335167,0.2360822707414627
1772533209852692000,8.85469189453125,-0.7151708006858826,-0.020505735650658607,0.5342143774032593
1772533209862631400,8.86463134765625,-0.7087793946266174,-0.13555090129375458,0.9304810166358948
1772533209872564500,8.874564453125,-0.6576482653617859,-0.2825530469417572,1.230743646621704
1772533209882490400,8.884490478515625,-0.5852124094963074,-0.5977289080619812,1.24991774559021
1772533209892423000,8.8944228515625,-0.5287550687789917,-1.1206251382827759,0.9347419738769531
1772533209902359600,8.904359619140624,-0.43927547335624695,-1.8139586448669434,0.3351489305496216
1772533209912292400,8.914292236328125,-0.22103585302829742,-2.5690758228302,-0.5584484338760376
1772533209922221600,8.9242216796875,0.1283605843782425,-2.921534776687622,-1.7033076286315918
1772533209932154000,8.934154052734375,0.3615134656429291,-2.2015702724456787,-2.5670783519744873
1772533209942085600,8.944085693359375,0.14007814228534698,-0.5657718777656555,-2.3412489891052246
1772533209952018200,8.95401806640625,-0.641669750213623,0.7420679330825806,-1.5509792566299438
1772533209961958400,8.96395849609375,-1.4372656345367432,1.0231562852859497,-1.275217056274414
1772533209971891500,8.973891357421875,-1.6853318214416504,1.1286144256591797,-1.5467183589935303
1772533209981793000,8.98379296875,-1.5203537940979004,1.7889257669448853,-1.8524402379989624
1772533209991723000,8.993722900390624,-0.9930635094642639,2.4556283950805664,-1.778939127922058
1772533210001688600,9.0036884765625,-0.26897132396698,2.4684112071990967,-1.1228888034820557
1772533210011622100,9.0136220703125,0.3189041316509247,1.9061013460159302,0.04114462435245514
1772533210021544000,9.0235439453125,0.5777557492256165,1.1552451848983765,1.2147650718688965
1772533210031476500,9.0334765625,0.604386568069458,0.6983934044837952,1.8601632118225098
1772533210041410000,9.04341015625,0.6928009390830994,0.481085866689682,1.7802706956863403
1772533210051342600,9.053342529296875,0.9099752902984619,0.4267589747905731,1.1295465230941772
1772533210061277000,9.06327685546875,1.0431294441223145,0.5663045048713684,0.24993029236793518
1772533210071209500,9.07320947265625,0.8684312105178833,0.8581783771514893,-0.532882809638977
1772533210081137400,9.083137451171876,0.44992780685424805,1.2852036952972412,-1.0802794694900513
1772533210091069400,9.0930693359375,0.038881003856658936,1.5716181993484497,-1.4126321077346802
1772533210101001700,9.103001708984374,-0.17842653393745422,1.5014458894729614,-1.4626981019973755
1772533210110934000,9.11293408203125,-0.13049104809761047,1.2362029552459717,-1.020626425743103
1772533210120874500,9.12287451171875,0.013315413147211075,0.9411333799362183,-0.11650986224412918
1772533210130807600,9.1328076171875,0.07722939550876617,0.5822830200195312,0.8921326398849487
1772533210140747000,9.1427470703125,0.028228675946593285,0.04127778112888336,1.7238132953643799
1772533210150680600,9.1526806640625,-0.00905448105186224,-0.5955983996391296,2.3063626289367676
1772533210160570600,9.162570556640626,0.06657706201076508,-1.0449936389923096,2.557757616043091
1772533210170500000,9.1725,0.16564373672008514,-1.142994999885559,2.50130033493042
1772533210180459000,9.182458984375,0.137947678565979,-0.852319598197937,2.2914493083953857
1772533210190391300,9.192391357421876,-0.018641578033566475,-0.5284887552261353,2.026339530944824
1772533210200327700,9.20232763671875,-0.2902759909629822,-0.5593804717063904,1.6918563842773438
1772533210210260500,9.212260498046875,-0.7141056060791016,-0.912904679775238,1.2328740358352661
1772533210220166400,9.22216650390625,-1.0090420246124268,-0.9672315716743469,1.0123708248138428
1772533210230096400,9.232096435546875,-1.0090420246124268,-0.9640358686447144,0.9527177810668945
1772533210240060400,9.242060302734375,-0.7386059761047363,-1.056711196899414,0.7951964735984802
1772533210249994000,9.251993896484375,-0.40625324845314026,-0.6531209945678711,0.6769555807113647
1772533210259894300,9.261894287109374,-0.023967742919921875,-0.36870378255844116,0.4276910722255707
1772533210269824500,9.271824462890624,0.33488261699676514,-0.43368300795555115,0.08268871158361435
1772533210279785000,9.281784912109375,0.5138418078422546,-0.4901403486728668,-0.04940018057823181
1772533210289718300,9.29171826171875,0.5010589957237244,-0.3111811876296997,0.06031882017850876
1772533210299594800,9.3015947265625,0.4531235098838806,0.08175663650035858,0.2264951765537262
1772533210309522200,9.311522216796876,0.5042546987533569,0.606783390045166,0.33834463357925415
1772533210319518000,9.32151806640625,0.6203650832176208,1.11050546169281,0.31703996658325195
1772533210329452300,9.331452392578125,0.5724295973777771,1.7612296342849731,0.14340700209140778
1772533210339383600,9.341383544921875,0.47975432872772217,2.4609546661376953,-0.02063889056444168
1772533210349317600,9.351317626953126,0.5532553791999817,3.03924298286438,-0.10905323177576065
1772533210359255800,9.361255859375,0.71197509765625,3.442833185195923,-0.09094426780939102
1772533210369190400,9.3711904296875,0.7897371053695679,3.5610740184783936,0.04753602296113968
1772533210379089400,9.38108935546875,0.8408682942390442,3.4620072841644287,0.2680392563343048
1772533210389020400,9.3910205078125,1.0346075296401978,3.1574838161468506,0.5661713480949402
1772533210398956000,9.4009560546875,1.3094377517700195,2.671870708465576,0.928350567817688
1772533210408887600,9.410887451171876,1.4031782150268555,2.350170373916626,1.2595049142837524
1772533210418821600,9.420821533203124,1.239132285118103,2.044581651687622,1.2552440166473389
1772533210428753400,9.43075341796875,0.9334104657173157,0.03169068321585655,0.559779942035675
1772533210438690000,9.44068994140625,0.688539981842041,-2.8480336666107178,-0.12183602899312973
1772533210448622000,9.4506220703125,0.4158403277397156,-4.409399032592773,0.1529940962791443
1772533210458544000,9.460544189453126,-0.18694838881492615,-4.6063337326049805,0.9676310420036316
1772533210468475400,9.470475341796876,-0.9378045201301575,-4.376376628875732,1.6002463102340698
1772533210478416600,9.480416748046874,-1.4969186782836914,-3.867328405380249,1.6503123044967651
1772533210488349000,9.490348876953124,-1.8493776321411133,-3.3602776527404785,1.653507947921753
1772533210498277400,9.50027734375,-1.9441834688186646,-2.4124865531921387,1.8175538778305054
1772533210508209400,9.51020947265625,-1.787594199180603,-1.1611039638519287,1.7259438037872314
1772533210518137000,9.52013720703125,-1.5608327388763428,-0.36124715209007263,1.247787356376648
1772533210528068600,9.530068603515625,-1.286002516746521,-0.34100770950317383,0.3637770712375641
1772533210538008300,9.54000830078125,-0.9303479194641113,-0.6030550599098206,-0.7842777967453003
1772533210547940600,9.549940673828125,-0.6320826411247253,-0.5753589868545532,-1.7555040121078491
1772533210557907500,9.559907470703125,-0.7173013091087341,-0.1451379954814911,-2.15696382522583
1772533210567843300,9.56984326171875,-0.8674991726875305,0.631283700466156,-2.275204658508301
1772533210577758200,9.57975830078125,-0.7354102730751038,1.2457900047302246,-2.176137924194336
1772533210587691800,9.58969189453125,-0.34673336148262024,1.8336654901504517,-1.854570746421814
1772533210597619500,9.599619384765624,0.1262301206588745,2.3949100971221924,-1.3678923845291138
1772533210607552500,9.609552490234375,0.5276898145675659,2.781456470489502,-0.840735137462616
1772533210617482200,9.619482177734374,0.7098446488380432,2.836848735809326,-0.43701183795928955
1772533210627415000,9.6294150390625,0.5990604162216187,2.322474241256714,-0.2635120153427124
1772533210637350700,9.6393505859375,0.30186042189598083,1.065765619277954,-0.3038577139377594
1772533210647283700,9.64928369140625,0.049533337354660034,-0.5093145370483398,-0.40612009167671204
1772533210657242400,9.659242431640624,-0.031424373388290405,-1.714892029762268,-0.4114462435245514
1772533210667178000,9.669177978515625,0.0037283156998455524,-2.303832769393921,-0.3038577139377594
1772533210677081900,9.679081787109375,0.10279498994350433,-2.2590930461883545,-0.18148908019065857
1772533210687014100,9.68901416015625,0.17523083090782166,-1.670152187347412,-0.11864032596349716
1772533210696955100,9.698955078125,0.16457849740982056,-0.7351439595222473,-0.13781452178955078
1772533210706888400,9.708888427734376,0.09214265644550323,0.3022598624229431,-0.2432725876569748
1772533210716814300,9.718814453125,0.006924014538526535,1.2330071926116943,-0.4114462435245514
1772533210726747000,9.728746826171875,-0.06657706201076508,1.7985128164291382,-0.6223623752593994
1772533210736675800,9.73867578125,-0.11131685227155685,1.776142954826355,-0.8236914277076721
1772533210746608000,9.748608154296875,-0.10172975063323975,1.319291114807129,-0.9407339096069336
1772533210756545000,9.758544921875,-0.017576344311237335,0.7282199263572693,-0.9311468005180359
1772533210766477800,9.768477783203124,0.10492545366287231,0.2170412242412567,-0.793864905834198
1772533210776407000,9.778406982421876,0.18907886743545532,-0.0482017956674099,-0.5307523608207703
1772533210786339300,9.78833935546875,0.17629607021808624,0.015712186694145203,-0.15272778272628784
1772533210796271000,9.79827099609375,0.09853405505418777,0.30865126848220825,0.27656111121177673
1772533210806203400,9.808203369140625,0.01118494663387537,0.6717625856399536,0.6812165379524231
1772533210816147200,9.818147216796875,-0.049533337354660034,0.9400681257247925,0.9782834053039551
1772533210826080500,9.82808056640625,-0.13368675112724304,0.9858731627464294,1.0784152746200562
1772533210835995100,9.8379951171875,-0.2444709837436676,0.8038514852523804,0.9676310420036316
1772533210845926700,9.8479267578125,-0.31690680980682373,0.5513912439346313,0.713173508644104
1772533210855862800,9.85786279296875,-0.31371113657951355,0.4054543077945709,0.40958210825920105
1772533210865794800,9.867794921875,-0.2657756507396698,0.4597811996936798,0.13595037162303925
1772533210875727000,9.87772705078125,-0.24340574443340302,0.6525883674621582,0.0038614696823060513
1772533210885659100,9.8876591796875,-0.28175413608551025,0.6738930344581604,0.05712312087416649
1772533210895601200,9.89760107421875,-0.2892107665538788,0.3617797791957855,-0.011051792651414871
1772533210905534200,9.9075341796875,-0.2679060995578766,0.07536523789167404,-0.15911918878555298
1772533210915459600,9.91745947265625,-0.2764279842376709,-0.13022473454475403,-0.24753352999687195
1772533210925392100,9.92739208984375,-0.2742975056171417,-0.2410089671611786,-0.283618301153183
1772533210935321000,9.937321044921875,-0.2135792225599289,-0.25379177927970886,-0.34220612049102783
1772533210945253000,9.947253173828125,-0.12090394645929337,-0.1760297566652298,-0.44659894704818726
1772533210955189800,9.957189697265624,-0.029293907806277275,0.05938674136996269,-0.5627093315124512
1772533210965122300,9.967122314453125,0.0644465982913971,0.4193023443222046,-0.6159709692001343
