time,seconds_elapsed,z,y,x
1772535186009524000,0.04952392578125,0.0009922641329467297,-0.00036818673834204674,-0.0007074247114360332
1772535186019539700,0.059539794921875,-0.0004931383882649243,0.0009821802377700806,-0.0013373778201639652
1772535186029555700,0.0695556640625,-0.0003282887046225369,-0.0009627261897549033,0.00009167473763227463
1772535186039571700,0.07957177734375,0.001328806858509779,0.0003564623184502125,-0.0003750612959265709
1772535186049587700,0.089587646484375,-0.0005644343327730894,0.000361256068572402,-0.0007633501663804054
1772535186059604000,0.09960400390625,0.000027801201213151217,0.0016088355332612991,-0.00015685288235545158
1772535186069620000,0.109619873046875,0.00029305205680429935,-0.0001219527330249548,-0.0007563303224742413
1772535186079636000,0.119635986328125,0.0001377600128762424,0.0006325356662273407,-0.00012934720143675804
1772535186089651700,0.129651611328125,-0.0003232331946492195,-0.00015043350867927074,-0.0004912707954645157
1772535186099667700,0.139667724609375,-0.00013285252498462796,0.000021625077351927757,0.0009212943259626627
1772535186109683700,0.14968359375,-0.00001540716039016843,0.0003918043803423643,-0.00008937530219554901
1772535186119701000,0.159700927734375,0.0007464240770787001,0.0011986789759248495,-0.0005494053475558758
1772535186129717000,0.169717041015625,0.0007355050765909255,0.0005659118760377169,-0.0008769743144512177
1772535186139732700,0.179732666015625,0.0005084358272142708,0.0008079998660832644,0.00011552171781659126
1772535186149748700,0.189748779296875,0.00040936621371656656,-0.000056728487834334373,0.0015613515861332417
1772535186159764700,0.1997646484375,-0.0022437218576669693,0.001011515036225319,0.0007193712517619133
1772535186169780700,0.20978076171875,-0.00024022557772696018,-0.00048305094242095947,0.000058374833315610886
1772535186179797000,0.219796875,0.0008567826589569449,0.0009985370561480522,0.00037014251574873924
1772535186189813000,0.22981298828125,-0.00008517742389813066,-0.0005444984417408705,0.002445543883368373
1772535186199828700,0.239828857421875,-0.00038227293407544494,0.00015442771837115288,-0.0009990804828703403
1772535186209844700,0.2498447265625,0.000029451795853674412,-0.00006767990998923779,0.001425993861630559
1772535186219860700,0.25986083984375,-0.0006237605703063309,0.0002867968287318945,0.00039368169382214546
1772535186229876700,0.269876708984375,-0.0014136540703475475,0.0011142410803586245,-0.0008683903142809868
1772535186239892700,0.279892822265625,0.0015230163699015975,-0.00036763446405529976,-0.00032100826501846313
1772535186249908700,0.28990869140625,-0.00004611816257238388,-0.000552457757294178,-0.00004137633368372917
1772535186259924700,0.2999248046875,0.0003636401961557567,-0.000072109280154109,0.00023868819698691368
1772535186269940700,0.309940673828125,-0.0017940530087798834,0.0007177842780947685,-0.0008255108259618282
1772535186279956700,0.319956787109375,-0.0010627200827002525,0.0009336026851087809,-0.00035463087260723114
1772535186289972700,0.32997265625,-0.0007005301304161549,0.0002912483178079128,-0.0006523723714053631
1772535186299988700,0.33998876953125,0.002306542592123151,-0.00015320256352424622,0.0015363080892711878
1772535186310005800,0.350005859375,-0.0002519562258385122,0.00007875869050621986,-0.0003465469926595688
1772535186320021500,0.360021484375,-0.0005752782453782856,-0.00006890599615871906,-0.0007469966076314449
1772535186330037500,0.37003759765625,0.0005712126148864627,-0.00027476856485009193,0.0003001582808792591
1772535186340053800,0.3800537109375,0.0006937702419236302,0.00012377463281154633,0.0011495770886540413
1772535186350069800,0.39006982421875,-0.00017761607887223363,-0.00040992279537022114,0.0007125523407012224
1772535186360085800,0.400085693359375,0.0012432786170393229,-0.00022545037791132927,-0.00003842450678348541
1772535186370101800,0.410101806640625,0.0004698967095464468,0.00039266934618353844,-0.0002093994989991188
1772535186380117800,0.42011767578125,0.0013353843241930008,-0.0003846832551062107,0.0018717325292527676
1772535186390133500,0.430133544921875,0.00017477874644100666,0.0017330623231828213,-0.000674249604344368
1772535186400149800,0.440149658203125,0.00004628271562978625,0.0010146878194063902,-0.001092792022973299
1772535186410165800,0.450165771484375,-0.000659721321426332,0.0010264057200402021,0.001263572834432125
1772535186420181800,0.460181640625,0.0003549122193362564,-0.0017371256835758686,0.0002832254394888878
1772535186430197800,0.47019775390625,-0.00009809149196371436,-0.00038423994556069374,-0.00135701522231102
1772535186440213800,0.4802138671875,0.0016447367379441857,0.0015246879775077105,0.0005116397514939308
1772535186450229800,0.490229736328125,0.00047640796401537955,-0.00014271726831793785,0.0009036569390445948
1772535186460245500,0.50024560546875,0.0003410200879443437,-0.00018889200873672962,-0.0006030183285474777
1772535186470261800,0.51026171875,0.0006579362670890987,-0.0005215208511799574,-0.0009196680039167404
1772535186480277800,0.52027783203125,-0.00011440436355769634,-0.00030420790426433086,0.0018316658679395914
1772535186490294800,0.530294677734375,0.00035617616958916187,0.00013041985221207142,0.0010694691445678473
1772535186500310800,0.540310791015625,-0.0005240479949861765,-0.00050928327254951,-0.0006774477660655975
1772535186510326500,0.550326416015625,-0.0011783866211771965,-0.0002680008765310049,0.0007177824154496193
1772535186520342800,0.5603427734375,-0.0005284778890199959,0.0014292695559561253,0.00033409101888537407
1772535186530358800,0.57035888671875,-0.0003692209138534963,-0.00003360491245985031,-0.0010145334526896477
1772535186540374800,0.580374755859375,-0.0003941042232327163,-0.0005936301313340664,-0.00010624341666698456
1772535186550390800,0.590390869140625,0.000639468664303422,-0.00019442220218479633,-0.001254598144441843
1772535186560406800,0.60040673828125,0.0003481436870060861,0.0006025452166795731,0.0003818254917860031
1772535186570422500,0.610422607421875,-0.0007821018807590008,-0.0005133193917572498,0.0005333591252565384
1772535186580438500,0.6204384765625,0.0001776150311343372,0.0007550925947725773,0.0016328450292348862
1772535186590454800,0.630454833984375,-0.000712413399014622,-0.0008569187484681606,0.0013990195002406836
1772535186600470800,0.640470703125,0.000573965604417026,0.00010651792399585247,0.0012647390831261873
1772535186610486800,0.65048681640625,0.0000517197186127305,-0.001397369196638465,-0.00015366077423095703
1772535186620502800,0.660502685546875,-0.00019831187091767788,0.00008192495442926884,-0.00002348935231566429
1772535186630518800,0.670518798828125,0.00016414435231126845,0.000002562766894698143,0.00015121418982744217
1772535186640534500,0.680534423828125,-0.0004737178096547723,0.0000734508503228426,-0.0006085517816245556
1772535186650550500,0.690550537109375,-0.0007669318001717329,0.0006444326136261225,-0.0002881735563278198
1772535186660566800,0.70056689453125,0.000728375103790313,-0.0005385088734328747,-0.000220585148781538
1772535186670582800,0.710582763671875,0.0005416875355876982,0.0002511183265596628,-0.0008711954578757286
1772535186680598800,0.720598876953125,-0.0013190284371376038,-0.00025151041336357594,-0.000058912672102451324
1772535186690615600,0.730615478515625,-0.0013965264661237597,-0.00020037777721881866,0.000409803818911314
1772535186700631600,0.740631591796875,0.000348801288055256,0.0003598281182348728,0.0022924209479242563
1772535186710647800,0.750647705078125,-0.0005478850216604769,0.00016435212455689907,-0.0003659464418888092
1772535186720663800,0.760663818359375,-0.0001708543859422207,-0.00010031810961663723,0.0005532065406441689
1772535186730679800,0.7706796875,0.00005444907583296299,-0.0009192401776090264,0.0004405551590025425
1772535186740695800,0.78069580078125,-0.00016810314264148474,-0.0003527933731675148,0.0012646268587559462
1772535186750711600,0.790711669921875,-0.0005438750959001482,0.0005830414593219757,0.0014084374997764826
1772535186760727600,0.8007275390625,0.0010059162741526961,-0.00006494228728115559,0.0005324538797140121
1772535186770743600,0.81074365234375,0.0003901934251189232,-0.0009853309020400047,0.0012347297742962837
1772535186780759800,0.820759765625,0.00022578201605938375,-0.0008119759149849415,-0.00019584409892559052
1772535186790775800,0.83077587890625,-0.0002197648282162845,-0.00034192786552011967,0.0008478485979139805
1772535186800791800,0.840791748046875,0.00031462826882489026,-0.0005187841597944498,-0.0002992721274495125
1772535186810807800,0.850807861328125,-0.002406323328614235,-0.0005715147126466036,0.0005793047603219748
1772535186820823600,0.860823486328125,-0.00004019553307443857,-0.0002961568534374237,-0.0010989182628691196
1772535186830839600,0.870839599609375,0.00033397861989215016,-0.0005158674903213978,-0.0008014431223273277
1772535186840855600,0.88085546875,-0.0009675908368080854,-0.0008458455558866262,0.0007890833076089621
1772535186850871800,0.890871826171875,-0.000817654887214303,-0.000043701380491256714,0.0003001270815730095
1772535186860887800,0.9008876953125,0.00042332481825724244,0.00018294574692845345,-0.0009722770191729069
1772535186870903800,0.91090380859375,0.0006869777571409941,-0.0002514156512916088,-0.00040875235572457314
1772535186880920600,0.920920654296875,-0.0005108076147735119,0.0005755443125963211,-0.0002821916714310646
1772535186890936600,0.9309365234375,0.0001531184243503958,-0.0011222208850085735,-0.0005620899610221386
1772535186900952800,0.940952880859375,-0.00024177227169275284,-0.0007187402807176113,-0.0008627241477370262
1772535186910968800,0.95096875,-0.00023564702132716775,0.00048128003254532814,0.0012640762142837048
1772535186920984800,0.96098486328125,0.0010584713891148567,-0.0014180003199726343,0.000858779763802886
1772535186931000800,0.971000732421875,-0.000122107972856611,-0.0007801733445376158,0.0011812886223196983
1772535186941016600,0.9810166015625,-0.00022416433785110712,-0.0014788794796913862,0.0008713577408343554
1772535186951032600,0.991032470703125,0.0004610670148395002,-0.000454361317679286,-0.0009406572207808495
1772535186961048600,1.001048583984375,-0.00024593016132712364,-0.0006982451304793358,0.000017055775970220566
1772535186971064800,1.01106494140625,-0.001231299713253975,0.00009963801130652428,0.0008703325875103474
1772535186981080800,1.021080810546875,0.0005792398587800562,-0.00015058042481541634,-0.0011995090171694756
1772535186991096800,1.031096923828125,-0.0003741717664524913,0.00043398328125476837,-0.0012027048505842686
1772535187001112600,1.041112548828125,-0.0002253692364320159,0.0007571871392428875,-0.0003881901502609253
1772535187011128600,1.051128662109375,-0.00047544005792587996,0.0005667710211127996,-0.00010935729369521141
1772535187021144600,1.06114453125,0.00004275806713849306,-0.00005191168747842312,-0.0007002651691436768
1772535187031160800,1.071160888671875,0.0011498341336846352,0.000588312279433012,0.001391381723806262
1772535187041176800,1.0811767578125,0.000649095163680613,-0.001512502203695476,0.0002985456958413124
1772535187051192800,1.09119287109375,0.0007923732046037912,-0.0008629572112113237,0.00004554539918899536
1772535187061208800,1.101208740234375,-0.0007523947861045599,-0.0006939549930393696,-0.0004183342680335045
1772535187071225600,1.1112255859375,0.0012593572027981281,0.0002666471991688013,-0.0007107490673661232
1772535187081241600,1.12124169921875,-0.0012130183167755604,-0.00009191595017910004,-0.00007724948227405548
1772535187091257900,1.1312578125,-0.0010795940179377794,-0.00011987914331257343,-0.0012788674794137478
1772535187101273900,1.14127392578125,0.0008256596047431231,-0.00016004592180252075,-0.00037555303424596786
1772535187111289900,1.151289794921875,-0.0006846190663054585,-0.0003547228407114744,-0.0017960830591619015
1772535187121305600,1.1613056640625,-0.0009194732992909849,-0.0008343147346749902,-0.0007660319097340107
1772535187131321600,1.171321533203125,-0.0010520988143980503,-0.0005256542935967445,-0.0007255515083670616
1772535187141337600,1.181337646484375,-0.00002038822276517749,0.00008500460535287857,-0.0001565166749060154
1772535187151353600,1.191353515625,-0.0014206783380359411,0.0013721105642616749,-0.00005824584513902664
1772535187161369900,1.201369873046875,-0.0010128873400390148,-0.0015189003897830844,0.000024624168872833252
1772535187171385900,1.2113857421875,-0.0005950374179519713,-0.00042647169902920723,-0.0013988353312015533
1772535187181401900,1.22140185546875,-0.0005872903275303543,0.0006565416697412729,-0.0008406881242990494
1772535187191417600,1.23141748046875,-0.0003073920961469412,0.0006504163611680269,0.0010578795336186886
1772535187201433600,1.24143359375,0.0003404742747079581,-0.0008844153489917517,-0.0010072141885757446
1772535187211449600,1.25144970703125,-0.00007204938447102904,0.001586731756106019,0.0004005325026810169
1772535187221465600,1.261465576171875,-0.000432496948633343,0.00037920731119811535,-0.0011615133844316006
1772535187231481600,1.271481689453125,-0.000435692782048136,0.000649518333375454,-0.0007479246705770493
1772535187241497600,1.28149755859375,0.001612648251466453,0.00011363276280462742,0.00015172362327575684
1772535187251513600,1.291513671875,-0.00027180451434105635,-0.00012498651631176472,-0.00022697821259498596
1772535187261529300,1.301529296875,-0.0005132196238264441,-0.0007342713652178645,-0.0005189692601561546
1772535187271546600,1.311546630859375,0.0003629603306762874,0.0007419188041239977,0.001218477264046669
1772535187281562600,1.321562744140625,0.00008941651321947575,-0.0009823518339544535,0.0004990282468497753
1772535187291578600,1.33157861328125,0.000554404454305768,-0.00038260803557932377,-0.0005638394504785538
1772535187301594400,1.341594482421875,0.000004001776687800884,-0.0008730099070817232,-0.0010239356197416782
1772535187311610400,1.3516103515625,-0.0003102512564510107,0.0010258238762617111,-0.0008324547670781612
1772535187321626400,1.36162646484375,0.0004922859370708466,-0.0004542225506156683,0.0000033364631235599518
1772535187331642400,1.371642333984375,-0.00040173722663894296,0.0003756184596568346,-0.00023821182548999786
1772535187341658600,1.38165869140625,-0.00025145523250102997,-0.0009324367856606841,-0.0001635630615055561
1772535187351674600,1.391674560546875,-0.0004732965026050806,0.0001405507791787386,-0.0008229617960751057
1772535187361690600,1.401690673828125,-0.0009722317918203771,-0.0012343028793111444,-0.0016207266598939896
1772535187371706400,1.411706298828125,-0.0003940595197491348,-0.000213247025385499,0.0005859688390046358
1772535187381722400,1.421722412109375,0.0008589431527070701,0.0006385769229382277,-0.00015144934877753258
1772535187391738400,1.43173828125,0.0004464195226319134,-0.00008740066550672054,0.0002016858197748661
1772535187401754600,1.441754638671875,0.000005780253559350967,0.0005358564667403698,0.00037232693284749985
1772535187411770600,1.4517705078125,0.001079566776752472,0.00004982948303222656,-0.0005600457079708576
1772535187421786600,1.46178662109375,0.0007071144646033645,0.00027003977447748184,0.0003745458088815212
1772535187431802600,1.471802734375,-0.0007501672371290624,-0.0007635331712663174,0.00005549890920519829
1772535187441818400,1.481818359375,0.001960859866812825,0.00013155769556760788,0.00084709282964468
1772535187451834400,1.49183447265625,0.0002590999356471002,0.0014365063980221748,-0.00021177995949983597
1772535187461851600,1.5018515625,0.0012286240234971046,0.0003033427055925131,0.0013107920531183481
1772535187471867600,1.51186767578125,-0.00046541274059563875,0.0017307968810200691,0.0016820365563035011
1772535187481883600,1.521883544921875,-0.0008260144968517125,-0.000744319986552,-0.0009857714176177979
1772535187491899400,1.5318994140625,0.00036867952439934015,0.0010836736764758825,-0.001204150728881359
1772535187501915400,1.541915283203125,-0.000017093494534492493,0.00038015819154679775,-0.00033536553382873535
1772535187511931400,1.551931396484375,0.0013981102965772152,-0.0002211837563663721,0.0006958104204386473
1772535187521947600,1.56194775390625,0.00023431051522493362,0.0009375964291393757,-0.0009357612580060959
1772535187531963600,1.571963623046875,0.00023377788602374494,0.00112881138920784,0.00034548575058579445
1772535187541979600,1.581979736328125,-0.0010064132511615753,-0.0002528505865484476,-0.0003828895278275013
1772535187551995400,1.591995361328125,0.000803204660769552,-0.00039160135202109814,0.00008369609713554382
1772535187562011400,1.602011474609375,-0.0006081335595808923,-0.000468177255243063,-0.00017316360026597977
1772535187572027400,1.61202734375,0.00018175996956415474,0.002215223852545023,-0.0005031293258070946
1772535187582043400,1.62204345703125,-0.00018622179049998522,0.000168168218806386,-0.0013769026845693588
1772535187592059600,1.6320595703125,-0.0006219148635864258,0.0013026748783886433,0.00023697270080447197
1772535187602075600,1.64207568359375,-0.0012838246766477823,0.00042143394239246845,-0.00013132533058524132
1772535187612091600,1.652091552734375,0.00017931603360921144,0.0005969360936433077,-0.00020323088392615318
1772535187622107400,1.662107421875,-0.00013918773038312793,0.00007762480527162552,0.0008249832317233086
1772535187632123400,1.672123291015625,0.000029390386771410704,0.0003953399136662483,-0.0004645194858312607
1772535187642139400,1.682139404296875,0.00006716541247442365,-0.00010182405821979046,0.0008811186999082565
1772535187652155400,1.6921552734375,0.00042269742698408663,0.001208717469125986,-0.0009213085286319256
1772535187662172700,1.702172607421875,-0.00038843281799927354,0.0010063534136861563,-0.0015989295206964016
1772535187672188400,1.7121884765625,0.00015751522732898593,0.000273717800155282,-0.000707569532096386
1772535187682204400,1.722204345703125,0.0015292163006961346,-0.00024373712949454784,-0.000467806588858366
1772535187692220400,1.732220458984375,0.0007137563661672175,-0.00007489277049899101,-0.00046620843932032585
1772535187702236400,1.742236328125,0.0010828366503119469,0.0017635026015341282,0.0012470136862248182
1772535187712252700,1.752252685546875,-0.0013313188683241606,0.0013592347968369722,-0.0009530237875878811
1772535187722268700,1.7622685546875,-0.00042276555905118585,-0.00022694747895002365,-0.0008135326206684113
1772535187732284700,1.77228466796875,-0.0012893581297248602,-0.0006439986173063517,-0.00022417493164539337
1772535187742300400,1.782300537109375,0.000117771967779845,-0.0003352062776684761,0.00043384823948144913
1772535187752316400,1.79231640625,-0.0008806471014395356,-0.0003959264140576124,-0.0009360820986330509
1772535187762332400,1.80233251953125,0.0007041991921141744,0.00007250974886119366,-0.00046486733481287956
1772535187772348400,1.812348388671875,-0.0010950323194265366,-0.0004036633763462305,0.00041903601959347725
1772535187782364700,1.82236474609375,-0.0003287197323516011,0.0005652322433888912,-0.0003725597634911537
1772535187792380700,1.832380615234375,0.0005967287579551339,0.0002549740020185709,-0.0002553807571530342
1772535187802396400,1.842396484375,-0.00001541053643450141,-0.0013242708519101143,0.00010528787970542908
1772535187812412400,1.852412353515625,-0.0006383239524438977,0.0012661858927458525,-0.0012635765597224236
1772535187822428400,1.862428466796875,0.0007727487245574594,0.00006841355934739113,-0.0008905059657990932
1772535187832444400,1.8724443359375,-0.0002570956712588668,0.00019491370767354965,-0.0002737180329859257
1772535187842460400,1.88246044921875,-0.0010344162583351135,-0.0008423851104453206,0.0005755657330155373
1772535187852477400,1.8924775390625,-0.0004759515286423266,-0.00022346642799675465,-0.0014188755303621292
1772535187862493400,1.902493408203125,0.0009798789396882057,0.0007418468594551086,0.0004998962394893169
1772535187872509400,1.912509521484375,0.0006035743281245232,-0.001241409219801426,0.0007536953780800104
1772535187882525400,1.922525390625,0.00046115953591652215,0.0007598451338708401,-0.0003507542423903942
1772535187892541400,1.93254150390625,0.00015170022379606962,-0.00028038560412824154,0.0012050645891577005
1772535187902557700,1.9425576171875,0.00035571688204072416,-0.0015964820049703121,-0.0013627475127577782
1772535187912573700,1.95257373046875,-0.0005822484381496906,-0.00005397922359406948,-0.0015345211140811443
1772535187922589400,1.96258935546875,-0.00007808388909325004,0.0009238140191882849,0.00016102101653814316
1772535187932605400,1.97260546875,0.00020128171308897436,0.0005866577848792076,0.00006727781146764755
1772535187942621400,1.982621337890625,0.0007021589553914964,0.0004351930692791939,0.001602053176611662
1772535187952637400,1.992637451171875,-0.0007766943308524787,0.000801644055172801,0.0005985740572214127
1772535187962653400,2.0026533203125,-0.0012075516860932112,0.00021029403433203697,-0.0004348643124103546
1772535187972669700,2.012669677734375,-0.000019781815353780985,0.0009772845078259706,-0.0012932014651596546
1772535187982685400,2.022685546875,-0.0008558477275073528,-0.001106940908357501,0.0006062362808734179
1772535187992701400,2.032701416015625,0.00007625861326232553,-0.0012752526672556996,-0.0007024412043392658
1772535188002717400,2.042717529296875,-0.0005977265536785126,0.00028318935073912144,0.00046488968655467033
1772535188012733400,2.0527333984375,0.00025315338280051947,-0.0003418545238673687,0.00019804108887910843
1772535188022749400,2.06274951171875,0.00030949991196393967,0.00008604931645095348,-0.00010921573266386986
1772535188032765400,2.072765380859375,-0.0011014428455382586,0.0005635540001094341,-0.0012666257098317146
1772535188042781700,2.08278173828125,-0.00009101576870307326,-0.00022435211576521397,-0.0005106618627905846
1772535188052797400,2.09279736328125,-0.0008779798517934978,-0.00020198151469230652,-0.0002552648074924946
1772535188062814500,2.102814453125,0.0014208164066076279,-0.0011630796361714602,-0.0007283706218004227
1772535188072830500,2.11283056640625,-0.0001294096582569182,-0.0008594793034717441,0.00006818072870373726
1772535188082846500,2.122846435546875,0.00024996750289574265,0.0005808242131024599,-0.0007760473527014256
1772535188092862700,2.13286279296875,0.00013758213026449084,0.0007557938806712627,0.0008189196232706308
1772535188102878500,2.14287841796875,0.00031526575912721455,-0.00007900968194007874,0.0005648871883749962
1772535188112894500,2.15289453125,0.0009634791640564799,0.00009862310253083706,-0.0009232875891029835
1772535188122910500,2.162910400390625,0.00017570002819411457,-0.0003957189619541168,0.00015721283853054047
1772535188132926500,2.172926513671875,-0.00015639618504792452,-0.0005134306848049164,0.00013244571164250374
1772535188142942500,2.1829423828125,-0.0006282678805291653,0.00032660504803061485,0.0001645013689994812
1772535188152958500,2.19295849609375,0.0009832109790295362,0.0004919872153550386,-0.0009425748139619827
1772535188162974700,2.202974609375,0.0018328141886740923,0.0001447000540792942,0.0013826924841850996
1772535188172990500,2.212990478515625,-0.0007539141224697232,-0.00005157478153705597,0.0006825474556535482
1772535188183006500,2.22300634765625,-0.000015046854969114065,0.000825940165668726,-0.0012861578725278378
1772535188193022500,2.2330224609375,0.00012104067718610168,-0.0005357339978218079,0.0008496972732245922
1772535188203038500,2.24303857421875,0.0000021922169253230095,-0.00008904468268156052,-0.0005643884651362896
1772535188213054500,2.253054443359375,-0.0008412308525294065,-0.0008384580723941326,-0.0007747779600322247
1772535188223071000,2.263071044921875,-0.00015918241115286946,0.00001709279604256153,0.00039919745177030563
1772535188233087200,2.273087158203125,0.000025108340196311474,-0.00006439979188144207,-0.0007654032669961452
1772535188243103200,2.283103271484375,-0.001406404422596097,0.0014398971106857061,-0.0005228086374700069
1772535188253119200,2.293119140625,-0.0006772310007363558,-0.000747889862395823,0.0000569615513086319
1772535188263136300,2.30313623046875,-0.0002710290136747062,-0.00016351998783648014,0.0011561480350792408
1772535188273152000,2.313152099609375,-0.0006236314657144248,0.00030839210376143456,-0.001035367138683796
1772535188283168300,2.323168212890625,-0.00044362188782542944,-0.001166071160696447,0.0017560531850904226
1772535188293184300,2.333184326171875,-0.0001767731737345457,-0.0006147967651486397,-0.0009009824134409428
1772535188303200300,2.3432001953125,0.00031460984610021114,-0.00030228705145418644,0.0004981658421456814
1772535188313216300,2.35321630859375,-0.0005783480009995401,0.0008418068755418062,-0.0010310211218893528
1772535188323232300,2.363232177734375,0.0000020734150893986225,-0.000049841590225696564,-0.0004571443423628807
1772535188333248300,2.373248291015625,0.0008918355451896787,0.00024550314992666245,-0.00022145453840494156
1772535188343264000,2.383263916015625,-0.0005399936926551163,-0.0001889325212687254,0.0001623169519007206
1772535188353280300,2.3932802734375,0.0017702984623610973,0.0008425095584243536,-0.00011838041245937347
1772535188363296300,2.403296142578125,0.000698339194059372,-0.0005230712704360485,-0.0004899119958281517
1772535188373312300,2.413312255859375,0.00018328387523069978,0.000397317111492157,-0.00003184843808412552
1772535188383328300,2.423328369140625,-0.0004932462470605969,-0.00032316194847226143,-0.001176898367702961
1772535188393344300,2.43334423828125,0.00017840293003246188,-0.0001351425889879465,0.0013533707242459059
1772535188403360300,2.4433603515625,0.0015879045240581036,-0.0008254485437646508,0.000015080440789461136
1772535188413376300,2.453376220703125,0.0004126515123061836,-0.0004558018408715725,-0.00016281846910715103
1772535188423392300,2.463392333984375,0.0007350077503360808,0.00006849062629044056,0.0006393459625542164
1772535188433408300,2.473408203125,0.000005301611963659525,-0.0009344558930024505,0.00019486434757709503
1772535188443424300,2.48342431640625,-0.0015824069269001484,-0.0017912848852574825,-0.00015388429164886475
1772535188453440300,2.493440185546875,0.00046130287228152156,-0.00047754752449691296,-0.00018477719277143478
1772535188463457000,2.50345703125,0.0005107477772980928,0.0008662277832627296,-0.0006460738368332386
1772535188473473300,2.513473388671875,0.0012452476657927036,0.0005828675348311663,0.00038270559161901474
1772535188483489300,2.5234892578125,-0.00005954911466687918,0.00028876448050141335,-0.0004777689464390278
1772535188493505300,2.53350537109375,-0.00022892619017511606,-0.0007852885173633695,0.0003664530813694
1772535188503521300,2.543521240234375,0.00017592753283679485,-0.0004100268706679344,-0.0021928921341896057
1772535188513537300,2.553537353515625,-0.0009569812100380659,0.0006139585748314857,-0.0000029746443033218384
1772535188523553000,2.563552978515625,-0.0006657251506112516,-0.0013419119641184807,-0.0003763730637729168
1772535188533569000,2.573569091796875,0.0011321748606860638,-0.0001552074681967497,-0.0007374980486929417
1772535188543585300,2.583585205078125,-0.0003653205931186676,0.0014988130424171686,0.0009546775836497545
1772535188553601300,2.593601318359375,-0.0006779757095500827,0.0004886758979409933,0.0002851588651537895
1772535188563617300,2.6036171875,0.0006586669478565454,-0.00005511334165930748,0.00016015442088246346
1772535188573633300,2.61363330078125,-0.0015078145079314709,0.0012975060380995274,-0.00031761638820171356
1772535188583649300,2.623649169921875,0.0018179335165768862,0.0013838016893714666,-0.00005982862785458565
1772535188593665000,2.6336650390625,-0.0001064666430465877,-0.0015406152233481407,-0.0005407952703535557
1772535188603681300,2.643681396484375,0.00027327571297064424,0.0003800150007009506,0.0013286205939948559
1772535188613697300,2.653697265625,-0.0006066326750442386,0.000036200741305947304,-0.0008141589350998402
1772535188623713300,2.66371337890625,-0.00035631225910037756,0.000401003984734416,-0.000011710450053215027
1772535188633729300,2.673729248046875,0.0011824622051790357,-0.00011804606765508652,-0.0009246421977877617
1772535188643745300,2.683745361328125,-0.0003174787852913141,0.0008543659932911396,0.0003193286247551441
1772535188653761000,2.693760986328125,-0.0003385177697055042,-0.0005770830903202295,-0.0009608529508113861
1772535188663777000,2.703777099609375,0.0008631661767140031,0.0004906132817268372,-0.00003321608528494835
1772535188673793300,2.713793212890625,0.0003342624113429338,0.0007524020038545132,-0.0006279000081121922
1772535188683810300,2.723810302734375,-0.0007066898397170007,0.0011501337867230177,0.0009709014557301998
1772535188693826300,2.733826416015625,-0.0005583518068306148,0.00029499270021915436,-0.00005681253969669342
1772535188703842000,2.743842041015625,-0.001450183568522334,0.0005838216748088598,-0.0003447434864938259
1772535188713858000,2.753858154296875,-0.0007119552465155721,-0.0006857072003185749,0.0004832334816455841
1772535188723874300,2.763874267578125,-0.000699054857250303,0.0006248927675187588,0.00037349993363022804
1772535188733890300,2.773890380859375,-0.0007190284668467939,-0.0001562123652547598,-0.0004667271859943867
1772535188743906300,2.78390625,-0.0008957462850958109,0.0005069153849035501,0.00046339118853211403
1772535188753922300,2.79392236328125,0.0004821732873097062,-0.000653690192848444,0.0009110684040933847
1772535188763938300,2.803938232421875,0.0005322554497979581,-0.000021838117390871048,0.0017098106909543276
1772535188773954000,2.8139541015625,-0.0007990588201209903,-0.00036005955189466476,-0.0006135310977697372
1772535188783970000,2.823969970703125,-0.0007240580162033439,0.00022224127314984798,-0.00013947952538728714
1772535188793986300,2.833986328125,-0.0008577486732974648,-0.0016970988363027573,-0.0012643984518945217
1772535188804002300,2.844002197265625,0.0006825998425483704,-0.0007967893034219742,0.000468564685434103
1772535188814018300,2.854018310546875,-0.001305449870415032,0.0000343832653015852,0.0004145028069615364
1772535188824034300,2.864034423828125,-0.0004959643702022731,-0.00016696820966899395,0.00004819640889763832
1772535188834050300,2.87405029296875,-0.0009372501517646015,0.00011159852147102356,-0.00044661853462457657
1772535188844066000,2.884066162109375,0.00002712657442316413,-0.000264038797467947,0.0002816366031765938
1772535188854082000,2.89408203125,-0.0003736790968105197,0.0000014784745872020721,0.0012214661110192537
1772535188864098300,2.904098388671875,0.00031068609678186476,-0.0001504342071712017,-0.0006150132976472378
1772535188874114300,2.9141142578125,0.0008108277106657624,0.0005001761019229889,0.0006372048519551754
1772535188884131000,2.924131103515625,-0.001146759488619864,-0.0013542374363169074,-0.0006708158180117607
1772535188894147000,2.93414697265625,-0.00024101842427626252,-0.0004990964662283659,-0.00003591831773519516
1772535188904163000,2.9441630859375,-0.0007074858876876533,0.001099070766940713,0.0003918604925274849
1772535188914179300,2.954179443359375,0.00087336654542014,-0.0005907048471271992,0.0022068044636398554
1772535188924195300,2.9641953125,-0.0000086018699221313,-0.00028034462593495846,-0.00018519116565585136
1772535188934211300,2.97421142578125,0.0004321513115428388,-0.0005176321137696505,-0.000759901013225317
1772535188944227300,2.984227294921875,0.0005475806538015604,0.0004213459324091673,0.00023006834089756012
1772535188954243000,2.9942431640625,0.00038246469921432436,0.0001486383844166994,0.0006385974120348692
1772535188964259000,3.004259033203125,0.0001918724738061428,0.00030155666172504425,0.0009108642116189003
1772535188974275000,3.014275146484375,-0.00031466077780351043,-0.0015394865768030286,-0.0008580074645578861
1772535188984291300,3.024291259765625,-0.00008567870827391744,0.0011523931752890348,-0.0007606041617691517
1772535188994307300,3.034307373046875,-0.0012561380863189697,0.00017048558220267296,0.001010664040222764
1772535189004323300,3.0443232421875,0.00006754498463124037,0.00014918181113898754,0.0005568978376686573
1772535189014339300,3.05433935546875,-0.0005748094408772886,0.0006418665871024132,0.00022506806999444962
1772535189024355000,3.06435498046875,-0.0003911891835741699,-0.0006670400034636259,0.0002411259338259697
1772535189034371000,3.07437109375,-0.0010527183767408133,-0.001068910933099687,-0.001468889880925417
1772535189044387000,3.084386962890625,0.0008096153615042567,0.00025178631767630577,0.0003009885549545288
1772535189054403300,3.0944033203125,-0.0005872126785106957,-0.00046167452819645405,0.00030365167185664177
1772535189064419300,3.10441943359375,0.000736880989279598,-0.001017116941511631,-0.000035534147173166275
1772535189074435300,3.114435302734375,0.00044473225716501474,-0.0014445543056353927,0.0005913740023970604
1772535189084451000,3.124451171875,-0.0003292974433861673,0.000005188398063182831,0.00029942765831947327
1772535189094468000,3.134468017578125,0.00014447892317548394,0.0008619274012744427,0.0009601577185094357
1772535189104484400,3.144484375,-0.00130747992079705,-0.0005273718852549791,-0.0011575431562960148
1772535189114500400,3.154500244140625,-0.0021999049931764603,0.00043482822366058826,0.001172190299257636
1772535189124516400,3.164516357421875,-0.0015437070978805423,-0.001261488301679492,0.002303879242390394
1772535189134532000,3.174531982421875,0.00007363071199506521,-0.0005432337056845427,0.0006777530070394278
1772535189144548000,3.184548095703125,0.0005363578675314784,-0.0007426533848047256,0.0013724805321544409
1772535189154564000,3.194564208984375,0.0004213093197904527,0.0010227560997009277,-0.0003199581988155842
1772535189164580000,3.204580078125,-0.00032518303487449884,0.00034478725865483284,-0.00043381424620747566
1772535189174596400,3.214596435546875,0.0011251744581386447,-0.0005215390119701624,0.0008362473454326391
1772535189184612400,3.2246123046875,0.00009944313205778599,-0.00012146355584263802,0.0010836541187018156
1772535189194628400,3.23462841796875,-0.00035569112515076995,-0.0004737996496260166,-0.0003890739753842354
1772535189204644000,3.24464404296875,-0.0000819792621769011,-0.0013069284614175558,0.0012004671152681112
1772535189214660000,3.25466015625,0.00024905166355893016,-0.0008675068384036422,-0.0003071483224630356
1772535189224675800,3.26467578125,-0.0003205464454367757,0.0013875530567020178,0.0012679798528552055
1772535189234691800,3.27469189453125,0.0008571033831685781,-0.000378655269742012,-0.0010345890186727047
1772535189244707800,3.284707763671875,-0.0010656430386006832,0.0010990016162395477,-0.00030512502416968346
1772535189254723800,3.294723876953125,0.00048271878040395677,-0.00033191475085914135,-0.0008289688266813755
1772535189264740000,3.304739990234375,0.0003627795085776597,0.0005241874605417252,0.0007506902329623699
1772535189274755800,3.314755859375,-0.0001677221735008061,-0.00014985864982008934,-0.00048102159053087234
1772535189284771800,3.324771728515625,0.0020301847252994776,-0.0008318942273035645,-0.0008205748163163662
1772535189294787800,3.334787841796875,0.0010646453592926264,0.0008545252494513988,-0.00004282500594854355
1772535189304803800,3.344803955078125,-0.001609115395694971,0.0005048704333603382,0.00041755405254662037
1772535189314820900,3.35482080078125,-0.00009564089123159647,-0.0006490773521363735,-0.000030123163014650345
1772535189324836900,3.3648369140625,-0.0001420479966327548,-0.001540281460620463,0.0005965696182101965
1772535189334852900,3.374852783203125,-0.00001075415639206767,-0.00010377238504588604,-0.00012408196926116943
1772535189344868900,3.384868896484375,-0.0002258931053802371,-0.0005705731455236673,-0.0021115299314260483
1772535189354884900,3.394884765625,0.0018793357303366065,0.00006112875416874886,-0.00034771813079714775
1772535189364900900,3.40490087890625,-0.0014976251404732466,0.0008334305603057146,-0.0009065759368240833
1772535189374916900,3.414916748046875,-0.00024860259145498276,-0.00009601260535418987,0.00015655811876058578
1772535189384933000,3.42493310546875,0.0009008835186250508,0.000995685812085867,-0.0016932501457631588
1772535189394948900,3.434948974609375,-0.0011204557958990335,-0.00012390711344778538,0.00007322477176785469
1772535189404964900,3.44496484375,0.0002111594076268375,0.001383050810545683,-0.00017362181097269058
1772535189414980900,3.45498095703125,0.00029132055351510644,-0.000411653658375144,-0.0004465961828827858
1772535189424996900,3.464996826171875,0.0012828587787225842,-0.0004794469568878412,0.0005375565961003304
1772535189435012900,3.475012939453125,0.000187500671017915,0.00011923164129257202,0.0004744397010654211
1772535189445028900,3.48502880859375,0.00029640280990861356,-0.00025357375852763653,0.0009760730899870396
1772535189455044900,3.495044921875,-0.00010173977352678776,0.0006039640866219997,-0.0011480641551315784
1772535189465060900,3.505060791015625,0.0003409599303267896,-0.00011995085515081882,-4.852190613746643e-7
1772535189475076900,3.515076904296875,0.00010846595978364348,-0.00042435014620423317,-0.00014163274317979813
1772535189485092900,3.5250927734375,-0.0008688749512657523,0.00044244853779673576,-0.001060744747519493
1772535189495108900,3.53510888671875,0.00023900004453025758,-0.0005493126809597015,-0.001378459855914116
1772535189505124900,3.545124755859375,0.00013453519204631448,-0.0011101955315098166,-0.0006376318633556366
1772535189515140900,3.555140869140625,0.000605914683546871,0.00042298645712435246,0.0008785056415945292
1772535189525158000,3.565157958984375,-0.0008647114736959338,-0.0008191617671400309,-0.0013916906900703907
1772535189535174000,3.575173828125,0.00033956990228034556,0.00022932467982172966,-0.0011277715675532818
1772535189545190000,3.58518994140625,0.0008354576420970261,0.0004034836310893297,0.0004913117736577988
1772535189555206000,3.595205810546875,0.0008303976501338184,-0.0006125122308731079,-0.0001020403578877449
1772535189565222000,3.605221923828125,0.0008452321053482592,-0.0016028187237679958,-0.001725571695715189
1772535189575238000,3.61523779296875,0.0005568117485381663,0.00023582763969898224,0.0011660887394100428
1772535189585254000,3.62525390625,-0.00039328268030658364,0.0012107340153306723,-0.002168111503124237
1772535189595270000,3.635269775390625,0.0002083254512399435,0.0015516187995672226,-0.0004903199151158333
1772535189605286000,3.645285888671875,0.0015104948543012142,-0.00021908152848482132,-0.0007360097952187061
1772535189615302000,3.655302001953125,0.0005408379947766662,0.0007564343977719545,-0.0007362756878137589
1772535189625318000,3.66531787109375,-0.0003938982845284045,0.0016380995512008667,-0.0010672160424292088
1772535189635334000,3.675333984375,-0.00002957781543955207,-0.00039335968904197216,-0.000716743990778923
1772535189645350000,3.685349853515625,0.000544432201422751,-0.0013527818955481052,0.0002409755252301693
1772535189655366000,3.695365966796875,-0.00033973727840930223,0.00004431232810020447,0.0009030373767018318
1772535189665382000,3.7053818359375,0.0006380390841513872,-0.0008357707411050797,-0.0003669681027531624
1772535189675398000,3.71539794921875,-0.0007350867963396013,-0.0005755799356848001,-0.0006969338282942772
1772535189685414000,3.725413818359375,0.000012677453923970461,-0.000080442288890481,-0.0020455741323530674
1772535189695430000,3.735429931640625,-0.000015818339306861162,-0.0002871036995202303,-0.00060267373919487
1772535189705446000,3.74544580078125,0.00021560926688835025,-0.0010120556689798832,0.00040082912892103195
1772535189715462000,3.7554619140625,0.0002225335338152945,-0.00019845995120704174,-0.002181105315685272
1772535189725478000,3.765477783203125,0.0006362856947816908,-0.00033733900636434555,-0.00003399886190891266
1772535189735494000,3.775493896484375,0.0008514691144227982,0.0007963685784488916,0.0016504502855241299
1772535189745511000,3.785510986328125,0.0006452061934396625,0.0005495734512805939,0.0004877739120274782
1772535189755526700,3.795526611328125,0.000129085558000952,0.0006334630306810141,-0.0005362113006412983
1772535189765543000,3.80554296875,0.0006035453407093883,-0.00046137114986777306,-0.00026031117886304855
1772535189775559000,3.815558837890625,-0.0005570602952502668,0.00037166569381952286,-0.00014552893117070198
1772535189785575000,3.825574951171875,-0.00038097210926935077,-0.0008222503820434213,-0.0009658006019890308
1772535189795591000,3.8355908203125,0.0002579202700871974,-0.0006688523571938276,-0.0001508733257651329
1772535189805607000,3.84560693359375,-0.00014890299644321203,0.00039124349132180214,-0.0009396751411259174
1772535189815623000,3.855622802734375,-0.0004897876642644405,0.0011094978544861078,0.0007445081137120724
1772535189825638700,3.865638671875,0.0005836589843966067,-0.0005161499138921499,0.0001962226815521717
1772535189835655000,3.875655029296875,0.00008325104136019945,0.0004303373862057924,-0.00023787282407283783
1772535189845671000,3.8856708984375,-0.00003439438296481967,-0.0000763176940381527,-0.0008390736766159534
1772535189855687000,3.89568701171875,-0.000022410182282328606,-0.00013037980534136295,0.0007889163680374622
1772535189865703000,3.905702880859375,0.00010739982826635242,0.0004977055359631777,0.0009608040563762188
1772535189875719000,3.915718994140625,0.00030820214306004345,0.00013578194193542004,-0.0011369679123163223
1772535189885735000,3.92573486328125,-0.0008259453461505473,0.0002833656035363674,0.0003396295942366123
1772535189895750700,3.935750732421875,0.0009660957148298621,0.0004503456875681877,0.00008583022281527519
1772535189905767000,3.945766845703125,0.0003444468311499804,0.0004663241561502218,-0.0011124932207167149
1772535189915783000,3.955782958984375,0.0008917264058254659,0.0004769768565893173,0.0006369370967149734
1772535189925799000,3.965798828125,-0.0015778928063809872,0.0014976176898926497,-0.0012423577718436718
1772535189935815000,3.97581494140625,0.0008948521572165191,0.0013625954743474722,-0.0007275687530636787
1772535189945831000,3.985830810546875,-0.0006066096248105168,0.00038563855923712254,-0.0001588328741490841
1772535189955847000,3.995846923828125,-0.00034801673609763384,-0.0008806943660601974,-0.000696791335940361
1772535189965863000,4.00586279296875,-0.0006759845418855548,-0.0009738246444612741,0.000702722929418087
1772535189975880000,4.0158798828125,-0.00002430903259664774,-0.0005445231217890978,-0.0004922375082969666
1772535189985896000,4.02589599609375,-0.001960411202162504,0.0004944081883877516,0.0012362219858914614
1772535189995912000,4.035911865234375,-0.0006216400070115924,-0.00006618723273277283,0.0004580463282763958
1772535190005927700,4.045927734375,0.00012621231144294143,-0.001235041650943458,0.000060955528169870377
1772535190015943700,4.055943603515625,-0.00038431567372754216,0.00037590437568724155,0.00045590195804834366
1772535190025960000,4.0659599609375,0.0005188343347981572,0.001386746997013688,-0.0004896256141364574
1772535190035976000,4.075975830078125,0.00020644551841542125,0.0005896629299968481,0.0011916281655430794
1772535190045992000,4.085991943359375,-0.0007648139144293964,-0.0017242395551875234,0.0007220576517283916
1772535190056008000,4.096008056640625,0.0010083187371492386,-0.000777219538576901,0.0008091428317129612
1772535190066024000,4.10602392578125,0.00011736148735508323,0.0011532052885740995,0.0008000459056347609
1772535190076039700,4.116039794921875,0.0004920682404190302,-0.00030594062991440296,-0.00023086369037628174
1772535190086056000,4.126055908203125,0.000984294107183814,0.0008675293065607548,0.0012036357074975967
1772535190096072000,4.136072021484375,-0.0010844494681805372,0.0005085351876914501,0.00048165302723646164
1772535190106088000,4.146087890625,-0.00026036397321149707,0.0010153260082006454,-0.0014746789820492268
1772535190116104000,4.15610400390625,-0.00015437020920217037,-0.00031199329532682896,-0.00003710435703396797
1772535190126120000,4.166119873046875,0.00015043863095343113,-0.0006606881506741047,0.0003382759168744087
1772535190136136000,4.176135986328125,0.0005347328260540962,0.0007004535291343927,-0.0012931767851114273
1772535190146151700,4.186151611328125,-0.001112341065891087,0.00002844235859811306,-0.00031148921698331833
1772535190156168000,4.19616796875,-0.0010947642149403691,0.001013013068586588,-0.0002867216244339943
1772535190166184000,4.206183837890625,-0.000044580723624676466,-0.0010165617568418384,-0.0009428001940250397
1772535190176200000,4.216199951171875,-0.0008208921644836664,-0.00005489424802362919,0.001002639066427946
1772535190186216000,4.2262158203125,0.0005696883890777826,-0.00008567282930016518,0.00018438277766108513
1772535190196232700,4.236232666015625,0.00040909976814873517,0.0005992923397570848,0.00041980622336268425
1772535190206249000,4.2462490234375,-0.0004598007071763277,-0.00086248479783535,-0.0001769019290804863
1772535190216265000,4.256264892578125,0.0011026758002117276,-0.000016132136806845665,-0.0013883737847208977
1772535190226280700,4.26628076171875,-0.00002776435576379299,-0.001316857640631497,0.0006763213314116001
1772535190236296700,4.276296630859375,-0.00002403592225164175,0.0015138164162635803,0.0014150822535157204
1772535190246313000,4.28631298828125,0.0005681602633558214,-0.0003056416753679514,-0.00028581125661730766
1772535190256328700,4.29632861328125,-0.0009314657654613256,0.0009039659053087234,-0.0008266996592283249
1772535190266344700,4.3063447265625,0.0003098261367995292,0.0009781811386346817,0.0010852394625544548
1772535190276360700,4.316360595703125,0.0006083664484322071,0.00027031288482248783,-0.00007989350706338882
1772535190286376700,4.326376708984375,-0.000017560436390340328,-0.0007616723887622356,0.00031368574127554893
1772535190296392700,4.336392822265625,0.00024369562743231654,0.00015578651800751686,0.000831404235213995
1772535190306408700,4.34640869140625,-0.0006973873823881149,0.001124342903494835,0.0010622481349855661
1772535190316425000,4.356425048828125,0.00023711583344265819,0.0008167477790266275,0.0004656999371945858
1772535190326440700,4.366440673828125,0.00043032379471696913,-0.00033832527697086334,-0.00019147945567965508
1772535190336456700,4.376456787109375,-0.0003292097826488316,0.0002979037817567587,0.0005874950438737869
1772535190346472700,4.38647265625,0.00015220441855490208,0.0013715135864913464,0.001030291197821498
1772535190356488700,4.39648876953125,-9.273644536733627e-7,0.00021756603382527828,0.0010385469067841768
1772535190366504700,4.406504638671875,0.0008800395298749208,0.0003647685516625643,0.0004520653747022152
1772535190376521000,4.41652099609375,-0.0006659255013801157,0.0010827567894011736,0.0012153275310993195
1772535190386537000,4.426536865234375,0.000305560533888638,0.0017191339284181595,0.0005799164064228535
1772535190396552700,4.436552734375,-0.0003056348650716245,-0.0004630601033568382,-0.0004248940385878086
1772535190406568700,4.446568603515625,0.0006447772611863911,0.00011970079503953457,0.0004678783006966114
1772535190416585700,4.456585693359375,0.0007965774275362492,0.00008694385178387165,0.0014652323443442583
1772535190426601700,4.466601806640625,-0.0011974552180618048,-0.0011770499404519796,-0.0008461847901344299
1772535190436617700,4.47661767578125,-0.0002389834844507277,-0.000048135872930288315,-0.00008638482540845871
1772535190446633700,4.4866337890625,0.00032502005342394114,0.00033372826874256134,0.00004390208050608635
1772535190456649700,4.496649658203125,-0.000302953296341002,0.00017686793580651283,-0.0012176372110843658
1772535190466665700,4.506665771484375,0.0005758755141869187,0.0002858121879398823,0.00009851716458797455
1772535190476681700,4.516681640625,0.00017933081835508347,0.0006208380218595266,-0.000015466008335351944
1772535190486697700,4.52669775390625,0.000019202299881726503,-0.0002041917759925127,-0.0006763637065887451
1772535190496713700,4.536713623046875,-0.0002066337619908154,0.0005633311811834574,0.0014922486152499914
1772535190506729700,4.546729736328125,0.000006188405677676201,0.00001305900514125824,0.00012033293023705482
1772535190516745700,4.556745849609375,-0.000252937083132565,0.0010801875032484531,0.00018877629190683365
1772535190526761700,4.56676171875,-0.0011896538781002164,-0.000291699543595314,-0.0008299415931105614
1772535190536777700,4.57677783203125,-0.00029802764765918255,0.0005378751084208488,0.0006933866534382105
1772535190546793700,4.586793701171875,0.0003185756504535675,-0.0008419804507866502,-0.00030759209766983986
1772535190556809700,4.596809814453125,-0.0007144644623622298,-0.0003330504987388849,0.0007089362479746342
1772535190566826000,4.606825927734375,-0.00016203289851546288,0.0006022059824317694,0.00034245243296027184
1772535190576841700,4.616841796875,-0.0006254228646866977,-0.00047584157437086105,-0.0005302652716636658
1772535190586857700,4.626857666015625,0.00037865343620069325,-0.0003149735275655985,0.00046520354226231575
1772535190596873700,4.636873779296875,0.0006316537619568408,0.00017531448975205421,-0.000965446699410677
1772535190606889700,4.6468896484375,0.0004091457522008568,-0.00004629697650671005,-0.0004234323278069496
1772535190616905700,4.65690576171875,0.00015481386799365282,-0.0005759997293353081,-0.0005592536181211472
1772535190626921700,4.666921630859375,0.00028715276857838035,0.00002023950219154358,-0.0005311928689479828
1772535190636938800,4.676938720703125,-0.00089182861847803,-0.0010282470611855388,-0.0007285331375896931
1772535190646954800,4.686954833984375,-0.0011452626204118133,-0.00139325181953609,-0.0008796397596597672
1772535190656970800,4.696970703125,0.000530398276168853,0.00017748051322996616,-0.00019653886556625366
1772535190666986800,4.70698681640625,0.0006984539795666933,-0.0012237598421052098,0.0004015774466097355
1772535190677002800,4.717002685546875,-0.00023738073650747538,0.000495044281706214,0.001030882354825735
1772535190687018800,4.727018798828125,0.00023350463015958667,0.0006154028233140707,-0.00039946194738149643
1772535190697034800,4.73703466796875,-0.00037556031020358205,0.0005035500507801771,0.00034462520852684975
1772535190707050800,4.74705078125,-0.0003841170691885054,0.0014077110681682825,0.000003200490027666092
1772535190717066800,4.757066650390625,-0.0015513806138187647,-0.0005595663096755743,-0.00020425952970981598
1772535190727082800,4.767082763671875,0.00035887412377633154,-0.0007000656332820654,-0.00009175436571240425
1772535190737098800,4.7770986328125,0.00012185279047116637,-0.00048328423872590065,0.0007127863354980946
1772535190747114800,4.78711474609375,0.0012159006437286735,-0.00025608204305171967,0.0000882013700902462
1772535190757130800,4.797130859375,-0.0005662867333739996,0.0008699025493115187,0.000027747824788093567
1772535190767146800,4.807146728515625,0.0008482241537421942,-0.0018752580508589745,-0.0010290765203535557
1772535190777162800,4.817162841796875,-0.00001224316656589508,0.00007124640978872776,-0.0009846016764640808
1772535190787178800,4.8271787109375,-0.00024498882703483105,-0.0006562597118318081,0.0002007824368774891
1772535190797194800,4.83719482421875,0.000045828346628695726,0.00025560660287737846,-0.00019576214253902435
1772535190807210800,4.847210693359375,0.0002866123686544597,-0.0006175178568810225,0.0007275664247572422
1772535190817226800,4.857226806640625,-0.0005658654845319688,-0.00033602165058255196,0.0014572725631296635
1772535190827242800,4.86724267578125,0.00025546574033796787,-0.00015499303117394447,-0.001260522287338972
1772535190837258800,4.8772587890625,0.0013111426960676908,0.00040613487362861633,-0.00007754610851407051
1772535190847274800,4.887274658203125,-0.00043936463771387935,0.0006765841972082853,0.0006256492342799902
1772535190857290800,4.897290771484375,-0.0005650658276863396,0.0004315734840929508,-0.001027640886604786
1772535190867307800,4.907307861328125,0.0009344181744381785,0.00038332934491336346,-0.0001419386826455593
1772535190877323800,4.91732373046875,-0.0004951667506247759,-0.0007351981475949287,-0.00010065967217087746
1772535190887339800,4.92733984375,0.00037606520345434546,-0.0005416953936219215,0.000014133751392364502
1772535190897355800,4.937355712890625,-0.0002630934468470514,-0.0005861700046807528,0.0007054903544485569
1772535190907371800,4.947371826171875,-0.0018391821067780256,-0.0004307008348405361,0.0007655152585357428
1772535190917387800,4.9573876953125,-0.0002780371578410268,-0.00037583988159894943,0.00027416180819272995
1772535190927403800,4.96740380859375,-0.001537157455459237,-0.00030858046375215054,0.00003968505188822746
1772535190937419800,4.977419677734375,0.0010133517207577825,0.001126863295212388,0.0008157300762832165
1772535190947435800,4.987435791015625,0.00020433668396435678,0.00019502919167280197,0.00014801882207393646
1772535190957451800,4.99745166015625,0.0005532107898034155,0.00001446693204343319,-0.00012575415894389153
1772535190967467800,5.0074677734375,0.0007459864136762917,-0.0009440885623916984,0.000808429904282093
1772535190977483800,5.01748388671875,-0.0007547048153355718,0.00010626204311847687,-0.0003092987462878227
1772535190987499800,5.027499755859375,0.001349261961877346,0.00021487567573785782,-0.00010188622400164604
1772535190997515800,5.037515869140625,0.000468820973765105,-0.00012760679237544537,0.0005708280950784683
1772535191007531500,5.047531494140625,-0.000002169981598854065,-0.00016692443750798702,-0.000023840926587581635
1772535191017547800,5.0575478515625,-0.0005896632792428136,-0.0005469575989991426,0.0006568632088601589
1772535191027563800,5.067563720703125,0.00014296261360868812,0.0008419586811214685,0.0007411923725157976
1772535191037579800,5.077579833984375,-0.0007457342580892146,0.0003673834726214409,0.0006423890590667725
1772535191047595800,5.087595703125,0.00001679360866546631,-0.0005276431329548359,-0.0008750371634960175
1772535191057611800,5.09761181640625,0.0010351863456889987,-0.0009516184218227863,-0.0006337547674775124
1772535191067627800,5.107627685546875,0.00019838812295347452,0.00012863660231232643,0.00012542353942990303
1772535191077643800,5.117643798828125,-0.0013315979158505797,0.0006231856532394886,0.0000710953027009964
1772535191087660800,5.127660888671875,0.000029263552278280258,0.0016521371435374022,-0.00016099819913506508
1772535191097676800,5.1376767578125,-0.00023039465304464102,0.0005842095706611872,0.0005133142694830894
1772535191107692800,5.14769287109375,-0.000981067423708737,-0.0007628991734236479,0.0005416767671704292
1772535191117708800,5.157708740234375,-0.0017227578209713101,0.0002941093407571316,0.0014849684666842222
1772535191127724500,5.167724609375,0.0003062582982238382,0.0012559914030134678,-0.000010884366929531097
1772535191137740800,5.17774072265625,-0.0004988153232261539,0.0013380167074501514,0.0001979074440896511
1772535191147756800,5.1877568359375,-0.0010011682752519846,-0.0019088314147666097,-0.0005596019327640533
1772535191157772800,5.197772705078125,0.00010430993279442191,-0.0002616662532091141,0.0013980877120047808
1772535191167788800,5.207788818359375,0.00007316807750612497,-0.000016245292499661446,-0.0007653203792870045
1772535191177804800,5.2178046875,-0.0008602698799222708,-0.0001512675080448389,-0.00042390311136841774
1772535191187820800,5.22782080078125,0.000465230958070606,0.0008929374162107706,0.0010917596518993378
1772535191197836500,5.23783642578125,0.00010676949750632048,0.000918237492442131,0.0008941532578319311
1772535191207852800,5.247852783203125,-0.00006837176624685526,-0.00012304075062274933,0.002138843759894371
1772535191217868800,5.257868896484375,0.00031192763708531857,0.00020293006673455238,-0.0005770479328930378
1772535191227885000,5.267885009765625,0.000724558427464217,0.001738268882036209,0.00013827066868543625
1772535191237901000,5.277901123046875,0.00004119129152968526,-0.0015499360160902143,0.0016805073246359825
1772535191247917000,5.2879169921875,-0.00004470127169042826,0.0008214127738028765,0.0008867792785167694
1772535191257932800,5.297932861328125,0.0009443967137485743,0.0009697508066892624,0.00039755646139383316
1772535191267948800,5.30794873046875,-0.0008138299454003572,0.0006315934006124735,-0.0016066338866949081
1772535191278581800,5.318581787109375,-0.0001562954275868833,-0.00036975531838834286,0.0003449302166700363
1772535191288607000,5.32860693359375,-0.0017222341848537326,-0.00012847292236983776,0.00002188887447118759
1772535191298622700,5.338622802734375,-0.00019131507724523544,0.001130528748035431,-0.0009597302414476871
1772535191308639000,5.348638916015625,-0.0007611717446707189,0.00020813639275729656,0.0006634171586483717
1772535191318655000,5.358655029296875,-0.0009185645612888038,-0.0010890893172472715,0.0015483854804188013
1772535191328672000,5.368672119140625,0.0003570896224118769,0.0006161327473819256,0.00043438514694571495
1772535191338688000,5.37868798828125,-0.0006229404825717211,0.0007809442467987537,0.00021868431940674782
1772535191348703700,5.388703857421875,-0.0004330570809543133,-0.00033385492861270905,-0.0010047722607851028
1772535191358720000,5.398719970703125,0.0002920467231888324,0.001103012589737773,-0.0007031545974314213
1772535191368736000,5.408736083984375,-0.00021874753292649984,-0.0010842416668310761,0.0007767642382532358
1772535191378752000,5.418751953125,0.0005490558105520904,-0.0012093951227143407,-0.00006681261584162712
1772535191388768000,5.42876806640625,0.0016731761861592531,0.001066009746864438,0.0013691636268049479
1772535191398784000,5.438783935546875,-0.0005271507543511689,0.00006859190762042999,0.0009013812523335218
1772535191408800000,5.448800048828125,0.000734122411813587,-0.0014707151567563415,-0.0010749506764113903
1772535191418815700,5.458815673828125,0.0001611071638762951,-0.00047526019625365734,0.0010717695113271475
1772535191428832000,5.46883203125,0.0010533247841522098,-0.0008616058621555567,-0.0003451989032328129
1772535191438848000,5.478847900390625,-0.0006428424967452884,0.0010819691233336926,0.0008692024275660515
1772535191448864000,5.488864013671875,0.0015247042756527662,0.0009075321722775698,0.00051473593339324
1772535191458880000,5.4988798828125,-0.0009843830484896898,0.0005987647455185652,0.0018048947677016258
1772535191468896000,5.50889599609375,0.0012490891385823488,-0.00028208596631884575,0.0003614034503698349
1772535191478912000,5.518912109375,-0.0012771855108439922,-0.000607257941737771,-0.0013629933819174767
1772535191488928000,5.528927978515625,0.0006743789417669177,-0.0010400216560810804,-0.0005885460413992405
1772535191498944000,5.538944091796875,0.0006762290722690523,-0.0009278643410652876,-0.0012411968782544136
1772535191508960000,5.5489599609375,-0.00035497930366545916,0.0008409479632973671,-0.0005323244258761406
1772535191518976000,5.55897607421875,0.0006029597716405988,-0.00034682173281908035,-0.0010934527963399887
1772535191528992000,5.568991943359375,-0.0011094528017565608,0.000885689165443182,-0.00021221255883574486
1772535191539008000,5.579008056640625,-0.0012839754344895482,-0.0002354760654270649,-0.0005794530734419823
1772535191549025000,5.58902490234375,-0.00032257428392767906,-0.0005752954166382551,0.000014698132872581482
1772535191559041000,5.599041015625,0.0009722227114252746,0.00007683737203478813,0.0005334329325705767
1772535191569057000,5.60905712890625,-0.00013911438873037696,0.0003231798764318228,-0.00031425105407834053
1772535191579073000,5.619072998046875,-0.001195861492305994,-0.0013806921197101474,0.0011359017807990313
1772535191589089000,5.629089111328125,-0.0006926910718902946,0.0003277938812971115,0.0009820726700127125
1772535191599104800,5.639104736328125,0.00045806082198396325,0.00018984219059348106,0.0011967234313488007
1772535191609120800,5.649120849609375,-0.0002788358833640814,0.0013528447598218918,0.0006798040121793747
1772535191619137000,5.659136962890625,-0.0004194476059637964,0.0004407884553074837,0.000004706438630819321
1772535191629153000,5.669153076171875,0.0003731660544872284,0.00025044940412044525,0.0008747659157961607
1772535191639169000,5.6791689453125,0.0005350862629711628,0.0002243504859507084,0.00007235538214445114
1772535191649185000,5.68918505859375,-0.00002604181645438075,-0.0004374450072646141,0.0010918136686086655
1772535191659201000,5.699200927734375,-0.00019178353250026703,-0.0003390845376998186,0.00040606316179037094
1772535191669216800,5.709216796875,0.00032167386962100863,-0.000501271104440093,-0.00009780703112483025
1772535191679233000,5.71923291015625,-0.0012846258468925953,-0.0009730729507282376,0.0009536512661725283
1772535191689249000,5.7292490234375,-0.0018609340768307447,0.00048394245095551014,-0.0007262704893946648
1772535191699265000,5.73926513671875,-0.00039478816324844956,0.00013641174882650375,-0.000014534685760736465
1772535191709281000,5.749281005859375,0.002120833843946457,0.00003521144390106201,-0.0001074792817234993
1772535191719297000,5.759297119140625,0.0005469602765515447,-0.00012559397146105766,0.0001616072840988636
1772535191729313000,5.76931298828125,0.0003368368197698146,0.000869629206135869,-0.0003670300357043743
1772535191739328800,5.779328857421875,0.0009209386771544814,-0.00019540870562195778,-0.0003568441607058048
1772535191749345000,5.789344970703125,-0.0003749554743990302,-0.0004047330003231764,-0.00031103799119591713
1772535191759361000,5.799361083984375,0.0005679221358150244,-0.00041651027277112007,-0.00039379484951496124
1772535191769377000,5.809376953125,0.00008562370203435421,-0.0003749649040400982,-0.0009386776946485043
1772535191779393000,5.81939306640625,0.0005610817461274564,0.00041787605732679367,-0.000620491337031126
1772535191789409800,5.829409912109375,-0.0014610565267503262,-0.0014069220051169395,-0.0009797518141567707
1772535191799426000,5.839426025390625,-0.0009610458509996533,0.0008295159786939621,0.00005893269553780556
1772535191809442000,5.849442138671875,0.0001593459746800363,0.0004404280334711075,0.0006429639179259539
1772535191819458000,5.8594580078125,0.0003398935659788549,0.00032263947650790215,0.0004858076572418213
1772535191829474000,5.86947412109375,0.0004054073360748589,0.0006414197850972414,0.0003260178491473198
1772535191839490000,5.879489990234375,-0.001231600996106863,0.00028167921118438244,0.00018738768994808197
1772535191849505800,5.889505859375,-0.00023850821889936924,-0.00035002268850803375,-0.0004272698424756527
1772535191859521800,5.899521728515625,0.0002635711571201682,0.000590616138651967,0.0009598759934306145
1772535191869538000,5.9095380859375,-0.00028077897150069475,-0.001432853634469211,-0.00007156608626246452
1772535191879554000,5.919553955078125,0.0014058356173336506,0.0007761672604829073,0.0007627455051988363
1772535191889570000,5.929570068359375,-0.00009885046165436506,0.0004834858700633049,-0.000581617932766676
1772535191899586000,5.9395859375,-0.0010035551385954022,0.0009797720704227686,-0.000002505257725715637
1772535191909602000,5.94960205078125,0.0003432054363656789,-0.00042690965346992016,0.00018338346853852272
1772535191919617800,5.95961767578125,-0.0008568351622670889,-0.00013878894969820976,0.0006220582872629166
1772535191929633800,5.9696337890625,0.0005149591015651822,0.0016231585759669542,0.0006127371452748775
1772535191939650000,5.979650146484375,-0.0016033691354095936,0.0002594275865703821,-0.0006146351806819439
1772535191949666000,5.989666015625,0.0015383618883788586,0.0010426633525639772,-0.0006252876482903957
1772535191959682000,5.99968212890625,0.0000365503947250545,0.0002514526713639498,0.0014014006592333317
1772535191969698000,6.009697998046875,0.00016704527661204338,-0.00012538465671241283,0.00014785071834921837
1772535191979713800,6.0197138671875,-0.0009898585267364979,0.00047961738891899586,-0.00009931856766343117
1772535191989729800,6.029729736328125,0.00031775355455465615,0.0016514081507921219,0.0007771276868879795
1772535191999745800,6.039745849609375,-0.0005146879702806473,-0.0011575528187677264,-0.0015401262789964676
1772535192009762000,6.049761962890625,-0.00038765522185713053,0.0006488694343715906,0.00034912023693323135
1772535192019779000,6.059779052734375,0.000648272514808923,-0.00022749649360775948,0.0018037082627415657
1772535192029794800,6.069794921875,0.000767315796110779,-0.0011257807491347194,0.0003016856499016285
1772535192039810800,6.079810791015625,-0.0003747484879568219,0.000374410068616271,0.0013499350752681494
1772535192049826800,6.089826904296875,0.0002188700600527227,-0.0006367922760546207,0.0011872160248458385
1772535192059843000,6.099843017578125,0.00009312783367931843,0.0006419389974325895,-0.0007643382996320724
1772535192069859000,6.109859130859375,0.0006262926617637277,0.0007173065096139908,0.0005043917335569859
1772535192079875000,6.119875,0.00032179427216760814,0.0010162433609366417,-0.00027177995070815086
1772535192089891000,6.12989111328125,-0.0009703714167699218,-0.00008018012158572674,-0.00046912021934986115
1772535192099906800,6.13990673828125,-0.0005302468198351562,-0.0005619453731924295,0.0006545137148350477
1772535192109922800,6.1499228515625,0.0014269102830439806,0.001019439660012722,0.0005455904174596071
1772535192119938800,6.159938720703125,0.0002560761640779674,-0.0014614601386711001,0.0009811182972043753
1772535192129955000,6.169955078125,-0.00038601201958954334,0.0011164797469973564,0.001456758938729763
1772535192139971000,6.17997119140625,0.0000896959681995213,0.00006615137681365013,-0.002003911416977644
1772535192149987000,6.189987060546875,-0.0013028709217905998,0.00037507805973291397,-0.00026753032580018044
1772535192160003000,6.200003173828125,-0.00011425034608691931,-0.0005029255989938974,0.0005673361010849476
1772535192170018800,6.210018798828125,0.0005302346544340253,0.0004949606955051422,0.0002080756239593029
1772535192180034800,6.220034912109375,-0.00023197324480861425,0.00019666412845253944,0.00011556781828403473
1772535192190051000,6.230051025390625,-0.000570461037568748,0.0009119892492890358,-0.0001890980638563633
1772535192200067000,6.240067138671875,-0.0015385878505185246,-0.0010837764712050557,-0.0013254028744995594
1772535192210083000,6.2500830078125,0.00009259837679564953,-0.0007530117873102427,0.0013489434495568275
1772535192220099000,6.26009912109375,0.0002533743972890079,-0.00035672890953719616,0.00014990940690040588
1772535192230115600,6.270115478515625,0.000598520040512085,0.00014261365868151188,0.0002897251397371292
1772535192240131600,6.280131591796875,-0.0015908718341961503,0.0009475022088736296,-0.0009158514440059662
1772535192250148600,6.290148681640625,-0.002018309198319912,0.0002449601888656616,0.0009137401357293129
1772535192260164900,6.300164794921875,-0.0005338324699550867,0.0010115953627973795,-0.0003652554005384445
1772535192270180600,6.3101806640625,0.00007789564551785588,0.0009484784677624702,0.0016946997493505478
1772535192280196600,6.320196533203125,0.001167107606306672,0.00040304847061634064,0.0004200623370707035
1772535192290212600,6.330212646484375,0.0004693593655247241,0.0003761504776775837,-0.0012537343427538872
1772535192300228600,6.340228515625,0.00037770369090139866,-0.0007367701036855578,-0.0009006843902170658
1772535192310244600,6.35024462890625,0.001161205698736012,0.00045259762555360794,-0.0009744535200297832
1772535192320260600,6.360260498046875,0.00020795984892174602,-0.0005434262566268444,0.00021732458844780922
1772535192330276600,6.370276611328125,0.00014324503717944026,0.0001796218566596508,-0.0005049244500696659
1772535192340292600,6.380292724609375,-0.0002645784988999367,-0.00010295072570443153,0.0006860119756311178
1772535192350308600,6.39030859375,-0.0011229153024032712,0.0004238225519657135,-0.0017899288795888424
1772535192360324600,6.40032470703125,0.0002202406758442521,-0.00029262155294418335,-0.0015453989617526531
1772535192370340600,6.410340576171875,-0.0015028244815766811,0.00042083929292857647,0.0007230816408991814
1772535192380356600,6.420356689453125,0.0002049779868684709,0.0011883566621690989,0.00050387904047966
1772535192390372600,6.43037255859375,-0.00015534769045189023,-0.00008117221295833588,-0.00019280379638075829
1772535192400388600,6.440388671875,0.0007495998288504779,-0.0006040614098310471,-0.0007886989042162895
1772535192410404600,6.450404541015625,-0.0004594753263518214,-0.0006932774558663368,0.00004380522295832634
1772535192420420600,6.460420654296875,-0.0014738566242158413,-0.000047001754865050316,-0.00012674741446971893
1772535192430436600,6.4704365234375,-0.0001529288711026311,-0.00039827264845371246,0.00010734423995018005
1772535192440452600,6.48045263671875,0.00010830286191776395,0.00006969086825847626,0.0018672344740480185
1772535192450468600,6.490468505859375,0.0009099143208004534,0.00023214356042444706,0.0000022226013243198395
1772535192460484900,6.50048486328125,-0.00005060067633166909,-0.00030185654759407043,-0.00115156639367342
1772535192470500600,6.51050048828125,0.0009307741420343518,-0.0006496652495115995,-0.001138783060014248
1772535192480517600,6.520517578125,-0.0003900617593899369,-0.001250472036190331,0.0003091413527727127
1772535192490533600,6.53053369140625,0.00046055184793658555,-0.0016113304300233722,-0.00038993824273347855
1772535192500549600,6.540549560546875,0.0013926068786531687,-0.000035006552934646606,-0.0011794939637184143
1772535192510565600,6.550565673828125,0.00022108241682872176,-0.0005540566053241491,0.0008623513858765364
1772535192520581600,6.56058154296875,0.0015113996341824532,-0.0005372418090701103,-0.0009342883713543415
1772535192530597600,6.57059765625,0.00139501946978271,-0.0006757262162864208,0.00056427251547575
1772535192540613600,6.580613525390625,0.0005265303188934922,-0.0004324386827647686,-0.0009547220543026924
1772535192550629600,6.590629638671875,0.0002740626223385334,-0.0003501470200717449,-0.00007721036672592163
1772535192560645600,6.600645751953125,0.0014589345082640648,-0.001030580373480916,-0.00007171649485826492
1772535192570661600,6.61066162109375,-0.0009765262948349118,-0.00001964438706636429,0.00021404074504971504
1772535192580677600,6.620677734375,0.00023531552869826555,-0.001393139362335205,-0.0003496832214295864
1772535192590693600,6.630693603515625,-0.00003366370219737291,0.0005909155588597059,0.00014699622988700867
1772535192600709600,6.640709716796875,0.0022759458515793085,0.00018911599181592464,-0.0003712838515639305
1772535192610725600,6.6507255859375,-0.0008865579729899764,-0.00035709841176867485,-0.00005170423537492752
1772535192620741600,6.66074169921875,0.0001637748209759593,-0.00010651117190718651,-0.000039845239371061325
1772535192630757600,6.670757568359375,-0.0003885648329742253,-0.0009030626388266683,0.0009378010872751474
1772535192640773600,6.680773681640625,0.001670073252171278,-0.0006677338387817144,-0.00019679870456457138
1772535192650789600,6.69078955078125,0.00041172970668412745,0.000934157520532608,-0.0012551387771964073
1772535192660805600,6.7008056640625,-0.00025752512738108635,0.0003447597846388817,-0.00011974293738603592
1772535192670821600,6.710821533203125,0.00045220728497952223,0.00006912252865731716,-0.0006702183745801449
1772535192680837600,6.720837646484375,0.0011033741757273674,0.0005499150138348341,-0.0009763608686625957
1772535192690853600,6.730853515625,0.0016647684387862682,-0.0001262614969164133,0.0002492256462574005
1772535192700869600,6.74086962890625,0.0009250103030353785,-0.0006029605865478516,0.0009895148687064648
1772535192710885600,6.7508857421875,0.0014421961968764663,0.0007792199030518532,-0.00025205081328749657
1772535192720901600,6.760901611328125,0.00009628367843106389,-0.0006266471464186907,0.000463931355625391
1772535192730918700,6.770918701171875,0.00011519214604049921,0.00034407502971589565,0.001066072378307581
1772535192740934700,6.7809345703125,-0.0004204210126772523,0.0005713803693652153,-0.00006961682811379433
1772535192750950700,6.79095068359375,0.0002285913797095418,-0.0005849641747772694,0.000012142583727836609
1772535192760966700,6.800966552734375,-0.0006719075608998537,-0.0005519525147974491,0.0006709671579301357
1772535192770982700,6.810982666015625,-0.0009118582820519805,0.00042835716158151627,0.00018440745770931244
1772535192780998700,6.82099853515625,0.000185679760761559,0.0005678089801222086,0.000033935997635126114
1772535192791014700,6.8310146484375,-0.0007789172232151031,0.0002631433308124542,0.000367630273103714
1772535192801030700,6.84103076171875,-0.0003580240299925208,-0.0003464913461357355,0.0005374522879719734
1772535192811046700,6.851046630859375,0.0012428021291270852,-0.0007259917911142111,-0.0005049090832471848
1772535192821062700,6.861062744140625,0.0004488140984904021,0.000012895558029413223,-0.0010158447548747063
1772535192831078700,6.87107861328125,-0.0009671886218711734,0.0002653631381690502,0.0010331911034882069
1772535192841094700,6.8810947265625,-0.0006024708272889256,-0.0008758431067690253,0.0007241540588438511
1772535192851110700,6.891110595703125,0.001196494558826089,0.0007156620267778635,0.0005321400240063667
1772535192861126700,6.901126708984375,0.00020232651149854064,0.0003915873821824789,0.00046239886432886124
1772535192871142700,6.911142578125,-0.0006240523071028292,0.0000738722737878561,-0.00041191698983311653
1772535192881158700,6.92115869140625,0.00055015052203089,0.0008541252464056015,0.0014762496575713158
1772535192891174700,6.931174560546875,0.00015067635104060173,0.0003518529701977968,-0.0006228536367416382
1772535192901190400,6.9411904296875,0.0007360409363172948,0.0002898313105106354,-0.0016662483103573322
1772535192911206700,6.95120654296875,-0.0001537211937829852,-0.0009376197122037411,-0.0005053766071796417
1772535192921222700,6.96122265625,-0.0008275600266642869,-0.00008886773139238358,0.00017649447545409203
1772535192931238700,6.97123876953125,0.0005543542793020606,-0.0005868789739906788,0.000724306795746088
1772535192941254700,6.981254638671875,0.0009795241057872772,0.0011476518120616674,0.0011041918769478798
1772535192951270700,6.991270751953125,-0.0006255630869418383,0.0001737338025122881,-0.0014335345476865768
1772535192961286700,7.00128662109375,0.00013068522093817592,-0.0003548990935087204,0.000012035947293043137
1772535192971302700,7.011302734375,-0.00039235956501215696,0.0007814718410372734,-0.0002683950588107109
1772535192981319700,7.021319580078125,-0.00027976150158792734,0.0005792370066046715,0.0003314381465315819
1772535192991335700,7.031335693359375,0.0010089421411976218,-0.0005406220443546772,-0.0005833576433360577
1772535193001351700,7.0413515625,-0.0010809543309733272,-0.0004629036411643028,-0.0003236238844692707
1772535193011367700,7.05136767578125,0.0014037750661373138,0.00031021214090287685,0.0003352421335875988
1772535193021383400,7.061383544921875,0.0005021210527047515,0.00018531642854213715,0.0010875060688704252
1772535193031399700,7.071399658203125,-0.00009149755351245403,0.000637521268799901,-0.00006511015817523003
1772535193041415700,7.081415771484375,-0.0011710216058418155,-0.000895234290510416,-0.0010483013466000557
1772535193051431700,7.091431640625,0.0003163537476211786,0.00017722067423164845,0.0011448119767010212
1772535193061447700,7.10144775390625,0.0006958405137993395,-0.0007245172746479511,-0.000049744732677936554
1772535193071463700,7.111463623046875,-0.0011574532836675644,0.00028375559486448765,0.0006882171146571636
1772535193081479400,7.1214794921875,0.0011354385642334819,0.0005168160423636436,0.0013245567679405212
1772535193091495400,7.131495361328125,0.0021397166419774294,-0.0002030364703387022,-0.00004777032881975174
1772535193101511700,7.14151171875,0.0005971185164526105,0.000758246285840869,0.0004881075583398342
1772535193111527700,7.151527587890625,-0.0006497734575532377,0.00027408357709646225,-0.00008074333891272545
1772535193121543700,7.161543701171875,-0.0008212176035158336,-0.00019176467321813107,0.0005445363931357861
1772535193131559700,7.1715595703125,0.0009793455246835947,-0.0005121428985148668,-0.0005713282153010368
1772535193141575700,7.18157568359375,-0.0011931837070733309,-0.00023924047127366066,0.0001342659816145897
1772535193151591400,7.19159130859375,0.000295789708616212,0.00018739793449640274,0.00021522585302591324
1772535193161607700,7.201607666015625,-0.0010548396967351437,0.00009604566730558872,-0.0000037886202335357666
1772535193171623700,7.211623779296875,-0.00012859218986704946,0.001090470002964139,0.0008164646569639444
1772535193181639700,7.2216396484375,-0.000907127046957612,-0.0002602539025247097,-0.0011084871366620064
1772535193191655700,7.23165576171875,-0.0001390713732689619,-0.00010312744416296482,0.0007834227290004492
1772535193201671700,7.241671630859375,-0.00017888459842652082,0.0005106064490973949,-0.00027480069547891617
1772535193211687700,7.251687744140625,-0.0015480156289413571,-0.00032775686122477055,0.001059176865965128
1772535193221703400,7.261703369140625,-0.00041542231338098645,-0.0015007315669208765,-0.0003370638005435467
1772535193231720200,7.27172021484375,-0.0004391244729049504,0.00005482090637087822,-0.0004289429634809494
1772535193241736200,7.281736083984375,0.00037765587330795825,0.0003253358881920576,0.0000794772058725357
1772535193251752200,7.291752197265625,-0.0001033110311254859,-0.0005612303502857685,0.00043927039951086044
1772535193261768200,7.301768310546875,-0.00025441317120566964,-0.0017195773543789983,0.000324789434671402
1772535193271784200,7.3117841796875,0.0005844825645908713,0.0005909812171012163,0.0009189408738166094
1772535193281800200,7.32180029296875,0.0010834948625415564,0.0006597661413252354,-0.002188347280025482
1772535193291816200,7.331816162109375,0.0008091892232187092,-0.0005586300976574421,0.00020370399579405785
1772535193301832200,7.341832275390625,0.00012550054816529155,0.00022568576969206333,-0.000684462022036314
1772535193311848200,7.35184814453125,0.00038329456583596766,-0.00013517262414097786,0.0004180870018899441
1772535193321864200,7.3618642578125,-0.0009510028176009655,-0.0002045163419097662,0.000051552895456552505
1772535193331880400,7.37188037109375,0.0003925619530491531,-0.0000029150396585464478,-0.0000818716362118721
1772535193341896200,7.381896240234375,-0.0008139701676554978,0.0003631522413343191,0.0006783406715840101
1772535193351912200,7.391912109375,-0.00017294730059802532,-0.001606521662324667,-0.00029637617990374565
1772535193361928200,7.40192822265625,-0.0007496012840420008,0.00014378526248037815,-0.000817704014480114
1772535193371944200,7.411944091796875,-0.0005951379425823689,-0.0009475779952481389,0.00040974654257297516
1772535193381960200,7.421960205078125,0.0007585023995488882,-0.00030576554127037525,0.000022555235773324966
1772535193391976200,7.43197607421875,0.0005779400817118585,-0.000489257276058197,0.0007842194754630327
1772535193401992400,7.441992431640625,-0.0008981419960036874,-0.001190977985970676,0.00011105556041002274
1772535193412008200,7.45200830078125,-0.0007692450890317559,0.0018852395005524158,-0.00041545135900378227
1772535193422024200,7.462024169921875,-0.0021983529441058636,0.0002816033083945513,0.0008040007669478655
1772535193432040200,7.472040283203125,0.0002554836974013597,0.00043952884152531624,-0.000001339241862297058
1772535193442056200,7.48205615234375,-0.000053434399887919426,-0.00021695299074053764,-0.001391529105603695
1772535193452072200,7.492072265625,-0.0008169626235030591,-0.00046755652874708176,0.00009344937279820442
1772535193462088200,7.502088134765625,-0.0006655128672719002,-0.001261250814422965,0.0004173675552010536
1772535193472104200,7.512104248046875,0.0002884314744733274,-0.0005627037025988102,-0.00032991543412208557
1772535193482121200,7.522121337890625,0.00008027668809518218,-0.00010764389298856258,0.0004248046316206455
1772535193492137200,7.53213720703125,0.0006901405868120492,-0.0004634421784430742,-0.0005930555053055286
1772535193502153200,7.5421533203125,0.0013629479799419641,0.0011977544054389,-0.001431741751730442
1772535193512169200,7.552169189453125,0.0012020932044833899,0.002039579674601555,0.0002314024604856968
1772535193522185200,7.562185302734375,0.0002630765666253865,0.001092021120712161,0.0008544588927179575
1772535193532201200,7.572201171875,0.00026067972066812217,-0.0000643234234303236,-0.0016563693061470985
1772535193542217200,7.58221728515625,0.0004670756752602756,-0.00006179092451930046,0.0010682097636163235
1772535193552233200,7.592233154296875,0.0021533891558647156,-0.0004199862014502287,-0.00007215561345219612
1772535193562249200,7.602249267578125,-0.0007463954971171916,0.00058957957662642,-0.0012600556947290897
1772535193572265200,7.61226513671875,-0.00021802436094731092,-0.000017887447029352188,0.00022918405011296272
1772535193582281200,7.62228125,-0.0030812975019216537,-0.0006342199631035328,-0.000033783260732889175
1772535193592297200,7.632297119140625,-0.0007688748883083463,0.0010001619812101126,0.00032387906685471535
1772535193602313200,7.642313232421875,-0.0012492745881900191,0.0014073112979531288,0.0021549551747739315
1772535193612329200,7.6523291015625,0.0006112097762525082,0.0020097182132303715,-0.0006544133648276329
1772535193622345200,7.66234521484375,0.0001792853290680796,-0.00036585424095392227,0.0002557998523116112
1772535193632361200,7.672361328125,0.0005457362858578563,0.000033886171877384186,-0.0010795090347528458
1772535193642377200,7.682377197265625,-0.0018560693133622408,0.0006883679889142513,-0.0008721309714019299
1772535193652393200,7.692393310546875,0.00042199861491099,-0.0003358835820108652,0.0005808896385133266
1772535193662409200,7.7024091796875,0.0015486626653000712,-0.0004072110168635845,0.00017646187916398048
1772535193672425200,7.71242529296875,0.0006122952327132225,0.0001760211307555437,-0.0009348751045763493
1772535193682441200,7.722441162109375,-0.0010415450669825077,-0.0015222240472212434,-0.000010013114660978317
1772535193692457200,7.732457275390625,0.00029429642017930746,-0.0004497689660638571,0.0005958559922873974
1772535193702473200,7.74247314453125,0.00027385575231164694,0.0011994231026619673,-0.0005183331668376923
1772535193712489200,7.7524892578125,-0.0018185898661613464,-0.0010639975080266595,0.00006569782271981239
1772535193722505200,7.762505126953125,0.0005747040268033743,-0.0010230623884126544,0.0019618128426373005
1772535193732521200,7.772521240234375,-0.0019768704660236835,0.000027554575353860855,-0.0005109324119985104
1772535193742538200,7.782538330078125,0.0010618115775287151,-0.0007236434612423182,-0.00015300465747714043
1772535193752554200,7.79255419921875,0.0013835214776918292,-0.000025362707674503326,0.0006259700749069452
1772535193762570200,7.8025703125,-0.001978096552193165,-0.0019064643420279026,0.0006574166473001242
1772535193772586000,7.8125859375,-0.00021455122623592615,0.00013458216562867165,-0.00029013585299253464
1772535193782602200,7.822602294921875,0.0009777210652828217,0.0008837021887302399,0.0003825281746685505
1772535193792618200,7.8326181640625,0.002219020389020443,-0.00022364011965692043,-0.0006630290299654007
1772535193802634200,7.84263427734375,0.00022173204342834651,-0.0009096243884414434,-0.00012383144348859787
1772535193812650200,7.852650146484375,-0.00027947488706558943,-0.0014531755587086082,-0.0009725810959935188
1772535193822666200,7.862666259765625,0.0001195768709294498,-0.0009228996932506561,0.002672592643648386
1772535193832682200,7.87268212890625,-0.0003848258638754487,0.0010118868667632341,0.0007151693571358919
1772535193842698000,7.882697998046875,-0.0006110288086347282,-0.0002855970524251461,-0.0015651057474315166
1772535193852714200,7.89271435546875,-0.0000973050482571125,0.0006030998192727566,0.00043279770761728287
1772535193862730200,7.902730224609375,0.00008325252565555274,-0.0012650575954467058,0.00011443672701716423
1772535193872746200,7.912746337890625,-0.0012169026304036379,0.0011054221540689468,-0.0005407007411122322
1772535193882762200,7.92276220703125,-0.0003857846895698458,-0.0000029122456908226013,-0.0007043466903269291
1772535193892778200,7.9327783203125,-0.00040868789074011147,0.0006556876469403505,-0.0007328423671424389
1772535193902794200,7.942794189453125,-0.0020607607439160347,-0.0010157396318390965,0.0002659098245203495
1772535193912810200,7.952810302734375,-0.0002002763212658465,0.0012583336792886257,0.00010132649913430214
1772535193922826200,7.962826171875,-0.0003793907235376537,0.000025998800992965698,0.0006046160124242306
1772535193932842200,7.97284228515625,-0.000019065046217292547,-0.0013884060317650437,-0.0012113936245441437
1772535193942858200,7.982858154296875,-0.0007897409959696233,-0.0006650181021541357,0.0008878358639776707
1772535193952874200,7.992874267578125,0.0013072320725768805,-0.0007803330663591623,0.0007490853313356638
1772535193962890200,8.00289013671875,-0.0006269091391004622,-0.00048634991981089115,-0.00006654253229498863
1772535193972906200,8.01290625,-0.00033023301512002945,0.0007557482458651066,-0.0007938514463603497
1772535193982922200,8.022922119140626,0.00034510428667999804,-0.0010797902941703796,-0.0007599894888699055
1772535193992938200,8.032938232421875,-0.0002873964549507946,-0.0017671521054580808,-0.002203422598540783
1772535194002954200,8.042954345703125,0.0004542825336102396,0.0005197413265705109,-0.00018995488062500954
1772535194012971300,8.05297119140625,-0.000664777762722224,-0.0009905373444780707,-0.00010846229270100594
1772535194022987000,8.062987060546876,-0.00040578836342319846,0.0006180217023938894,0.0015200052876025438
1772535194033003300,8.073003173828125,0.0014064926654100418,-0.0007540388032793999,0.00023689446970820427
1772535194043019300,8.083019287109375,0.0007230786141008139,0.0007496138568967581,-0.0008630566298961639
1772535194053035300,8.09303515625,-0.0002913194184657186,-0.000556400278583169,0.0006576082669198513
1772535194063051300,8.10305126953125,0.000018093938706442714,0.0005493632052093744,-0.0001514148898422718
1772535194073067300,8.1130673828125,-0.0002173295069951564,0.00006440142169594765,0.00014765793457627296
1772535194083083300,8.123083251953124,0.00007717363769188523,-0.0005898273084312677,-0.0006134137511253357
1772535194093099000,8.13309912109375,0.00005347150727175176,0.0007412207778543234,0.0010563882533460855
1772535194103115300,8.143115234375,-0.0005983652081340551,0.00024012825451791286,0.0013018723111599684
1772535194113131300,8.15313134765625,-0.0008566918550059199,-0.00005761324428021908,0.0017503486014902592
1772535194123147300,8.163147216796874,-0.0020638401620090008,0.0009272000752389431,0.0008862181566655636
1772535194133163300,8.173163330078125,-0.00017193047096952796,0.00047819106839597225,-0.0004197959788143635
1772535194143179300,8.18317919921875,0.000050083239329978824,0.0006746549624949694,-0.00026821019127964973
1772535194153195300,8.1931953125,-0.0023560828994959593,-0.00015225657261908054,0.00021142512559890747
1772535194163211000,8.2032109375,0.0002713724388740957,0.00021770037710666656,0.00105803064070642
1772535194173227300,8.213227294921875,-0.00035020936047658324,-0.0006331794429570436,-0.00019205734133720398
1772535194183243300,8.2232431640625,-0.000020185252651572227,0.0015203207731246948,-0.0011227470822632313
1772535194193259300,8.23325927734375,-0.00029928452568128705,0.0006489346269518137,-0.00033658184111118317
1772535194203275300,8.243275146484375,-0.0011843780521303415,-0.0009022168815135956,-0.0017381543293595314
1772535194213291300,8.253291259765625,0.001842837082222104,-0.0003940856549888849,0.00000461796298623085
1772535194223307000,8.26330712890625,0.0010744796600192785,-0.00014122063294053078,0.0003047958016395569
1772535194233322800,8.27332275390625,-0.0001327312202192843,-0.0019761386793106794,-0.0011183973401784897
1772535194243339000,8.283339111328125,-0.0010838983580470085,0.00027499254792928696,-0.0007775290869176388
1772535194253355000,8.29335498046875,-0.0012442206498235464,0.00013277982361614704,0.0001537785865366459
1772535194263371000,8.30337109375,-0.0008369931019842625,-0.0000692929606884718,-0.0007926849648356438
1772535194273388000,8.313387939453126,-0.00008518266258761287,0.000530983554199338,-0.0008880263194441795
1772535194283403800,8.32340380859375,-0.0003371062921360135,-0.00038137007504701614,-0.000052895862609148026
1772535194293420000,8.333419921875,-0.0015738783404231071,-0.0006343703716993332,-0.00022733258083462715
1772535194303436000,8.34343603515625,0.0005287683452479541,0.0003100563772022724,-0.0021635843440890312
1772535194313452000,8.3534521484375,-0.0010715251555666327,-0.00002417038194835186,-0.0004791351966559887
1772535194323468000,8.363468017578125,0.0005097863613627851,0.0007974521722644567,-0.001256994903087616
1772535194333484000,8.373484130859374,-0.0011232639662921429,-0.0011530470801517367,0.0006508936639875174
1772535194343499800,8.383499755859376,0.00009261880768463016,-0.0003919391892850399,-0.0005390318110585213
1772535194353515800,8.393515869140625,-0.0015646663960069418,-0.0018092736136168242,0.00026151444762945175
1772535194363532000,8.403531982421875,0.0003145369701087475,0.0005348441191017628,0.00131545914337039
1772535194373548000,8.413548095703124,-0.0006623105145990849,-0.0002289505209773779,0.0006778982933610678
1772535194383564000,8.42356396484375,-0.0011364812962710857,-0.000013415934517979622,0.000779834808781743
1772535194393580000,8.433580078125,-0.0009716315544210374,0.0002971086651086807,0.00009140791371464729
1772535194403596000,8.443595947265624,0.00013034557923674583,-0.00008611101657152176,-0.0009446148760616779
1772535194413611800,8.45361181640625,0.00016842878540046513,0.0008081784471869469,-0.00021304422989487648
1772535194423627800,8.463627685546875,0.0014818375930190086,0.00026648305356502533,0.0005622603930532932
1772535194433644000,8.47364404296875,0.0001531864982098341,-0.0007439202163368464,-0.00008408864960074425
1772535194443660000,8.483659912109376,-0.0009296798962168396,-0.0001799610909074545,0.001371496357023716
1772535194453676000,8.493676025390625,0.0006152198184281588,-0.0005517385434359312,0.0000867876224219799
1772535194463692000,8.503692138671875,0.0002651374088600278,-0.0014232121175155044,-0.0001964080147445202
1772535194473708000,8.5137080078125,-0.00031942641362547874,-0.00018457602709531784,0.00033862143754959106
1772535194483723800,8.523723876953126,0.00012649764539673924,0.00041372794657945633,0.0014633762184530497
1772535194493740000,8.533739990234375,0.00042903271969407797,0.0000020032748579978943,0.0015336836222559214
1772535194503756000,8.543756103515625,0.000020691717509180307,0.0008549734484404325,0.0007994400802999735
1772535194513772000,8.55377197265625,0.0009280306985601783,-0.0010414636926725507,0.00044843554496765137
1772535194523788000,8.5637880859375,-0.00001293933019042015,0.0004219585098326206,-0.000586243811994791
1772535194533804000,8.573803955078125,-0.0001319826114922762,0.0005721608176827431,-0.0017881286330521107
1772535194543820800,8.58382080078125,0.0004348608199506998,-0.0007777244318276644,0.0008568956982344389
1772535194553837000,8.593837158203126,0.0002835932536982,0.0005400076042860746,-0.000037393998354673386
1772535194563853000,8.60385302734375,0.0006956568686291575,-0.0011419745860621333,0.00009476672857999802
1772535194573869000,8.613869140625,-0.0004742697929032147,0.001111326040700078,-0.0010772906243801117
1772535194583885000,8.623885009765624,-0.0006554941646754742,0.0008245701901614666,-0.0005110963247716427
1772535194593900800,8.63390087890625,0.0011993974912911654,-0.0001860994379967451,0.0006204806268215179
1772535194603916800,8.643916748046875,-0.0009190539713017642,-0.00023233145475387573,0.00034255487844347954
1772535194613932800,8.653932861328125,-0.0012143985368311405,0.0011839375365525484,-0.00043615372851490974
1772535194623949000,8.663948974609376,0.0001819640165194869,0.00004473584704101086,-0.0006890059448778629
1772535194633965000,8.673965087890625,0.0003342968411743641,0.0001001295167952776,-0.0001979190856218338
1772535194643981000,8.68398095703125,0.0015147841768339276,-0.00020891288295388222,-0.0006997901946306229
1772535194653997000,8.6939970703125,0.000006636022590100765,-0.0007125167176127434,-0.00043986598029732704
1772535194664012800,8.7040126953125,0.000527392141520977,0.0012379190884530544,0.0016982369124889374
1772535194674028800,8.71402880859375,0.00009675900219008327,-0.0002281509805470705,-0.00060300063341856
1772535194684045000,8.724045166015625,0.00043933867709711194,0.0001075095497071743,0.001522695180028677
1772535194694061000,8.73406103515625,0.000046788714826107025,-0.0010256655514240265,-0.0006725485436618328
1772535194704077000,8.7440771484375,-0.00033319805515930057,0.0007522818632423878,-0.0010956828482449055
1772535194714093000,8.754093017578125,-0.00000589562114328146,0.0016889157705008984,0.0008079446852207184
1772535194724109000,8.764109130859374,-0.0003354984801262617,0.0008755817543715239,-0.000011574942618608475
1772535194734124800,8.774124755859376,-0.000256136292591691,0.0001245702151209116,0.001402030698955059
1772535194744140800,8.784140869140625,-0.0008028672891668975,0.000086634187027812,0.0006998924072831869
1772535194754157000,8.794156982421875,0.0004948910791426897,0.0005313821602612734,-0.0003342130221426487
1772535194764173000,8.804173095703124,0.0012133410200476646,-0.0008735664887353778,0.00025801872834563255
1772535194774189000,8.81418896484375,0.00015793024795129895,0.0005719973705708981,-0.00015130918473005295
1772535194784205000,8.824205078125,-0.00007032504072412848,0.0006948786322027445,-0.00024352176114916801
1772535194794220800,8.834220703125,-0.0016077680047601461,-0.0011443003313615918,0.0003064209595322609
1772535194804236800,8.84423681640625,0.001558275194838643,0.0010061073116958141,-0.00044845975935459137
1772535194814254000,8.854254150390625,0.0006203097873367369,-0.00037740496918559074,0.00021386845037341118
1772535194824270000,8.86427001953125,-0.0007846043445169926,0.0001726970076560974,0.001010372769087553
1772535194834286000,8.8742861328125,-0.00029990903567522764,-0.0005884345155209303,0.0002931836061179638
1772535194844301800,8.8843017578125,0.0012732428731396794,-0.0009355455404147506,-0.000852570403367281
1772535194854317800,8.89431787109375,0.0007994665647856891,0.0004064212553203106,0.0010092456359416246
1772535194864333800,8.904333740234375,-0.0010872168932110071,0.0005062695126980543,0.0009798738174140453
1772535194874350000,8.91435009765625,-0.00032768334494903684,0.00027137878350913525,0.0005319300107657909
1772535194884366000,8.924365966796875,0.00003300310345366597,-0.0002287011593580246,0.000147244893014431
1772535194894382000,8.934382080078125,-0.00014143390581011772,-0.0010012841084972024,0.000038055237382650375
1772535194904398000,8.944398193359374,0.000305588124319911,0.000395467272028327,-0.0008579045534133911
1772535194914413800,8.954413818359376,-0.0006542151677422225,-0.0007877751486375928,-0.000397710595279932
1772535194924429800,8.964429931640625,0.001056564156897366,-0.0012934880796819925,-0.0009670387953519821
1772535194934445800,8.97444580078125,-0.00020044785924255848,0.0012847180478274822,-0.00023919716477394104
1772535194944462000,8.984462158203126,0.0005142880836501718,-0.0005706734955310822,0.00012189522385597229
1772535194954478000,8.99447802734375,0.000015744357369840145,-0.0008074284996837378,0.0013397589791566133
1772535194964494000,9.004494140625,0.0006751373875886202,0.0009922136086970568,-0.0018302714452147484
1772535194974510000,9.014510009765624,-0.0006263494142331183,-0.00045121973380446434,0.0006512617692351341
1772535194984525800,9.02452587890625,-0.00025133363669738173,-0.0004459198098629713,-0.00038203783333301544
1772535194994541800,9.034541748046875,-0.0011371009750291705,0.0009756756480783224,0.001225179759785533
1772535195004557800,9.044557861328125,0.0008905348367989063,0.0002319025807082653,0.0002425648272037506
1772535195014574000,9.054573974609376,0.0003544405335560441,-0.0003952719271183014,0.0007365809287875891
1772535195024590000,9.064590087890625,-0.00004061934305354953,0.0006211190484464169,0.0010400782339274883
1772535195034606000,9.074606201171875,0.001558608841150999,-0.00016318168491125107,0.0007521903607994318
1772535195044621800,9.084621826171874,0.00048569717910140753,-0.0013166191056370735,-0.00014626607298851013
1772535195054637800,9.094637939453126,0.0011823801323771477,-0.00023670727387070656,0.0011078165844082832
1772535195064653800,9.10465380859375,-0.00011989835184067488,0.0000238658394664526,-0.00073196180164814
1772535195074670000,9.114670166015625,0.00007211556658148766,-0.0003889240324497223,-0.0002344832755625248
1772535195084687000,9.12468701171875,-0.0003653612802736461,0.00043394858948886395,0.000987278064712882
1772535195094702800,9.134702880859376,-0.0005081067210994661,-0.0007290539797395468,-0.00044896453619003296
1772535195104718800,9.14471875,0.0011493242345750332,0.000332721509039402,-0.0006737685762345791
1772535195114734800,9.15473486328125,-0.0004709430504590273,-0.0006305438000708818,0.0004543466493487358
1772535195124750800,9.164750732421876,-0.0005975567037239671,0.00040330481715500355,-0.0004901466891169548
1772535195134767000,9.17476708984375,-0.0006340419640764594,0.0009362034033983946,-0.00027389777824282646
1772535195144783000,9.184783203125,0.0004820467729587108,0.00040446151979267597,0.00004712585359811783
1772535195154799000,9.194799072265624,0.0013177467044442892,-0.00005679787136614323,0.00017282692715525627
1772535195164814800,9.20481494140625,0.0004142373218201101,-0.0009130589896813035,0.0011729944963008165
1772535195174830800,9.214830810546875,0.0006784229190088809,-0.0012637972831726074,-0.0009354301728308201
1772535195184846800,9.224846923828125,-0.001292617293074727,-0.000004607019945979118,0.0010380486492067575
1772535195194863000,9.234863037109376,0.0006541534094139934,0.0007871508132666349,-0.00042242882773280144
1772535195204879000,9.244879150390625,-0.0005986710311844945,-0.001541802892461419,0.000572616932913661
1772535195214895000,9.25489501953125,-0.0005595225375145674,0.00028539192862808704,-0.00015549128875136375
1772535195224910800,9.264910888671874,-0.00022505020024254918,-0.0003038519062101841,-0.000895253848284483
1772535195234927000,9.274927001953126,0.0003070493694394827,0.0008455684874206781,0.0008248821832239628
1772535195244943000,9.284943115234375,-0.0005766699323430657,0.00012702448293566704,-0.00017473706975579262
1772535195254959000,9.294958984375,0.0005985830212011933,-0.0007187954615801573,-0.0007310714572668076
1772535195264975000,9.30497509765625,-0.00010521471267566085,0.000046002911403775215,0.0015239694621413946
1772535195274991000,9.3149912109375,-0.00016300531569868326,-0.00046958494931459427,-0.0009184153750538826
1772535195285633000,9.325633056640624,-0.0004407730302773416,0.0006579973269253969,-0.0007112217135727406
1772535195295649000,9.33564892578125,-0.0005051141488365829,-0.0010588812874630094,0.0014156277757138014
1772535195305665000,9.3456650390625,-0.0006165180820971727,0.0005969908088445663,0.0000225873664021492
1772535195315681000,9.355680908203125,0.0006735171191394329,0.0007589110173285007,0.00040315277874469757
1772535195325697300,9.365697265625,0.00042729679262265563,0.00007910816930234432,0.00040834490209817886
1772535195335713000,9.375713134765626,-0.0010198650415986776,0.0003057431895285845,0.00047465739771723747
1772535195345729000,9.38572900390625,0.00016207672888413072,-0.0013838665327057242,0.0005010319873690605
1772535195355745000,9.3957451171875,-0.0008256896981038153,0.0005293483845889568,0.0006975731812417507
1772535195365761000,9.405760986328126,-0.000295444973744452,-0.00041979853995144367,-0.00028554489836096764
1772535195375778300,9.4157783203125,-0.00048612733371555805,-0.0009252665331587195,0.00235418020747602
1772535195385794000,9.4257939453125,-0.00029845157405361533,-0.0003757153172045946,-0.0007706251926720142
1772535195395810000,9.43581005859375,0.00009516364661976695,0.00024187169037759304,0.00034523895010352135
1772535195405826000,9.445825927734376,-0.0002712100395001471,0.0006272061727941036,-0.0004775826819241047
1772535195415842000,9.455842041015625,-0.0012690965086221695,-0.0010095725301653147,-0.00029196077957749367
1772535195425858000,9.465858154296875,0.0006179057527333498,0.000006679445505142212,0.0008054003119468689
1772535195435874000,9.4758740234375,0.001245612744241953,-0.00007854169234633446,0.000246402807533741
1772535195445890300,9.485890380859376,-0.00014265929348766804,0.00044442201033234596,-0.0015395376831293106
1772535195455906000,9.495906005859375,-0.00017861195374280214,-0.0006125865038484335,-0.0004756050184369087
1772535195465922000,9.505922119140624,0.00031130219576880336,-0.0005874077323824167,0.00006175320595502853
1772535195475938000,9.51593798828125,-0.0011547679314389825,-0.0011543948203325272,0.0009834731463342905
1772535195485954000,9.5259541015625,0.00025046381051652133,-0.0003299794625490904,0.0009140879847109318
1772535195495970000,9.535969970703125,0.00008774467278271914,-0.00029642367735505104,-0.0004523801617324352
1772535195505986000,9.545986083984374,0.00037106990930624306,0.0009335957001894712,0.00013793958351016045
1772535195516002300,9.556002197265625,0.0006709418375976384,0.00011999998241662979,-0.0002482188865542412
1772535195526018000,9.56601806640625,0.0005122917355038226,0.0001012005377560854,-0.00016854796558618546
1772535195536034000,9.576033935546874,0.0008017773507162929,0.0007233149372041225,-0.0003989115357398987
1772535195546050000,9.586050048828126,0.00034684158163145185,-0.001247434294782579,0.00041348906233906746
1772535195556066000,9.596066162109375,-0.0005157563136890531,-0.0004048100672662258,-0.0011876034550368786
1772535195566082000,9.60608203125,0.0014778680633753538,-0.000004922505468130112,-0.0005325274541974068
1772535195576098300,9.616098388671874,-0.000696603034157306,-0.0007977455388754606,-0.0010808724910020828
1772535195586114000,9.626114013671875,-0.0009208693518303335,0.0007326565682888031,-0.0006074756383895874
1772535195596130000,9.636130126953125,0.00038248166674748063,0.0005190710071474314,0.0017273176927119493
1772535195606146000,9.64614599609375,0.0002521523565519601,-0.0007256920216605067,0.00022634956985712051
1772535195616162000,9.656162109375,-0.0005747591494582593,0.00016913004219532013,-0.00047273049131035805
1772535195626178000,9.666177978515625,-0.0005772097501903772,0.00006687641143798828,0.0006141210906207561
1772535195636194000,9.676194091796875,0.0009463847381994128,-0.0001834607683122158,0.000497474567964673
1772535195646211000,9.686211181640624,-0.00012922275345772505,0.00006574136205017567,0.0010613682679831982
1772535195656227000,9.69622705078125,0.000013256387319415808,-0.0000011040829122066498,-0.0013549178838729858
1772535195666243000,9.7062431640625,0.0006326353759504855,-0.00030976487323641777,0.000048133544623851776
1772535195676259000,9.716259033203125,-0.0005862934631295502,-0.000926553038880229,-0.0006568050011992455
1772535195686275000,9.726275146484374,0.000500079186167568,0.0006219304632395506,0.0006860657595098019
1772535195696291000,9.736291015625,0.0009352397173643112,-0.000686214305460453,-0.0003509693779051304
1772535195706307000,9.74630712890625,-0.0012932901736348867,-0.001401964109390974,-0.0013926741667091846
1772535195716323000,9.756322998046874,-0.0016711927019059658,0.001138425199314952,0.001188195077702403
1772535195726339000,9.766339111328126,0.00043363295844756067,0.000055288663133978844,-0.0009034783579409122
1772535195736355000,9.77635498046875,-0.00029767106752842665,0.0011535764206200838,-0.00028748903423547745
1772535195746371000,9.78637109375,-0.0012991898693144321,0.00030022813007235527,0.0003164224326610565
1772535195756387000,9.796386962890624,0.000290717463940382,0.0003633450251072645,-0.0013472544960677624
1772535195766403000,9.806403076171875,0.0006936461431905627,0.0006743979174643755,-0.00008018920198082924
1772535195776419000,9.816419189453125,-0.00016575591871514916,0.0013519059866666794,-0.0001877807080745697
1772535195786435000,9.82643505859375,0.00015975389396771789,-0.000053348252549767494,-0.00044110091403126717
1772535195796451000,9.836451171875,-0.002222976181656122,-0.00040168967097997665,0.0013336297124624252
1772535195806467000,9.846467041015625,0.0014827437698841095,-0.0000025765039026737213,0.0017930627800524235
1772535195816483000,9.856483154296875,0.00029390864074230194,-0.0000379965640604496,0.0009179480839520693
1772535195826499000,9.8664990234375,0.00038552939076907933,0.00018126354552805424,-0.0001378525048494339
1772535195836515000,9.87651513671875,-0.0003444430767558515,-0.0006898563588038087,0.0002733394503593445
1772535195846531000,9.886531005859375,-0.00008187495404854417,-0.0006238678470253944,0.0011240974999964237
1772535195856547000,9.896547119140624,-0.0004299500724300742,0.0007897380273789167,-0.0003390433266758919
1772535195866563000,9.90656298828125,0.0004431168199516833,0.0013362071476876736,0.0005388273857533932
1772535195876579000,9.9165791015625,0.0005325990496203303,-0.0004646223969757557,0.0005026084836572409
1772535195886595000,9.926594970703125,0.00061206822283566,-0.000017073238268494606,0.00002204347401857376
1772535195896611000,9.936611083984374,-0.0002348169800825417,0.0007997183129191399,-0.00009300513193011284
1772535195906627000,9.946626953125,-0.00007122859824448824,0.0002884175628423691,0.0008770623244345188
1772535195916643000,9.95664306640625,0.00017111905617639422,-0.0010897682514041662,0.00022192439064383507
1772535195926659000,9.9666591796875,-0.00011416437337175012,0.00012064375914633274,0.00006042979657649994
1772535195936676000,9.976676025390624,0.00008557271212339401,0.0010072099976241589,-0.00030415691435337067
1772535195946692000,9.986692138671875,-0.0004178640083409846,0.00017495453357696533,0.00033590150997042656
1772535195956708000,9.9967080078125,-0.0007574170012958348,-0.0008977666730061173,0.0007066135294735432
1772535195966724000,10.00672412109375,-0.00022482359781861305,0.00009094527922570705,0.0008455517236143351
1772535195976740000,10.016739990234376,-0.0011119225528091192,0.0013535500038415194,0.0003035985864698887
1772535195986756000,10.026756103515625,-0.0006340177496895194,0.0002047151792794466,-0.0008502923883497715
1772535195996772000,10.036772216796875,0.0004357740981504321,0.00036024395376443863,0.0008181780576705933
1772535196006788000,10.0467880859375,-0.0002980451099574566,-0.001561428653076291,-0.0007073311135172844
1772535196016804000,10.05680419921875,0.00031821036827750504,-0.00004236167296767235,-0.0014705928042531013
1772535196026820000,10.066820068359375,0.0010551530867815018,-0.00007794634439051151,-0.0009153918363153934
1772535196036836000,10.076836181640624,0.0006695273914374411,0.001295712310820818,-0.00008741486817598343
1772535196046852000,10.08685205078125,0.0004890332347713411,-0.00023543206043541431,-0.0011348780244588852
1772535196056868000,10.0968681640625,-0.0003653088351711631,0.000001855660229921341,0.0004323921166360378
1772535196066884000,10.106884033203125,-0.0004445609520189464,-0.00002489471808075905,0.0006117122247815132
1772535196076900000,10.116900146484374,-0.0005678653833456337,0.00004461384378373623,0.00011689681559801102
1772535196086916000,10.126916015625,0.00024237777688540518,0.0004952512681484222,0.0000022761523723602295
1772535196096932000,10.13693212890625,-0.000952848931774497,0.0009434614330530167,0.0008542216382920742
1772535196106948000,10.146947998046874,0.0014673834666609764,0.00008781673386693001,-0.00048482464626431465
1772535196116964000,10.156964111328126,-0.000976599520072341,-0.000037351856008172035,0.0010350414086133242
1772535196126980000,10.16697998046875,0.0004112953320145607,0.00010021752677857876,0.000547842588275671
1772535196136996000,10.17699609375,-0.000011348340194672346,0.000010202638804912567,-0.0010995888151228428
1772535196147012000,10.18701220703125,0.0006709537119604647,-0.001263706712052226,-0.000953297596424818
1772535196157028000,10.197028076171875,0.0009708256693556905,-0.00005649589002132416,-0.0006062877364456654
1772535196167044000,10.207044189453125,0.0008944314904510975,-0.000902293249964714,-0.00010929210111498833
1772535196177060000,10.21706005859375,0.0009708642028272152,-0.00008923024870455265,-0.0007316726259887218
1772535196187076000,10.227076171875,0.0012362040579319,0.0006493874825537205,-0.0005445848219096661
1772535196197093000,10.237093017578125,0.00045856094220653176,-0.00036767381243407726,-0.00012886524200439453
1772535196207108900,10.24710888671875,-0.00021197210298851132,-0.0002274378202855587,-0.00024031894281506538
1772535196217125000,10.257125,0.0000029450166039168835,-0.00006072409451007843,-0.0003015715628862381
1772535196227141000,10.26714111328125,-0.001492320210672915,0.00070982426404953,-0.0011948896571993828
1772535196237157000,10.2771572265625,-0.0013533030869439244,-0.0008001881651580334,-0.0003466731868684292
1772535196247173400,10.28717333984375,-0.001500159502029419,0.0006423243321478367,0.0000524250790476799
1772535196257189400,10.297189453125,0.0010751173831522465,-0.0012442590668797493,-0.0003182869404554367
1772535196267205000,10.307205078125,-0.0012494338443502784,-0.0008260225877165794,0.0005014864727854729
1772535196277221000,10.31722119140625,-0.0006875068647786975,-0.00017967354506254196,-0.0011973441578447819
1772535196287237000,10.327237060546874,-0.00038205692544579506,0.00007581501267850399,0.0019989777356386185
1772535196297253000,10.337253173828126,0.0001886584796011448,-0.0008698735618963838,0.00024155760183930397
1772535196307269000,10.34726904296875,0.0009992385748773813,-0.0006373432697728276,0.0002961880527436733
1772535196317285400,10.357285400390625,-0.001616518129594624,0.00026227254420518875,0.0008264235220849514
1772535196327301400,10.36730126953125,0.0005784347304143012,0.0019398650620132685,-0.0011426913551986217
1772535196337317000,10.377317138671875,-0.0009773839265108109,-0.0008753627771511674,-0.0009014089591801167
1772535196347333000,10.3873330078125,0.001152976998127997,0.0003650046419352293,-0.001710386946797371
1772535196357349000,10.39734912109375,0.0011231496464461088,-0.000112500274553895,-0.00032580969855189323
1772535196367365000,10.407365234375,0.0007497092010453343,0.00005787494592368603,-0.0009445585310459137
1772535196377381400,10.41738134765625,-0.00018559297313913703,0.00014256336726248264,-0.0005368287675082684
1772535196387397400,10.4273974609375,-0.00017796637257561088,0.0011507344897836447,-0.00043763313442468643
1772535196397413400,10.437413330078124,-0.0005875604692846537,0.0004218274261802435,-0.0009100777097046375
1772535196407429000,10.44742919921875,0.000987647334113717,-0.0013210033066570759,-0.0014472655020654202
1772535196417445000,10.457445068359375,0.0006496922578662634,-0.0005132666556164622,0.0009256107732653618
1772535196427461000,10.467461181640624,0.00039904372533783317,-0.00029555102810263634,-0.0003728666342794895
1772535196437477000,10.47747705078125,0.0010094402823597193,0.0002666423097252846,0.0004207552410662174
1772535196447493400,10.487493408203125,-0.0007571116439066827,-0.00004810723476111889,-0.0009658713825047016
1772535196457509400,10.49750927734375,-0.00026416050968691707,0.0005481746047735214,0.000500465277582407
1772535196467525000,10.507525146484374,0.000996901304461062,-0.00008425605483353138,0.00014019571244716644
1772535196477542100,10.517542236328126,0.00021100245066918433,0.0008616987615823746,-0.000216667540371418
1772535196487558100,10.52755810546875,0.00015004913439042866,0.0007301822770386934,0.0011022146791219711
1772535196497574400,10.537574462890625,-0.0010025670053437352,-0.0012743789702653885,0.0017557544633746147
1772535196507590400,10.54759033203125,0.0002783325908239931,0.000966271385550499,-0.0010514245368540287
1772535196517606100,10.557606201171875,0.0006189508712850511,0.00004135561175644398,0.001362464390695095
1772535196527622100,10.5676220703125,0.00046311889309436083,0.0001884580124169588,-0.00035147834569215775
1772535196537638100,10.57763818359375,-0.0001629902981221676,0.0007213565986603498,0.0007065953686833382
1772535196547654100,10.587654052734376,0.00022753106895834208,-0.000145000871270895,0.001250184839591384
1772535196557670100,10.597670166015625,-0.0010150999296456575,0.0009948320221155882,0.0003428459167480469
1772535196567686400,10.607686279296875,-0.0008481018012389541,-0.0001811855472624302,0.0015369290485978127
1772535196577702400,10.617702392578124,-0.00011227041250094771,0.00026489398442208767,-0.0006764242425560951
1772535196587718100,10.62771826171875,0.0006355603691190481,0.0003168450202792883,-0.0007955394685268402
1772535196597734100,10.637734130859375,-0.0007950897561386228,0.000551203265786171,-0.00008261110633611679
1772535196607750100,10.647750244140624,-0.000287290895357728,-0.0008874280611053109,0.002441009506583214
1772535196617766100,10.65776611328125,-0.0014934366336092353,-0.0030307399574667215,0.005895395763218403
1772535196627782100,10.6677822265625,-0.00038017111364752054,-0.00015588034875690937,0.004152834881097078
1772535196637798400,10.67779833984375,0.0007375576533377171,-0.0010150161106139421,0.0019349544309079647
1772535196647814400,10.687814453125,0.0008104019216261804,0.0002629915252327919,0.0008467258885502815
1772535196657830100,10.697830078125,-0.00043276167707517743,0.0008379679638892412,-0.00008644582703709602
1772535196667846100,10.70784619140625,-0.00003676593769341707,0.00021642283536493778,-0.0015285513363778591
1772535196677862100,10.717862060546874,-0.0006612772704102099,0.00006728572770953178,0.00017134426161646843
1772535196687878100,10.727878173828126,-0.00020338379545137286,0.0012186202220618725,-0.0007842052727937698
1772535196697894100,10.73789404296875,-0.0001493216259405017,-0.00008473079651594162,-0.0016260305419564247
1772535196707910400,10.747910400390625,0.0008344898815266788,0.0006154037546366453,-0.002545430324971676
1772535196717926100,10.757926025390624,-0.001089643919840455,0.001880405005067587,-0.0006830818019807339
1772535196727942100,10.767942138671875,-0.001335024950094521,0.0005861583631485701,-0.001807724591344595
1772535196737958100,10.777958251953125,-0.00007162126712501049,0.00008388608694076538,-0.0003365944139659405
1772535196747974100,10.78797412109375,0.00007629516767337918,0.0002409361768513918,-0.001924137119203806
1772535196757990100,10.797990234375,-0.0006419593701139092,0.00007768440991640091,0.0009850999340415
