time,seconds_elapsed,z,y,x
1772574443945415200,0.146415283203125,-0.007456631399691105,0.01704372838139534,0.012782796286046505
1772574444015250700,0.216250732421875,-0.01171756349503994,-0.007456631399691105,-0.0213046595454216
1772574444025140500,0.226140380859375,-0.009587096981704235,-0.009587096981704235,-0.012782796286046505
1772574444035070500,0.236070556640625,-0.0053261648863554,-0.007456631399691105,-0.004260932095348835
1772574444045026000,0.246026123046875,-0.0031956990715116262,-0.0021304660476744175,0.007456631399691105
1772574444054966500,0.255966552734375,-0.004260932095348835,0,0.02023942768573761
1772574444064893200,0.26589306640625,-0.0053261648863554,-0.0063913981430232525,0.02769605815410614
1772574444074828000,0.275828125,-0.0053261648863554,-0.01171756349503994,0.03089175745844841
1772574444084756200,0.285756103515625,-0.0053261648863554,-0.01491326279938221,0.02982652559876442
1772574444094688500,0.2956884765625,-0.007456631399691105,-0.01704372838139534,0.02663082629442215
1772574444104625700,0.305625732421875,-0.0053261648863554,-0.02236989326775074,0.01917419396340847
1772574444124486700,0.325486572265625,0.0031956990715116262,-0.02236989326775074,0.009587096981704235
1772574444134418000,0.33541796875,0.0063913981430232525,-0.012782796286046505,0.0106523297727108
1772574444144347100,0.34534716796875,0.0021304660476744175,-0.0063913981430232525,0.012782796286046505
1772574444154277400,0.35527734375,-0.0053261648863554,-0.0031956990715116262,0.01384802907705307
1772574444164214000,0.365214111328125,-0.007456631399691105,-0.004260932095348835,0.0159784946590662
1772574444174147000,0.37514697265625,-0.0010652330238372087,0.0010652330238372087,0.01917419396340847
1772574444184085200,0.385085205078125,0.004260932095348835,-0.0031956990715116262,0.0213046595454216
1772574444194020400,0.395020263671875,0.0031956990715116262,-0.0053261648863554,0.02343512699007988
1772574444203948300,0.4049482421875,0.0021304660476744175,-0.007456631399691105,0.02876129187643528
1772574444213880300,0.41488037109375,0.0010652330238372087,-0.0053261648863554,0.03515268862247467
1772574444223806000,0.424805908203125,0.0021304660476744175,0.0021304660476744175,0.04473978653550148
1772574444233735400,0.4347353515625,0.004260932095348835,0.004260932095348835,0.04900071769952774
1772574444243667200,0.444667236328125,0.0053261648863554,-0.0021304660476744175,0.04793548583984375
1772574444253597400,0.454597412109375,0.009587096981704235,-0.0106523297727108,0.04687025398015976
1772574444263525000,0.464525146484375,0.0106523297727108,-0.0159784946590662,0.05006595328450203
1772574444273454300,0.474454345703125,0.009587096981704235,-0.01704372838139534,0.05539211630821228
1772574444283389700,0.4843896484375,0.0106523297727108,-0.01917419396340847,0.05539211630821228
1772574444293292000,0.4942919921875,0.01384802907705307,-0.01810896210372448,0.05113118514418602
1772574444313181700,0.514181640625,0.01491326279938221,-0.01171756349503994,0.0319569893181324
1772574444323124500,0.52412451171875,0.0159784946590662,-0.01491326279938221,0.02876129187643528
1772574444333082000,0.53408203125,0.01384802907705307,-0.012782796286046505,0.03089175745844841
1772574444343030800,0.54403076171875,0.01384802907705307,-0.0159784946590662,0.03302222490310669
1772574444352929300,0.55392919921875,0.01704372838139534,-0.02450035884976387,0.03302222490310669
1772574444362872800,0.563872802734375,0.0213046595454216,-0.02236989326775074,0.03515268862247467
1772574444372777700,0.57377783203125,0.02556559257209301,-0.009587096981704235,0.03941362351179123
1772574444382717700,0.5837177734375,0.02769605815410614,-0.0010652330238372087,0.05006595328450203
1772574444392676600,0.593676513671875,0.0319569893181324,-0.01491326279938221,0.06817491352558136
1772574444402618400,0.603618408203125,0.03834838792681694,-0.01917419396340847,0.10226237028837204
1772574444412507000,0.6135068359375,0.04580501839518547,-0.012782796286046505,0.14167599380016327
1772574444422443300,0.623443359375,0.05645735189318657,-0.012782796286046505,0.17469821870326996
1772574444432394000,0.63339404296875,0.06604444980621338,-0.01384802907705307,0.1928071826696396
1772574444442331600,0.64333154296875,0.05645735189318657,0.004260932095348835,0.18961147964000702
1772574444452254200,0.653254150390625,0.02769605815410614,0.03621792420744896,0.17895914614200592
1772574444462190300,0.6631904296875,0.03408745676279068,0.03302222490310669,0.15339355170726776
1772574444472123100,0.673123046875,0.03302222490310669,0.02023942768573761,0.11291470378637314
1772574444482059300,0.683059326171875,0.02556559257209301,0.02663082629442215,0.08628387749195099
1772574444491987200,0.6929873046875,0.02023942768573761,0.0426093190908432,0.05645735189318657
1772574444501922300,0.70292236328125,0.02343512699007988,0.04580501839518547,0.01171756349503994
1772574444511848700,0.7128486328125,0.02769605815410614,0.04367455467581749,-0.03515268862247467
1772574444521783000,0.722782958984375,0.0213046595454216,0.03834838792681694,-0.07137060910463333
1772574444531713300,0.73271337890625,0.01384802907705307,0.02556559257209301,-0.08628387749195099
1772574444541647000,0.742647216796875,0.01171756349503994,0.004260932095348835,-0.08095771074295044
1772574444551575300,0.7525751953125,0.01917419396340847,-0.01917419396340847,-0.05752258375287056
1772574444561508600,0.762508544921875,0.02663082629442215,-0.0031956990715116262,-0.02343512699007988
1772574444571445800,0.77244580078125,0.03302222490310669,0.02556559257209301,0.01171756349503994
1772574444581379300,0.78237939453125,0.03408745676279068,0.0319569893181324,0.04047885537147522
1772574444591312400,0.7923125,0.02982652559876442,0.03408745676279068,0.06604444980621338
1772574444601246000,0.802245849609375,0.02663082629442215,0.0426093190908432,0.08734910935163498
1772574444611181000,0.81218115234375,0.02876129187643528,0.05432688444852829,0.0958709716796875
1772574444621115000,0.822114990234375,0.03089175745844841,0.04473978653550148,0.09267527610063553
1772574444631059500,0.8320595703125,0.03089175745844841,0.02663082629442215,0.08308817446231842
1772574444640994300,0.841994384765625,0.02450035884976387,0.01810896210372448,0.0745663121342659
1772574444650899200,0.851899169921875,0.01810896210372448,0.0106523297727108,0.06604444980621338
1772574444660831200,0.861831298828125,0.01491326279938221,-0.004260932095348835,0.06497921794652939
1772574444670767000,0.87176708984375,0.01704372838139534,-0.007456631399691105,0.06497921794652939
1772574444680699400,0.881699462890625,0.0159784946590662,0.0010652330238372087,0.05965305119752884
1772574444690631200,0.891631103515625,0.009587096981704235,0.0106523297727108,0.05113118514418602
1772574444700563500,0.9015634765625,0.007456631399691105,0.0031956990715116262,0.03834838792681694
1772574444710506200,0.91150634765625,0.0031956990715116262,-0.004260932095348835,0.02982652559876442
1772574444720439300,0.921439208984375,0.0021304660476744175,0.01704372838139534,0.02769605815410614
1772574444730356700,0.931356689453125,-0.0021304660476744175,0.0106523297727108,0.02236989326775074
1772574444740288500,0.94128857421875,-0.009587096981704235,0,0.01704372838139534
1772574444750235600,0.951235595703125,-0.01171756349503994,-0.004260932095348835,0.01704372838139534
1772574444760169000,0.9611689453125,-0.007456631399691105,-0.0021304660476744175,0.01704372838139534
1772574444770187300,0.971187255859375,-0.0063913981430232525,-0.0053261648863554,0.0213046595454216
1772574444780129000,0.98112890625,-0.0063913981430232525,-0.0063913981430232525,0.03621792420744896
1772574444790009000,0.991009033203125,-0.007456631399691105,0.0031956990715116262,0.05113118514418602
1772574444799822600,1.000822509765625,-0.01171756349503994,0.01491326279938221,0.06284874677658081
1772574444809770800,1.010770751953125,-0.0159784946590662,0.02450035884976387,0.07030537724494934
1772574444819697400,1.020697509765625,-0.01704372838139534,0.03408745676279068,0.07563154399394989
1772574444829620200,1.0306201171875,-0.02023942768573761,0.03728315606713295,0.07882724702358246
1772574444839546600,1.040546630859375,-0.02236989326775074,0.03408745676279068,0.07882724702358246
1772574444849511200,1.05051123046875,-0.01917419396340847,0.02876129187643528,0.07030537724494934
1772574444859441400,1.06044140625,-0.01704372838139534,0.03302222490310669,0.05965305119752884
1772574444869350000,1.070349853515625,-0.02023942768573761,0.04047885537147522,0.05006595328450203
1772574444879277800,1.08027783203125,-0.02450035884976387,0.0319569893181324,0.04580501839518547
1772574444889219000,1.090218994140625,-0.02876129187643528,0.02236989326775074,0.04473978653550148
1772574444899148300,1.100148193359375,-0.02769605815410614,0.01810896210372448,0.03834838792681694
1772574444909098500,1.110098388671875,-0.02876129187643528,0.02982652559876442,0.03728315606713295
1772574444919029800,1.12002978515625,-0.02982652559876442,0.03621792420744896,0.0426093190908432
1772574444928926200,1.12992626953125,-0.02343512699007988,0.02982652559876442,0.04793548583984375
1772574444938854100,1.139854248046875,-0.012782796286046505,0.03408745676279068,0.0532616525888443
1772574444948790000,1.1497900390625,-0.004260932095348835,0.04367455467581749,0.05006595328450203
1772574444958718700,1.15971875,0,0.04154408723115921,0.0319569893181324
1772574444968660000,1.169659912109375,-0.0021304660476744175,0.0159784946590662,0.0021304660476744175
1772574444978589700,1.179589599609375,0,0.0031956990715116262,-0.02556559257209301
1772574444988554800,1.1895546875,0.0021304660476744175,-0.0031956990715116262,-0.04793548583984375
1772574444998488300,1.19948828125,0.004260932095348835,-0.01810896210372448,-0.06178351491689682
1772574445008416800,1.209416748046875,0.0063913981430232525,-0.02556559257209301,-0.06284874677658081
1772574445018349800,1.219349853515625,0.00852186419069767,-0.02982652559876442,-0.05752258375287056
1772574445028261400,1.229261474609375,0.00852186419069767,-0.03515268862247467,-0.04047885537147522
1772574445038192400,1.2391923828125,0.00852186419069767,-0.0426093190908432,-0.0159784946590662
1772574445048186400,1.249186279296875,0.0010652330238372087,-0.05752258375287056,0.012782796286046505
1772574445058123500,1.25912353515625,0.004260932095348835,-0.06817491352558136,0.04473978653550148
1772574445068009700,1.269009765625,0.0106523297727108,-0.06817491352558136,0.06817491352558136
1772574445077941800,1.278941650390625,0.007456631399691105,-0.06071828305721283,0.06604444980621338
1772574445097775400,1.298775390625,-0.0063913981430232525,-0.06071828305721283,0.02343512699007988
1772574445107736800,1.30873681640625,-0.0031956990715116262,-0.05006595328450203,0.012782796286046505
1772574445117669400,1.31866943359375,-0.0021304660476744175,-0.05113118514418602,0.0106523297727108
1772574445127592200,1.32859228515625,-0.0053261648863554,-0.0532616525888443,0.007456631399691105
1772574445137524000,1.33852392578125,-0.00852186419069767,-0.04900071769952774,0.0021304660476744175
1772574445147446500,1.348446533203125,-0.00852186419069767,-0.03834838792681694,-0.007456631399691105
1772574445157377300,1.358377197265625,-0.0106523297727108,-0.02236989326775074,-0.009587096981704235
1772574445167338200,1.368338134765625,-0.0159784946590662,-0.009587096981704235,-0.009587096981704235
1772574445177272000,1.37827197265625,-0.01917419396340847,-0.0106523297727108,-0.0213046595454216
1772574445187218700,1.38821875,-0.01810896210372448,-0.01704372838139534,-0.03941362351179123
1772574445197153500,1.398153564453125,-0.0159784946590662,-0.02876129187643528,-0.05113118514418602
1772574445207035000,1.408034912109375,-0.01491326279938221,-0.04047885537147522,-0.05645735189318657
1772574445216964400,1.41796435546875,-0.0106523297727108,-0.04047885537147522,-0.05219641700387001
1772574445226903000,1.427903076171875,-0.0053261648863554,-0.03302222490310669,-0.04473978653550148
1772574445236833500,1.43783349609375,0,-0.03089175745844841,-0.03728315606713295
1772574445246762800,1.4477626953125,0.004260932095348835,-0.0319569893181324,-0.02556559257209301
1772574445256693200,1.457693359375,0.0053261648863554,-0.03728315606713295,-0.0106523297727108
1772574445266650000,1.467650146484375,0.004260932095348835,-0.04154408723115921,-0.0031956990715116262
1772574445276583400,1.47758349609375,0.007456631399691105,-0.03728315606713295,0
1772574445286505200,1.487505126953125,0.009587096981704235,-0.02876129187643528,0
1772574445296437200,1.497437255859375,0.004260932095348835,-0.02343512699007988,0
1772574445306382000,1.507382080078125,0,-0.01704372838139534,-0.0031956990715116262
1772574445316315400,1.5173154296875,0.0010652330238372087,-0.01171756349503994,-0.0063913981430232525
1772574445326253600,1.527253662109375,-0.0010652330238372087,-0.01171756349503994,-0.0106523297727108
1772574445336187400,1.5371875,-0.0010652330238372087,-0.01384802907705307,-0.01384802907705307
1772574445346084400,1.54708447265625,-0.0021304660476744175,-0.0159784946590662,-0.01917419396340847
1772574445356014300,1.557014404296875,0,-0.01917419396340847,-0.02556559257209301
1772574445365972500,1.566972412109375,-0.0010652330238372087,-0.0159784946590662,-0.03302222490310669
1772574445375905500,1.576905517578125,-0.0053261648863554,-0.02343512699007988,-0.04047885537147522
1772574445385834000,1.586833984375,-0.0031956990715116262,-0.0319569893181324,-0.03515268862247467
1772574445395766300,1.596766357421875,-0.0010652330238372087,-0.02450035884976387,-0.0213046595454216
1772574445405688300,1.606688232421875,0.0010652330238372087,-0.01384802907705307,-0.0106523297727108
1772574445415619800,1.616619873046875,0,-0.012782796286046505,-0.0031956990715116262
1772574445425552600,1.626552734375,-0.0021304660476744175,-0.01704372838139534,0.0010652330238372087
1772574445435484200,1.636484130859375,-0.0031956990715116262,-0.02556559257209301,0.0053261648863554
1772574445445424000,1.646424072265625,-0.0021304660476744175,-0.02663082629442215,0.0053261648863554
1772574445455356400,1.6563564453125,-0.0021304660476744175,-0.02556559257209301,0.0021304660476744175
1772574445465314800,1.666314697265625,0,-0.02876129187643528,-0.0063913981430232525
1772574445475249700,1.676249755859375,-0.0021304660476744175,-0.03302222490310669,-0.01810896210372448
1772574445485185500,1.686185546875,-0.004260932095348835,-0.03834838792681694,-0.03515268862247467
1772574445495120600,1.69612060546875,-0.0063913981430232525,-0.04047885537147522,-0.04900071769952774
1772574445505023500,1.7060234375,-0.0031956990715116262,-0.0319569893181324,-0.05539211630821228
1772574445514955300,1.715955322265625,-0.0010652330238372087,-0.02556559257209301,-0.04900071769952774
1772574445524883700,1.7258837890625,-0.0031956990715116262,-0.01384802907705307,-0.03302222490310669
1772574445534815500,1.7358154296875,-0.004260932095348835,-0.007456631399691105,-0.01810896210372448
1772574445544756200,1.745756103515625,-0.0053261648863554,-0.0021304660476744175,-0.004260932095348835
1772574445554688800,1.755688720703125,-0.00852186419069767,0.0031956990715116262,0.0031956990715116262
1772574445564620800,1.765620849609375,-0.0106523297727108,0.004260932095348835,0.0063913981430232525
1772574445574553000,1.775552978515625,-0.009587096981704235,0.0021304660476744175,0.00852186419069767
1772574445584465000,1.78546484375,-0.009587096981704235,0.0031956990715116262,0.0063913981430232525
1772574445594395100,1.79539501953125,-0.007456631399691105,0.0053261648863554,0.004260932095348835
1772574445604341200,1.80534130859375,-0.0053261648863554,0.007456631399691105,0.0010652330238372087
1772574445614273000,1.81527294921875,-0.0053261648863554,0.01171756349503994,0
1772574445624219100,1.82521923828125,-0.0031956990715116262,0.009587096981704235,0
1772574445634152400,1.83515234375,-0.0021304660476744175,0.009587096981704235,0.0021304660476744175
1772574445644074200,1.84507421875,-0.0010652330238372087,0.00852186419069767,0.0010652330238372087
1772574445654006500,1.855006591796875,-0.0010652330238372087,0.004260932095348835,0.0031956990715116262
1772574445663941000,1.864941162109375,-0.0021304660476744175,-0.0021304660476744175,-0.0010652330238372087
1772574445673873700,1.874873779296875,-0.0021304660476744175,-0.009587096981704235,-0.0053261648863554
1772574445683796000,1.8847958984375,0,-0.01171756349503994,-0.009587096981704235
1772574445693727200,1.894727294921875,0.0010652330238372087,-0.012782796286046505,-0.009587096981704235
1772574445703676200,1.90467626953125,0.0010652330238372087,-0.0159784946590662,-0.0106523297727108
1772574445713609200,1.914609130859375,0.0031956990715116262,-0.0159784946590662,-0.009587096981704235
1772574445723522300,1.924522216796875,0.0053261648863554,-0.01810896210372448,-0.0106523297727108
1772574445733453600,1.93445361328125,0.0053261648863554,-0.012782796286046505,-0.0063913981430232525
1772574445743376000,1.9443759765625,0.0063913981430232525,-0.00852186419069767,-0.0021304660476744175
1772574445753306000,1.95430615234375,0.007456631399691105,-0.0031956990715116262,0.004260932095348835
1772574445763263500,1.964263427734375,0.009587096981704235,-0.0031956990715116262,0.0063913981430232525
1772574445773196500,1.974196533203125,0.00852186419069767,-0.004260932095348835,0.007456631399691105
1772574445783126800,1.984126708984375,0.0053261648863554,-0.0053261648863554,0.0053261648863554
1772574445793059300,1.994059326171875,0.0053261648863554,-0.0021304660476744175,0.004260932095348835
1772574445802980600,2.003980712890625,0.007456631399691105,-0.0010652330238372087,0.0063913981430232525
1772574445812912400,2.013912353515625,0.0031956990715116262,-0.0063913981430232525,0.007456631399691105
1772574445822860000,2.023860107421875,0.0010652330238372087,-0.004260932095348835,0.007456631399691105
1772574445832793000,2.03379296875,0.0031956990715116262,0.0021304660476744175,0.0031956990715116262
1772574445842704400,2.043704345703125,0.0053261648863554,0.0010652330238372087,0
1772574445852635400,2.053635498046875,0.0021304660476744175,-0.0063913981430232525,0.0053261648863554
1772574445862580000,2.063580078125,0.0010652330238372087,-0.009587096981704235,0.012782796286046505
1772574445872512300,2.07351220703125,0,-0.01171756349503994,0.01810896210372448
1772574445882451200,2.083451171875,-0.0021304660476744175,-0.01384802907705307,0.02450035884976387
1772574445892384300,2.09338427734375,-0.0031956990715116262,-0.01704372838139534,0.03089175745844841
1772574445902313200,2.103313232421875,-0.004260932095348835,-0.01491326279938221,0.03621792420744896
1772574445912245800,2.113245849609375,-0.01171756349503994,-0.0159784946590662,0.03834838792681694
1772574445922218200,2.12321826171875,-0.01491326279938221,-0.01810896210372448,0.03728315606713295
1772574445932155000,2.13315478515625,-0.004260932095348835,-0.01491326279938221,0.0319569893181324
1772574445942043100,2.143043212890625,0.0010652330238372087,-0.012782796286046505,0.02663082629442215
1772574445951975000,2.152974853515625,0.0010652330238372087,-0.009587096981704235,0.02023942768573761
1772574445961897700,2.162897705078125,-0.0010652330238372087,-0.004260932095348835,0.012782796286046505
1772574445971828700,2.172828857421875,-0.0021304660476744175,0.0021304660476744175,0.004260932095348835
1772574445981750500,2.18275048828125,-0.007456631399691105,0.0010652330238372087,-0.0031956990715116262
1772574445991680800,2.1926806640625,-0.01384802907705307,-0.004260932095348835,-0.00852186419069767
1772574446001636000,2.202635986328125,-0.0053261648863554,-0.0063913981430232525,-0.01491326279938221
1772574446011568600,2.212568603515625,-0.0031956990715116262,-0.009587096981704235,-0.02023942768573761
1772574446021474000,2.22247412109375,-0.01171756349503994,-0.0159784946590662,-0.02769605815410614
1772574446031403800,2.23240380859375,-0.01491326279938221,-0.01491326279938221,-0.03621792420744896
1772574446041354000,2.24235400390625,-0.01171756349503994,-0.01704372838139534,-0.04580501839518547
1772574446051285800,2.25228564453125,-0.0106523297727108,-0.0159784946590662,-0.05539211630821228
1772574446061236200,2.262236328125,-0.012782796286046505,-0.007456631399691105,-0.06284874677658081
1772574446071169800,2.272169677734375,-0.01810896210372448,-0.007456631399691105,-0.06817491352558136
1772574446081072400,2.282072265625,-0.02236989326775074,-0.0159784946590662,-0.06924014538526535
1772574446091003000,2.2920029296875,-0.02343512699007988,-0.02236989326775074,-0.06071828305721283
1772574446100962800,2.301962890625,-0.01704372838139534,-0.02769605815410614,-0.04687025398015976
1772574446110896400,2.311896484375,-0.0053261648863554,-0.03302222490310669,-0.0319569893181324
1772574446120801500,2.321801513671875,0.004260932095348835,-0.03621792420744896,-0.01171756349503994
1772574446130732000,2.33173193359375,0.007456631399691105,-0.04047885537147522,0.01171756349503994
1772574446140659700,2.34165966796875,0.00852186419069767,-0.04367455467581749,0.03515268862247467
1772574446150590200,2.351590087890625,0.009587096981704235,-0.04900071769952774,0.05539211630821228
1772574446160549400,2.36154931640625,0.007456631399691105,-0.05219641700387001,0.06604444980621338
1772574446170483000,2.37148291015625,0.0010652330238372087,-0.05006595328450203,0.06497921794652939
1772574446180403000,2.38140283203125,-0.007456631399691105,-0.04793548583984375,0.05645735189318657
1772574446190335000,2.3913349609375,-0.01917419396340847,-0.04580501839518547,0.04687025398015976
1772574446200289500,2.40128955078125,-0.0319569893181324,-0.04047885537147522,0.04047885537147522
1772574446210223900,2.411223876953125,-0.0426093190908432,-0.03089175745844841,0.03302222490310669
1772574446220152800,2.42115283203125,-0.0532616525888443,-0.02556559257209301,0.01810896210372448
1772574446230086400,2.43108642578125,-0.06497921794652939,-0.02450035884976387,0.0031956990715116262
1772574446240004400,2.44100439453125,-0.07350108027458191,-0.02236989326775074,-0.009587096981704235
1772574446249936400,2.450936279296875,-0.08202294260263443,-0.02236989326775074,-0.01704372838139534
1772574446259878400,2.46087841796875,-0.09161003679037094,-0.02982652559876442,-0.01491326279938221
1772574446269811500,2.4708115234375,-0.10013190656900406,-0.02982652559876442,-0.0063913981430232525
1772574446279725300,2.480725341796875,-0.10226237028837204,-0.02876129187643528,0.0021304660476744175
1772574446289656600,2.490656494140625,-0.10439283400774002,-0.02876129187643528,0.01491326279938221
1772574446299590100,2.500590087890625,-0.1065233051776886,-0.02876129187643528,0.02450035884976387
1772574446309521400,2.510521484375,-0.1065233051776886,-0.02769605815410614,0.0319569893181324
1772574446319455000,2.520455078125,-0.1065233051776886,-0.02876129187643528,0.03515268862247467
1772574446329386800,2.53038671875,-0.1065233051776886,-0.02663082629442215,0.03515268862247467
1772574446339329300,2.540329345703125,-0.10439283400774002,-0.02556559257209301,0.04047885537147522
1772574446349262000,2.550261962890625,-0.10119713842868805,-0.01917419396340847,0.04367455467581749
1772574446359218000,2.560218017578125,-0.10013190656900406,-0.01704372838139534,0.04473978653550148
1772574446369153000,2.570153076171875,-0.10013190656900406,-0.01704372838139534,0.03728315606713295
1772574446398913300,2.599913330078125,-0.10013190656900406,-0.012782796286046505,0.0053261648863554
1772574446408844800,2.6098447265625,-0.09906667470932007,-0.012782796286046505,-0.004260932095348835
1772574446418784500,2.619784423828125,-0.09693620353937149,-0.0159784946590662,-0.012782796286046505
1772574446428716800,2.629716796875,-0.09693620353937149,-0.012782796286046505,-0.01917419396340847
1772574446438648600,2.639648681640625,-0.09374050796031952,-0.009587096981704235,-0.02343512699007988
1772574446448580900,2.649580810546875,-0.09054480493068695,-0.007456631399691105,-0.02343512699007988
1772574446458503400,2.65950341796875,-0.08947957307100296,-0.0021304660476744175,-0.02343512699007988
1772574446468434700,2.6694345703125,-0.0852186381816864,0.0053261648863554,-0.02236989326775074
1772574446478368000,2.679367919921875,-0.07882724702358246,0.009587096981704235,-0.01704372838139534
1772574446488299500,2.689299560546875,-0.07563154399394989,0.0106523297727108,-0.01171756349503994
1772574446498255000,2.699255126953125,-0.07243584841489792,0.0106523297727108,-0.0063913981430232525
1772574446508189200,2.709189208984375,-0.07030537724494934,0.01171756349503994,-0.0010652330238372087
1772574446518107600,2.719107666015625,-0.07350108027458191,0.0106523297727108,0.0031956990715116262
1772574446528040000,2.7290400390625,-0.05965305119752884,-0.0010652330238372087,0.0031956990715116262
1772574446537961700,2.738961669921875,-0.03728315606713295,-0.007456631399691105,-0.0021304660476744175
1772574446547893000,2.74889306640625,-0.02769605815410614,-0.00852186419069767,-0.007456631399691105
1772574446557813500,2.7588134765625,-0.02236989326775074,-0.009587096981704235,-0.0053261648863554
1772574446567743700,2.76874365234375,-0.0159784946590662,-0.007456631399691105,-0.004260932095348835
1772574446577710600,2.778710693359375,-0.007456631399691105,-0.0053261648863554,0
1772574446587644400,2.78864453125,-0.0010652330238372087,-0.0021304660476744175,0.0053261648863554
1772574446597543700,2.798543701171875,0.0021304660476744175,-0.0010652330238372087,0.007456631399691105
1772574446607474000,2.808473876953125,0.004260932095348835,0.0021304660476744175,0.0010652330238372087
1772574446617405200,2.8184052734375,0.0053261648863554,0.007456631399691105,-0.0063913981430232525
1772574446627336000,2.8283359375,0.00852186419069767,0.0063913981430232525,-0.00852186419069767
1772574446637276400,2.8382763671875,0.01171756349503994,0.0053261648863554,-0.0106523297727108
1772574446647208200,2.848208251953125,0.012782796286046505,0.0053261648863554,-0.00852186419069767
1772574446657171700,2.858171630859375,0.01704372838139534,0.0053261648863554,-0.009587096981704235
1772574446667106600,2.8681064453125,0.01917419396340847,0.0106523297727108,-0.012782796286046505
1772574446677006600,2.878006591796875,0.02023942768573761,0.01704372838139534,-0.0213046595454216
1772574446686937900,2.887937744140625,0.01917419396340847,0.02556559257209301,-0.02876129187643528
1772574446696893400,2.8978935546875,0.02023942768573761,0.02876129187643528,-0.04047885537147522
1772574446706827300,2.9078271484375,0.0213046595454216,0.03408745676279068,-0.05219641700387001
1772574446716757000,2.917757080078125,0.02023942768573761,0.03515268862247467,-0.0532616525888443
1772574446726690300,2.927690185546875,0.0213046595454216,0.03515268862247467,-0.05219641700387001
1772574446736616700,2.93761669921875,0.0213046595454216,0.0319569893181324,-0.05113118514418602
1772574446746549500,2.947549560546875,0.02343512699007988,0.02769605815410614,-0.04793548583984375
1772574446756487200,2.957487060546875,0.02343512699007988,0.02982652559876442,-0.04367455467581749
1772574446766420200,2.967420166015625,0.02556559257209301,0.03515268862247467,-0.03728315606713295
1772574446776348700,2.9773486328125,0.02769605815410614,0.03515268862247467,-0.02663082629442215
1772574446786281200,2.98728125,0.02876129187643528,0.02769605815410614,-0.01491326279938221
1772574446796215300,2.99721533203125,0.02663082629442215,0.01491326279938221,0.0021304660476744175
1772574446806148400,3.0071484375,0.02556559257209301,0.00852186419069767,0.0159784946590662
1772574446816084500,3.01708447265625,0.02663082629442215,0.012782796286046505,0.02236989326775074
1772574446826017800,3.027017822265625,0.02769605815410614,0.02236989326775074,0.02343512699007988
1772574446835934200,3.036934326171875,0.02876129187643528,0.02663082629442215,0.01704372838139534
1772574446845865500,3.046865478515625,0.02876129187643528,0.02769605815410614,0.0063913981430232525
1772574446855801900,3.0568017578125,0.02663082629442215,0.02343512699007988,-0.0053261648863554
1772574446865734000,3.06673388671875,0.02663082629442215,0.01917419396340847,-0.0159784946590662
1772574446875659500,3.076659423828125,0.02556559257209301,0.01491326279938221,-0.0213046595454216
1772574446885590800,3.0865908203125,0.02982652559876442,0.01171756349503994,-0.01917419396340847
1772574446895543000,3.09654296875,0.0319569893181324,0.01171756349503994,-0.0106523297727108
1772574446905476600,3.1064765625,0.0319569893181324,0.01171756349503994,-0.0010652330238372087
1772574446915404000,3.116404052734375,0.03408745676279068,0.009587096981704235,0.007456631399691105
1772574446925336800,3.1263369140625,0.03515268862247467,0.012782796286046505,0.01491326279938221
1772574446935253800,3.136253662109375,0.04047885537147522,0.009587096981704235,0.0159784946590662
1772574446945185000,3.14618505859375,0.04367455467581749,0.0031956990715116262,0.01491326279938221
1772574446955138300,3.15613818359375,0.04793548583984375,0.0021304660476744175,0.0106523297727108
1772574446965072000,3.16607177734375,0.04900071769952774,0.0010652330238372087,0.01171756349503994
1772574446975000800,3.176000732421875,0.05113118514418602,0.0031956990715116262,0.012782796286046505
1772574446984934000,3.185933837890625,0.04900071769952774,0.0031956990715116262,0.01491326279938221
1772574446994836700,3.195836669921875,0.04793548583984375,0.0010652330238372087,0.01704372838139534
1772574447004766700,3.2057666015625,0.04580501839518547,0.0053261648863554,0.01491326279938221
1772574447014715000,3.21571484375,0.0426093190908432,0.0053261648863554,0.012782796286046505
1772574447024646700,3.225646728515625,0.03941362351179123,0.004260932095348835,0.00852186419069767
1772574447034576600,3.23557666015625,0.03728315606713295,0.007456631399691105,0.0106523297727108
1772574447044508400,3.24550830078125,0.03941362351179123,0.01384802907705307,0.01384802907705307
1772574447054433800,3.255433837890625,0.0426093190908432,0.01491326279938221,0.01491326279938221
1772574447064364800,3.26536474609375,0.0426093190908432,0.01384802907705307,0.01810896210372448
1772574447074301000,3.275301025390625,0.04367455467581749,0.01704372838139534,0.01917419396340847
1772574447084232400,3.285232421875,0.04367455467581749,0.01704372838139534,0.02450035884976387
1772574447094240000,3.295239990234375,0.04154408723115921,0.012782796286046505,0.02450035884976387
1772574447104179200,3.30517919921875,0.04047885537147522,0.0063913981430232525,0.02450035884976387
1772574447114034000,3.315033935546875,0.03941362351179123,-0.0053261648863554,0.02236989326775074
1772574447123964700,3.324964599609375,0.03728315606713295,-0.009587096981704235,0.01917419396340847
1772574447133909800,3.33490966796875,0.03621792420744896,-0.01171756349503994,0.01704372838139534
1772574447143842000,3.344842041015625,0.03515268862247467,-0.01384802907705307,0.01491326279938221
1772574447153783000,3.354782958984375,0.03515268862247467,-0.009587096981704235,0.01384802907705307
1772574447163716000,3.364716064453125,0.03515268862247467,-0.0031956990715116262,0.01491326279938221
1772574447173627100,3.374627197265625,0.03621792420744896,0,0.01384802907705307
1772574447183558000,3.384557861328125,0.03515268862247467,0.0010652330238372087,0.0159784946590662
1772574447193512000,3.394511962890625,0.03621792420744896,0.0063913981430232525,0.01917419396340847
1772574447203445200,3.4044453125,0.03621792420744896,0.0063913981430232525,0.02450035884976387
1772574447213367300,3.4143671875,0.03515268862247467,0.0063913981430232525,0.02663082629442215
1772574447223299600,3.424299560546875,0.0319569893181324,0.0053261648863554,0.0319569893181324
1772574447233226000,3.43422607421875,0.03089175745844841,0.004260932095348835,0.04047885537147522
1772574447243157500,3.444157470703125,0.03302222490310669,0.007456631399691105,0.04900071769952774
1772574447253072600,3.45407275390625,0.03408745676279068,0.01491326279938221,0.05219641700387001
1772574447263002600,3.464002685546875,0.03515268862247467,0.01917419396340847,0.04900071769952774
1772574447272965000,3.473965087890625,0.03621792420744896,0.0159784946590662,0.04367455467581749
1772574447282898200,3.483898193359375,0.03728315606713295,0.007456631399691105,0.04047885537147522
1772574447292798700,3.493798828125,0.03941362351179123,0.0053261648863554,0.03621792420744896
1772574447302728400,3.503728515625,0.0426093190908432,0.0031956990715116262,0.03621792420744896
1772574447312689700,3.513689697265625,0.04367455467581749,0.0053261648863554,0.04154408723115921
1772574447322622700,3.523622802734375,0.04687025398015976,0.004260932095348835,0.04793548583984375
1772574447332554000,3.533553955078125,0.05006595328450203,0.004260932095348835,0.05113118514418602
1772574447342486800,3.54348681640625,0.05113118514418602,-0.0010652330238372087,0.05219641700387001
1772574447352397300,3.553397216796875,0.05113118514418602,-0.0031956990715116262,0.05006595328450203
1772574447362327800,3.563327880859375,0.05113118514418602,-0.004260932095348835,0.0426093190908432
1772574447372297500,3.57329736328125,0.04900071769952774,0.0010652330238372087,0.03621792420744896
1772574447382231800,3.583231689453125,0.04580501839518547,0.007456631399691105,0.02876129187643528
1772574447392125200,3.593125244140625,0.0426093190908432,0.01491326279938221,0.0213046595454216
1772574447402055400,3.603055419921875,0.04047885537147522,0.01491326279938221,0.01171756349503994
1772574447411996200,3.61299609375,0.03728315606713295,0.012782796286046505,0.0010652330238372087
1772574447421927700,3.622927734375,0.03621792420744896,0.01491326279938221,-0.0053261648863554
1772574447431876000,3.6328759765625,0.03834838792681694,0.0159784946590662,-0.0053261648863554
1772574447441809400,3.642809326171875,0.03621792420744896,0.0159784946590662,-0.0010652330238372087
1772574447451735300,3.6527353515625,0.03408745676279068,0.012782796286046505,0.0021304660476744175
1772574447461667600,3.66266748046875,0.03089175745844841,0.009587096981704235,0.0053261648863554
1772574447471616300,3.6726162109375,0.03302222490310669,0.00852186419069767,0.0063913981430232525
1772574447481550300,3.68255029296875,0.03302222490310669,0.00852186419069767,0.012782796286046505
1772574447491447000,3.692447021484375,0.0319569893181324,0.007456631399691105,0.02236989326775074
1772574447501377300,3.702377197265625,0.03089175745844841,0.007456631399691105,0.03302222490310669
1772574447511320600,3.712320556640625,0.02769605815410614,0.004260932095348835,0.0426093190908432
1772574447521252000,3.722252197265625,0.02450035884976387,0.0053261648863554,0.04900071769952774
1772574447531219200,3.73221923828125,0.02236989326775074,0.012782796286046505,0.05113118514418602
1772574447541154300,3.742154296875,0.02236989326775074,0.02023942768573761,0.05006595328450203
1772574447551066600,3.752066650390625,0.02023942768573761,0.02343512699007988,0.04793548583984375
1772574447560999400,3.76199951171875,0.01704372838139534,0.02023942768573761,0.04687025398015976
1772574447570904600,3.771904541015625,0.01917419396340847,0.0159784946590662,0.04473978653550148
1772574447580834800,3.781834716796875,0.01810896210372448,0.009587096981704235,0.0426093190908432
1772574447590781000,3.791781005859375,0.01810896210372448,0.0010652330238372087,0.03515268862247467
1772574447600698600,3.80169873046875,0.01917419396340847,0.0031956990715116262,0.02450035884976387
1772574447610628600,3.811628662109375,0.0213046595454216,0.0031956990715116262,0.012782796286046505
1772574447630487800,3.83148779296875,0.02769605815410614,0.00852186419069767,-0.0010652330238372087
1772574447640419600,3.841419677734375,0.02876129187643528,0.007456631399691105,0
1772574447650377200,3.851377197265625,0.0319569893181324,0.0053261648863554,0.004260932095348835
1772574447660311300,3.861311279296875,0.03515268862247467,0.00852186419069767,0.0063913981430232525
1772574447670237000,3.87123681640625,0.03515268862247467,0.0063913981430232525,0.01384802907705307
1772574447680170200,3.881170166015625,0.03408745676279068,0.00852186419069767,0.02769605815410614
1772574447690137600,3.8911376953125,0.03408745676279068,0.01171756349503994,0.04473978653550148
1772574447700044300,3.901044189453125,0.03621792420744896,0.007456631399691105,0.05752258375287056
1772574447709981000,3.91098095703125,0.04047885537147522,-0.0031956990715116262,0.0639139786362648
1772574447719892200,3.920892333984375,0.03941362351179123,-0.004260932095348835,0.06497921794652939
1772574447729827000,3.9308271484375,0.04047885537147522,0.0031956990715116262,0.05965305119752884
1772574447739753200,3.940753173828125,0.04047885537147522,0.0106523297727108,0.05113118514418602
1772574447749687000,3.95068701171875,0.03834838792681694,0.01704372838139534,0.04580501839518547
1772574447759617000,3.960616943359375,0.03728315606713295,0.02023942768573761,0.04047885537147522
1772574447769550600,3.970550537109375,0.03728315606713295,0.02663082629442215,0.03302222490310669
1772574447779488000,3.980488037109375,0.03834838792681694,0.03089175745844841,0.02663082629442215
1772574447789421800,3.990421875,0.03941362351179123,0.03302222490310669,0.02663082629442215
1772574447799356400,4.0003564453125,0.03728315606713295,0.02876129187643528,0.02343512699007988
1772574447809258000,4.010258056640625,0.03621792420744896,0.0213046595454216,0.01917419396340847
1772574447829125600,4.030125732421875,0.03302222490310669,0.0159784946590662,-0.0010652330238372087
1772574447839066600,4.040066650390625,0.02982652559876442,0.012782796286046505,-0.009587096981704235
1772574447849000400,4.05000048828125,0.02876129187643528,0.009587096981704235,-0.0159784946590662
1772574447858949400,4.059949462890625,0.02450035884976387,0.0053261648863554,-0.01491326279938221
1772574447868884200,4.06988427734375,0.02450035884976387,0.0031956990715116262,-0.0106523297727108
1772574447878808800,4.079808837890625,0.02450035884976387,0.0031956990715116262,-0.004260932095348835
1772574447888743000,4.089742919921875,0.02450035884976387,0.0063913981430232525,0.0021304660476744175
1772574447898686200,4.099686279296875,0.02663082629442215,0.0063913981430232525,0.0106523297727108
1772574447908621300,4.109621337890625,0.02556559257209301,0.0021304660476744175,0.0159784946590662
1772574447918536000,4.119535888671875,0.02450035884976387,0.004260932095348835,0.01384802907705307
1772574447928468700,4.12946875,0.0213046595454216,0.007456631399691105,0.0106523297727108
1772574447938438700,4.139438720703125,0.02023942768573761,0.01171756349503994,0.009587096981704235
1772574447948375300,4.149375244140625,0.01704372838139534,0.012782796286046505,0.00852186419069767
1772574447958305000,4.159304931640625,0.01384802907705307,0.012782796286046505,0.009587096981704235
1772574447968241000,4.169240966796875,0.01171756349503994,0.012782796286046505,0.009587096981704235
1772574447978138000,4.17913818359375,0.00852186419069767,0.0106523297727108,0.007456631399691105
1772574447988070100,4.189070068359375,0.009587096981704235,0.00852186419069767,0.00852186419069767
1772574447997991200,4.1989912109375,0.009587096981704235,0.0063913981430232525,0.007456631399691105
1772574448007922200,4.208922119140625,0.009587096981704235,0.0053261648863554,0.0031956990715116262
1772574448017882400,4.21888232421875,0.007456631399691105,0.007456631399691105,-0.0021304660476744175
1772574448027816200,4.228816162109375,0.004260932095348835,0.01171756349503994,-0.007456631399691105
1772574448037741300,4.2387412109375,0.0021304660476744175,0.01171756349503994,-0.01704372838139534
1772574448047674000,4.248674072265625,-0.0010652330238372087,0.0106523297727108,-0.02023942768573761
1772574448057615000,4.258614990234375,-0.0010652330238372087,0.00852186419069767,-0.0213046595454216
1772574448067549000,4.268548828125,0,0.0106523297727108,-0.0213046595454216
1772574448077455600,4.27845556640625,0.0010652330238372087,0.01704372838139534,-0.0159784946590662
1772574448087386600,4.28838671875,0.0021304660476744175,0.0159784946590662,-0.009587096981704235
1772574448097346000,4.298345947265625,0.0021304660476744175,0.01384802907705307,-0.0063913981430232525
1772574448107280000,4.30827978515625,0.0031956990715116262,0.00852186419069767,-0.004260932095348835
1772574448117257700,4.3182578125,0.0021304660476744175,0,0
1772574448127196200,4.328196044921875,0.0021304660476744175,-0.0031956990715116262,0.0053261648863554
1772574448137059600,4.3380595703125,0.0021304660476744175,-0.0031956990715116262,0.009587096981704235
1772574448146990600,4.347990478515625,0.0010652330238372087,-0.007456631399691105,0.0106523297727108
1772574448156938500,4.3579384765625,0.0031956990715116262,-0.009587096981704235,0.01384802907705307
1772574448166871300,4.367871337890625,0.0021304660476744175,-0.004260932095348835,0.01384802907705307
1772574448176785700,4.37778564453125,-0.0031956990715116262,0,0.00852186419069767
1772574448186716400,4.38771630859375,-0.0021304660476744175,0.0021304660476744175,0
1772574448196652800,4.39765283203125,-0.004260932095348835,0.007456631399691105,-0.00852186419069767
1772574448206584000,4.407583984375,-0.00852186419069767,0.0053261648863554,-0.01491326279938221
1772574448216518700,4.4175185546875,-0.01384802907705307,0.0053261648863554,-0.02450035884976387
1772574448226450200,4.4274501953125,-0.02236989326775074,0.01384802907705307,-0.03408745676279068
1772574448236377900,4.4373779296875,-0.02876129187643528,0.01917419396340847,-0.04580501839518547
1772574448246308900,4.447308837890625,-0.03408745676279068,0.02450035884976387,-0.05965305119752884
1772574448256241700,4.45724169921875,-0.03941362351179123,0.03089175745844841,-0.07243584841489792
1772574448266173200,4.467173095703125,-0.03728315606713295,0.02769605815410614,-0.08308817446231842
1772574448276129500,4.477129638671875,-0.02982652559876442,0.0159784946590662,-0.08628387749195099
1772574448286063600,4.487063720703125,-0.02236989326775074,0.01491326279938221,-0.08202294260263443
1772574448295960600,4.496960693359375,-0.01491326279938221,0.01704372838139534,-0.0745663121342659
1772574448305890000,4.50689013671875,-0.007456631399691105,0.01917419396340847,-0.06497921794652939
1772574448315820300,4.5168203125,-0.0031956990715116262,0.01384802907705307,-0.05113118514418602
1772574448325793500,4.52679345703125,-0.0010652330238372087,0.00852186419069767,-0.03728315606713295
1772574448335727000,4.53672705078125,0,0.007456631399691105,-0.02769605815410614
1772574448345627400,4.54662744140625,0.0031956990715116262,0.01384802907705307,-0.02023942768573761
1772574448355557600,4.5565576171875,0.007456631399691105,0.01810896210372448,-0.01704372838139534
1772574448365488400,4.56648828125,0.007456631399691105,0.02556559257209301,-0.01384802907705307
1772574448375419000,4.5764189453125,0.00852186419069767,0.02343512699007988,-0.012782796286046505
1772574448385388000,4.586387939453125,0.009587096981704235,0.0159784946590662,-0.009587096981704235
1772574448395322000,4.596322021484375,0.00852186419069767,0.0159784946590662,-0.007456631399691105
1772574448405224700,4.606224609375,0.007456631399691105,0.0159784946590662,-0.01171756349503994
1772574448415155700,4.61615576171875,0.0053261648863554,0.01491326279938221,-0.01810896210372448
1772574448425115000,4.626114990234375,0.0053261648863554,0.01704372838139534,-0.02769605815410614
1772574448435048400,4.63604833984375,0.0031956990715116262,0.02023942768573761,-0.03408745676279068
1772574448444945200,4.645945068359375,0.0021304660476744175,0.0213046595454216,-0.03728315606713295
1772574448454875400,4.65587548828125,0,0.02236989326775074,-0.03302222490310669
1772574448464812800,4.665812744140625,-0.0010652330238372087,0.0213046595454216,-0.02556559257209301
1772574448474743800,4.675743896484375,0,0.01704372838139534,-0.01917419396340847
1772574448484706300,4.685706298828125,0.0010652330238372087,0.0159784946590662,-0.01491326279938221
1772574448494640400,4.695640380859375,-0.0010652330238372087,0.01810896210372448,-0.0159784946590662
1772574448504572000,4.705572021484375,0,0.01917419396340847,-0.01810896210372448
1772574448514505700,4.715505615234375,0.0031956990715116262,0.0213046595454216,-0.01917419396340847
1772574448524424400,4.725424560546875,0.004260932095348835,0.0213046595454216,-0.0159784946590662
1772574448534356700,4.735356689453125,0.004260932095348835,0.01810896210372448,-0.012782796286046505
1772574448544310500,4.745310546875,0.0063913981430232525,0.01384802907705307,-0.009587096981704235
1772574448554245000,4.7552451171875,0.007456631399691105,0.007456631399691105,-0.00852186419069767
1772574448564195800,4.76519580078125,0.004260932095348835,0.004260932095348835,-0.0063913981430232525
1772574448574132000,4.775132080078125,0.0053261648863554,0.004260932095348835,-0.0053261648863554
1772574448583997400,4.78499755859375,0.004260932095348835,0.0053261648863554,-0.0021304660476744175
1772574448593926400,4.794926513671875,0.0021304660476744175,0.0063913981430232525,0.0010652330238372087
1772574448603873000,4.804873046875,0.0031956990715116262,0.0031956990715116262,0.0053261648863554
1772574448613803800,4.8148037109375,0.0031956990715116262,0.0010652330238372087,0.01171756349503994
1772574448623737900,4.82473779296875,0.0063913981430232525,-0.0010652330238372087,0.01384802907705307
1772574448633668900,4.8346689453125,0.00852186419069767,-0.0031956990715116262,0.01384802907705307
1772574448643603200,4.844603271484375,0.0106523297727108,-0.0021304660476744175,0.01704372838139534
1772574448653534500,4.854534423828125,0.01171756349503994,0,0.01704372838139534
1772574448663486000,4.86448583984375,0.01384802907705307,0,0.02023942768573761
1772574448673419300,4.874419189453125,0.012782796286046505,0,0.02023942768573761
1772574448683337500,4.88433740234375,0.009587096981704235,0.0021304660476744175,0.0159784946590662
1772574448693269200,4.894269287109375,0.007456631399691105,0.0031956990715116262,0.01171756349503994
1772574448703213800,4.9042138671875,0.0063913981430232525,-0.0010652330238372087,0.0106523297727108
1772574448713147000,4.91414697265625,0.0053261648863554,-0.0031956990715116262,0.0106523297727108
1772574448723049000,4.924049072265625,0.0063913981430232525,-0.0063913981430232525,0.01171756349503994
1772574448732979000,4.93397900390625,0.007456631399691105,-0.009587096981704235,0.00852186419069767
1772574448742932000,4.943931884765625,0.00852186419069767,-0.00852186419069767,0.0053261648863554
1772574448752864300,4.9538642578125,0.012782796286046505,-0.007456631399691105,0.0010652330238372087
1772574448762791700,4.963791748046875,0.012782796286046505,-0.007456631399691105,0.0010652330238372087
1772574448772723500,4.973723388671875,0.01171756349503994,-0.009587096981704235,-0.0021304660476744175
1772574448782682000,4.98368212890625,0.0106523297727108,-0.0106523297727108,-0.004260932095348835
1772574448792616700,4.99361669921875,0.009587096981704235,-0.0106523297727108,-0.004260932095348835
1772574448802529500,5.003529541015625,0.009587096981704235,-0.009587096981704235,-0.004260932095348835
1772574448812461800,5.0134619140625,0.01171756349503994,-0.0063913981430232525,0
1772574448822403600,5.023403564453125,0.0106523297727108,-0.007456631399691105,0.0063913981430232525
1772574448832337000,5.0333369140625,0.0106523297727108,-0.009587096981704235,0.01491326279938221
1772574448842289000,5.043288818359375,0.01384802907705307,-0.0106523297727108,0.02556559257209301
1772574448852224000,5.05322412109375,0.0159784946590662,-0.00852186419069767,0.03621792420744896
1772574448862118000,5.063117919921875,0.01810896210372448,-0.009587096981704235,0.04367455467581749
1772574448872049200,5.073049072265625,0.01917419396340847,-0.004260932095348835,0.04473978653550148
1772574448881987600,5.082987548828125,0.01810896210372448,0.0010652330238372087,0.0426093190908432
1772574448891919400,5.09291943359375,0.02023942768573761,0.0031956990715116262,0.04047885537147522
1772574448901845000,5.102844970703125,0.01917419396340847,0,0.03941362351179123
1772574448911776000,5.11277587890625,0.02023942768573761,0.0010652330238372087,0.03834838792681694
1772574448921703200,5.122703125,0.02023942768573761,0,0.03728315606713295
1772574448931633700,5.132633544921875,0.01917419396340847,0.0021304660476744175,0.03302222490310669
1772574448941597400,5.142597412109375,0.01810896210372448,0.00852186419069767,0.02556559257209301
1772574448951531500,5.152531494140625,0.01704372838139534,0.0106523297727108,0.01384802907705307
1772574448961430500,5.162430419921875,0.01704372838139534,0.01171756349503994,0
1772574448971361000,5.172361083984375,0.0159784946590662,0.0063913981430232525,-0.01384802907705307
1772574448981322200,5.182322265625,0.01491326279938221,0.0010652330238372087,-0.02663082629442215
1772574448991256000,5.192256103515625,0.01491326279938221,0.0010652330238372087,-0.03302222490310669
1772574449001235200,5.202235107421875,0.012782796286046505,0.00852186419069767,-0.03515268862247467
1772574449011173400,5.21217333984375,0.01384802907705307,0.009587096981704235,-0.02450035884976387
1772574449021054000,5.222053955078125,0.01384802907705307,0.007456631399691105,-0.009587096981704235
1772574449030986500,5.231986572265625,0.01491326279938221,0.0031956990715116262,0.0053261648863554
1772574449040889600,5.2418896484375,0.01704372838139534,0.007456631399691105,0.01171756349503994
1772574449050819000,5.251819091796875,0.0159784946590662,0.01171756349503994,0.01171756349503994
1772574449060782300,5.2617822265625,0.0159784946590662,0.009587096981704235,0.009587096981704235
1772574449070715100,5.271715087890625,0.01491326279938221,0.0063913981430232525,0.0031956990715116262
1772574449080618800,5.28161865234375,0.01704372838139534,0.007456631399691105,0
1772574449090548700,5.291548828125,0.0213046595454216,0.0063913981430232525,0.004260932095348835
1772574449100483000,5.301483154296875,0.02450035884976387,0.0063913981430232525,0.01171756349503994
1772574449110413600,5.31141357421875,0.02023942768573761,0.0031956990715116262,0.0159784946590662
1772574449120379100,5.321379150390625,0.01810896210372448,0.0031956990715116262,0.01704372838139534
1772574449130313000,5.33131298828125,0.01810896210372448,0.0053261648863554,0.01704372838139534
1772574449140255200,5.341255126953125,0.01810896210372448,0.0053261648863554,0.012782796286046505
1772574449150189800,5.35118994140625,0.01704372838139534,0.004260932095348835,0.00852186419069767
1772574449160069600,5.361069580078125,0.01491326279938221,0.0063913981430232525,0.0010652330238372087
1772574449169998800,5.370998779296875,0.012782796286046505,0.0106523297727108,-0.0063913981430232525
1772574449179940000,5.380940185546875,0.01171756349503994,0.0159784946590662,-0.009587096981704235
1772574449189870600,5.39087060546875,0.01171756349503994,0.01384802907705307,-0.00852186419069767
1772574449199822600,5.400822509765625,0.01491326279938221,0.007456631399691105,-0.009587096981704235
1772574449209755100,5.410755126953125,0.01491326279938221,0.004260932095348835,-0.00852186419069767
1772574449219704000,5.4207041015625,0.01384802907705307,-0.0031956990715116262,-0.0106523297727108
1772574449229638400,5.430638427734375,0.01384802907705307,-0.00852186419069767,-0.01384802907705307
1772574449239560400,5.440560546875,0.012782796286046505,-0.00852186419069767,-0.01810896210372448
1772574449249493500,5.450493408203125,0.012782796286046505,-0.004260932095348835,-0.0213046595454216
1772574449259400200,5.460400146484375,0.009587096981704235,0.0021304660476744175,-0.0213046595454216
1772574449269330400,5.470330322265625,0.007456631399691105,0.0031956990715116262,-0.01810896210372448
1772574449279272700,5.480272705078125,0.007456631399691105,0.0053261648863554,-0.0106523297727108
1772574449289204200,5.490204345703125,0.007456631399691105,0.0063913981430232525,-0.0031956990715116262
1772574449299128300,5.50012841796875,0.0053261648863554,0.004260932095348835,0.0021304660476744175
1772574449309059300,5.510059326171875,0.0053261648863554,0.0021304660476744175,0.004260932095348835
1772574449319011800,5.52001171875,0.0063913981430232525,-0.0010652330238372087,0.0031956990715116262
1772574449328945000,5.52994482421875,0.007456631399691105,-0.0010652330238372087,0.0031956990715116262
1772574449338856200,5.539856201171875,0.009587096981704235,-0.004260932095348835,-0.0031956990715116262
1772574449348787000,5.549786865234375,0.009587096981704235,-0.009587096981704235,-0.0053261648863554
1772574449358739200,5.5597392578125,0.0106523297727108,-0.0063913981430232525,-0.0053261648863554
1772574449368672300,5.56967236328125,0.009587096981704235,-0.0053261648863554,-0.0021304660476744175
1772574449378611700,5.57961181640625,0.0106523297727108,-0.00852186419069767,0.0053261648863554
1772574449388545300,5.589545166015625,0.009587096981704235,-0.0063913981430232525,0.0106523297727108
1772574449398452500,5.599452392578125,0.0053261648863554,-0.0021304660476744175,0.01171756349503994
1772574449408383500,5.609383544921875,0.0031956990715116262,-0.0010652330238372087,0.007456631399691105
1772574449418319400,5.6193193359375,0.0021304660476744175,0.0021304660476744175,0.007456631399691105
1772574449428250600,5.629250732421875,0,0.0021304660476744175,0.00852186419069767
1772574449438219500,5.639219482421875,0,-0.004260932095348835,0.009587096981704235
1772574449448154600,5.649154541015625,0,-0.007456631399691105,0.01171756349503994
1772574449458041000,5.659041015625,0.0010652330238372087,-0.00852186419069767,0.01171756349503994
1772574449467971300,5.668971435546875,0.0031956990715116262,-0.0053261648863554,0.01171756349503994
1772574449477919000,5.6789189453125,0.0010652330238372087,0,0.0106523297727108
1772574449487851000,5.68885107421875,0,0.0021304660476744175,0.00852186419069767
1772574449497798100,5.698798095703125,-0.0021304660476744175,0,0.0053261648863554
1772574449507731700,5.708731689453125,-0.0010652330238372087,0,0.0031956990715116262
1772574449517660400,5.718660400390625,-0.0021304660476744175,-0.0021304660476744175,0.0053261648863554
1772574449527593500,5.728593505859375,-0.0031956990715116262,-0.004260932095348835,0.00852186419069767
1772574449537500400,5.73850048828125,-0.0021304660476744175,-0.0010652330238372087,0.01384802907705307
1772574449547431200,5.74843115234375,-0.0010652330238372087,0,0.01491326279938221
1772574449557396700,5.758396728515625,-0.0010652330238372087,-0.004260932095348835,0.01171756349503994
1772574449567330800,5.768330810546875,-0.0021304660476744175,-0.0063913981430232525,0.0106523297727108
1772574449577268700,5.778268798828125,-0.0031956990715116262,-0.009587096981704235,0.0106523297727108
1772574449587203000,5.788203125,-0.004260932095348835,-0.0159784946590662,0.01384802907705307
1772574449597151700,5.79815185546875,-0.0053261648863554,-0.01810896210372448,0.01810896210372448
1772574449607087400,5.80808740234375,-0.0053261648863554,-0.012782796286046505,0.02450035884976387
1772574449617023200,5.818023193359375,-0.0031956990715116262,-0.009587096981704235,0.02556559257209301
1772574449626958800,5.827958740234375,-0.0053261648863554,-0.007456631399691105,0.02023942768573761
1772574449636879600,5.837879638671875,-0.007456631399691105,-0.0031956990715116262,0.0159784946590662
1772574449646813700,5.847813720703125,-0.007456631399691105,-0.0053261648863554,0.01171756349503994
1772574449656749800,5.857749755859375,-0.0106523297727108,-0.012782796286046505,0.01171756349503994
1772574449666684200,5.86768408203125,-0.0106523297727108,-0.01810896210372448,0.0159784946590662
1772574449676610300,5.8776103515625,-0.0063913981430232525,-0.02023942768573761,0.0213046595454216
1772574449686544000,5.8875439453125,-0.0031956990715116262,-0.01810896210372448,0.02982652559876442
1772574449696474400,5.897474365234375,0,-0.01810896210372448,0.03621792420744896
1772574449706407700,5.90740771484375,0,-0.01491326279938221,0.03834838792681694
1772574449716344000,5.917343994140625,0,-0.0106523297727108,0.03834838792681694
1772574449726278000,5.92727783203125,-0.0031956990715116262,-0.01171756349503994,0.03834838792681694
1772574449736217000,5.937217041015625,-0.0021304660476744175,-0.012782796286046505,0.03515268862247467
1772574449746151400,5.9471513671875,-0.0021304660476744175,-0.01171756349503994,0.02769605815410614
1772574449756069000,5.957069091796875,-0.0031956990715116262,-0.007456631399691105,0.02236989326775074
1772574449766001700,5.967001708984375,-0.0021304660476744175,0.0021304660476744175,0.01704372838139534
1772574449775952000,5.976951904296875,-0.0010652330238372087,0.007456631399691105,0.009587096981704235
1772574449785886200,5.98688623046875,-0.0010652330238372087,0.00852186419069767,0.0053261648863554
1772574449795802600,5.996802734375,-0.0063913981430232525,0.009587096981704235,0.0053261648863554
1772574449805735200,6.006735107421875,-0.0021304660476744175,0.009587096981704235,0.0053261648863554
1772574449815686100,6.01668603515625,-0.0213046595454216,0.0031956990715116262,0.012782796286046505
1772574449825620500,6.026620361328125,-0.03834838792681694,0.0010652330238372087,0.02450035884976387
1772574449835559000,6.036558837890625,-0.01704372838139534,-0.01917419396340847,0.04154408723115921
1772574449845493800,6.04649365234375,0.004260932095348835,0.0031956990715116262,0.05858781561255455
1772574449855416300,6.056416259765625,0.0031956990715116262,0.02236989326775074,0.05965305119752884
1772574449865350000,6.066349853515625,-0.0031956990715116262,0.02236989326775074,0.04900071769952774
1772574449875253800,6.076253662109375,-0.004260932095348835,0.02876129187643528,0.03834838792681694
1772574449885182700,6.0861826171875,-0.004260932095348835,0.0319569893181324,0.02876129187643528
1772574449895125000,6.096125,-0.0063913981430232525,0.04154408723115921,0.02023942768573761
1772574449905046500,6.106046630859375,-0.0021304660476744175,0.05858781561255455,0.01810896210372448
1772574449914977000,6.11597705078125,-0.0031956990715116262,0.05645735189318657,0.01810896210372448
1772574449934820900,6.13582080078125,-0.009587096981704235,0.02343512699007988,0.01384802907705307
1772574449944751400,6.14575146484375,-0.012782796286046505,0.00852186419069767,0.009587096981704235
1772574449954732300,6.155732177734375,-0.012782796286046505,0.0021304660476744175,0.007456631399691105
1772574449964666600,6.16566650390625,-0.00852186419069767,-0.0031956990715116262,0.007456631399691105
1772574449974626600,6.17562646484375,-0.004260932095348835,-0.007456631399691105,0.012782796286046505
1772574449984563500,6.1855634765625,-0.0031956990715116262,-0.007456631399691105,0.0213046595454216
1772574449994436400,6.195436279296875,-0.0010652330238372087,-0.00852186419069767,0.03302222490310669
1772574450004373200,6.205373291015625,0.0010652330238372087,-0.009587096981704235,0.03834838792681694
1772574450014291000,6.215291015625,0.004260932095348835,-0.009587096981704235,0.04154408723115921
1772574450024226300,6.225226318359375,0.007456631399691105,-0.00852186419069767,0.03621792420744896
1772574450034194400,6.2351943359375,0.0159784946590662,0,0.03302222490310669
1772574450044133000,6.245133056640625,0.02236989326775074,0.0063913981430232525,0.02663082629442215
1772574450054057500,6.255057373046875,0.012782796286046505,0,0.00852186419069767
1772574450063994600,6.26499462890625,0.01704372838139534,-0.01810896210372448,-0.009587096981704235
1772574450073915400,6.274915283203125,0.0319569893181324,-0.03728315606713295,-0.02343512699007988
1772574450083851000,6.28485107421875,0.03834838792681694,-0.03834838792681694,-0.02663082629442215
1772574450093782000,6.294781982421875,0.04047885537147522,-0.03408745676279068,-0.02556559257209301
1772574450103717000,6.304717041015625,0.03408745676279068,-0.02876129187643528,-0.0159784946590662
1772574450113654000,6.314654052734375,0.0213046595454216,-0.01171756349503994,-0.0021304660476744175
1772574450123589400,6.32458935546875,0.00852186419069767,0.0063913981430232525,0.0106523297727108
1772574450133517300,6.334517333984375,-0.0010652330238372087,0.01810896210372448,0.0213046595454216
1772574450143452000,6.344451904296875,-0.007456631399691105,0.02343512699007988,0.03089175745844841
1772574450153383700,6.3543837890625,-0.02556559257209301,0.03089175745844841,0.03834838792681694
1772574450163318000,6.364318115234375,-0.03941362351179123,0.02982652559876442,0.03941362351179123
1772574450173241900,6.374241943359375,-0.0106523297727108,0.0159784946590662,0.02450035884976387
1772574450183175000,6.3841748046875,0.0063913981430232525,0.0159784946590662,0.01171756349503994
1772574450193115100,6.394115234375,0.0031956990715116262,0.01810896210372448,0.0053261648863554
1772574450203049000,6.404049072265625,0.0010652330238372087,0.01491326279938221,-0.004260932095348835
1772574450212975000,6.41397509765625,0.0053261648863554,0.012782796286046505,-0.01171756349503994
1772574450222908400,6.423908447265625,0.0021304660476744175,0.02023942768573761,-0.01704372838139534
1772574450232832300,6.433832275390625,0.004260932095348835,0.01917419396340847,-0.02450035884976387
1772574450242764500,6.4437646484375,0.0053261648863554,0.02876129187643528,-0.02236989326775074
1772574450252687400,6.453687255859375,-0.0021304660476744175,0.0319569893181324,-0.0159784946590662
1772574450262618600,6.46361865234375,-0.0053261648863554,0.02982652559876442,-0.0106523297727108
1772574450272546000,6.473546142578125,-0.0063913981430232525,0.02450035884976387,-0.0106523297727108
1772574450282478800,6.483478759765625,-0.00852186419069767,0.02343512699007988,-0.01384802907705307
1772574450292426000,6.493426025390625,-0.0106523297727108,0.02236989326775074,-0.01704372838139534
1772574450302357000,6.50335693359375,-0.012782796286046505,0.01704372838139534,-0.0213046595454216
1772574450322195000,6.52319482421875,-0.01384802907705307,-0.0010652330238372087,-0.01384802907705307
1772574450332114000,6.533114013671875,-0.01171756349503994,-0.0021304660476744175,-0.00852186419069767
1772574450342045000,6.543044921875,-0.01171756349503994,-0.0010652330238372087,-0.0021304660476744175
1772574450352009500,6.553009521484375,-0.012782796286046505,0.0010652330238372087,0.0010652330238372087
1772574450361943800,6.56294384765625,-0.0106523297727108,0.004260932095348835,0.0031956990715116262
1772574450371891500,6.572891357421875,-0.01171756349503994,0.0031956990715116262,0.004260932095348835
1772574450381827000,6.5828271484375,-0.0106523297727108,0.0021304660476744175,0.0021304660476744175
1772574450391753500,6.59275341796875,-0.01171756349503994,0.0031956990715116262,-0.004260932095348835
1772574450401688000,6.60268798828125,-0.01384802907705307,0.0031956990715116262,-0.0106523297727108
1772574450411611100,6.612611083984375,-0.01491326279938221,0.0031956990715116262,-0.01384802907705307
1772574450421544700,6.622544677734375,-0.01384802907705307,0.004260932095348835,-0.009587096981704235
1772574450431487200,6.6324873046875,-0.01491326279938221,0.0053261648863554,-0.0031956990715116262
1772574450441421600,6.642421630859375,-0.0159784946590662,0.0106523297727108,0.0063913981430232525
1772574450451315500,6.6523154296875,-0.01384802907705307,0.01491326279938221,0.012782796286046505
1772574450461246000,6.662245849609375,-0.01171756349503994,0.0106523297727108,0.01384802907705307
1772574450471212000,6.6722119140625,-0.01171756349503994,0.00852186419069767,0.01491326279938221
1772574450481146000,6.68214599609375,-0.009587096981704235,0.009587096981704235,0.012782796286046505
1772574450491082200,6.692082275390625,-0.00852186419069767,0.00852186419069767,0.01171756349503994
1772574450501016300,6.702016357421875,-0.004260932095348835,0.007456631399691105,0.0106523297727108
1772574450510936800,6.711936767578125,0.0010652330238372087,0.0063913981430232525,0.00852186419069767
1772574450520869600,6.72186962890625,0.0021304660476744175,0.0063913981430232525,0.0053261648863554
1772574450530775600,6.731775634765625,0.004260932095348835,0.00852186419069767,0
1772574450540705800,6.741705810546875,0.0053261648863554,0.0053261648863554,-0.004260932095348835
1772574450550673400,6.75167333984375,0.004260932095348835,-0.0031956990715116262,-0.004260932095348835
1772574450560607200,6.761607177734375,0.004260932095348835,-0.0063913981430232525,0
1772574450570518800,6.771518798828125,0.0053261648863554,-0.004260932095348835,0.0021304660476744175
1772574450580450600,6.781450439453125,0.0063913981430232525,-0.0031956990715116262,0.0053261648863554
1772574450590382600,6.791382568359375,0.0063913981430232525,0,0.007456631399691105
1772574450600314400,6.801314453125,0.0021304660476744175,0.0021304660476744175,0.009587096981704235
1772574450610253300,6.81125341796875,0,0.0063913981430232525,0.0021304660476744175
1772574450620185600,6.821185546875,-0.0021304660476744175,0.00852186419069767,-0.0063913981430232525
1772574450630120700,6.83112060546875,-0.004260932095348835,0.007456631399691105,-0.01491326279938221
1772574450640053500,6.841053466796875,-0.0063913981430232525,0.004260932095348835,-0.02343512699007988
1772574450649977600,6.8509775390625,-0.0063913981430232525,0.0031956990715116262,-0.03089175745844841
1772574450659909400,6.860909423828125,-0.0053261648863554,0.0053261648863554,-0.03302222490310669
1772574450669836800,6.8708369140625,-0.0021304660476744175,0.004260932095348835,-0.0319569893181324
1772574450679768300,6.880768310546875,-0.004260932095348835,0.007456631399691105,-0.03089175745844841
1772574450689716500,6.890716552734375,-0.0010652330238372087,0.00852186419069767,-0.02663082629442215
1772574450709573000,6.910572998046875,-0.0010652330238372087,0.0106523297727108,-0.02023942768573761
1772574450719505400,6.92050537109375,-0.0010652330238372087,0.0053261648863554,-0.01491326279938221
1772574450729433300,6.930433349609375,-0.0010652330238372087,0.0031956990715116262,-0.01171756349503994
1772574450739365000,6.940365234375,-0.004260932095348835,0,-0.0053261648863554
1772574450749302800,6.950302734375,-0.004260932095348835,0.0010652330238372087,0
1772574450759235300,6.9602353515625,-0.004260932095348835,0.0063913981430232525,0.0021304660476744175
1772574450769165600,6.97016552734375,-0.0053261648863554,0.009587096981704235,0.0010652330238372087
1772574450779097600,6.98009765625,-0.007456631399691105,0.009587096981704235,-0.0021304660476744175
1772574450789024800,6.990024658203125,-0.009587096981704235,0.0106523297727108,-0.004260932095348835
1772574450798956300,6.999956298828125,-0.01171756349503994,0.009587096981704235,-0.0021304660476744175
1772574450808917000,7.0099169921875,-0.01491326279938221,0.0063913981430232525,-0.0010652330238372087
1772574450818851600,7.0198515625,-0.01491326279938221,0.0053261648863554,-0.0021304660476744175
1772574450828754700,7.029754638671875,-0.0159784946590662,0.009587096981704235,-0.0053261648863554
1772574450838686000,7.03968603515625,-0.01704372838139534,0.01171756349503994,-0.009587096981704235
1772574450848649500,7.0496494140625,-0.0213046595454216,0.009587096981704235,-0.0063913981430232525
1772574450858584000,7.059583984375,-0.02236989326775074,0.00852186419069767,0.0010652330238372087
1772574450868504000,7.069504150390625,-0.02236989326775074,0.01384802907705307,0.0031956990715116262
1772574450878404900,7.07940478515625,-0.0213046595454216,0.0106523297727108,0.004260932095348835
1772574450898272000,7.09927197265625,-0.01384802907705307,0.02343512699007988,0.02450035884976387
1772574450908205000,7.109205078125,-0.0159784946590662,0.01704372838139534,0.02769605815410614
1772574450938020600,7.1390205078125,-0.01704372838139534,0.01917419396340847,-0.0159784946590662
1772574450947942700,7.148942626953125,-0.01810896210372448,0.02556559257209301,-0.02450035884976387
1772574450957875200,7.158875244140625,-0.01704372838139534,0.01917419396340847,-0.02663082629442215
1772574450967830800,7.168830810546875,-0.0159784946590662,0.01810896210372448,-0.02663082629442215
1772574450977765400,7.178765380859375,-0.01491326279938221,0.0159784946590662,-0.02343512699007988
1772574450987694300,7.1886943359375,-0.012782796286046505,0.01171756349503994,-0.0213046595454216
1772574450997576700,7.19857666015625,-0.007456631399691105,0.01384802907705307,-0.01491326279938221
1772574451017532200,7.2185322265625,-0.0021304660476744175,0.02023942768573761,-0.0053261648863554
1772574451027473700,7.2284736328125,0.0010652330238372087,0.01491326279938221,-0.012782796286046505
1772574451037354500,7.2383544921875,0.0031956990715116262,0.004260932095348835,-0.01810896210372448
1772574451047289900,7.248289794921875,0.0053261648863554,0.0021304660476744175,-0.01810896210372448
1772574451057218000,7.258218017578125,0.007456631399691105,0.0031956990715116262,-0.01917419396340847
1772574451067153000,7.26815283203125,0.00852186419069767,-0.0031956990715116262,-0.01704372838139534
1772574451077063700,7.278063720703125,0.00852186419069767,-0.0106523297727108,-0.00852186419069767
1772574451086998300,7.287998291015625,0.0053261648863554,-0.01704372838139534,0.0031956990715116262
1772574451106862300,7.3078623046875,0,-0.01171756349503994,0.0053261648863554
1772574451116793900,7.3177939453125,-0.004260932095348835,-0.004260932095348835,-0.0010652330238372087
1772574451136663000,7.3376630859375,-0.0106523297727108,-0.0010652330238372087,-0.01171756349503994
1772574451146608400,7.3476083984375,-0.0106523297727108,-0.0021304660476744175,-0.0159784946590662
1772574451156544000,7.3575439453125,-0.01171756349503994,0.0021304660476744175,-0.01704372838139534
1772574451166452700,7.36745263671875,-0.012782796286046505,0.0053261648863554,-0.02343512699007988
1772574451176385800,7.3773857421875,-0.0106523297727108,0.0053261648863554,-0.02982652559876442
1772574451186336500,7.38733642578125,-0.009587096981704235,0.0053261648863554,-0.03515268862247467
1772574451196271000,7.39727099609375,-0.00852186419069767,0.0031956990715116262,-0.03515268862247467
1772574451206200300,7.407200439453125,-0.00852186419069767,-0.0010652330238372087,-0.03089175745844841
1772574451216134400,7.417134521484375,-0.009587096981704235,-0.004260932095348835,-0.02769605815410614
1772574451226062000,7.42706201171875,-0.009587096981704235,-0.0063913981430232525,-0.02876129187643528
1772574451235995400,7.436995361328125,-0.009587096981704235,-0.0063913981430232525,-0.02876129187643528
1772574451245934000,7.44693408203125,-0.00852186419069767,-0.007456631399691105,-0.02876129187643528
1772574451255868200,7.4568681640625,-0.0053261648863554,-0.009587096981704235,-0.02556559257209301
1772574451265794000,7.4667939453125,-0.004260932095348835,-0.01384802907705307,-0.02023942768573761
1772574451275727000,7.47672705078125,-0.0010652330238372087,-0.01491326279938221,-0.01491326279938221
1772574451285661700,7.48666162109375,-0.0010652330238372087,-0.01491326279938221,-0.0063913981430232525
1772574451295595000,7.496594970703125,0,-0.0106523297727108,-0.0010652330238372087
1772574451305524200,7.506524169921875,0.0010652330238372087,-0.0053261648863554,0.0031956990715116262
1772574451315457000,7.51645703125,0.0021304660476744175,-0.0031956990715116262,0.0010652330238372087
1772574451325392100,7.52639208984375,0.0031956990715116262,-0.0021304660476744175,-0.00852186419069767
1772574451335325200,7.5363251953125,0.0021304660476744175,-0.0021304660476744175,-0.01810896210372448
1772574451345245200,7.5462451171875,0.0010652330238372087,-0.0010652330238372087,-0.03302222490310669
1772574451355177000,7.556177001953125,-0.0010652330238372087,0.0010652330238372087,-0.04793548583984375
1772574451365125000,7.566125,-0.004260932095348835,0.0010652330238372087,-0.05539211630821228
1772574451375058400,7.576058349609375,-0.009587096981704235,0.0063913981430232525,-0.05752258375287056
1772574451384968000,7.585968017578125,-0.01171756349503994,0.01171756349503994,-0.05006595328450203
1772574451394899200,7.595899169921875,-0.004260932095348835,0.01491326279938221,-0.04154408723115921
1772574451404837400,7.60583740234375,0.0010652330238372087,0.01704372838139534,-0.02982652559876442
1772574451414769200,7.61576904296875,0.0010652330238372087,0.01171756349503994,-0.02023942768573761
1772574451424696300,7.6256962890625,0.0021304660476744175,0.01171756349503994,-0.009587096981704235
1772574451434627600,7.635627685546875,0.0010652330238372087,0.01171756349503994,0.0010652330238372087
1772574451444559000,7.64555908203125,0.004260932095348835,0.0063913981430232525,0.012782796286046505
1772574451454490400,7.655490478515625,0.007456631399691105,-0.0031956990715116262,0.02663082629442215
1772574451464456000,7.6654560546875,0.009587096981704235,-0.01171756349503994,0.03728315606713295
1772574451474390800,7.675390869140625,0.0106523297727108,-0.01384802907705307,0.04367455467581749
1772574451484291000,7.685291015625,0.012782796286046505,-0.01704372838139534,0.0426093190908432
1772574451494222300,7.695222412109375,0.012782796286046505,-0.01171756349503994,0.03621792420744896
1772574451504158500,7.705158447265625,0.012782796286046505,0,0.02450035884976387
1772574451514090200,7.71509033203125,0.0106523297727108,0.0031956990715116262,0.01171756349503994
1772574451524023800,7.72502392578125,0.0106523297727108,0,-0.0021304660476744175
1772574451533955800,7.734955810546875,0.00852186419069767,-0.0031956990715116262,-0.01171756349503994
1772574451543880400,7.74488037109375,0.0063913981430232525,-0.00852186419069767,-0.01810896210372448
1772574451553811700,7.754811767578125,0.004260932095348835,-0.009587096981704235,-0.02236989326775074
1772574451563774200,7.764774169921875,0.0021304660476744175,-0.00852186419069767,-0.02236989326775074
1772574451573708500,7.77470849609375,0.0010652330238372087,-0.0021304660476744175,-0.02236989326775074
1772574451583636000,7.784635986328125,0.004260932095348835,0.0063913981430232525,-0.02450035884976387
1772574451593569800,7.79456982421875,0.007456631399691105,0.007456631399691105,-0.02343512699007988
1772574451603497700,7.804497802734375,0.009587096981704235,0.0031956990715116262,-0.02343512699007988
1772574451623364400,7.8243642578125,0.012782796286046505,-0.0021304660476744175,-0.01917419396340847
1772574451633297700,7.834297607421875,0.01384802907705307,-0.0010652330238372087,-0.012782796286046505
1772574451643223000,7.84422314453125,0.0159784946590662,0.0021304660476744175,-0.009587096981704235
1772574451653155600,7.854155517578125,0.01917419396340847,0.0106523297727108,-0.0063913981430232525
1772574451663103200,7.864103271484375,0.02023942768573761,0.01704372838139534,-0.0053261648863554
1772574451673037300,7.874037353515625,0.02450035884976387,0.02023942768573761,-0.0053261648863554
1772574451682932200,7.88393212890625,0.02663082629442215,0.02556559257209301,-0.009587096981704235
1772574451692862200,7.8938623046875,0.02769605815410614,0.0319569893181324,-0.009587096981704235
1772574451702819000,7.903819091796875,0.02769605815410614,0.03621792420744896,-0.009587096981704235
1772574451712751900,7.913751953125,0.02769605815410614,0.03302222490310669,-0.00852186419069767
1772574451722662400,7.923662353515625,0.02876129187643528,0.0319569893181324,-0.0031956990715116262
1772574451732593000,7.933593017578125,0.02769605815410614,0.0319569893181324,0.0063913981430232525
1772574451742546200,7.943546142578125,0.02663082629442215,0.03941362351179123,0.012782796286046505
1772574451752479000,7.95347900390625,0.02663082629442215,0.0426093190908432,0.012782796286046505
1772574451762388200,7.96338818359375,0.0213046595454216,0.03408745676279068,0.012782796286046505
1772574451772318700,7.973318603515625,0.01917419396340847,0.02876129187643528,0.01171756349503994
1772574451782282000,7.983281982421875,0.02023942768573761,0.02236989326775074,0.007456631399691105
1772574451792215800,7.9932158203125,0.02023942768573761,0.01491326279938221,0
1772574451802117000,8.0031171875,0.02023942768573761,0.0159784946590662,-0.007456631399691105
1772574451812047600,8.013047607421875,0.02023942768573761,0.01491326279938221,-0.0159784946590662
1772574451822012400,8.023012451171875,0.02236989326775074,0.0159784946590662,-0.02769605815410614
1772574451831946500,8.032946533203125,0.02343512699007988,0.01491326279938221,-0.03408745676279068
1772574451841843500,8.042843505859375,0.02556559257209301,0.0106523297727108,-0.03621792420744896
1772574451851773700,8.052773681640625,0.02769605815410614,0.007456631399691105,-0.03621792420744896
1772574451861766400,8.062766357421875,0.02982652559876442,0.0053261648863554,-0.03621792420744896
1772574451871703000,8.072703125,0.02876129187643528,0.0010652330238372087,-0.03408745676279068
1772574451881610500,8.082610595703125,0.02982652559876442,0.0010652330238372087,-0.0319569893181324
1772574451891544000,8.0925439453125,0.03302222490310669,0.0021304660476744175,-0.0319569893181324
1772574451901469000,8.102468994140626,0.03408745676279068,0.0053261648863554,-0.0319569893181324
1772574451911401700,8.112401611328124,0.03302222490310669,0.00852186419069767,-0.02769605815410614
1772574451921330400,8.122330322265626,0.03302222490310669,0.01704372838139534,-0.02236989326775074
1772574451931263000,8.132262939453126,0.03302222490310669,0.02450035884976387,-0.01384802907705307
1772574451941203700,8.14220361328125,0.03302222490310669,0.02556559257209301,-0.0063913981430232525
1772574451951137000,8.152136962890625,0.03089175745844841,0.02023942768573761,0.0010652330238372087
1772574451961063700,8.162063720703125,0.02876129187643528,0.0159784946590662,0.0063913981430232525
1772574451970996200,8.171996337890626,0.02876129187643528,0.01384802907705307,0.0053261648863554
1772574451980899300,8.1818994140625,0.02343512699007988,0.0063913981430232525,0.0010652330238372087
1772574451990828800,8.191828857421875,0.01810896210372448,-0.004260932095348835,-0.0053261648863554
1772574452000791300,8.201791259765624,0.0159784946590662,-0.009587096981704235,-0.0106523297727108
1772574452010724000,8.21172412109375,0.01491326279938221,-0.009587096981704235,-0.01491326279938221
1772574452020653000,8.221653076171876,0.012782796286046505,-0.0021304660476744175,-0.01810896210372448
1772574452030585300,8.23158544921875,0.0106523297727108,0.004260932095348835,-0.01491326279938221
1772574452040529000,8.24152880859375,0.00852186419069767,0.007456631399691105,-0.009587096981704235
1772574452050462500,8.25146240234375,0.0063913981430232525,0.0053261648863554,-0.0063913981430232525
1772574452060393200,8.261393310546875,0.004260932095348835,0.0010652330238372087,-0.0010652330238372087
1772574452070326500,8.271326416015626,0.004260932095348835,0.0010652330238372087,-0.0010652330238372087
1772574452080256500,8.281256591796875,0.009587096981704235,0,-0.0053261648863554
1772574452090189600,8.291189453125,0.009587096981704235,0,-0.00852186419069767
1772574452100110600,8.301110595703125,0.004260932095348835,0.0031956990715116262,-0.00852186419069767
1772574452110042400,8.31104248046875,-0.0063913981430232525,0.01384802907705307,-0.009587096981704235
1772574452119979800,8.320979736328125,-0.01810896210372448,0.02450035884976387,-0.01384802907705307
1772574452129912000,8.330912109375,-0.02769605815410614,0.03621792420744896,-0.01810896210372448
1772574452139841500,8.340841552734375,-0.0319569893181324,0.04473978653550148,-0.01491326279938221
1772574452149773600,8.350773681640625,-0.03302222490310669,0.03302222490310669,-0.004260932095348835
1772574452159713500,8.360713623046875,-0.03834838792681694,0.0319569893181324,0.0053261648863554
1772574452169646300,8.370646240234375,-0.04793548583984375,0.0213046595454216,0.004260932095348835
1772574452179571200,8.3805712890625,-0.05219641700387001,0.004260932095348835,0.0010652330238372087
1772574452189503200,8.390503173828124,-0.05113118514418602,-0.0053261648863554,-0.0021304660476744175
1772574452199438000,8.40043798828125,-0.05113118514418602,-0.0063913981430232525,-0.0010652330238372087
1772574452209370400,8.410370361328125,-0.04900071769952774,-0.0053261648863554,0.0053261648863554
1772574452219300900,8.42030078125,-0.04473978653550148,-0.0063913981430232525,0.01704372838139534
1772574452229233000,8.43023291015625,-0.03941362351179123,-0.01171756349503994,0.02663082629442215
1772574452239171300,8.44017138671875,-0.03728315606713295,-0.02023942768573761,0.03408745676279068
1772574452249104000,8.450103759765625,-0.03302222490310669,-0.01917419396340847,0.03834838792681694
1772574452259029500,8.460029541015626,-0.0319569893181324,-0.012782796286046505,0.04047885537147522
1772574452268961500,8.46996142578125,-0.03515268862247467,-0.01917419396340847,0.04154408723115921
1772574452278868200,8.4798681640625,-0.03408745676279068,-0.02343512699007988,0.04900071769952774
1772574452288797700,8.489797607421876,-0.03089175745844841,-0.02023942768573761,0.05645735189318657
1772574452298757000,8.499757080078124,-0.02982652559876442,-0.02343512699007988,0.06284874677658081
1772574452308689700,8.509689697265625,-0.02769605815410614,-0.02450035884976387,0.07137060910463333
1772574452318600200,8.51960009765625,-0.02769605815410614,-0.02876129187643528,0.06817491352558136
1772574452328530400,8.529530517578126,-0.02982652559876442,-0.03621792420744896,0.06284874677658081
1772574452338486500,8.539486572265625,-0.03302222490310669,-0.03834838792681694,0.05539211630821228
1772574452348419300,8.54941943359375,-0.03941362351179123,-0.04047885537147522,0.05113118514418602
1772574452358364200,8.5593642578125,-0.04367455467581749,-0.04154408723115921,0.0532616525888443
1772574452368298200,8.56929833984375,-0.04580501839518547,-0.0426093190908432,0.05432688444852829
1772574452378217700,8.5792177734375,-0.04687025398015976,-0.03941362351179123,0.0532616525888443
1772574452388150300,8.589150390625,-0.04900071769952774,-0.03834838792681694,0.05006595328450203
1772574452398078700,8.59907861328125,-0.0532616525888443,-0.04580501839518547,0.04367455467581749
1772574452408011000,8.609010986328125,-0.05752258375287056,-0.05006595328450203,0.03089175745844841
1772574452417947600,8.61894775390625,-0.05858781561255455,-0.0426093190908432,0.01704372838139534
1772574452427880200,8.628880126953124,-0.05752258375287056,-0.03728315606713295,0.009587096981704235
1772574452437788000,8.638787841796875,-0.05539211630821228,-0.0319569893181324,0.0063913981430232525
1772574452447718000,8.6487177734375,-0.05432688444852829,-0.03089175745844841,0.004260932095348835
1772574452457672400,8.65867236328125,-0.05219641700387001,-0.02769605815410614,0.0010652330238372087
1772574452467605000,8.66860498046875,-0.04793548583984375,-0.01810896210372448,0
1772574452477537300,8.678537353515624,-0.0426093190908432,-0.0106523297727108,0.0010652330238372087
1772574452487469800,8.6884697265625,-0.03834838792681694,-0.0106523297727108,0.0031956990715116262
1772574452497399800,8.69839990234375,-0.03515268862247467,-0.0063913981430232525,0.0021304660476744175
1772574452507332000,8.70833203125,-0.03515268862247467,-0.004260932095348835,0.0010652330238372087
1772574452517246700,8.718246826171875,-0.03408745676279068,-0.004260932095348835,-0.0010652330238372087
1772574452527177200,8.72817724609375,-0.03089175745844841,-0.0053261648863554,-0.0010652330238372087
1772574452537128200,8.738128173828125,-0.02982652559876442,-0.0063913981430232525,0.0021304660476744175
1772574452547060700,8.748060791015625,-0.02769605815410614,-0.0010652330238372087,0.0063913981430232525
1772574452556998000,8.757997802734375,-0.02343512699007988,0.004260932095348835,0.01171756349503994
1772574452566931000,8.767930908203125,-0.02236989326775074,0.004260932095348835,0.01704372838139534
1772574452576834600,8.77783447265625,-0.0213046595454216,0.0010652330238372087,0.01917419396340847
1772574452586764500,8.7877646484375,-0.02023942768573761,-0.004260932095348835,0.01917419396340847
1772574452596735700,8.79773583984375,-0.02023942768573761,-0.009587096981704235,0.02023942768573761
1772574452606670000,8.807670166015624,-0.02236989326775074,-0.01171756349503994,0.01917419396340847
1772574452616573000,8.817572998046876,-0.02236989326775074,-0.0106523297727108,0.01491326279938221
1772574452626504200,8.827504150390626,-0.02343512699007988,-0.01171756349503994,0.01171756349503994
1772574452636429600,8.8374296875,-0.02343512699007988,-0.0106523297727108,0.01171756349503994
1772574452646360000,8.847360107421874,-0.02023942768573761,-0.0063913981430232525,0.01384802907705307
1772574452656296000,8.8572958984375,-0.01917419396340847,-0.0021304660476744175,0.01704372838139534
1772574452666227000,8.86722705078125,-0.01810896210372448,0,0.02236989326775074
1772574452676157700,8.87715771484375,-0.01704372838139534,-0.0031956990715116262,0.02450035884976387
1772574452686088700,8.887088623046875,-0.01384802907705307,-0.0063913981430232525,0.02023942768573761
1772574452696058600,8.89705859375,-0.01384802907705307,-0.0063913981430232525,0.0159784946590662
1772574452705993700,8.90699365234375,-0.0159784946590662,-0.007456631399691105,0.01171756349503994
1772574452715887600,8.9168876953125,-0.0159784946590662,-0.0106523297727108,0.007456631399691105
1772574452725818400,8.926818359375,-0.01491326279938221,-0.01384802907705307,0.004260932095348835
1772574452745684500,8.9466845703125,-0.01704372838139534,-0.007456631399691105,0.00852186419069767
1772574452755653400,8.9566533203125,-0.01704372838139534,-0.0063913981430232525,0.00852186419069767
1772574452765588500,8.96658837890625,-0.01704372838139534,-0.004260932095348835,0.0106523297727108
1772574452775526100,8.976526123046876,-0.01704372838139534,-0.004260932095348835,0.0106523297727108
1772574452785461500,8.98646142578125,-0.01810896210372448,-0.0031956990715116262,0.007456631399691105
1772574452795366700,8.99636669921875,-0.01917419396340847,-0.0021304660476744175,0.0053261648863554
1772574452805299000,9.006298828125,-0.01810896210372448,-0.00852186419069767,0.0053261648863554
1772574452815234300,9.016234375,-0.01810896210372448,-0.0106523297727108,0.004260932095348835
1772574452825166600,9.02616650390625,-0.01917419396340847,-0.0106523297727108,0.007456631399691105
1772574452835097900,9.036097900390626,-0.01810896210372448,-0.0063913981430232525,0.0106523297727108
1772574452845030400,9.046030517578124,-0.0159784946590662,-0.0031956990715116262,0.01171756349503994
1772574452854975500,9.0559755859375,-0.0159784946590662,-0.0010652330238372087,0.009587096981704235
1772574452864909000,9.065908935546876,-0.0159784946590662,-0.0053261648863554,0.0031956990715116262
1772574452874830800,9.075830810546876,-0.0159784946590662,-0.0053261648863554,-0.0031956990715116262
1772574452884763100,9.08576318359375,-0.01810896210372448,-0.00852186419069767,-0.0106523297727108
1772574452894694400,9.0956943359375,-0.01810896210372448,-0.0053261648863554,-0.01810896210372448
1772574452904626700,9.105626708984374,-0.01810896210372448,0.0010652330238372087,-0.02663082629442215
1772574452914566100,9.115566162109374,-0.01810896210372448,0.004260932095348835,-0.0319569893181324
1772574452924499200,9.125499267578125,-0.01810896210372448,0.007456631399691105,-0.03089175745844841
1772574452934422500,9.135422607421875,-0.01491326279938221,0.007456631399691105,-0.02343512699007988
1772574452944354600,9.1453544921875,-0.01171756349503994,0.007456631399691105,-0.01491326279938221
1772574452954286300,9.155286376953125,-0.0063913981430232525,0.0106523297727108,-0.0063913981430232525
1772574452964218000,9.165218017578125,-0.0021304660476744175,0.0106523297727108,0.0010652330238372087
1772574452974153700,9.17515380859375,0.0021304660476744175,0.009587096981704235,0.009587096981704235
1772574452984086000,9.1850859375,0.0053261648863554,0.007456631399691105,0.0106523297727108
1772574452994011400,9.195011474609375,0.007456631399691105,0.0063913981430232525,0.009587096981704235
1772574453003943200,9.204943115234375,0.00852186419069767,0.004260932095348835,0.0106523297727108
1772574453013888800,9.214888671875,0.009587096981704235,0.0031956990715116262,0.01384802907705307
1772574453023821800,9.22482177734375,0.0106523297727108,0.0053261648863554,0.0213046595454216
1772574453033753900,9.23475390625,0.012782796286046505,0.00852186419069767,0.02556559257209301
1772574453043686700,9.244686767578125,0.01384802907705307,0.012782796286046505,0.02343512699007988
1772574453053609000,9.25460888671875,0.0159784946590662,0.01917419396340847,0.02236989326775074
1772574453063541000,9.264541015625,0.0159784946590662,0.0213046595454216,0.02023942768573761
1772574453073471200,9.27447119140625,0.01704372838139534,0.01810896210372448,0.009587096981704235
1772574453083403000,9.284403076171875,0.01810896210372448,0.01917419396340847,0.0031956990715116262
1772574453093336300,9.29433642578125,0.01917419396340847,0.012782796286046505,-0.0010652330238372087
1772574453103268000,9.30426806640625,0.02023942768573761,0.0063913981430232525,-0.004260932095348835
1772574453113212400,9.31421240234375,0.0213046595454216,0.0021304660476744175,-0.004260932095348835
1772574453123145700,9.324145751953125,0.0213046595454216,0.0010652330238372087,-0.0021304660476744175
1772574453133065000,9.33406494140625,0.02023942768573761,0.0021304660476744175,0.0010652330238372087
1772574453142996700,9.343996826171875,0.01917419396340847,0.0031956990715116262,0.0021304660476744175
1772574453152929800,9.3539296875,0.01810896210372448,0.0053261648863554,0.004260932095348835
1772574453162861800,9.36386181640625,0.01917419396340847,0.0053261648863554,0.0053261648863554
1772574453172793900,9.3737939453125,0.02023942768573761,0.007456631399691105,0.0063913981430232525
1772574453182726000,9.383725830078125,0.01917419396340847,0.01171756349503994,0.0010652330238372087
1772574453192679700,9.3936796875,0.01810896210372448,0.0159784946590662,-0.004260932095348835
1772574453202614000,9.403614013671875,0.01810896210372448,0.01917419396340847,-0.00852186419069767
1772574453212498700,9.413498779296875,0.0159784946590662,0.012782796286046505,-0.012782796286046505
1772574453222428000,9.423427978515624,0.0159784946590662,0.009587096981704235,-0.012782796286046505
1772574453232397800,9.433397705078125,0.01491326279938221,0.01171756349503994,-0.01171756349503994
1772574453242331100,9.4433310546875,0.01384802907705307,0.012782796286046505,-0.007456631399691105
1772574453252249300,9.453249267578125,0.0159784946590662,0.01171756349503994,-0.0021304660476744175
1772574453262162200,9.463162109375,0.01810896210372448,0.012782796286046505,0.0031956990715116262
1772574453272088000,9.473088134765625,0.02236989326775074,0.01917419396340847,0.007456631399691105
1772574453282013200,9.48301318359375,0.02343512699007988,0.0159784946590662,0.01384802907705307
1772574453291945000,9.492945068359376,0.02450035884976387,0.009587096981704235,0.0159784946590662
1772574453321735000,9.52273486328125,0.02236989326775074,0.007456631399691105,0.0106523297727108
1772574453341631500,9.542631591796875,0.02556559257209301,0.0063913981430232525,0.0063913981430232525
1772574453351566800,9.55256689453125,0.02663082629442215,0.007456631399691105,0.01171756349503994
1772574453361507800,9.5625078125,0.02876129187643528,0.004260932095348835,0.01171756349503994
1772574453371382300,9.57238232421875,0.02769605815410614,0.0031956990715116262,0.0063913981430232525
1772574453381318100,9.582318115234376,0.02876129187643528,0.00852186419069767,0
1772574453391293400,9.59229345703125,0.03089175745844841,0.0159784946590662,-0.0063913981430232525
1772574453401232600,9.602232666015626,0.02982652559876442,0.01917419396340847,-0.009587096981704235
1772574453411167200,9.612167236328125,0.02982652559876442,0.01810896210372448,-0.00852186419069767
1772574453421106000,9.62210595703125,0.0319569893181324,0.012782796286046505,-0.0021304660476744175
1772574453431029000,9.632029052734374,0.03515268862247467,0.00852186419069767,0.004260932095348835
1772574453440966100,9.641966064453126,0.03728315606713295,0.01171756349503994,0.009587096981704235
1772574453450894600,9.65189453125,0.03834838792681694,0.02023942768573761,0.0063913981430232525
1772574453460830700,9.661830810546874,0.04047885537147522,0.02876129187643528,0.0010652330238372087
1772574453470759000,9.671759033203125,0.03728315606713295,0.02876129187643528,-0.007456631399691105
1772574453480694500,9.681694580078124,0.02876129187643528,0.01704372838139534,-0.01384802907705307
1772574453490624000,9.6916240234375,0.02663082629442215,0.02450035884976387,-0.01810896210372448
1772574453500558800,9.701558837890625,0.03621792420744896,0.02556559257209301,-0.01810896210372448
1772574453510487000,9.711487060546874,0.03515268862247467,0.02023942768573761,-0.01384802907705307
1772574453520421000,9.721421142578125,0.0319569893181324,0.02023942768573761,-0.009587096981704235
1772574453530350300,9.731350341796874,0.03515268862247467,0.02876129187643528,-0.004260932095348835
1772574453540284000,9.741283935546875,0.03621792420744896,0.04473978653550148,0
1772574453550220500,9.751220458984376,0.02556559257209301,0.10226237028837204,0.04047885537147522
1772574453560154600,9.761154541015625,0.0010652330238372087,0.11611039936542511,0.12037133425474167
1772574453570068500,9.771068359375,0.007456631399691105,0.0426093190908432,0.11930610239505768
1772574453580000500,9.78100048828125,0.03515268862247467,0.04154408723115921,0.09374050796031952
1772574453589932300,9.790932373046875,0.03834838792681694,0.02023942768573761,0.07989247888326645
1772574453599864300,9.8008642578125,0.03302222490310669,0.0031956990715116262,0.07350108027458191
1772574453609801200,9.81080126953125,0.03728315606713295,0.0053261648863554,0.05432688444852829
1772574453619733500,9.8207333984375,0.04580501839518547,0.0031956990715116262,0.03408745676279068
1772574453629656300,9.83065625,0.04793548583984375,-0.0010652330238372087,0.01917419396340847
1772574453639587600,9.840587646484375,0.04793548583984375,-0.0021304660476744175,0.0063913981430232525
1772574453649558500,9.85055859375,0.05006595328450203,0.0063913981430232525,0.0053261648863554
1772574453659494000,9.860493896484375,0.0532616525888443,0.02982652559876442,0.01917419396340847
1772574453669388800,9.870388916015624,0.04047885537147522,0.02343512699007988,0.03621792420744896
1772574453679320000,9.880320068359374,0.04154408723115921,-0.0031956990715116262,0.03515268862247467
