time,seconds_elapsed,z,y,x
1772574526871087600,0.223087646484375,0,0,0
1772574526880996000,0.23299609375,0.00475311279296875,0.007310152053833008,0.038084447383880615
1772574526890919400,0.24291943359375,-0.03192424774169922,0.007790207862854004,-0.006771862506866455
1772574526900868600,0.25286865234375,-0.06340503692626953,0.005632758140563965,-0.030057132244110107
1772574526910802400,0.262802490234375,-0.039221763610839844,0.01599586009979248,-0.03158366680145264
1772574526920749800,0.272749755859375,-0.04064178466796875,0.005326628684997559,0.057739078998565674
1772574526930689000,0.28268896484375,-0.030776023864746094,-0.007797360420227051,-0.012741804122924805
1772574526940587500,0.29258740234375,-0.07306194305419922,-0.0027725696563720703,-0.14608043432235718
1772574526950510600,0.302510498046875,-0.08632564544677734,-0.023541927337646484,-0.032841384410858154
1772574526960480000,0.31247998046875,-0.06501293182373047,-0.02052772045135498,-0.005627989768981934
1772574526970421500,0.32242138671875,-0.055049896240234375,0.012567281723022461,-0.08152246475219727
1772574526980376000,0.3323759765625,-0.06835460662841797,0.021469831466674805,-0.08996438980102539
1772574526990323000,0.342322998046875,0.011538505554199219,-0.017883658409118652,0.016093671321868896
1772574527000178400,0.352178466796875,0.13907623291015625,-0.019316554069519043,-0.06922388076782227
1772574527010088700,0.362088623046875,0.2456197738647461,0.00005745887756347656,-0.08244258165359497
1772574527020075800,0.37207568359375,0.20330524444580078,-0.01488947868347168,0.09024935960769653
1772574527030017000,0.38201708984375,0.11485481262207031,-0.047705769538879395,0.041993021965026855
1772574527039916300,0.391916259765625,-0.008777618408203125,-0.043024420738220215,0.007610619068145752
1772574527049840400,0.40184033203125,-0.12589550018310547,-0.024724960327148438,0.017062783241271973
1772574527059774500,0.4117744140625,-0.11485576629638672,0.007102847099304199,0.039140403270721436
1772574527069702700,0.42170263671875,-0.08196830749511719,-0.00718235969543457,0.06029248237609863
1772574527079658000,0.431657958984375,-0.07369327545166016,0.002611994743347168,0.03045421838760376
1772574527089597000,0.441596923828125,-0.02017688751220703,0.0033205747604370117,0.025183677673339844
1772574527099506200,0.451506103515625,-0.0010986328125,-0.013872146606445312,0.006690263748168945
1772574527109433300,0.461433349609375,0.04941368103027344,-0.007618069648742676,0.011822402477264404
1772574527119392300,0.471392333984375,0.0474853515625,0.007013082504272461,0.021200716495513916
1772574527129332000,0.48133203125,-0.018815994262695312,0.006696581840515137,0.006631195545196533
1772574527139270700,0.491270751953125,-0.0966501235961914,0.015726089477539062,-0.007521569728851318
1772574527149210000,0.501210205078125,-0.09801292419433594,0.011162638664245605,-0.011696696281433105
1772574527159103500,0.511103515625,-0.062476158142089844,0.012167692184448242,-0.033589720726013184
1772574527169038000,0.5210380859375,-0.0189056396484375,-0.009631514549255371,0.04296696186065674
1772574527178973700,0.5309736328125,0.09282779693603516,0.010542035102844238,0.013826608657836914
1772574527188908500,0.540908447265625,0.15494823455810547,0.00614619255065918,-0.09328174591064453
1772574527198844700,0.5508447265625,0.12729930877685547,-0.04637467861175537,-0.11415225267410278
1772574527208779800,0.56077978515625,0.1286630630493164,0.040225982666015625,0.008793830871582031
1772574527218726700,0.5707265625,0.08374500274658203,0.053350210189819336,-0.006435811519622803
1772574527228662800,0.580662841796875,0.03549671173095703,0.01911771297454834,-0.02614450454711914
1772574527238569000,0.59056884765625,0.0024576187133789062,0.00012218952178955078,0.0009195804595947266
1772574527248502300,0.600502197265625,-0.02983570098876953,-0.0034979581832885742,0.00427013635635376
1772574527258436900,0.610436767578125,-0.038125038146972656,0.0081709623336792,-0.005869746208190918
1772574527268370200,0.6203701171875,0.009674072265625,0.03905951976776123,0.007222771644592285
1772574527278374700,0.630374755859375,0.11705780029296875,0.018130779266357422,-0.04549771547317505
1772574527288315100,0.640315185546875,0.1566753387451172,-0.04960894584655762,0.05346393585205078
1772574527298154500,0.650154541015625,0.13955020904541016,-0.032665252685546875,0.11835581064224243
1772574527308084700,0.660084716796875,0.05765724182128906,-0.008137702941894531,-0.027246057987213135
1772574527318022000,0.67002197265625,-0.045701026916503906,0.0011262893676757812,0.018243491649627686
1772574527327953000,0.679952880859375,-0.0671701431274414,-0.01796889305114746,0.08192676305770874
1772574527337889300,0.68988916015625,-0.16314315795898438,-0.013317465782165527,0.1265953779220581
1772574527347820800,0.69982080078125,-0.2478628158569336,0.010639190673828125,0.11508834362030029
1772574527357780200,0.7097802734375,-0.24674510955810547,0.01689910888671875,0.019507646560668945
1772574527367714600,0.719714599609375,-0.11455917358398438,0.029152989387512207,-0.02315312623977661
1772574527377627100,0.729627197265625,-0.041436195373535156,-0.0006225109100341797,0.0094529390335083
1772574527387559400,0.739559326171875,0.06325912475585938,0.0075533390045166016,0.027975082397460938
1772574527397508400,0.74950830078125,0.1662445068359375,0.019475936889648438,-0.03742140531539917
1772574527407442200,0.759442138671875,0.11252975463867188,-0.008287787437438965,-0.04085355997085571
1772574527417372700,0.76937255859375,0.07887649536132812,-0.013987302780151367,-0.011896729469299316
1772574527427306200,0.77930615234375,0.06486129760742188,0.026139020919799805,0.04475879669189453
1772574527437241000,0.789240966796875,0.06535625457763672,0.060013771057128906,0.07209038734436035
1772574527447174700,0.799174560546875,0.06595993041992188,0.04604315757751465,0.057267606258392334
1772574527457084400,0.80908447265625,0.04787254333496094,0.05544853210449219,0.03400081396102905
1772574527467015700,0.819015625,0.0017490386962890625,0.0458528995513916,0.04290670156478882
1772574527476944000,0.82894384765625,-0.08604621887207031,0.032038331031799316,0.027865052223205566
1772574527486875000,0.838875,-0.14898395538330078,0.038315773010253906,0.06491553783416748
1772574527496826400,0.848826416015625,-0.14519214630126953,0.04593205451965332,0.11527669429779053
1772574527506759400,0.858759521484375,-0.207611083984375,0.012736201286315918,0.033392906188964844
1772574527516691200,0.868691162109375,-0.23163223266601562,0.0007488727569580078,-0.04739636182785034
1772574527526624300,0.878624267578125,-0.11437606811523438,0.03317904472351074,-0.024263739585876465
1772574527536545800,0.8885458984375,-0.02745819091796875,0.08027637004852295,0.022488772869110107
1772574527546477600,0.8984775390625,0.020172119140625,-0.005042552947998047,-0.0319976806640625
1772574527556430600,0.9084306640625,0.05295848846435547,-0.0662311315536499,-0.015607297420501709
1772574527566364700,0.91836474609375,-0.018034934997558594,-0.01916372776031494,0.0073021650314331055
1772574527576286700,0.92828662109375,-0.0877542495727539,0.0219038724899292,-0.01246875524520874
1772574527586219500,0.938219482421875,-0.17989540100097656,0.015317201614379883,0.0007857680320739746
1772574527596157400,0.948157470703125,-0.2847404479980469,-0.013177037239074707,0.01997584104537964
1772574527606090500,0.958090576171875,-0.22828197479248047,-0.015084981918334961,-0.037865281105041504
1772574527615997700,0.967997802734375,-0.1405344009399414,0.004481077194213867,-0.05581247806549072
1772574527625928400,0.977928466796875,-0.04991340637207031,0.0205841064453125,-0.04656994342803955
1772574527635872000,0.9878720703125,0.04844474792480469,0.027682900428771973,-0.03352212905883789
1772574527645803800,0.9978037109375,0.11227798461914062,0.06699955463409424,0.0166473388671875
1772574527655752200,1.007752197265625,0.09517669677734375,0.08104908466339111,0.04717344045639038
1772574527665685500,1.017685546875,0.16778850555419922,0.07545959949493408,0.0004203319549560547
1772574527675616300,1.0276162109375,0.24396228790283203,0.04505765438079834,-0.023746788501739502
1772574527685549600,1.037549560546875,0.29551219940185547,0.022782206535339355,-0.039198219776153564
1772574527695477800,1.047477783203125,0.24756908416748047,0.003486156463623047,-0.06010138988494873
1772574527705410600,1.05741064453125,0.05942535400390625,0.006535172462463379,-0.02399122714996338
1772574527715383000,1.067383056640625,-0.24314403533935547,0.056703805923461914,0.05104941129684448
1772574527725320000,1.07731982421875,-0.3007669448852539,0.11796128749847412,-0.005177736282348633
1772574527735197200,1.087197265625,-0.051939964294433594,0.15748131275177002,-0.024262070655822754
1772574527745128000,1.0971279296875,0.15963172912597656,0.10264050960540771,0.031387507915496826
1772574527755074000,1.107073974609375,0.21257686614990234,0.019142627716064453,0.016323745250701904
1772574527765006300,1.11700634765625,0.14728260040283203,0.010261058807373047,-0.0123252272605896
1772574527774942200,1.126942138671875,-0.029593467712402344,0.009243011474609375,0.007387399673461914
1772574527784874800,1.136874755859375,-0.15164947509765625,0.027193546295166016,0.018488287925720215
1772574527794804200,1.14680419921875,-0.1776437759399414,0.018127918243408203,0.011734962463378906
1772574527804736500,1.156736572265625,-0.11865806579589844,0.02023172378540039,-0.03678286075592041
1772574527814670300,1.16667041015625,-0.08429241180419922,0.022909164428710938,0.01911264657974243
1772574527824603000,1.176602783203125,-0.08350372314453125,0.02135753631591797,0.0038949251174926758
1772574527844461600,1.196461669921875,0.05717277526855469,-0.04139828681945801,-0.046936869621276855
1772574527854411300,1.206411376953125,0.12135887145996094,-0.022652268409729004,-0.029429733753204346
1772574527864345000,1.216344970703125,0.12343788146972656,-0.0005327463150024414,-0.012042403221130371
1772574527874268400,1.226268310546875,0.06447601318359375,0.020323634147644043,0.034124016761779785
1772574527884201000,1.236200927734375,-0.002819061279296875,0.0261918306350708,0.02328622341156006
1772574527894127400,1.24612744140625,-0.08310794830322266,0.06040501594543457,0.00840604305267334
1772574527904059400,1.256059326171875,-0.044445037841796875,0.05690491199493408,0.012353837490081787
1772574527913973200,1.26597314453125,0.08765029907226562,0.03474891185760498,-0.0035507678985595703
1772574527923903500,1.275903564453125,0.18468856811523438,-0.011653661727905273,-0.0011138319969177246
1772574527933836300,1.285836181640625,0.1957254409790039,-0.01690053939819336,-0.012027978897094727
1772574527943766800,1.295766845703125,0.16447067260742188,0.004279732704162598,0.000466763973236084
1772574527953722400,1.305722412109375,0.053978919982910156,0.018674612045288086,-0.0010914206504821777
1772574527963655400,1.315655517578125,-0.04515838623046875,0.013680100440979004,0.012060940265655518
1772574527973594400,1.325594482421875,-0.16155242919921875,0.009352326393127441,0.043997764587402344
1772574527983528000,1.33552783203125,-0.15368080139160156,0.02966153621673584,0.04788404703140259
1772574527993468400,1.345468505859375,-0.09904098510742188,0.0037480592727661133,0.04228842258453369
1772574528003402800,1.35540283203125,-0.07831668853759766,-0.025923848152160645,-0.00986790657043457
1772574528013320000,1.36531982421875,-0.06742477416992188,-0.035564422607421875,-0.01827836036682129
1772574528023252500,1.37525244140625,-0.03324127197265625,-0.03515148162841797,-0.05003702640533447
1772574528033170200,1.385170166015625,-0.004383087158203125,-0.029860496520996094,-0.025011420249938965
1772574528043101200,1.39510107421875,0.00045108795166015625,-0.005923628807067871,0.004106402397155762
1772574528053028400,1.4050283203125,-0.0513458251953125,-0.033988118171691895,-0.019271433353424072
1772574528062959000,1.414958984375,-0.12590789794921875,-0.023447871208190918,-0.042421936988830566
1772574528072910800,1.424910888671875,-0.13348102569580078,-0.007587552070617676,-0.04227626323699951
1772574528082843600,1.43484375,-0.07046318054199219,-0.03377938270568848,-0.019504845142364502
1772574528092781300,1.44478125,-0.018013954162597656,-0.05423247814178467,-0.016063272953033447
1772574528102714600,1.454714599609375,0.028855323791503906,-0.03178417682647705,0.025360047817230225
1772574528112627700,1.464627685546875,-0.0049800872802734375,0.009051322937011719,0.025078415870666504
1772574528122559000,1.47455908203125,0.041777610778808594,0.025600194931030273,-0.003788173198699951
1772574528132505600,1.484505615234375,0.10659503936767578,-0.0010932683944702148,-0.04738664627075195
1772574528142438400,1.4944384765625,0.08574867248535156,-0.009218454360961914,0.018826186656951904
1772574528152418000,1.50441796875,-0.009884834289550781,0.010252833366394043,0.042577147483825684
1772574528162355700,1.514355712890625,-0.061476707458496094,0.014995336532592773,0.01448214054107666
1772574528172213800,1.5242138671875,-0.10288429260253906,0.02477109432220459,-0.0041165947914123535
1772574528182143200,1.534143310546875,-0.09189414978027344,0.04890632629394531,0.010242581367492676
1772574528192089600,1.544089599609375,-0.062361717224121094,0.011930108070373535,-0.018415451049804688
1772574528202020900,1.554020751953125,-0.02869701385498047,-0.014546871185302734,-0.013796746730804443
1772574528211969500,1.563969482421875,-0.019141197204589844,-0.026184558868408203,-0.004107177257537842
1772574528221902600,1.573902587890625,0.023230552673339844,-0.018897533416748047,-0.027539074420928955
1772574528231803100,1.58380322265625,0.03665447235107422,-0.025988221168518066,-0.017765581607818604
1772574528241732900,1.59373291015625,-0.0019083023071289062,-0.02827012538909912,-0.003091871738433838
1772574528251676200,1.60367626953125,-0.011566162109375,-0.04444468021392822,-0.03055363893508911
1772574528261607200,1.613607177734375,0.04476356506347656,-0.04593455791473389,-0.034630656242370605
1772574528271559700,1.6235595703125,0.067169189453125,-0.07117772102355957,-0.0064566731452941895
1772574528281493000,1.633492919921875,0.04694175720214844,-0.05873572826385498,0.026659071445465088
1772574528291432400,1.643432373046875,0.012993812561035156,-0.01394045352935791,0.012237846851348877
1772574528301366300,1.6533662109375,-0.0062713623046875,0.006472587585449219,0.01660633087158203
1772574528311290000,1.6632900390625,-0.00640869140625,-0.006139993667602539,0.04460030794143677
1772574528321223000,1.673222900390625,-0.03482532501220703,-0.004198551177978516,0.03448963165283203
1772574528331144200,1.683144287109375,-0.006343841552734375,-0.02571845054626465,-0.013891100883483887
1772574528341076000,1.693075927734375,0.05458259582519531,0.00950157642364502,0.08846336603164673
1772574528351005400,1.70300537109375,0.043987274169921875,0.0012971162796020508,0.10032474994659424
1772574528360937000,1.71293701171875,-0.036983489990234375,0.016512274742126465,0.07479506731033325
1772574528370884400,1.72288427734375,-0.02725505828857422,0.008542418479919434,0.03057020902633667
1772574528380817400,1.7328173828125,0.015181541442871094,0.0011277198791503906,0.05735653638839722
1772574528390727000,1.742726806640625,0.0663604736328125,-0.010968923568725586,0.10745656490325928
1772574528400657700,1.75265771484375,0.08385467529296875,-0.014011383056640625,0.11961162090301514
1772574528410592500,1.762592529296875,0.03993415832519531,-0.0034384727478027344,0.06571811437606812
1772574528420523800,1.772523681640625,-0.012659072875976562,0.01585853099822998,0.06839478015899658
1772574528430476500,1.7824765625,-0.05494403839111328,0.006482839584350586,0.08044201135635376
1772574528440409900,1.792409912109375,-0.04005622863769531,-0.002328634262084961,0.06906282901763916
1772574528450368800,1.80236865234375,-0.03010272979736328,-0.015700101852416992,0.06759023666381836
1772574528460304600,1.8123046875,-0.0861663818359375,-0.04778492450714111,0.08097022771835327
1772574528470215000,1.82221484375,-0.1224966049194336,-0.0366441011428833,0.06600409746170044
1772574528480148200,1.832148193359375,-0.07834053039550781,-0.057807326316833496,0.03663581609725952
1772574528490061600,1.8420615234375,-0.030320167541503906,-0.05896449089050293,0.04086118936538696
1772574528499992800,1.851992919921875,-0.011371612548828125,-0.06439054012298584,-0.0015399456024169922
1772574528509910300,1.86191015625,0.026096343994140625,-0.06040513515472412,-0.029295384883880615
1772574528519840300,1.87184033203125,0.020600318908691406,-0.0425642728805542,-0.00470811128616333
1772574528529782800,1.88178271484375,-0.0036287307739257812,-0.005982160568237305,-0.008280694484710693
1772574528539714000,1.891714111328125,-0.022795677185058594,-0.012082099914550781,-0.026006698608398438
1772574528549666300,1.901666259765625,-0.013531684875488281,-0.007945895195007324,-0.048631489276885986
1772574528559599600,1.911599609375,0.0048580169677734375,-0.026619672775268555,-0.028789401054382324
1772574528569510400,1.921510498046875,0.018163681030273438,0.011902689933776855,-0.03303670883178711
1772574528579441400,1.93144140625,0.08301353454589844,0.01221776008605957,-0.06097167730331421
1772574528589400800,1.94140087890625,0.08090400695800781,0.007433176040649414,-0.06510049104690552
1772574528599335000,1.9513349609375,0.06948471069335938,0.030736923217773438,-0.049881696701049805
1772574528609265000,1.961264892578125,0.15715980529785156,0.04821789264678955,-0.021836042404174805
1772574528619198500,1.971198486328125,0.13992023468017578,0.05498230457305908,0.005626797676086426
1772574528629130000,1.9811298828125,0.08548831939697266,0.04650533199310303,-0.027978241443634033
1772574528639063300,1.991063232421875,0.032034873962402344,-0.009425044059753418,-0.042203307151794434
1772574528648980000,2.00097998046875,0.0030374526977539062,0.0013870000839233398,-0.01843571662902832
1772574528658911700,2.010911865234375,-0.016036033630371094,-0.025647997856140137,-0.00888979434967041
1772574528668842200,2.02084228515625,-0.025310516357421875,-0.009770631790161133,-0.02207118272781372
1772574528678773500,2.0307734375,-0.06742095947265625,-0.03174173831939697,-0.0258445143699646
1772574528688732400,2.040732421875,-0.014798164367675781,0.02197885513305664,-0.03610074520111084
1772574528698666800,2.050666748046875,-0.005455970764160156,-0.005538582801818848,-0.004694581031799316
1772574528708579300,2.060579345703125,-0.024600982666015625,-0.06526720523834229,-0.007281959056854248
1772574528718511400,2.070511474609375,-0.02464008331298828,-0.053492188453674316,-0.03892773389816284
1772574528728430000,2.08043017578125,-0.07172966003417969,-0.03242838382720947,-0.07891327142715454
1772574528738360800,2.09036083984375,0.0513458251953125,0.02610921859741211,0.0027999281883239746
1772574528748303000,2.10030322265625,0.054721832275390625,-0.010776400566101074,0.022277355194091797
1772574528758235000,2.11023486328125,0.015775680541992188,-0.033416032791137695,0.02311527729034424
1772574528768186400,2.120186279296875,-0.008328437805175781,-0.03222644329071045,0.043484389781951904
1772574528778118100,2.1301181640625,-0.013188362121582031,-0.02560889720916748,0.0697028636932373
1772574528788050000,2.1400498046875,-0.013317108154296875,-0.02778613567352295,0.06779038906097412
1772574528797982000,2.14998193359375,0.019512176513671875,-0.010869383811950684,0.03329247236251831
1772574528817869600,2.16986962890625,0.05079841613769531,-0.0014481544494628906,0.050412893295288086
1772574528837733400,2.1897333984375,0.06726646423339844,0.009966492652893066,0.039034247398376465
1772574528847672000,2.199672119140625,0.04730224609375,0.00534975528717041,0.03403902053833008
1772574528857604600,2.2096044921875,-0.0052776336669921875,0.019343018531799316,0.00989079475402832
1772574528867541000,2.219541015625,0.04656982421875,0.004750967025756836,0.008984804153442383
1772574528877473500,2.2294736328125,0.10696029663085938,0.02315390110015869,-0.006547510623931885
1772574528897331000,2.2493310546875,0.04713630676269531,-0.01340484619140625,0.00974971055984497
1772574528907247600,2.25924755859375,-0.014618873596191406,-0.0014064311981201172,-0.029222428798675537
1772574528927112400,2.279112548828125,-0.009066581726074219,-0.005609273910522461,-0.026825904846191406
1772574528937052200,2.28905224609375,0.0006742477416992188,-0.002869248390197754,-0.02793794870376587
1772574528946985500,2.2989853515625,0.03382396697998047,-0.009899377822875977,-0.024536550045013428
1772574528956919800,2.308919921875,-0.013554573059082031,-0.017315149307250977,0.002350926399230957
1772574528966853400,2.318853271484375,-0.05537605285644531,-0.020092010498046875,-0.013170778751373291
1772574528976813600,2.3288134765625,-0.12481975555419922,0.0015255212783813477,0.0051413774490356445
1772574528986749700,2.338749755859375,-0.150848388671875,0.028423309326171875,0.01858454942703247
1772574528996644400,2.348644287109375,-0.13424205780029297,0.008899927139282227,0.01268625259399414
1772574529006576400,2.358576416015625,-0.0944967269897461,0.00013649463653564453,-0.0023052096366882324
1772574529016539100,2.3685390625,-0.069580078125,0.01084434986114502,-0.016674399375915527
1772574529026474200,2.37847412109375,-0.04036903381347656,0.02164936065673828,-0.0019919872283935547
1772574529036375600,2.38837548828125,-0.04465293884277344,0.013720035552978516,-0.015934884548187256
1772574529046307300,2.398307373046875,-0.0065746307373046875,0.020348072052001953,0.016824960708618164
1772574529056276200,2.408276123046875,0.030882835388183594,0.022157788276672363,-0.007278800010681152
1772574529066211600,2.418211669921875,0.0771484375,0.028423547744750977,0.011168599128723145
1772574529076128000,2.4281279296875,0.10861492156982422,0.02425527572631836,0.02889472246170044
1772574529086061600,2.4380615234375,0.09266948699951172,0.03348124027252197,0.03811103105545044
1772574529095997200,2.4479970703125,0.03475475311279297,0.04216635227203369,0.02015542984008789
1772574529105931000,2.457930908203125,0.010766029357910156,0.03648054599761963,0.007006645202636719
1772574529115863600,2.467863525390625,0.029524803161621094,0.021371841430664062,-0.006525516510009766
1772574529125797000,2.477797119140625,0.0479278564453125,0.011323928833007812,-0.0013993382453918457
1772574529135729400,2.4877294921875,0.028425216674804688,0.019761323928833008,-0.0010952949523925781
1772574529145663000,2.4976630859375,0.023500442504882812,0.022624611854553223,0.0042719244956970215
1772574529155588000,2.507588134765625,0.004611015319824219,0.04386711120605469,0.023961901664733887
1772574529165520600,2.517520751953125,-0.05627632141113281,0.050234079360961914,0.024604380130767822
1772574529175446800,2.52744677734375,-0.0738058090209961,0.03777718544006348,0.010836660861968994
1772574529185378800,2.53737890625,-0.058155059814453125,0.016310572624206543,0.0014050602912902832
1772574529195311400,2.547311279296875,-0.04758167266845703,0.009714603424072266,-0.003891587257385254
1772574529205243400,2.557243408203125,-0.04666614532470703,0.0036302804946899414,0.004925429821014404
1772574529215176700,2.5671767578125,-0.036347389221191406,0.0024489164352416992,-0.0003437995910644531
1772574529225108700,2.577108642578125,-0.012160301208496094,0.016015291213989258,-0.010233819484710693
1772574529235039700,2.587039794921875,0.039825439453125,-0.01732170581817627,0.008407115936279297
1772574529244971500,2.596971435546875,0.05334186553955078,-0.02205955982208252,0.008390486240386963
1772574529254907600,2.60690771484375,0.014903068542480469,0.010756731033325195,0.008890390396118164
1772574529264840000,2.61683984375,0.0006475448608398438,0.0006488561630249023,0.009381711483001709
1772574529274771700,2.626771728515625,-0.008646965026855469,0.028370976448059082,0.010051250457763672
1772574529284704000,2.6367041015625,0.024526596069335938,0.02305769920349121,-0.003545045852661133
1772574529294635500,2.646635498046875,0.04779529571533203,0.022247791290283203,0.011652112007141113
1772574529304567800,2.65656787109375,0.03313636779785156,0.03979837894439697,0.003884434700012207
1772574529314500000,2.6665,-0.004726409912109375,0.009368300437927246,-0.04603075981140137
1772574529324432400,2.676432373046875,-0.07966327667236328,0.012398123741149902,-0.029709935188293457
1772574529334379300,2.686379150390625,-0.07341194152832031,0.03481268882751465,-0.023377954959869385
1772574529344313000,2.69631298828125,-0.05323219299316406,0.03870820999145508,-0.021790146827697754
1772574529354253800,2.70625390625,-0.042847633361816406,0.028929591178894043,-0.029214978218078613
1772574529364188200,2.716188232421875,0.00969696044921875,0.033547163009643555,-0.03219568729400635
1772574529374125300,2.726125244140625,0.061415672302246094,0.023445606231689453,-0.026038944721221924
1772574529384060000,2.736059814453125,0.07938289642333984,0.02705097198486328,-0.015448391437530518
1772574529393986000,2.745986083984375,0.08298969268798828,0.04422867298126221,-0.014538049697875977
1772574529403920000,2.755919921875,0.08663749694824219,0.04629814624786377,-0.01833653450012207
1772574529413822200,2.765822265625,0.08088016510009766,0.01016247272491455,-0.007962405681610107
1772574529423753000,2.7757529296875,0.04233264923095703,0.030701160430908203,-0.025853395462036133
1772574529433721900,2.785721923828125,0.004452705383300781,0.04136860370635986,-0.038633882999420166
1772574529443656400,2.795656494140625,0.009551048278808594,0.03321981430053711,-0.018273651599884033
1772574529453579800,2.805579833984375,0.01925945281982422,0.020594000816345215,-0.007685720920562744
1772574529463513000,2.81551318359375,-0.0182037353515625,0.03619647026062012,0.00797879695892334
1772574529473445400,2.8254453125,-0.026724815368652344,0.04162037372589111,0.009155333042144775
1772574529483378700,2.835378662109375,-0.03042316436767578,0.028134584426879883,0.02877408266067505
1772574529493305000,2.84530517578125,-0.0528717041015625,0.028678536415100098,0.01005101203918457
1772574529503237600,2.855237548828125,-0.10317420959472656,0.01957845687866211,0.0009270310401916504
1772574529513177600,2.865177490234375,-0.13854026794433594,0.03908038139343262,0.02962338924407959
1772574529523111000,2.87511083984375,-0.14512252807617188,0.025917410850524902,0.025310993194580078
1772574529533046500,2.885046630859375,-0.11870670318603516,0.023093104362487793,0.02147090435028076
1772574529542980000,2.89497998046875,-0.11168575286865234,0.030535459518432617,-0.005849123001098633
1772574529552897800,2.904897705078125,-0.04837512969970703,0.005488872528076172,0.009545981884002686
1772574529562829600,2.91482958984375,0.004395484924316406,0.014026403427124023,0.005365610122680664
1772574529572764200,2.92476416015625,0.042160987854003906,0.003571748733520508,-0.01760929822921753
1772574529582696400,2.934696533203125,0.06050872802734375,-0.00691676139831543,-0.01647317409515381
1772574529592636200,2.94463623046875,0.07855701446533203,-0.003313899040222168,-0.0015453696250915527
1772574529602569200,2.9545693359375,0.058635711669921875,-0.004579305648803711,0.008224129676818848
1772574529612480500,2.96448046875,0.05314826965332031,-0.015245556831359863,0.02693229913711548
1772574529622411300,2.974411376953125,0.09014606475830078,-0.03523874282836914,0.00768965482711792
1772574529632365600,2.984365478515625,0.08885860443115234,-0.04086148738861084,0.007431328296661377
1772574529642299000,2.994298828125,0.0924062728881836,-0.023445844650268555,0.02150362730026245
1772574529652235800,3.00423583984375,0.06777381896972656,-0.025772929191589355,0.035812556743621826
1772574529662132000,3.014132080078125,0.03424549102783203,-0.0003134012222290039,0.0644756555557251
1772574529672064000,3.02406396484375,0.006033897399902344,-0.0037342309951782227,0.05050218105316162
1772574529691907300,3.0439072265625,-0.09099864959716797,0.022755742073059082,0.017759978771209717
1772574529701841700,3.053841552734375,-0.10792350769042969,0.02445352077484131,0.05503946542739868
1772574529711768300,3.063768310546875,-0.0916604995727539,0.03575873374938965,0.06788420677185059
1772574529731635200,3.08363525390625,-0.08358097076416016,-0.0014908313751220703,0.04305011034011841
1772574529741622000,3.0936220703125,-0.08192253112792969,0.006725430488586426,0.029234111309051514
1772574529751560400,3.103560546875,-0.03797626495361328,0.010302543640136719,0.03407663106918335
1772574529761482000,3.11348193359375,0.014546394348144531,0.00940561294555664,0.052147626876831055
1772574529771419000,3.1234189453125,0.061493873596191406,0.008314847946166992,0.027223825454711914
1772574529781350700,3.1333505859375,0.06538867950439453,0.030085086822509766,0.012132585048675537
1772574529791247000,3.1432470703125,0.07872772216796875,0.017832279205322266,0.011205077171325684
1772574529801183500,3.15318359375,0.04951667785644531,0.014698147773742676,0.009904205799102783
1772574529811122700,3.163122802734375,0.025564193725585938,0.015838265419006348,0.02728879451751709
1772574529821059300,3.173059326171875,0.02082347869873047,0.007620811462402344,0.044236719608306885
1772574529831013400,3.183013427734375,0.011401176452636719,0.0185854434967041,0.060629069805145264
1772574529840951800,3.192951904296875,0.03981304168701172,-0.013089895248413086,0.043721020221710205
1772574529850878200,3.202878173828125,0.0253753662109375,-0.02066779136657715,0.022434473037719727
1772574529860757500,3.212757568359375,0.04886150360107422,-0.01868724822998047,0.00170975923538208
1772574529870694700,3.222694580078125,-0.008142471313476562,-0.03041243553161621,-0.009023725986480713
1772574529900508400,3.25250830078125,-0.024179458618164062,-0.06830239295959473,0.013139486312866211
1772574529920382700,3.2723828125,-0.055878639221191406,-0.03585851192474365,0.0629090666770935
1772574529930334500,3.28233447265625,-0.07369804382324219,-0.02707850933074951,0.07917660474777222
1772574529940273200,3.292273193359375,-0.08185386657714844,-0.017805814743041992,0.05347722768783569
1772574529950198500,3.302198486328125,-0.11356163024902344,-0.026314139366149902,0.07120054960250854
1772574529960135700,3.3121357421875,-0.10246658325195312,-0.04335331916809082,0.04644513130187988
1772574529970068700,3.32206884765625,-0.025748252868652344,-0.05026352405548096,0.016756057739257812
1772574529980005600,3.332005615234375,0.044922828674316406,-0.033307552337646484,0.010719537734985352
1772574529989958700,3.341958740234375,0.07205581665039062,-0.016817092895507812,0.014029443264007568
1772574529999897000,3.35189697265625,0.09409332275390625,-0.0340648889541626,0.021793842315673828
1772574530009814500,3.361814453125,0.1346454620361328,-0.03719484806060791,0.01061248779296875
1772574530019751000,3.3717509765625,0.13225364685058594,-0.017421722412109375,0.004338264465332031
1772574530029660400,3.381660400390625,0.1253061294555664,-0.022014498710632324,-0.00131303071975708
1772574530039594200,3.39159423828125,0.13269710540771484,-0.0032815933227539062,0.017387211322784424
1772574530049526800,3.40152685546875,0.12595844268798828,-0.013606429100036621,0.022266626358032227
1772574530059460400,3.41146044921875,0.12416267395019531,-0.014936327934265137,0.027481436729431152
1772574530069385700,3.4213857421875,0.1036834716796875,0.0068062543869018555,0.00968247652053833
1772574530079318500,3.431318603515625,0.06481170654296875,0.008856654167175293,0.006624042987823486
1772574530089283800,3.441283935546875,0.031348228454589844,0.01988673210144043,-0.029522359371185303
1772574530099220000,3.451219970703125,0.012555122375488281,0.0070917606353759766,-0.03252685070037842
1772574530109109800,3.46110986328125,-0.0012407302856445312,0.004034519195556641,-0.030893146991729736
1772574530119041000,3.471041015625,-0.010099411010742188,0.0008158683776855469,-0.029782474040985107
1772574530128989200,3.4809892578125,-0.028183937072753906,-0.002755284309387207,-0.06665849685668945
1772574530138922200,3.490922119140625,-0.06476879119873047,0.002948760986328125,-0.06526672840118408
1772574530148860000,3.50085986328125,-0.058380126953125,0.01805269718170166,-0.068653404712677
1772574530168715300,3.52071533203125,-0.06919193267822266,-0.007858753204345703,-0.05671018362045288
1772574530178647600,3.5306474609375,-0.08641242980957031,0.008294820785522461,-0.07444345951080322
1772574530188553000,3.540552978515625,-0.07512855529785156,0.005630970001220703,-0.058769285678863525
1772574530198482700,3.550482666015625,-0.0923004150390625,-0.0062111616134643555,-0.08082407712936401
1772574530208455200,3.560455078125,-0.10928058624267578,0.006280422210693359,-0.07425737380981445
1772574530218389200,3.57038916015625,-0.06954669952392578,0.004838228225708008,-0.07262682914733887
1772574530228307500,3.580307373046875,-0.03525543212890625,-0.010303616523742676,-0.07112383842468262
1772574530238239700,3.59023974609375,-0.006237030029296875,-0.001665949821472168,-0.07899481058120728
1772574530248175000,3.600175048828125,0.012881278991699219,-0.0214388370513916,-0.06793230772018433
1772574530268039000,3.620038818359375,0.054645538330078125,-0.046366333961486816,-0.056600093841552734
1772574530277971200,3.62997119140625,0.021020889282226562,-0.028362393379211426,-0.060517311096191406
1772574530287903700,3.63990380859375,0.03037261962890625,-0.015496969223022461,-0.05942511558532715
1772574530297836300,3.649836181640625,-0.0028181076049804688,-0.021517395973205566,-0.03929734230041504
1772574530307772200,3.659772216796875,-0.0213775634765625,0.005822300910949707,-0.038339436054229736
1772574530317705200,3.669705322265625,0.0026569366455078125,-0.00937795639038086,-0.04743129014968872
1772574530327636500,3.679636474609375,-0.0019989013671875,-0.03367912769317627,-0.023792505264282227
1772574530337569300,3.6895693359375,0.0028753280639648438,-0.0062808990478515625,0.008269071578979492
1772574530347481000,3.699481201171875,0.017095565795898438,0.020516157150268555,0.04432106018066406
1772574530357411600,3.70941162109375,-0.025356292724609375,0.013918399810791016,0.01949000358581543
1772574530367391200,3.71939111328125,-0.04355335235595703,-0.015818357467651367,-0.004226505756378174
1772574530377326800,3.729326904296875,-0.07092571258544922,-0.03502154350280762,-0.008181452751159668
1772574530387208000,3.7392080078125,-0.06026172637939453,-0.0298459529876709,-0.007432878017425537
1772574530397138000,3.749137939453125,-0.04510974884033203,-0.019663691520690918,-0.006426334381103516
1772574530407076900,3.759076904296875,-0.053795814514160156,-0.013966798782348633,0.004265248775482178
1772574530417007900,3.7690078125,-0.0671072006225586,-0.02229893207550049,-0.02330702543258667
1772574530426937300,3.778937255859375,-0.061432838439941406,-0.016074299812316895,-0.02248436212539673
1772574530436868000,3.7888681640625,-0.037032127380371094,-0.028403043746948242,-0.03513377904891968
1772574530446801000,3.79880078125,0.08105850219726562,-0.03571772575378418,0.022257208824157715
1772574530456732000,3.80873193359375,0.1171731948852539,-0.01524364948272705,-0.02566438913345337
1772574530466664000,3.818663818359375,0.03989219665527344,-0.005434870719909668,-0.03894352912902832
1772574530476595000,3.828594970703125,0.029851913452148438,0.003895401954650879,-0.023981988430023193
1772574530486561800,3.838561767578125,0.04340553283691406,0.004046082496643066,-0.005279183387756348
1772574530496496600,3.84849658203125,0.05198478698730469,0.018512248992919922,-0.010545432567596436
1772574530506405600,3.858405517578125,0.08402824401855469,0.03243672847747803,-0.010814130306243896
1772574530516337700,3.868337646484375,0.07791709899902344,0.008153200149536133,-0.006387054920196533
1772574530526263600,3.878263671875,0.05314064025878906,0.002516627311706543,0.0022911429405212402
1772574530536195000,3.888195068359375,0.01944255828857422,-0.008427858352661133,0.02456575632095337
1772574530546139600,3.8981396484375,-0.008943557739257812,-0.005359053611755371,0.027548909187316895
1772574530556072700,3.90807275390625,-0.02271556854248047,0.025897741317749023,0.035360097885131836
1772574530566015700,3.918015625,-0.031520843505859375,-0.0044574737548828125,0.06723225116729736
1772574530575949600,3.927949462890625,-0.054276466369628906,-0.04362189769744873,0.03325355052947998
1772574530585854700,3.937854736328125,-0.0860910415649414,-0.02521193027496338,0.009888887405395508
1772574530595785700,3.94778564453125,-0.11744880676269531,-0.016036272048950195,0.010541975498199463
1772574530605742000,3.9577421875,-0.15317058563232422,0.0034972429275512695,-0.012373149394989014
1772574530615653000,3.967653076171875,-0.17917919158935547,-0.013661861419677734,0.010994970798492432
1772574530635520300,3.987520263671875,-0.024979591369628906,-0.05438816547393799,-0.015511810779571533
1772574530645473500,3.9974736328125,0.012463569641113281,-0.06414949893951416,-0.02111220359802246
1772574530655408600,4.00740869140625,0.011563301086425781,-0.02607572078704834,-0.08253628015518188
1772574530665349600,4.017349609375,-0.008242607116699219,0.0024271011352539062,-0.058329999446868896
1772574530675285500,4.027285400390625,0.047595977783203125,-0.03167366981506348,-0.022732257843017578
1772574530685173800,4.037173828125,0.05563068389892578,-0.019444704055786133,0.016963660717010498
1772574530695104800,4.047104736328125,0.03540802001953125,0.0064389705657958984,0.005337655544281006
1772574530705070800,4.05707080078125,0.029745101928710938,0.017486572265625,0.037010252475738525
1772574530715005400,4.06700537109375,0.04310321807861328,-0.00008487701416015625,0.045463740825653076
1772574530724929800,4.0769296875,0.0375213623046875,0.014995813369750977,0.02111637592315674
1772574530734863400,4.08686328125,0.008559226989746094,0.038950562477111816,0.01161658763885498
1772574530744772600,4.096772705078125,-0.005808830261230469,0.020126938819885254,0.025617778301239014
1772574530754703600,4.10670361328125,0.003536224365234375,-0.016923069953918457,0.029652774333953857
1772574530764668400,4.11666845703125,0.0033130645751953125,0.00324404239654541,0.015070617198944092
1772574530774603000,4.12660302734375,-0.011016845703125,-0.0004929304122924805,-0.017950356006622314
1772574530784531700,4.13653173828125,-0.020414352416992188,-0.004053711891174316,-0.008011996746063232
1772574530794465500,4.146465576171875,-0.03444194793701172,-0.016564488410949707,0.015702486038208008
1772574530804371200,4.15637109375,-0.02003765106201172,-0.014438867568969727,0.010686218738555908
1772574530814302500,4.166302490234375,0.008234977722167969,-0.002733945846557617,0.015355110168457031
1772574530824256300,4.17625634765625,0.03131294250488281,-0.019470930099487305,0.0009118914604187012
1772574530834189600,4.186189453125,0.04933643341064453,-0.040734291076660156,-0.008265912532806396
1772574530844122400,4.196122314453125,0.048295021057128906,-0.024274706840515137,0.0018440485000610352
1772574530854055700,4.2060556640625,0.052010536193847656,-0.012912273406982422,0.01195460557937622
1772574530863993000,4.2159931640625,0.03689002990722656,-0.006740212440490723,0.04094743728637695
1772574530873927000,4.225927001953125,-0.0062084197998046875,-0.005265355110168457,0.0558629035949707
1772574530883853300,4.235853271484375,-0.029793739318847656,0.020126819610595703,0.01903432607650757
1772574530893786400,4.245786376953125,-0.034249305725097656,0.017245769500732422,0.029406309127807617
1772574530903715300,4.25571533203125,0.00368499755859375,0.0005861520767211914,0.020570576190948486
1772574530913648000,4.265648193359375,0.022146224975585938,0.012463927268981934,0.02592390775680542
1772574530923579100,4.2755791015625,0.03559303283691406,0.024028778076171875,0.03566551208496094
1772574530933511700,4.28551171875,0.011201858520507812,0.03039240837097168,0.02651083469390869
1772574530943449300,4.295449462890625,0.03904151916503906,0.01292264461517334,0.03637474775314331
1772574530953382100,4.305382080078125,0.0711812973022461,0.009490609169006348,0.022477388381958008
1772574530963290000,4.3152900390625,0.10286521911621094,0.005434989929199219,-0.0009607076644897461
1772574530973220600,4.325220703125,0.08232879638671875,0.02410566806793213,0.008483529090881348
1772574530983180000,4.335179931640625,0.019835472106933594,0.03714632987976074,0.0081368088722229
1772574530993113300,4.34511328125,-0.027421951293945312,0.026027798652648926,0.02202242612838745
1772574531003016400,4.355016357421875,-0.0927276611328125,0.024707436561584473,0.0501866340637207
1772574531012946700,4.36494677734375,-0.1193399429321289,0.005280613899230957,0.05024677515029907
1772574531022904000,4.374904052734375,-0.09856128692626953,-0.008303999900817871,0.026580095291137695
1772574531032837000,4.384837158203125,-0.08297538757324219,-0.0021288394927978516,0.026448488235473633
1772574531042792200,4.394792236328125,-0.03948211669921875,-0.0003465414047241211,0.01192408800125122
1772574531052670700,4.404670654296875,0.017383575439453125,-0.031375765800476074,0.016460299491882324
1772574531062607600,4.414607666015625,0.02627277374267578,-0.03371763229370117,0.016828596591949463
1772574531072555300,4.42455517578125,0.006852149963378906,-0.04552102088928223,-0.01473546028137207
1772574531082490400,4.434490478515625,0.0113372802734375,-0.03368687629699707,-0.0030979514122009277
1772574531102339800,4.45433984375,0.06675434112548828,-0.029399991035461426,-0.028333425521850586
1772574531122210300,4.474210205078125,0.1291217803955078,0.00258636474609375,-0.003183305263519287
1772574531132165400,4.484165283203125,0.13165855407714844,0.007550358772277832,-0.0027794241905212402
1772574531142102300,4.494102294921875,0.08251762390136719,0.00220489501953125,-0.02073127031326294
1772574531152024600,4.504024658203125,0.03895854949951172,0.0060585737228393555,-0.019465923309326172
1772574531161960000,4.5139599609375,-0.00859832763671875,0.0005223751068115234,-0.06061309576034546
1772574531171848400,4.523848388671875,0.005787849426269531,0.03301262855529785,-0.021308600902557373
1772574531181783800,4.53378369140625,0.09054183959960938,0.05083346366882324,0.017043113708496094
1772574531191710700,4.543710693359375,0.09392929077148438,0.0158843994140625,0.012223601341247559
1772574531201645600,4.5536455078125,0.059729576110839844,-0.009868144989013672,-0.011149406433105469
1772574531211636000,4.563635986328125,0.01213836669921875,-0.012488484382629395,-0.04309046268463135
1772574531221576200,4.573576171875,-0.09583663940429688,-0.0336223840713501,0.030111610889434814
1772574531231490300,4.583490234375,-0.05619239807128906,-0.0016100406646728516,0.06921261548995972
1772574531241428200,4.59342822265625,-0.09259891510009766,-0.012181282043457031,-0.000670015811920166
1772574531251352600,4.6033525390625,-0.10030841827392578,-0.03128349781036377,-0.022990286350250244
1772574531261289000,4.6132890625,-0.03264427185058594,-0.0496748685836792,-0.01710200309753418
1772574531271218000,4.623218017578125,-0.01791095733642578,-0.03920793533325195,0.0033140182495117188
1772574531281153500,4.633153564453125,-0.04109954833984375,-0.02369844913482666,0.047850608825683594
1772574531291082800,4.643082763671875,-0.12045097351074219,-0.026574134826660156,-0.01583772897720337
1772574531301017900,4.653017822265625,-0.052659034729003906,0.004213690757751465,0.005698263645172119
1772574531310948400,4.6629482421875,-0.0613250732421875,-0.007682681083679199,0.08860188722610474
1772574531320883000,4.672883056640625,0.028964996337890625,0.009294748306274414,0.03823041915893555
1772574531330789600,4.68278955078125,0.03311634063720703,0.0176393985748291,0.12418025732040405
1772574531340721400,4.692721435546875,-0.028675079345703125,-0.010851621627807617,0.10755068063735962
1772574531350680300,4.702680419921875,0.004703521728515625,-0.020113587379455566,0.019906580448150635
1772574531360615000,4.712614990234375,0.12228202819824219,-0.02106499671936035,-0.031122267246246338
1772574531370545700,4.722545654296875,0.2567157745361328,0.01848137378692627,-0.005144655704498291
1772574531380479700,4.732479736328125,0.34193992614746094,0.02222919464111328,0.017741680145263672
1772574531390409200,4.7424091796875,0.30369091033935547,0.013924002647399902,-0.0023709535598754883
1772574531400342800,4.7523427734375,0.17223644256591797,-0.015178322792053223,-0.03145104646682739
1772574531410249200,4.762249267578125,0.07135391235351562,-0.01654684543609619,-0.008580565452575684
1772574531420180200,4.77218017578125,-0.013707160949707031,0.005626559257507324,0.03753340244293213
1772574531430138000,4.78213818359375,-0.04561138153076172,0.03704822063446045,0.04483550786972046
1772574531440072000,4.792072021484375,-0.03937530517578125,-0.0023421049118041992,0.03773951530456543
1772574531449984000,4.80198388671875,-0.056838035583496094,-0.007578372955322266,0.049946606159210205
1772574531459917600,4.81191748046875,-0.06939888000488281,0.016014933586120605,0.033395469188690186
1772574531479777000,4.831777099609375,-0.0758209228515625,-0.007068037986755371,0.04897266626358032
1772574531499643000,4.851642822265625,-0.19398117065429688,-0.051848649978637695,0.033712029457092285
1772574531519530000,4.871530029296875,0.1676034927368164,-0.012389183044433594,0.02184206247329712
1772574531529465600,4.881465576171875,0.19814395904541016,-0.07714295387268066,0.004527270793914795
1772574531539391500,4.8913916015625,0.11086750030517578,-0.049069762229919434,0.03484231233596802
1772574531549326000,4.901326171875,0.0111236572265625,-0.01784193515777588,0.15446233749389648
1772574531559244300,4.911244384765625,0.021286964416503906,-0.006174325942993164,-0.03518933057785034
1772574531569177300,4.92117724609375,0.026607513427734375,-0.023380279541015625,-0.10450094938278198
1772574531579112400,4.931112548828125,-0.04811573028564453,-0.03107452392578125,-0.03069007396697998
1772574531589045500,4.94104541015625,-0.21575450897216797,-0.06129419803619385,0.06740701198577881
1772574531598968600,4.950968505859375,-0.34333038330078125,-0.06039547920227051,0.01761949062347412
1772574531608900600,4.960900634765625,-0.3469886779785156,-0.018613576889038086,-0.1269451379776001
1772574531618914600,4.97091455078125,-0.27581787109375,-0.045111894607543945,-0.08644258975982666
1772574531628855000,4.98085498046875,-0.1732940673828125,-0.02659130096435547,-0.00039440393447875977
1772574531638706000,4.990705810546875,-0.22791576385498047,0.03019583225250244,-0.027566373348236084
1772574531658569000,5.01056884765625,-0.16597366333007812,0.05548977851867676,-0.047467827796936035
1772574531678411800,5.030411865234375,0.16744136810302734,-0.00866556167602539,-0.04422646760940552
1772574531688394200,5.040394287109375,0.2108478546142578,0.0567774772644043,-0.1268414855003357
1772574531698329300,5.050329345703125,0.1458139419555664,0.062180399894714355,-0.054754555225372314
1772574531708237300,5.0602373046875,0.11513042449951172,0.028160572052001953,-0.0021236538887023926
1772574531718169900,5.070169921875,0.14626598358154297,-0.01573789119720459,-0.026648342609405518
1772574531728091000,5.0800908203125,0.22887039184570312,-0.007979869842529297,-0.026457130908966064
1772574531738022100,5.090022216796875,0.1973876953125,-0.025190234184265137,-0.010926485061645508
1772574531747957200,5.099957275390625,0.11954879760742188,0.018001914024353027,-0.014071226119995117
1772574531757888800,5.109888671875,0.07606124877929688,0.04135549068450928,0.049390435218811035
1772574531777788400,5.129788330078125,-0.10146808624267578,0.03124403953552246,-0.05739384889602661
1772574531787687700,5.139687744140625,-0.15096092224121094,0.08924269676208496,-0.011664748191833496
1772574531797619200,5.149619140625,-0.18585491180419922,0.08231174945831299,0.013994574546813965
1772574531807582000,5.15958203125,-0.11226081848144531,0.034677982330322266,-0.04271739721298218
1772574531817516500,5.1695166015625,-0.05889129638671875,-0.002090930938720703,-0.0380702018737793
1772574531827444000,5.17944384765625,0.03597545623779297,-0.014848709106445312,-0.010154426097869873
1772574531837377800,5.189377685546875,0.03518867492675781,-0.027707457542419434,0.017962932586669922
1772574531847307800,5.199307861328125,0.00627899169921875,-0.03133499622344971,-0.000774383544921875
1772574531857241000,5.209240966796875,0.0014238357543945312,-0.03961765766143799,0.00001895427703857422
1772574531867180800,5.219180908203125,0.02026844024658203,-0.05268514156341553,-0.0033410191535949707
1772574531877115000,5.229114990234375,0.020020484924316406,-0.07525241374969482,-0.03008866310119629
1772574531887033000,5.239033203125,-0.013147354125976562,-0.06959891319274902,-0.06622552871704102
1772574531896965600,5.248965576171875,-0.06460762023925781,-0.04501307010650635,-0.049680233001708984
1772574531906900200,5.258900146484375,-0.13884258270263672,-0.04839611053466797,-0.028418123722076416
1772574531916832800,5.268832763671875,-0.11789798736572266,-0.03650510311126709,-0.03176981210708618
1772574531926773200,5.278773193359375,-0.026866912841796875,-0.028734445571899414,-0.007745802402496338
1772574531936706600,5.28870654296875,0.04850578308105469,-0.011585354804992676,0.006444752216339111
1772574531946631400,5.29863134765625,0.06619071960449219,0.004876613616943359,-0.003043949604034424
1772574531956564200,5.308564208984375,0.01300048828125,0.011356353759765625,0.030019044876098633
1772574531966497300,5.318497314453125,-0.020508766174316406,0.03205430507659912,0.034179627895355225
1772574531976429800,5.328429931640625,-0.0017185211181640625,0.038588643074035645,0.033478379249572754
1772574531986360000,5.338360107421875,0.04022026062011719,0.012660503387451172,0.028296291828155518
1772574531996292600,5.348292724609375,0.05793285369873047,0.020125865936279297,0.013983607292175293
1772574532006201300,5.358201416015625,0.08010101318359375,0.00361788272857666,0.013934969902038574
1772574532016131300,5.36813134765625,0.13026142120361328,0.014957547187805176,0.046879589557647705
1772574532026098000,5.378097900390625,0.13738155364990234,0.02982807159423828,0.0418241024017334
1772574532036031500,5.388031494140625,0.111572265625,0.048355817794799805,0.01831740140914917
1772574532045956900,5.397956787109375,0.06275367736816406,0.06125831604003906,0.018829166889190674
1772574532055889700,5.4078896484375,0.019537925720214844,0.04978680610656738,0.023809611797332764
1772574532075755300,5.42775537109375,-0.07417583465576172,0.018505215644836426,0.000452578067779541
1772574532085667000,5.4376669921875,-0.0729522705078125,0.008925199508666992,0.0005819201469421387
1772574532095597800,5.447597900390625,-0.029503822326660156,-0.03767073154449463,-0.014132797718048096
1772574532105523000,5.45752294921875,0.041457176208496094,-0.04585134983062744,0.008803367614746094
1772574532115453200,5.467453125,0.05954456329345703,-0.02625858783721924,0.022008001804351807
1772574532125415700,5.477415771484375,0.01149749755859375,-0.016903996467590332,0.03039771318435669
1772574532135349200,5.487349365234375,-0.045104026794433594,-0.008011341094970703,0.04825091361999512
1772574532145257700,5.4972578125,-0.05373954772949219,-0.0035517215728759766,0.03289520740509033
1772574532155188700,5.507188720703125,-0.024633407592773438,-0.012885332107543945,-0.00583261251449585
1772574532165147000,5.51714697265625,0.003947257995605469,-0.026478290557861328,-0.006163179874420166
1772574532175080700,5.527080810546875,0.0037984848022460938,-0.039745330810546875,0.012547433376312256
1772574532184984800,5.53698486328125,0.017770767211914062,-0.0057065486907958984,0.0073043107986450195
1772574532194915600,5.54691552734375,0.02679443359375,-0.009909868240356445,0.016157567501068115
1772574532204856600,5.556856689453125,0.026248931884765625,0.019017696380615234,0.034480392932891846
1772574532214788400,5.566788330078125,0.011601448059082031,0.04276883602142334,0.052730023860931396
1772574532224738000,5.576738037109375,-0.0027713775634765625,0.009521722793579102,0.0332072377204895
1772574532234671600,5.586671630859375,-0.03575611114501953,0.0052797794342041016,0.014209747314453125
1772574532244602000,5.59660205078125,-0.04001808166503906,0.015627145767211914,0.000021457672119140625
1772574532254535200,5.60653515625,-0.03957843780517578,0.0120621919631958,-0.00003629922866821289
1772574532264469200,5.61646923828125,0.026747703552246094,0.03198504447937012,0.008691966533660889
1772574532274402800,5.62640283203125,0.08257579803466797,0.008898496627807617,0.0358089804649353
1772574532284349400,5.636349365234375,0.09523582458496094,-0.005086064338684082,0.025204956531524658
1772574532294284300,5.6462841796875,0.07014846801757812,-0.01944577693939209,0.038806140422821045
1772574532304199200,5.65619921875,0.06439018249511719,-0.01031506061553955,0.03847062587738037
1772574532314131700,5.666131591796875,0.030553817749023438,-0.015863895416259766,0.024215757846832275
1772574532324064800,5.676064697265625,-0.012133598327636719,-0.0025789737701416016,0.014722585678100586
1772574532333997600,5.68599755859375,-0.011785507202148438,0.01057744026184082,0.023705124855041504
1772574532343908900,5.695908935546875,-0.020921707153320312,0.009705424308776855,0.0370786190032959
1772574532353839400,5.70583935546875,-0.06285285949707031,0.013648271560668945,0.012944281101226807
1772574532363798000,5.715798095703125,-0.06640148162841797,0.0034052133560180664,0.03651469945907593
1772574532373731300,5.7257314453125,-0.027574539184570312,0.007660627365112305,0.026330947875976562
1772574532383634200,5.73563427734375,0.015246391296386719,-0.016205668449401855,0.029944002628326416
1772574532393564700,5.745564697265625,0.033794403076171875,-0.0113372802734375,0.02875465154647827
1772574532403498800,5.755498779296875,0.028528213500976562,0.0027817487716674805,0.03733426332473755
1772574532413429500,5.765429443359375,0.01861572265625,-0.0019614696502685547,0.031761109828948975
1772574532423386600,5.77538671875,0.046500205993652344,0.026456594467163086,0.03544414043426514
1772574532433320200,5.7853203125,0.06455230712890625,-0.007197022438049316,0.02948129177093506
1772574532443248000,5.795248046875,0.04465007781982422,-0.03097248077392578,0.047160983085632324
1772574532453181200,5.80518115234375,0.043994903564453125,0.016184091567993164,0.08429735898971558
1772574532463096000,5.815095947265625,-0.013118743896484375,-0.017354846000671387,0.06509041786193848
1772574532473027000,5.825027099609375,0.010727882385253906,-0.003149271011352539,0.04590475559234619
1772574532482983400,5.8349833984375,0.05770111083984375,0.006002902984619141,0.06419157981872559
1772574532492917200,5.844917236328125,0.0945425033569336,-0.009226560592651367,0.08160400390625
1772574532502853600,5.854853515625,0.04149818420410156,0.007976889610290527,0.08554995059967041
1772574532512787700,5.86478759765625,-0.07651710510253906,-0.01704692840576172,0.1054389476776123
1772574532522714400,5.87471435546875,-0.15032291412353516,-0.031012773513793945,0.06933993101119995
1772574532532647700,5.884647705078125,-0.12417984008789062,-0.01999378204345703,0.03426015377044678
1772574532542564400,5.894564453125,-0.051598548889160156,0.001056671142578125,0.012684226036071777
1772574532552495900,5.904495849609375,0.03857898712158203,-0.02582728862762451,-0.014738619327545166
1772574532562445000,5.914445068359375,0.09911155700683594,-0.03443610668182373,0.03291696310043335
1772574532572378400,5.92437841796875,0.026930809020996094,-0.020353317260742188,-0.061764538288116455
1772574532582311000,5.934310791015625,-0.03467369079589844,-0.02055943012237549,-0.04703444242477417
1772574532592244200,5.944244140625,-0.010567665100097656,0.003145456314086914,-0.00918644666671753
1772574532602158800,5.954158935546875,-0.0010356903076171875,0.01724541187286377,0.013722062110900879
1772574532612090000,5.964090087890625,0.017778396606445312,0.01219022274017334,0.003419220447540283
1772574532622034700,5.97403466796875,0.0033884048461914062,0.00691831111907959,-0.01112067699432373
1772574532631967500,5.983967529296875,0.01748943328857422,-0.017099618911743164,-0.0018748044967651367
1772574532641872600,5.99387255859375,0.03136253356933594,-0.007741808891296387,-0.006776273250579834
1772574532651803600,6.0038037109375,0.06387805938720703,-0.012881278991699219,-0.03036266565322876
1772574532661722600,6.01372265625,0.039447784423828125,-0.013625860214233398,-0.02480417490005493
1772574532671655400,6.023655517578125,-0.02224445343017578,0.03742802143096924,-0.005227923393249512
1772574532681588000,6.033587890625,-0.05472373962402344,0.0501554012298584,-0.005329012870788574
1772574532711408000,6.063408203125,0.07818603515625,-0.013359308242797852,0.01542365550994873
1772574532721358300,6.0733583984375,0.07695579528808594,-0.018506646156311035,0.010000526905059814
1772574532731292400,6.08329248046875,0.04289817810058594,-0.019559860229492188,-0.0000400543212890625
1772574532741218300,6.09321826171875,0.05181884765625,-0.025603532791137695,-0.014821648597717285
1772574532751151600,6.103151611328125,0.06534099578857422,-0.04598820209503174,-0.01065516471862793
1772574532761054500,6.113054443359375,0.022125244140625,-0.02827298641204834,-0.015905022621154785
1772574532770987800,6.12298779296875,-0.006220817565917969,-0.006264686584472656,-0.0068756937980651855
1772574532780919800,6.132919921875,-0.03883838653564453,-0.008151531219482422,0.01566028594970703
1772574532790853000,6.14285302734375,-0.042647361755371094,0.004218935966491699,0.019386887550354004
1772574532800816600,6.152816650390625,-0.06052112579345703,0.002467036247253418,0.02819204330444336
1772574532810752800,6.162752685546875,-0.07813644409179688,-0.00845348834991455,-0.0055939555168151855
1772574532820683500,6.17268359375,-0.057929039001464844,-0.01857626438140869,-0.015842020511627197
1772574532830619400,6.182619384765625,-0.024026870727539062,-0.013911128044128418,0.002115488052368164
1772574532840551000,6.192551025390625,-0.0048503875732421875,-0.009030342102050781,0.015249788761138916
1772574532850486000,6.202486083984375,-0.0048046112060546875,0.014496207237243652,-0.0000027418136596679688
1772574532860408000,6.212407958984375,-0.009405136108398438,0.03731667995452881,-0.0007063150405883789
1772574532870342000,6.222341796875,0.009655952453613281,0.05977034568786621,0.018068432807922363
1772574532880278800,6.23227880859375,-0.013939857482910156,0.025260448455810547,0.003902912139892578
1772574532890213000,6.242213134765625,-0.018341064453125,0.0009502172470092773,-0.010010361671447754
1772574532900136200,6.25213623046875,-0.013262748718261719,0.009913086891174316,-0.038201749324798584
1772574532910069500,6.262069580078125,-0.013016700744628906,-0.014434576034545898,-0.052798569202423096
1772574532920001300,6.272001220703125,0.03425312042236328,-0.005323052406311035,-0.039517104625701904
1772574532929934300,6.281934326171875,0.02904987335205078,-0.0015796422958374023,0.03513866662979126
1772574532939858400,6.2918583984375,-0.027721405029296875,0.01119840145111084,0.05330014228820801
1772574532949790500,6.30179052734375,-0.10234260559082031,0.009843707084655762,0.048633038997650146
1772574532959721200,6.31172119140625,-0.10991764068603516,-0.019111275672912598,0.03909951448440552
1772574532969653000,6.321653076171875,-0.07039928436279297,-0.032836318016052246,0.015347659587860107
1772574532979592000,6.331592041015625,-0.055161476135253906,-0.012965083122253418,-0.008192121982574463
1772574532989524500,6.3415244140625,-0.059058189392089844,-0.030872821807861328,0.0014687776565551758
1772574532999481900,6.35148193359375,-0.03461742401123047,-0.01552724838256836,0.001836240291595459
1772574533009417000,6.3614169921875,-0.010585784912109375,-0.0003389120101928711,-0.002312004566192627
1772574533019336700,6.371336669921875,0.017716407775878906,0.019403576850891113,-0.016109049320220947
1772574533029270300,6.381270263671875,0.045548439025878906,0.019876956939697266,0.0030681490898132324
1772574533039176200,6.39117626953125,0.09656906127929688,0.010424256324768066,0.0034902095794677734
1772574533049107000,6.40110693359375,0.13739395141601562,0.0007506608963012695,-0.019487977027893066
1772574533059043800,6.4110439453125,0.13992977142333984,-0.004553556442260742,-0.032965898513793945
1772574533068975400,6.420975341796875,0.07665348052978516,0.04121077060699463,-0.017699718475341797
1772574533078906400,6.43090625,0.02859783172607422,0.0342174768447876,-0.035547733306884766
1772574533088838000,6.440837890625,0.037751197814941406,0.013715744018554688,-0.07684111595153809
1772574533098808300,6.450808349609375,0.03259849548339844,0.012371659278869629,-0.0425412654876709
1772574533108743400,6.460743408203125,0.0228729248046875,0.015361905097961426,-0.032556354999542236
1772574533118639600,6.4706396484375,-0.005475044250488281,0.022589445114135742,-0.03712725639343262
1772574533128571000,6.48057080078125,-0.014490127563476562,0.0013240575790405273,-0.04155564308166504
1772574533138504400,6.49050439453125,-0.042166709899902344,0.003848433494567871,-0.04111778736114502
1772574533148436000,6.50043603515625,-0.055214881896972656,-0.008015632629394531,-0.04534459114074707
1772574533158366700,6.51036669921875,-0.07750511169433594,-0.014680027961730957,-0.039999961853027344
1772574533168298200,6.52029833984375,-0.05241870880126953,-0.006606936454772949,-0.015910029411315918
1772574533178231800,6.530231689453125,-0.07492542266845703,-0.007571220397949219,-0.020540356636047363
1772574533188163300,6.540163330078125,-0.0641927719116211,-0.022144675254821777,-0.0441279411315918
1772574533198131700,6.550131591796875,-0.03964042663574219,-0.017040491104125977,-0.04889094829559326
1772574533208067000,6.560067138671875,-0.015521049499511719,-0.011935591697692871,-0.04428762197494507
1772574533217987300,6.5699873046875,0.022336959838867188,0.0024939775466918945,-0.030158936977386475
1772574533227921200,6.579921142578125,0.036067962646484375,0.016461849212646484,-0.011407315731048584
1772574533237847600,6.58984765625,0.05900287628173828,0.020665645599365234,-0.007126450538635254
1772574533247780600,6.599780517578125,0.058109283447265625,0.005471587181091309,-0.007409512996673584
1772574533257723400,6.609723388671875,0.02439117431640625,0.022867918014526367,0.006688594818115234
1772574533267657500,6.619657470703125,-0.018151283264160156,0.04456973075866699,0.006593227386474609
1772574533277590000,6.629590087890625,-0.017685890197753906,0.04739022254943848,0.006131947040557861
1772574533287523800,6.63952392578125,0.043953895568847656,0.012594938278198242,-0.018064916133880615
1772574533297442800,6.64944287109375,0.08112144470214844,0.006026029586791992,-0.027748465538024902
1772574533307375000,6.659375,0.023653030395507812,0.017569780349731445,-0.013494670391082764
1772574533317309700,6.669309814453125,-0.03754711151123047,0.02399766445159912,0.019122183322906494
1772574533327242200,6.6792421875,-0.05534553527832031,0.016100645065307617,0.008634328842163086
1772574533337177900,6.689177734375,-0.06821918487548828,0.008742213249206543,-0.01128000020980835
1772574533347110700,6.699110595703125,-0.03385162353515625,0.0301591157913208,-0.021345198154449463
1772574533357038300,6.709038330078125,0.023467063903808594,0.013744592666625977,-0.007516264915466309
1772574533366970600,6.718970703125,0.04219245910644531,-0.007205843925476074,-0.017261385917663574
1772574533376905200,6.7289052734375,0.0229949951171875,0.00013697147369384766,-0.02676105499267578
1772574533386837800,6.738837646484375,0.05590534210205078,0.030872464179992676,-0.03156101703643799
1772574533396778500,6.748778564453125,0.055328369140625,0.01849496364593506,-0.0035724639892578125
1772574533406711800,6.7587119140625,0.0689401626586914,0.0012167692184448242,-0.013919293880462646
1772574533416644900,6.768644775390625,0.06822681427001953,-0.011271834373474121,-0.014794111251831055
1772574533426578200,6.778578125,0.08641624450683594,-0.03348386287689209,-0.0066719651222229
1772574533436499000,6.7884990234375,0.07145881652832031,-0.051226258277893066,-0.00793522596359253
1772574533446431000,6.798430908203125,0.014461517333984375,-0.012488722801208496,0.005412161350250244
1772574533456362000,6.808362060546875,-0.022759437561035156,0.0021543502807617188,0.02332758903503418
1772574533466293800,6.818293701171875,-0.03115558624267578,-0.006996035575866699,0.02139127254486084
1772574533476228900,6.828228759765625,-0.06765174865722656,-0.025511622428894043,0.05234569311141968
1772574533486161200,6.8381611328125,-0.08002853393554688,-0.029382824897766113,0.04042327404022217
1772574533496093000,6.848093017578125,-0.09228229522705078,-0.03266704082489014,0.028750181198120117
1772574533506025200,6.858025146484375,-0.04787921905517578,-0.04029715061187744,0.045539677143096924
1772574533515966700,6.867966796875,-0.02304840087890625,-0.03817141056060791,0.03433042764663696
1772574533525900000,6.877900146484375,-0.03631019592285156,-0.026346921920776367,0.028651177883148193
1772574533535825000,6.887824951171875,-0.05403900146484375,-0.01940464973449707,0.028126299381256104
1772574533545757200,6.897757080078125,-0.038639068603515625,-0.03539586067199707,0.013453006744384766
1772574533555686400,6.907686279296875,-0.00946044921875,-0.0459979772567749,-0.0012409687042236328
1772574533565618400,6.917618408203125,-0.009029388427734375,-0.05652344226837158,-0.0066727399826049805
1772574533575555800,6.927555908203125,-0.003871917724609375,-0.05286896228790283,-0.002549290657043457
1772574533585488400,6.93748828125,-0.0035228729248046875,-0.06320035457611084,0.015931129455566406
1772574533595417000,6.9474169921875,-0.012621879577636719,-0.030675053596496582,0.03452044725418091
1772574533605349400,6.957349365234375,-0.016902923583984375,-0.040670037269592285,0.010821938514709473
1772574533615290600,6.96729052734375,-0.007019996643066406,-0.06934726238250732,-0.027141690254211426
1772574533625224000,6.977223876953125,0.012141227722167969,-0.03704667091369629,0.014140307903289795
1772574533635148300,6.987148193359375,0.012118339538574219,-0.028705358505249023,0.05929642915725708
1772574533645080600,6.99708056640625,0.026262283325195312,-0.02517879009246826,0.04317289590835571
1772574533655013400,7.007013427734375,0.04494667053222656,-0.012300610542297363,0.037716567516326904
1772574533664945700,7.016945556640625,0.05390644073486328,-0.008927345275878906,0.03272038698196411
1772574533674878000,7.0268779296875,0.048748016357421875,0.040783047676086426,0.04715859889984131
1772574533684810200,7.036810302734375,0.03433513641357422,0.009212493896484375,0.004935264587402344
1772574533694743600,7.04674365234375,0.029590606689453125,0.029875874519348145,-0.013106346130371094
1772574533704676000,7.056676025390625,0.034331321716308594,0.04998183250427246,-0.012747585773468018
1772574533714607400,7.066607421875,0.02489185333251953,0.050491929054260254,-0.046124815940856934
1772574533724539600,7.07653955078125,0.08159351348876953,0.0643996000289917,-0.032812297344207764
1772574533734483200,7.086483154296875,0.11391258239746094,0.08195888996124268,-0.0345035195350647
1772574533744416800,7.096416748046875,0.09405994415283203,0.051238298416137695,-0.02676624059677124
1772574533754336300,7.106336181640625,0.06054210662841797,0.025140881538391113,-0.06596052646636963
1772574533764268300,7.116268310546875,-0.02415180206298828,0.03680610656738281,-0.07634353637695312
1772574533774201900,7.126201904296875,-0.07455158233642578,0.0299222469329834,-0.0300062894821167
1772574533784134100,7.136134033203125,-0.11476612091064453,0.047224998474121094,0.0017036199569702148
1772574533794068200,7.146068115234375,-0.13084793090820312,0.09812581539154053,0.03886312246322632
1772574533804000500,7.15600048828125,-0.09503650665283203,0.05983543395996094,0.024061381816864014
1772574533813943000,7.165943115234375,-0.06475257873535156,0.02809464931488037,-0.04237067699432373
1772574533823876600,7.175876708984375,-0.020902633666992188,0.04434382915496826,-0.01800626516342163
1772574533833782500,7.185782470703125,0.008159637451171875,0.055327653884887695,0.015585601329803467
1772574533843715800,7.1957158203125,0.055693626403808594,0.03238332271575928,-0.0035210847854614258
1772574533863544600,7.215544677734375,0.03634357452392578,-0.010749578475952148,0.009231626987457275
1772574533883409200,7.2354091796875,-0.0797119140625,-0.027605652809143066,0.04259294271469116
1772574533903321600,7.255321533203125,-0.08442115783691406,-0.05686783790588379,0.051065683364868164
1772574533913259800,7.265259765625,-0.06346988677978516,-0.09326624870300293,0.001414477825164795
1772574533923184400,7.275184326171875,-0.038239479064941406,-0.053334593772888184,0.05602574348449707
1772574533933121000,7.28512109375,-0.03226280212402344,-0.028190970420837402,0.12386816740036011
1772574533943052000,7.295052001953125,-0.06879138946533203,-0.017350196838378906,0.09662032127380371
1772574533952988200,7.30498828125,-0.07653427124023438,-0.020498037338256836,0.05545663833618164
1772574533962911200,7.3149111328125,-0.03714275360107422,-0.03250086307525635,0.05757617950439453
1772574533972846000,7.32484619140625,-0.08314132690429688,-0.0067369937896728516,0.054949402809143066
1772574533982779100,7.334779052734375,-0.17079448699951172,0.018829941749572754,0.061778366565704346
1772574533992713700,7.344713623046875,-0.1018533706665039,0.05432271957397461,0.09556382894515991
1772574534002652200,7.354652099609375,-0.024799346923828125,0.028647541999816895,0.07169890403747559
1772574534012587000,7.3645869140625,0.05099678039550781,0.026981115341186523,0.06287074089050293
1772574534022507800,7.3745078125,0.031439781188964844,0.044004201889038086,0.045548319816589355
1772574534032441300,7.38444140625,0.016982078552246094,0.03221595287322998,0.04281318187713623
1772574534042355000,7.39435498046875,0.021607398986816406,0.025161385536193848,0.030289828777313232
1772574534052286500,7.404286376953125,0.07323741912841797,0.008821725845336914,0.022637248039245605
1772574534062238000,7.414238037109375,0.044025421142578125,-0.007437229156494141,0.034378886222839355
1772574534072171500,7.424171630859375,0.024802207946777344,-0.018818974494934082,0.014044642448425293
1772574534082106400,7.4341064453125,0.005925178527832031,0.01237177848815918,-0.005533099174499512
1772574534092040000,7.4440400390625,0.006154060363769531,0.029028773307800293,0.012524724006652832
1772574534101972000,7.453971923828125,-0.007719993591308594,0.031089425086975098,0.03481090068817139
1772574534111905500,7.463905517578125,-0.040144920349121094,0.018714308738708496,0.009617447853088379
1772574534121821700,7.47382177734375,-0.03439617156982422,0.006573319435119629,0.03612172603607178
1772574534131753500,7.48375341796875,-0.019324302673339844,-0.047728896141052246,0.04340606927871704
1772574534141683500,7.493683349609375,0.0001316070556640625,-0.06312942504882812,0.04565924406051636
1772574534151615000,7.503614990234375,0.009865760803222656,-0.045413970947265625,-0.1828460693359375
1772574534161549800,7.5135498046875,-0.018230438232421875,-0.008966684341430664,-0.07729357481002808
1772574534171481900,7.52348193359375,0.0011644363403320312,0.013005256652832031,0.059226036071777344
1772574534181416000,7.533416015625,-0.02217578887939453,0.006686687469482422,-0.017921745777130127
1772574534191348200,7.54334814453125,-0.0358123779296875,-0.00845181941986084,-0.07506781816482544
1772574534201322000,7.553322021484375,-0.01165771484375,-0.018356919288635254,-0.05209594964981079
1772574534211258000,7.563258056640625,0.035660743713378906,-0.0001475811004638672,-0.05365961790084839
1772574534221163000,7.5731630859375,0.035167694091796875,0.0034426450729370117,-0.06419062614440918
1772574534231096300,7.583096435546875,0.006524085998535156,0.0160825252532959,-0.05513972043991089
1772574534241008400,7.59300830078125,0.0019550323486328125,0.028409719467163086,0.010843098163604736
1772574534250939400,7.602939453125,-0.04013633728027344,0.035515546798706055,0.005275428295135498
1772574534260875500,7.61287548828125,-0.06266212463378906,0.04700601100921631,-0.023961007595062256
1772574534270807000,7.62280712890625,-0.09437084197998047,0.04007434844970703,-0.029544830322265625
1772574534280740900,7.632740966796875,-0.059864044189453125,0.04386305809020996,0.0026137232780456543
1772574534290673000,7.6426728515625,0.04931449890136719,0.019839882850646973,0.03906434774398804
1772574534300601600,7.6526015625,0.12387847900390625,0.0282059907913208,-0.1044379472732544
1772574534310533000,7.662533203125,0.11739349365234375,0.011749267578125,-0.09463244676589966
1772574534320466000,7.6724658203125,0.10170841217041016,-0.004988670349121094,0.032727599143981934
1772574534330397700,7.682397705078125,0.08635807037353516,0.015828847885131836,0.016627073287963867
1772574534340353000,7.69235302734375,0.005405426025390625,0.05031299591064453,-0.04090768098831177
1772574534350286800,7.702286865234375,0.010502815246582031,0.03742992877960205,-0.05033600330352783
1772574534360219100,7.71221923828125,0.015429496765136719,0.010923504829406738,-0.05543553829193115
1772574534370153000,7.722153076171875,0.020294189453125,0.031833529472351074,-0.01340407133102417
1772574534380094000,7.732093994140625,0.025160789489746094,0.018935203552246094,0.004083752632141113
1772574534390028500,7.742028564453125,-0.031160354614257812,0.029305100440979004,-0.002142965793609619
1772574534399947000,7.751947021484375,-0.06292057037353516,0.0296938419342041,-0.0318068265914917
1772574534409879800,7.7618798828125,-0.0846853256225586,0.03907942771911621,0.018430709838867188
1772574534419814000,7.77181396484375,-0.16257667541503906,0.053023457527160645,0.05392348766326904
1772574534429747000,7.781746826171875,-0.22982215881347656,0.053125619888305664,0.014044344425201416
1772574534439680000,7.791679931640625,-0.3149538040161133,0.04962360858917236,0.013333678245544434
1772574534449612800,7.80161279296875,-0.35665321350097656,0.05749666690826416,0.03180724382400513
1772574534459547000,7.811546875,-0.29453182220458984,0.05332458019256592,-0.006826996803283691
1772574534469480000,7.82147998046875,-0.1113748550415039,0.008541584014892578,-0.035558223724365234
1772574534479416800,7.831416748046875,0.06386756896972656,-0.0393977165222168,-0.04483717679977417
1772574534489350400,7.841350341796875,0.17506790161132812,-0.06329345703125,-0.03933972120285034
1772574534499274800,7.851274658203125,0.20463180541992188,-0.05955517292022705,-0.02821427583694458
1772574534509207300,7.861207275390625,0.1868724822998047,-0.02882707118988037,-0.040557861328125
1772574534519141000,7.87114111328125,0.13669109344482422,-0.028170108795166016,-0.043635427951812744
1772574534529074000,7.881073974609375,0.09214496612548828,0.000102996826171875,-0.02842313051223755
1772574534539002000,7.891002197265625,0.07661247253417969,0.008960127830505371,0.014747321605682373
1772574534548934400,7.900934326171875,0.0660390853881836,-0.005785584449768066,0.010271430015563965
1772574534558880800,7.910880859375,0.06515312194824219,-0.01587069034576416,0.02532219886779785
1772574534568814600,7.920814697265625,0.0502166748046875,-0.030804991722106934,0.016538023948669434
1772574534578736600,7.930736572265625,-0.030338287353515625,-0.03639829158782959,0.035951852798461914
1772574534598602000,7.95060205078125,-0.13099288940429688,-0.04294168949127197,0.05867844820022583
1772574534608534500,7.960534423828125,-0.15702152252197266,-0.08010125160217285,0.057661354541778564
1772574534618436400,7.970436279296875,-0.14986133575439453,-0.06365811824798584,0.05254703760147095
1772574534628365800,7.98036572265625,-0.1806468963623047,-0.05591130256652832,0.03879743814468384
1772574534638338300,7.99033837890625,-0.14991092681884766,-0.009515166282653809,0.03972727060317993
1772574534648272100,8.000272216796875,-0.0822305679321289,-0.005278587341308594,0.021543383598327637
1772574534658170000,8.010170166015625,-0.020586013793945312,-0.023775100708007812,0.012601077556610107
1772574534668100400,8.020100341796875,0.07298469543457031,-0.02311253547668457,0.01783818006515503
1772574534678066200,8.030066162109375,0.0944528579711914,-0.013511419296264648,0.018123328685760498
1772574534688000000,8.04,0.0686178207397461,-0.01881086826324463,0.009263932704925537
1772574534697927200,8.04992724609375,0.07145309448242188,-0.023924708366394043,0.00536036491394043
1772574534707860500,8.059860595703125,0.08360958099365234,-0.009917259216308594,-0.0175095796585083
1772574534717807600,8.0698076171875,0.11435985565185547,-0.0006290674209594727,-0.011686384677886963
1772574534727679000,8.079678955078125,0.13989734649658203,-0.015070915222167969,-0.005965590476989746
1772574534737614600,8.089614501953125,0.16037750244140625,-0.0014878511428833008,-0.000632166862487793
1772574534757490200,8.109490234375,0.1774921417236328,-0.006244540214538574,-0.004687607288360596
1772574534767436000,8.11943603515625,0.1367788314819336,-0.005535006523132324,0.028881549835205078
1772574534777369000,8.129369140625,0.054526329040527344,0.0084916353225708,0.04315590858459473
1772574534797238000,8.149238037109376,-0.1150970458984375,0.021372199058532715,0.07910597324371338
1772574534807182800,8.159182861328125,-0.13205242156982422,0.011612772941589355,0.09126749634742737
1772574534827056000,8.17905615234375,-0.1141519546508789,0.045483946800231934,0.13847479224205017
1772574534836991700,8.18899169921875,-0.1266613006591797,0.03695511817932129,0.11320844292640686
1772574534846910000,8.198909912109375,-0.11087608337402344,0.03417325019836426,0.11202362179756165
1772574534856814000,8.20881396484375,-0.015442848205566406,0.05079209804534912,0.11025962233543396
1772574534876706800,8.228706787109376,-0.011425971984863281,0.04051244258880615,0.09231248497962952
1772574534886642700,8.238642578125,0.016595840454101562,0.009127259254455566,0.05806732177734375
1772574534896571400,8.2485712890625,0.0865478515625,0.006421208381652832,0.04324609041213989
1772574534906506800,8.2585068359375,0.13186168670654297,0.012781262397766113,0.06153249740600586
1772574534916449800,8.26844970703125,0.15301513671875,-0.0053026676177978516,0.03212946653366089
1772574534926386000,8.278385986328125,0.14566993713378906,-0.019068479537963867,0.035697877407073975
1772574534936288800,8.288288818359375,0.09142208099365234,-0.014174103736877441,0.03418314456939697
1772574534946221600,8.2982216796875,0.03342437744140625,-0.009566426277160645,0.023553073406219482
1772574534956166700,8.308166748046874,0.02814769744873047,-0.01886272430419922,0.036941349506378174
1772574534966100700,8.318100830078125,-0.019448280334472656,-0.004162311553955078,0.0553133487701416
1772574534976031500,8.328031494140625,-0.038043975830078125,0.0012903213500976562,0.03165638446807861
1772574534985965000,8.337965087890625,0.014168739318847656,-0.035111188888549805,0.003443777561187744
1772574534995900200,8.347900146484376,0.07961177825927734,-0.06159365177154541,-0.02511465549468994
1772574535005834000,8.357833984375,0.08761978149414062,-0.036664366722106934,-0.03435879945755005
1772574535015759400,8.36775927734375,0.043865203857421875,0.015194058418273926,-0.029460668563842773
1772574535025692400,8.3776923828125,0.05267810821533203,0.03281819820404053,0.007679998874664307
1772574535035629600,8.387629638671875,0.03318309783935547,0.026101231575012207,-0.017129182815551758
1772574535045563100,8.397563232421875,-0.00004673004150390625,0.023995041847229004,-0.012812972068786621
1772574535055493400,8.407493408203125,-0.03271770477294922,0.040747880935668945,-0.008507013320922852
1772574535065426400,8.417426513671876,-0.06010150909423828,0.05231893062591553,0.028606712818145752
1772574535075362800,8.42736279296875,-0.10111331939697266,0.06359720230102539,0.027831614017486572
1772574535085296000,8.437296142578125,-0.1603984832763672,0.05184793472290039,0.04141378402709961
1772574535095232300,8.447232177734374,-0.16237640380859375,0.022367358207702637,0.031065940856933594
1772574535105166000,8.457166015625,-0.11743640899658203,-0.014938831329345703,0.011691808700561523
1772574535115088400,8.46708837890625,-0.06869792938232422,-0.04129636287689209,0.016439855098724365
1772574535125021000,8.47702099609375,0.02157306671142578,-0.03404843807220459,-0.007024109363555908
1772574535134951700,8.48695166015625,0.08683204650878906,-0.04134559631347656,0.0071735382080078125
1772574535144884200,8.49688427734375,0.13231658935546875,-0.054030776023864746,0.030432939529418945
1772574535154818000,8.506818115234376,0.07368659973144531,-0.05818212032318115,0.02074253559112549
1772574535164750600,8.51675048828125,-0.007399559020996094,-0.04402720928192139,-0.0030118227005004883
1772574535174686000,8.52668603515625,-0.035386085510253906,-0.015888452529907227,-0.0221785306930542
1772574535184618800,8.53661865234375,-0.08189868927001953,-0.020387649536132812,-0.008184194564819336
1772574535194550500,8.546550537109376,-0.06662654876708984,-0.01439964771270752,0.024212360382080078
1772574535204483300,8.5564833984375,-0.018825531005859375,-0.002907276153564453,0.023009181022644043
1772574535214426000,8.566426025390625,0.06579017639160156,-0.0195465087890625,0.017154693603515625
1772574535224360000,8.57635986328125,0.09259033203125,-0.017484664916992188,0.054135531187057495
1772574535234288400,8.586288330078125,0.07200241088867188,-0.020653367042541504,0.016096174716949463
1772574535244221400,8.596221435546875,0.03292274475097656,-0.009443283081054688,-0.00177764892578125
1772574535254141700,8.6061416015625,0.01800060272216797,0.011188864707946777,-0.0005398392677307129
1772574535264073700,8.61607373046875,0.01745891571044922,0.021868348121643066,0.009517490863800049
1772574535274006300,8.62600634765625,0.01226043701171875,0.017835140228271484,-0.004771292209625244
1772574535283938300,8.635938232421875,-0.025684356689453125,0.01786983013153076,-0.004833698272705078
1772574535293871600,8.64587158203125,-0.048880577087402344,0.027315735816955566,-0.014530420303344727
1772574535303803600,8.6558037109375,-0.05760765075683594,-0.010288000106811523,0.004067480564117432
1772574535313749200,8.665749267578125,-0.04740715026855469,-0.02813088893890381,0.013037383556365967
1772574535323682600,8.6756826171875,-0.046844482421875,-0.054801344871520996,0.012521624565124512
1772574535333602000,8.68560205078125,-0.05573463439941406,-0.04316127300262451,0.01221376657485962
1772574535343534000,8.6955341796875,-0.0927743911743164,-0.03142595291137695,0.02619791030883789
1772574535353484300,8.705484375,-0.10570526123046875,-0.014870405197143555,0.044776320457458496
1772574535363418000,8.715418212890626,-0.06673240661621094,-0.021523594856262207,0.053783684968948364
1772574535373311500,8.7253115234375,-0.08028984069824219,-0.04639923572540283,0.03454321622848511
1772574535383241200,8.7352412109375,-0.06070709228515625,-0.028157472610473633,0.02529740333557129
1772574535393205500,8.74520556640625,-0.03687572479248047,-0.03305244445800781,0.0067906975746154785
1772574535403138800,8.755138916015625,0.014726638793945312,-0.013843178749084473,-0.011329472064971924
1772574535413041400,8.76504150390625,0.07481861114501953,-0.02292156219482422,0.008220434188842773
1772574535422971400,8.774971435546876,0.11042022705078125,-0.013198494911193848,-0.009924530982971191
1772574535432905200,8.7849052734375,0.11255359649658203,0.010181665420532227,-0.013180375099182129
1772574535442836000,8.7948359375,0.10065650939941406,0.018349289894104004,-0.01167374849319458
1772574535452806100,8.80480615234375,0.06558609008789062,0.006667375564575195,-0.014777064323425293
1772574535462740700,8.81474072265625,-0.015842437744140625,0.013291239738464355,-0.03181546926498413
1772574535472669000,8.8246689453125,-0.1005868911743164,0.03819572925567627,-0.06824976205825806
1772574535482603000,8.83460302734375,-0.042743682861328125,0.05793333053588867,-0.035089313983917236
1772574535492536600,8.84453662109375,0.05167102813720703,0.07801198959350586,0.053830087184906006
1772574535502470400,8.854470458984375,0.05505084991455078,0.022922873497009277,0.04409945011138916
1772574535512366300,8.864366455078125,0.12897014617919922,-0.031131625175476074,0.0013626813888549805
1772574535522296300,8.87429638671875,0.19239521026611328,-0.028768062591552734,-0.06470119953155518
1772574535532264000,8.884263916015625,0.17034435272216797,-0.000018715858459472656,0.011583268642425537
1772574535542198000,8.894197998046875,0.026494979858398438,-0.015317320823669434,0.07318755984306335
1772574535552119600,8.90411962890625,-0.06314277648925781,0.03568768501281738,0.049798429012298584
1772574535562052000,8.914052001953126,-0.11369991302490234,0.0017125606536865234,0.0226820707321167
1772574535581913300,8.933913330078125,-0.11943435668945312,-0.02023792266845703,0.04417061805725098
1772574535591853000,8.94385302734375,-0.12711238861083984,-0.027089834213256836,0.060407161712646484
1772574535601786000,8.9537861328125,-0.07837200164794922,-0.009079575538635254,0.015295028686523438
1772574535611725300,8.963725341796875,0.021210670471191406,-0.004977822303771973,-0.00165480375289917
1772574535621659000,8.973658935546876,0.07208824157714844,-0.029502272605895996,-0.004514932632446289
1772574535631580000,8.983579833984376,0.0798635482788086,0.0022727251052856445,-0.002458333969116211
1772574535641512400,8.993512451171876,0.054683685302734375,0.028004884719848633,-0.014795005321502686
1772574535651444000,9.00344384765625,0.04875946044921875,0.06259763240814209,-0.01789844036102295
1772574535661376300,9.013376220703124,0.08519363403320312,0.10181021690368652,-0.007358908653259277
1772574535671307800,9.023307861328124,0.13520050048828125,0.09299588203430176,-0.0016672611236572266
1772574535681240000,9.033239990234375,0.15156936645507812,0.05057096481323242,-0.03824800252914429
1772574535691184400,9.043184326171875,0.1819906234741211,0.05483078956604004,-0.060127973556518555
1772574535701118000,9.053117919921876,0.19803237915039062,0.07171332836151123,-0.05820971727371216
1772574535711039000,9.0630390625,0.13877201080322266,0.04432499408721924,-0.01851058006286621
1772574535720941800,9.07294189453125,0.07124996185302734,0.04485821723937988,0.002106606960296631
1772574535730874000,9.0828740234375,0.019001007080078125,0.04046940803527832,-0.01085740327835083
1772574535750724400,9.102724365234375,-0.14849376678466797,-0.056052565574645996,-0.006277978420257568
1772574535770574600,9.12257470703125,-0.2218799591064453,-0.08192253112792969,-0.015486359596252441
1772574535780507000,9.1325068359375,-0.19442176818847656,-0.06705963611602783,0.00534135103225708
1772574535800393500,9.1523935546875,-0.13730144500732422,-0.07677948474884033,0.00794452428817749
1772574535810327600,9.16232763671875,-0.10699844360351562,-0.0690222978591919,0.018683910369873047
1772574535820266200,9.172266357421876,-0.0066986083984375,-0.07953667640686035,0.043353140354156494
1772574535830200800,9.182200927734375,0.030694961547851562,-0.07564568519592285,0.053404271602630615
1772574535840097300,9.19209716796875,-0.012475013732910156,-0.05818212032318115,0.03057640790939331
1772574535850027800,9.20202783203125,-0.0030956268310546875,0.0010819435119628906,0.07377469539642334
1772574535859965000,9.21196484375,0.024932861328125,0.040642738342285156,0.11610928177833557
1772574535869896200,9.221896240234376,0.12775325775146484,0.02820718288421631,0.15781906247138977
1772574535879823400,9.2318232421875,0.2054443359375,0.053108811378479004,-0.05965965986251831
1772574535889754400,9.24175439453125,0.12200736999511719,0.06711685657501221,-0.0040250420570373535
1772574535899711700,9.251711669921875,0.07770252227783203,0.07095825672149658,0.12096497416496277
1772574535909645300,9.261645263671875,0.11417484283447266,0.09822642803192139,0.11177104711532593
1772574535919558400,9.271558349609375,0.07470226287841797,0.10634720325469971,0.05606532096862793
1772574535929490000,9.281489990234375,0.14423465728759766,0.09531760215759277,0.03921598196029663
1772574535939448300,9.2914482421875,0.0809926986694336,0.07866919040679932,0.056034743785858154
1772574535949382700,9.301382568359376,0.05191612243652344,0.07552778720855713,0.025279998779296875
1772574535959311000,9.31131103515625,0.10350418090820312,0.07636284828186035,0.07021075487136841
1772574535969244700,9.32124462890625,0.05074310302734375,0.001494765281677246,0.044311463832855225
1772574535979175400,9.331175537109376,-0.03386402130126953,-0.06841957569122314,-0.11692559719085693
1772574535989108700,9.341108642578124,-0.06524467468261719,-0.07623076438903809,-0.05939817428588867
1772574535999037200,9.351037109375,-0.14326763153076172,-0.022528529167175293,0.01992112398147583
1772574536008970000,9.360969970703126,-0.1446857452392578,-0.011780977249145508,0.018227100372314453
1772574536018903600,9.370903564453124,-0.1178741455078125,-0.02913820743560791,-0.011517584323883057
1772574536028836600,9.380836669921875,-0.2045440673828125,-0.04119694232940674,-0.08274614810943604
1772574536038767600,9.390767578125,-0.2194204330444336,-0.07041800022125244,-0.030539751052856445
1772574536048700400,9.400700439453125,-0.13075637817382812,-0.09785008430480957,-0.008333981037139893
1772574536058602000,9.41060205078125,0.008111953735351562,-0.14321529865264893,-0.03876960277557373
1772574536068531500,9.420531494140626,0.008243560791015625,-0.11301672458648682,-0.07770293951034546
1772574536078471400,9.430471435546876,-0.04355907440185547,-0.059744954109191895,-0.06616795063018799
1772574536088402200,9.440402099609376,-0.08049869537353516,0.0071103572845458984,0.04311096668243408
1772574536098372900,9.450372802734375,-0.06516456604003906,0.02174985408782959,0.02331763505935669
1772574536108307500,9.460307373046875,-0.08309173583984375,0.008283138275146484,0.018360793590545654
1772574536118272300,9.470272216796875,-0.030158042907714844,0.004953622817993164,0.023285329341888428
1772574536128210000,9.4802099609375,0.026576995849609375,-0.00264132022857666,0.028805255889892578
1772574536138062800,9.490062744140625,0.1106863021850586,-0.01950395107269287,0.04002845287322998
1772574536147992000,9.499991943359374,0.23584938049316406,-0.02700483798980713,0.046602070331573486
1772574536157948200,9.5099482421875,0.27438926696777344,-0.021235108375549316,0.02535843849182129
1772574536167880200,9.519880126953124,0.1099700927734375,0.025931119918823242,0.04196882247924805
1772574536177800400,9.529800537109375,-0.0329437255859375,0.04398047924041748,0.09472906589508057
1772574536187731200,9.539731201171875,0.014660835266113281,0.020202040672302246,0.136444091796875
1772574536197681000,9.549680908203126,0.1038818359375,-0.06444406509399414,0.09303891658782959
1772574536207613700,9.55961376953125,0.1353902816772461,-0.09243941307067871,0.06987887620925903
1772574536217539800,9.569539794921875,0.025358200073242188,-0.08367371559143066,0.10346245765686035
1772574536227472000,9.579471923828125,-0.082733154296875,-0.08485782146453857,0.03814232349395752
1772574536237402400,9.58940234375,-0.024252891540527344,-0.08591437339782715,-0.030979156494140625
