time,seconds_elapsed,z,y,x
1772534925031157800,0.05215771484375,-1.021728515625,-0.1477508544921875,-0.1601409912109375
1772534925041174500,0.062174560546875,-1.0637359619140625,-0.1168212890625,-0.19073486328125
1772534925051190500,0.0721904296875,-1.084503173828125,-0.103240966796875,-0.186737060546875
1772534925061207800,0.082207763671875,-1.0909881591796875,-0.115142822265625,-0.1560516357421875
1772534925071224600,0.092224609375,-1.0708770751953125,-0.1343994140625,-0.11236572265625
1772534925081240600,0.102240478515625,-1.05963134765625,-0.157257080078125,-0.0731658935546875
1772534925091257900,0.1122578125,-1.05194091796875,-0.1779937744140625,-0.0505218505859375
1772534925101273900,0.12227392578125,-1.037750244140625,-0.2020263671875,-0.0279998779296875
1772534925111290600,0.13229052734375,-1.00872802734375,-0.22174072265625,-0.012847900390625
1772534925121307600,0.1423076171875,-0.9630889892578125,-0.235626220703125,0.0016326904296875
1772534925131324000,0.152323974609375,-0.91925048828125,-0.24957275390625,0.007354736328125
1772534925141340700,0.162340576171875,-0.8901214599609375,-0.2620086669921875,-0.0033721923828125
1772534925151356700,0.172356689453125,-0.878753662109375,-0.288818359375,-0.0251007080078125
1772534925161373700,0.182373779296875,-0.8812255859375,-0.3107757568359375,-0.035003662109375
1772534925171389700,0.1923896484375,-0.8573760986328125,-0.3177490234375,-0.0381927490234375
1772534925181406700,0.20240673828125,-0.80743408203125,-0.3182830810546875,-0.0453948974609375
1772534925191423700,0.212423828125,-0.75811767578125,-0.3342132568359375,-0.056976318359375
1772534925201439700,0.222439697265625,-0.7552337646484375,-0.351898193359375,-0.062744140625
1772534925211456800,0.232456787109375,-0.793121337890625,-0.3584747314453125,-0.0658111572265625
1772534925221472800,0.24247265625,-0.834930419921875,-0.3542938232421875,-0.06732177734375
1772534925231489500,0.252489501953125,-0.855712890625,-0.3397369384765625,-0.075836181640625
1772534925241506800,0.2625068359375,-0.898590087890625,-0.3192138671875,-0.1092071533203125
1772534925251522800,0.272522705078125,-0.946990966796875,-0.2855682373046875,-0.129791259765625
1772534925261539600,0.28253955078125,-0.9770965576171875,-0.2556610107421875,-0.1255340576171875
1772534925271555600,0.2925556640625,-1.0277862548828125,-0.24139404296875,-0.12109375
1772534925281572600,0.302572509765625,-1.0816650390625,-0.2309722900390625,-0.114837646484375
1772534925291589600,0.312589599609375,-1.0865020751953125,-0.2132110595703125,-0.1128997802734375
1772534925301605600,0.322605712890625,-1.058990478515625,-0.18994140625,-0.1162109375
1772534925311622700,0.33262255859375,-1.0407867431640625,-0.1720123291015625,-0.1232147216796875
1772534925321638700,0.342638671875,-1.0349273681640625,-0.1580963134765625,-0.136383056640625
1772534925331655700,0.35265576171875,-1.0245513916015625,-0.1519927978515625,-0.152496337890625
1772534925341671700,0.362671630859375,-1.0008392333984375,-0.1601104736328125,-0.162689208984375
1772534925351688700,0.372688720703125,-0.9530792236328125,-0.1827545166015625,-0.1687469482421875
1772534925361705700,0.382705810546875,-0.9226837158203125,-0.2079925537109375,-0.2009124755859375
1772534925371721700,0.3927216796875,-0.9283447265625,-0.2174072265625,-0.2280426025390625
1772534925381738800,0.40273876953125,-0.9353179931640625,-0.21734619140625,-0.220367431640625
1772534925391754800,0.412754638671875,-0.9485626220703125,-0.2270660400390625,-0.193511962890625
1772534925401771800,0.422771728515625,-0.9677581787109375,-0.23516845703125,-0.153564453125
1772534925411788800,0.432788818359375,-0.9678497314453125,-0.2278594970703125,-0.144927978515625
1772534925421804500,0.442804443359375,-0.946929931640625,-0.217132568359375,-0.1532135009765625
1772534925431821600,0.452821533203125,-0.9234161376953125,-0.2108917236328125,-0.1575164794921875
1772534925441837800,0.462837890625,-0.903472900390625,-0.1989593505859375,-0.160858154296875
1772534925451854600,0.4728544921875,-0.86968994140625,-0.17755126953125,-0.15960693359375
1772534925461870600,0.48287060546875,-0.8307037353515625,-0.15777587890625,-0.1601409912109375
1772534925471887600,0.4928876953125,-0.8316497802734375,-0.1590118408203125,-0.1420135498046875
1772534925481904600,0.502904541015625,-0.866485595703125,-0.1820068359375,-0.094512939453125
1772534925491920600,0.512920654296875,-0.8889923095703125,-0.2061004638671875,-0.053741455078125
1772534925501937700,0.522937744140625,-0.8900909423828125,-0.234375,-0.0236053466796875
1772534925511953700,0.53295361328125,-0.885528564453125,-0.2450408935546875,-0.022735595703125
1772534925521970700,0.542970703125,-0.8650970458984375,-0.24920654296875,-0.039825439453125
1772534925531987700,0.55298779296875,-0.8572235107421875,-0.248138427734375,-0.0531463623046875
1772534925542003700,0.563003662109375,-0.8589019775390625,-0.255859375,-0.0555267333984375
1772534925552020700,0.573020751953125,-0.8803558349609375,-0.2731781005859375,-0.02447509765625
1772534925562036700,0.58303662109375,-0.8996734619140625,-0.3165283203125,0.032012939453125
1772534925572053800,0.5930537109375,-0.8954925537109375,-0.3255462646484375,0.060211181640625
1772534925582069800,0.60306982421875,-0.864105224609375,-0.290130615234375,0.06134033203125
1772534925592086800,0.613086669921875,-0.8475189208984375,-0.2276153564453125,0.0225067138671875
1772534925602103800,0.623103759765625,-0.8465728759765625,-0.1522216796875,-0.0448760986328125
1772534925612119600,0.63311962890625,-0.83489990234375,-0.1071624755859375,-0.0969696044921875
1772534925622136600,0.643136474609375,-0.821319580078125,-0.0958709716796875,-0.1132354736328125
1772534925632152800,0.65315283203125,-0.8270111083984375,-0.1146697998046875,-0.101837158203125
1772534925642169600,0.663169677734375,-0.8695526123046875,-0.1509246826171875,-0.0767364501953125
1772534925652186600,0.6731865234375,-0.9232330322265625,-0.169342041015625,-0.05010986328125
1772534925662202600,0.68320263671875,-0.9568328857421875,-0.1666717529296875,-0.027313232421875
1772534925672219600,0.6932197265625,-0.9459381103515625,-0.1708221435546875,-0.0087127685546875
1772534925682235600,0.703235595703125,-0.9398193359375,-0.1604766845703125,-0.0293731689453125
1772534925692252700,0.713252685546875,-0.9208831787109375,-0.134429931640625,-0.0899658203125
1772534925702268700,0.7232685546875,-0.899566650390625,-0.127410888671875,-0.1124267578125
1772534925712285700,0.73328564453125,-0.8841552734375,-0.15350341796875,-0.0994873046875
1772534925722302700,0.743302734375,-0.902191162109375,-0.1837921142578125,-0.0396728515625
1772534925732318700,0.753318603515625,-0.925140380859375,-0.206817626953125,-0.0160980224609375
1772534925742335700,0.763335693359375,-0.97137451171875,-0.220184326171875,-0.0066986083984375
1772534925752351700,0.773351806640625,-1.02447509765625,-0.21392822265625,-0.0254058837890625
1772534925762368800,0.78336865234375,-1.0139312744140625,-0.1715087890625,-0.06787109375
1772534925772385500,0.793385498046875,-0.976043701171875,-0.150177001953125,-0.10382080078125
1772534925782401800,0.80340185546875,-0.9778289794921875,-0.15789794921875,-0.1127166748046875
1772534925792418800,0.813418701171875,-1.0153045654296875,-0.1600494384765625,-0.1053009033203125
1772534925802434600,0.8234345703125,-1.05078125,-0.1501922607421875,-0.110198974609375
1772534925812451600,0.83345166015625,-1.0864105224609375,-0.156036376953125,-0.102813720703125
1772534925822467800,0.8434677734375,-1.1225738525390625,-0.1753387451171875,-0.10980224609375
1772534925832484600,0.853484619140625,-1.1237030029296875,-0.1791229248046875,-0.123687744140625
1772534925842501600,0.863501708984375,-1.1451568603515625,-0.1853179931640625,-0.113128662109375
1772534925852517600,0.873517578125,-1.199615478515625,-0.19146728515625,-0.1102142333984375
1772534925862534700,0.88353466796875,-1.215240478515625,-0.181732177734375,-0.109588623046875
1772534925872550700,0.893550537109375,-1.2455902099609375,-0.1839599609375,-0.121185302734375
1772534925882567700,0.903567626953125,-1.2550506591796875,-0.1766510009765625,-0.1459808349609375
1772534925892583700,0.913583740234375,-1.24993896484375,-0.148223876953125,-0.1791534423828125
1772534925902600700,0.9236005859375,-1.2498779296875,-0.1246490478515625,-0.19891357421875
1772534925912617700,0.93361767578125,-1.2482147216796875,-0.118408203125,-0.2092132568359375
1772534925922633700,0.9436337890625,-1.2754669189453125,-0.1378326416015625,-0.2053375244140625
1772534925932650800,0.953650634765625,-1.2487640380859375,-0.1474456787109375,-0.18902587890625
1772534925942666800,0.963666748046875,-1.190185546875,-0.1485137939453125,-0.1730194091796875
1772534925952683800,0.973683837890625,-1.1079864501953125,-0.1603240966796875,-0.1568145751953125
1772534925962700500,0.983700439453125,-1.03033447265625,-0.1611328125,-0.149627685546875
1772534925972717000,0.993717041015625,-0.970916748046875,-0.1461029052734375,-0.165130615234375
1772534925982734000,1.003734130859375,-0.9259490966796875,-0.115692138671875,-0.198638916015625
1772534925992750000,1.01375,-0.90069580078125,-0.126617431640625,-0.14630126953125
1772534926002767000,1.02376708984375,-0.9122161865234375,-0.160736083984375,-0.1201019287109375
1772534926012783000,1.033783203125,-0.9497528076171875,-0.1177215576171875,-0.1673431396484375
1772534926022800000,1.0437998046875,-0.9783477783203125,-0.0768890380859375,-0.190216064453125
1772534926032817200,1.053817138671875,-1.0098419189453125,-0.0858306884765625,-0.2078857421875
1772534926042833200,1.063833251953125,-1.0385894775390625,-0.0806732177734375,-0.214752197265625
1772534926052850000,1.073849853515625,-1.0054931640625,-0.0856475830078125,-0.2232818603515625
1772534926062866000,1.083865966796875,-0.9901275634765625,-0.084228515625,-0.252349853515625
1772534926072883200,1.09388330078125,-0.9990692138671875,-0.0712432861328125,-0.2650299072265625
1772534926082899200,1.103899169921875,-0.9768524169921875,-0.07305908203125,-0.260711669921875
1772534926092916000,1.113916015625,-0.92010498046875,-0.057952880859375,-0.321746826171875
1772534926102933200,1.123933349609375,-0.9101715087890625,0.0078887939453125,-0.3458251953125
1772534926112949200,1.13394921875,-0.9120941162109375,-0.103302001953125,-0.1529693603515625
1772534926122966000,1.143966064453125,-0.834808349609375,-0.1766357421875,-0.165313720703125
1772534926132982000,1.15398193359375,-0.8843231201171875,-0.0818023681640625,-0.1798858642578125
1772534926142999300,1.163999267578125,-0.86895751953125,-0.0751190185546875,-0.1625518798828125
1772534926153016000,1.17401611328125,-0.8441009521484375,-0.0742034912109375,-0.18792724609375
1772534926163032000,1.184031982421875,-0.850921630859375,-0.025665283203125,-0.1724395751953125
1772534926173049000,1.194049072265625,-0.8081512451171875,-0.0135650634765625,-0.1619873046875
1772534926183065000,1.204065185546875,-0.7811737060546875,-0.014678955078125,-0.130767822265625
1772534926193082000,1.21408203125,-0.7368316650390625,-0.00433349609375,-0.107513427734375
1772534926203098000,1.22409814453125,-0.700714111328125,0.045928955078125,-0.193450927734375
1772534926213115000,1.234114990234375,-0.6802215576171875,0.1168212890625,-0.223388671875
1772534926223132200,1.244132080078125,-0.7419281005859375,0.046051025390625,-0.0377044677734375
1772534926233148200,1.254148193359375,-0.696136474609375,-0.017486572265625,-0.07928466796875
1772534926243165000,1.2641650390625,-0.73590087890625,0.093658447265625,-0.2275543212890625
1772534926253181000,1.274180908203125,-0.7531890869140625,0.1632843017578125,-0.220367431640625
1772534926263198200,1.2841982421875,-0.812591552734375,-0.00970458984375,-0.106414794921875
1772534926273214200,1.294214111328125,-0.8180999755859375,-0.1171875,-0.20147705078125
1772534926283231000,1.30423095703125,-0.9067230224609375,-0.1031341552734375,-0.300506591796875
1772534926293248300,1.314248291015625,-1.14117431640625,-0.06646728515625,-0.33953857421875
1772534926303264300,1.32426416015625,-1.478912353515625,-0.032989501953125,-0.35113525390625
1772534926313281000,1.334281005859375,-1.849517822265625,-0.0142059326171875,-0.3948974609375
1772534926323297000,1.344297119140625,-1.95574951171875,0.084808349609375,-0.5697174072265625
1772534926337070000,1.358070068359375,-2.168304443359375,0.349365234375,-0.818328857421875
1772534926347086000,1.368086181640625,-2.2453155517578125,0.394439697265625,-1.0456085205078125
1772534926357103000,1.37810302734375,-2.1707305908203125,0.3358612060546875,-1.226776123046875
1772534926367120100,1.3881201171875,-2.1334686279296875,0.248291015625,-1.1985015869140625
1772534926377135900,1.398135986328125,-2.2088165283203125,0.082489013671875,-1.05963134765625
1772534926387153200,1.408153076171875,-2.34588623046875,-0.05712890625,-0.8442535400390625
1772534926397169200,1.418169189453125,-2.44677734375,-0.0521697998046875,-0.680999755859375
1772534926407186000,1.42818603515625,-2.4833526611328125,0.123687744140625,-0.62811279296875
1772534926417202000,1.438201904296875,-2.4084930419921875,0.2442169189453125,-0.5672607421875
1772534926427219200,1.44821923828125,-2.2201995849609375,0.142120361328125,-0.4972686767578125
1772534926437236000,1.458236083984375,-1.90911865234375,-0.111419677734375,-0.5742340087890625
1772534926447252000,1.468251953125,-1.6389923095703125,-0.302032470703125,-0.6944580078125
1772534926457269200,1.478269287109375,-1.442169189453125,-0.436614990234375,-0.6864776611328125
1772534926467285200,1.48828515625,-1.25616455078125,-0.41741943359375,-0.4779205322265625
1772534926477302000,1.498302001953125,-1.110443115234375,-0.360809326171875,-0.2106781005859375
1772534926487318000,1.508318115234375,-1.074188232421875,-0.3370513916015625,-0.0467529296875
1772534926497335000,1.5183349609375,-1.039947509765625,-0.19073486328125,-0.0131378173828125
1772534926507352000,1.52835205078125,-0.9890594482421875,-0.0204010009765625,-0.036590576171875
1772534926517368000,1.5383681640625,-0.9705047607421875,0.0817718505859375,-0.047576904296875
1772534926527385000,1.548385009765625,-0.7835235595703125,0.1699981689453125,-0.0249786376953125
1772534926537401000,1.558401123046875,-0.52691650390625,0.25286865234375,0.014404296875
1772534926547418000,1.568418212890625,-0.4193878173828125,0.2872314453125,-0.009765625
1772534926557434000,1.57843408203125,-0.2472991943359375,0.322540283203125,-0.0181732177734375
1772534926567451000,1.588450927734375,0.0031890869140625,0.3165130615234375,-0.029693603515625
1772534926577468200,1.59846826171875,0.1641082763671875,0.2555999755859375,-0.0451507568359375
1772534926587484200,1.608484130859375,0.2808837890625,0.2751617431640625,0.12030029296875
1772534926597501000,1.6185009765625,0.4105682373046875,0.317535400390625,0.230865478515625
1772534926607517000,1.628516845703125,0.46044921875,0.2551116943359375,0.2601776123046875
1772534926617534200,1.6385341796875,0.478485107421875,0.219512939453125,0.293609619140625
1772534926627550200,1.64855029296875,0.43487548828125,0.2366180419921875,0.30914306640625
1772534926637567000,1.65856689453125,0.3628692626953125,0.2201385498046875,0.312286376953125
1772534926647584000,1.668583984375,0.2884979248046875,0.20001220703125,0.29962158203125
1772534926657600300,1.678600341796875,0.196197509765625,0.2085723876953125,0.2895660400390625
1772534926667617000,1.688616943359375,0.0997467041015625,0.1973876953125,0.2627410888671875
1772534926677633000,1.698633056640625,0.001983642578125,0.163360595703125,0.2044677734375
1772534926687650000,1.708650146484375,-0.0701446533203125,0.159637451171875,0.1497039794921875
1772534926697667000,1.7186669921875,-0.0894927978515625,0.155364990234375,0.1170501708984375
1772534926707683000,1.72868310546875,-0.0765533447265625,0.1065673828125,0.0813140869140625
1772534926717700000,1.7387001953125,-0.0391387939453125,0.0748138427734375,0.0687255859375
1772534926727716000,1.748716064453125,-0.009857177734375,0.071990966796875,0.077484130859375
1772534926737733000,1.758733154296875,-0.0022735595703125,0.0537261962890625,0.0865631103515625
1772534926747749000,1.7687490234375,-0.02392578125,0.0194854736328125,0.0915679931640625
1772534926757766000,1.778765869140625,-0.0674285888671875,-0.0087890625,0.0888671875
1772534926767783200,1.788783203125,-0.1081390380859375,-0.0264892578125,0.0340423583984375
1772534926777799200,1.798799072265625,-0.1275787353515625,-0.025634765625,-0.065460205078125
1772534926787816000,1.80881591796875,-0.195404052734375,-0.0176849365234375,-0.1630706787109375
1772534926797832000,1.81883203125,-0.300689697265625,-0.0312957763671875,-0.206085205078125
1772534926807849200,1.82884912109375,-0.4102020263671875,-0.0836639404296875,-0.2054290771484375
1772534926817865200,1.838865234375,-0.5432586669921875,-0.1502838134765625,-0.1605072021484375
1772534926827882000,1.848882080078125,-0.745330810546875,-0.1884918212890625,-0.189727783203125
1772534926837899000,1.85889892578125,-1.0254364013671875,-0.2220001220703125,-0.2490692138671875
1772534926847915300,1.868915283203125,-1.3093719482421875,-0.26953125,-0.3082122802734375
1772534926857932000,1.87893212890625,-1.62451171875,-0.3236846923828125,-0.387664794921875
1772534926867948000,1.888947998046875,-1.9883575439453125,-0.43682861328125,-0.494384765625
1772534926877965000,1.898965087890625,-2.3312530517578125,-0.5615997314453125,-0.5554656982421875
1772534926887981000,1.90898095703125,-2.64312744140625,-0.6398468017578125,-0.7205963134765625
1772534926897998000,1.918998046875,-2.9256134033203125,-0.522247314453125,-1.0901336669921875
1772534926908015000,1.92901513671875,-3.1005401611328125,-0.31317138671875,-1.4959716796875
1772534926918031000,1.939031005859375,-3.30926513671875,-0.1659088134765625,-1.758575439453125
1772534926928048000,1.949048095703125,-3.4807891845703125,-0.1043701171875,-1.8099212646484375
1772534926938064100,1.959064208984375,-3.47613525390625,-0.111328125,-1.6447601318359375
1772534926948081000,1.969080810546875,-3.3401641845703125,-0.1443634033203125,-1.332733154296875
1772534926958097000,1.979096923828125,-3.1003265380859375,-0.156097412109375,-1.021026611328125
1772534926968114200,1.9891142578125,-2.8339996337890625,-0.144317626953125,-0.7923583984375
1772534926978131000,1.999130859375,-2.5782318115234375,-0.104766845703125,-0.62225341796875
1772534926988147000,2.00914697265625,-2.32012939453125,-0.0810089111328125,-0.4481964111328125
1772534926998164000,2.0191640625,-2.1324615478515625,-0.0960845947265625,-0.286712646484375
1772534927008180000,2.029179931640625,-1.9952545166015625,-0.10009765625,-0.2296142578125
1772534927018197000,2.039197021484375,-1.7967376708984375,-0.019378662109375,-0.2800750732421875
1772534927028213000,2.049212890625,-1.5403289794921875,0.0612335205078125,-0.3134918212890625
1772534927038230000,2.05922998046875,-1.32452392578125,0.0707244873046875,-0.3527374267578125
1772534927048246800,2.069246826171875,-1.0851898193359375,0.08477783203125,-0.42279052734375
1772534927058263000,2.079262939453125,-0.802459716796875,0.09625244140625,-0.5321197509765625
1772534927068280000,2.089280029296875,-0.5118865966796875,0.078125,-0.60955810546875
1772534927078296000,2.099296142578125,-0.2332000732421875,-0.0059356689453125,-0.65936279296875
1772534927088312800,2.109312744140625,0.0385589599609375,-0.1453857421875,-0.69622802734375
1772534927098329000,2.1193291015625,0.277191162109375,-0.1631927490234375,-0.6322021484375
1772534927108346000,2.12934619140625,0.4816131591796875,-0.1074676513671875,-0.470794677734375
1772534927118361900,2.13936181640625,0.639892578125,-0.123870849609375,-0.2701263427734375
1772534927128379000,2.14937890625,0.7088165283203125,-0.1859130859375,-0.0829925537109375
1772534927138396000,2.15939599609375,0.7389678955078125,-0.2215728759765625,0.0116424560546875
1772534927148412000,2.169411865234375,0.77398681640625,-0.2006988525390625,0.0194549560546875
1772534927158429000,2.179428955078125,0.7679595947265625,-0.1513824462890625,0.02032470703125
1772534927168445000,2.18944482421875,0.6533966064453125,-0.125518798828125,0.047943115234375
1772534927178462000,2.1994619140625,0.485321044921875,-0.117950439453125,0.0881195068359375
1772534927188479000,2.20947900390625,0.3238067626953125,-0.1116790771484375,0.1273651123046875
1772534927198495000,2.219494873046875,0.1944732666015625,-0.095916748046875,0.163818359375
1772534927208511700,2.22951171875,0.078704833984375,-0.0448455810546875,0.2089996337890625
1772534927218528000,2.239528076171875,-0.0475921630859375,0.0012664794921875,0.2322998046875
1772534927228545000,2.249544921875,-0.157501220703125,0.0408172607421875,0.237945556640625
1772534927238561000,2.25956103515625,-0.20330810546875,0.0738525390625,0.2372894287109375
1772534927248577800,2.269577880859375,-0.2527923583984375,0.068756103515625,0.2310638427734375
1772534927258594000,2.279593994140625,-0.33050537109375,0.044586181640625,0.1878204345703125
1772534927268611000,2.289611083984375,-0.3785552978515625,0.0564422607421875,0.1249847412109375
1772534927278627800,2.2996279296875,-0.3600311279296875,0.072601318359375,0.0677947998046875
1772534927288643800,2.309643798828125,-0.3065185546875,0.0544281005859375,0.02362060546875
1772534927298661000,2.3196611328125,-0.25933837890625,0.03167724609375,-0.0204315185546875
1772534927308676900,2.3296767578125,-0.2259979248046875,0.0073699951171875,-0.050079345703125
1772534927318694000,2.33969384765625,-0.2190704345703125,-0.039459228515625,-0.072174072265625
1772534927328710000,2.3497099609375,-0.242218017578125,-0.0816192626953125,-0.102508544921875
1772534927338727000,2.359726806640625,-0.2880859375,-0.0835723876953125,-0.1459808349609375
1772534927348744000,2.369743896484375,-0.3656463623046875,-0.069122314453125,-0.1744384765625
1772534927358760000,2.379760009765625,-0.4216156005859375,-0.0606689453125,-0.1660003662109375
1772534927368777000,2.38977685546875,-0.4290313720703125,-0.0776214599609375,-0.1689300537109375
1772534927378793000,2.39979296875,-0.4318695068359375,-0.0818634033203125,-0.1786346435546875
1772534927388810000,2.40981005859375,-0.51519775390625,-0.0966339111328125,-0.16845703125
1772534927398826000,2.419825927734375,-0.73468017578125,-0.179351806640625,-0.1464691162109375
1772534927408843000,2.429843017578125,-1.0315399169921875,-0.25726318359375,-0.152679443359375
1772534927418860000,2.439860107421875,-1.346771240234375,-0.3195037841796875,-0.14654541015625
1772534927428876000,2.4498759765625,-1.62335205078125,-0.41363525390625,-0.17901611328125
1772534927438892800,2.459892822265625,-1.912689208984375,-0.4866485595703125,-0.2766571044921875
1772534927448909000,2.469908935546875,-2.1460723876953125,-0.5245208740234375,-0.392425537109375
1772534927458926000,2.479926025390625,-2.4068756103515625,-0.5262908935546875,-0.5373687744140625
1772534927468941800,2.48994189453125,-2.7545928955078125,-0.4574737548828125,-0.6464080810546875
1772534927478958800,2.499958740234375,-3.080169677734375,-0.4274444580078125,-0.79412841796875
1772534927488976100,2.50997607421875,-3.3676300048828125,-0.3508758544921875,-1.186279296875
1772534927498991900,2.519991943359375,-3.672088623046875,-0.1352691650390625,-1.64111328125
1772534927509009000,2.5300087890625,-4.0071258544921875,-0.00238037109375,-1.8199615478515625
1772534927519025000,2.54002490234375,-4.30047607421875,-0.0220947265625,-1.7087554931640625
1772534927529042000,2.5500419921875,-4.24395751953125,0.0186004638671875,-1.3971099853515625
1772534927539058000,2.560057861328125,-3.8456573486328125,-0.0189666748046875,-0.9733428955078125
1772534927549075000,2.570074951171875,-3.3476715087890625,-0.1424407958984375,-0.657135009765625
1772534927559092000,2.580092041015625,-2.867523193359375,-0.1778564453125,-0.510711669921875
1772534927569108000,2.59010791015625,-2.4151153564453125,-0.2300262451171875,-0.426055908203125
1772534927579125000,2.600125,-1.963287353515625,-0.2532196044921875,-0.40478515625
1772534927589141000,2.61014111328125,-1.5048980712890625,-0.1727142333984375,-0.466583251953125
1772534927599158000,2.620157958984375,-1.1237945556640625,-0.07708740234375,-0.5616455078125
1772534927609174000,2.630174072265625,-0.9017791748046875,-0.0724639892578125,-0.6450347900390625
1772534927619191000,2.64019091796875,-0.6894989013671875,-0.0726470947265625,-0.696319580078125
1772534927629207800,2.650207763671875,-0.43988037109375,-0.0411376953125,-0.6884918212890625
1772534927639224000,2.66022412109375,-0.104400634765625,0.01092529296875,-0.5869140625
1772534927649241000,2.670240966796875,0.2501068115234375,0.014739990234375,-0.4268341064453125
1772534927659256800,2.6802568359375,0.5426025390625,0.0111846923828125,-0.2899017333984375
1772534927669273900,2.69027392578125,0.77587890625,0.04779052734375,-0.173980712890625
1772534927679290000,2.7002900390625,0.9299163818359375,0.0876312255859375,-0.0109100341796875
1772534927689307000,2.710306884765625,0.92181396484375,0.063446044921875,0.1259918212890625
1772534927699323000,2.720322998046875,0.918701171875,0.0878448486328125,0.16192626953125
1772534927709340000,2.73033984375,0.8212432861328125,0.1395263671875,0.1858062744140625
1772534927719357000,2.74035693359375,0.6266326904296875,0.1107177734375,0.205718994140625
1772534927729373000,2.750373046875,0.477874755859375,0.082183837890625,0.187896728515625
1772534927739390000,2.760389892578125,0.359375,0.098388671875,0.138458251953125
1772534927749406000,2.770406005859375,0.25531005859375,0.0718231201171875,0.0641021728515625
1772534927759423000,2.780423095703125,0.207305908203125,0.0428009033203125,-0.038421630859375
1772534927769439000,2.79043896484375,0.2089691162109375,-0.00152587890625,-0.1065673828125
1772534927779456000,2.8004560546875,0.2429656982421875,-0.0563812255859375,-0.1305389404296875
1772534927789473000,2.81047314453125,0.2671356201171875,-0.081787109375,-0.126556396484375
1772534927799489000,2.820489013671875,0.240234375,-0.0868072509765625,-0.1186676025390625
1772534927809506000,2.830506103515625,0.1849365234375,-0.1049346923828125,-0.08367919921875
1772534927819521800,2.840521728515625,0.118194580078125,-0.1373138427734375,-0.033782958984375
1772534927829539000,2.8505390625,0.0604095458984375,-0.151153564453125,-0.00909423828125
1772534927839555000,2.86055517578125,0.020660400390625,-0.134033203125,0.0082855224609375
1772534927849571800,2.87057177734375,-0.046417236328125,-0.11102294921875,0.024017333984375
1772534927859587800,2.880587890625,-0.1596527099609375,-0.11737060546875,0.0235748291015625
1772534927869605000,2.890605224609375,-0.292999267578125,-0.112518310546875,0.014984130859375
1772534927879622000,2.900621826171875,-0.4033355712890625,-0.0777587890625,0.034088134765625
1772534927889638000,2.910637939453125,-0.5135040283203125,-0.0715484619140625,0.0298004150390625
1772534927899655000,2.920655029296875,-0.5743408203125,-0.069000244140625,-0.0084991455078125
1772534927909671000,2.9306708984375,-0.4858245849609375,-0.0538787841796875,-0.030242919921875
1772534927919688000,2.94068798828125,-0.3552398681640625,-0.0518798828125,-0.011138916015625
1772534927929704000,2.950703857421875,-0.2583465576171875,-0.1078033447265625,0.0154571533203125
1772534927939721000,2.960720947265625,-0.1758575439453125,-0.1527557373046875,0.027923583984375
1772534927949738000,2.970738037109375,-0.1110382080078125,-0.1688690185546875,0.0247344970703125
1772534927959754000,2.98075390625,-0.158447265625,-0.1739349365234375,-0.002838134765625
1772534927969771000,2.99077099609375,-0.22607421875,-0.2098388671875,-0.019012451171875
1772534927979786800,3.000786865234375,-0.4410552978515625,-0.235504150390625,-0.003570556640625
1772534927989803800,3.0108037109375,-0.84869384765625,-0.2881317138671875,-0.0280609130859375
1772534927999819800,3.02081982421875,-1.3253936767578125,-0.366058349609375,-0.12286376953125
1772534928009836800,3.0308369140625,-1.771942138671875,-0.395294189453125,-0.144378662109375
1772534928019853800,3.040853759765625,-2.1441497802734375,-0.421722412109375,-0.0266571044921875
1772534928029869800,3.050869873046875,-2.4416656494140625,-0.5303802490234375,0.0988922119140625
1772534928039886600,3.060886474609375,-2.717132568359375,-0.7733917236328125,0.213348388671875
1772534928049902600,3.070902587890625,-3.387420654296875,-1.0336456298828125,0.184478759765625
1772534928059920000,3.080919921875,-4.2640838623046875,-1.063232421875,-0.2406463623046875
1772534928069935900,3.090935791015625,-4.9673919677734375,-0.8767852783203125,-1.10638427734375
1772534928079952600,3.10095263671875,-5.382843017578125,-0.472991943359375,-2.062042236328125
1772534928089968600,3.11096875,-5.42840576171875,-0.285552978515625,-2.373138427734375
1772534928099986000,3.12098583984375,-5.215118408203125,-0.5655059814453125,-2.0756988525390625
1772534928110002700,3.131002685546875,-4.7087554931640625,-0.6139678955078125,-1.73785400390625
1772534928120018700,3.141018798828125,-3.997344970703125,-0.2930450439453125,-1.5057220458984375
1772534928130035700,3.15103564453125,-3.3446807861328125,-0.060516357421875,-1.190185546875
1772534928140052000,3.161052001953125,-2.771484375,0.059539794921875,-0.7624664306640625
1772534928150068700,3.17106884765625,-2.179718017578125,0.1511993408203125,-0.3082733154296875
1772534928160084700,3.181084716796875,-1.5260162353515625,0.21551513671875,0.0971527099609375
1772534928170101800,3.191101806640625,-0.867401123046875,0.2062225341796875,0.3266143798828125
1772534928180118800,3.201118896484375,-0.3069000244140625,0.23193359375,0.25927734375
1772534928190134800,3.211134765625,0.161651611328125,0.3548431396484375,0.033477783203125
1772534928200151800,3.22115185546875,0.5181732177734375,0.4463653564453125,-0.1568145751953125
1772534928210167600,3.23116748046875,0.7541961669921875,0.453033447265625,-0.2306365966796875
1772534928220184800,3.241184814453125,0.94403076171875,0.3668670654296875,-0.2468719482421875
1772534928230200800,3.251200927734375,1.05126953125,0.2444610595703125,-0.260101318359375
1772534928240217600,3.261217529296875,1.103118896484375,0.247772216796875,-0.2364654541015625
1772534928250233600,3.271233642578125,1.0757598876953125,0.2353973388671875,-0.171966552734375
1772534928260251000,3.2812509765625,1.046966552734375,0.227630615234375,-0.2645111083984375
1772534928270267600,3.291267578125,0.9895782470703125,0.29248046875,-0.291290283203125
1772534928280283600,3.30128369140625,0.8911895751953125,0.2751617431640625,-0.2537384033203125
1772534928290301000,3.311301025390625,0.808074951171875,0.202362060546875,-0.1890869140625
1772534928300317000,3.32131689453125,0.70635986328125,0.1429901123046875,-0.1537017822265625
1772534928310333700,3.331333740234375,0.589630126953125,0.1284942626953125,-0.121826171875
1772534928320349700,3.341349609375,0.452301025390625,0.1417388916015625,-0.085418701171875
1772534928330367000,3.351366943359375,0.31475830078125,0.1274261474609375,-0.019744873046875
1772534928340383700,3.3613837890625,0.221282958984375,0.0663604736328125,0.088134765625
1772534928350399700,3.371399658203125,0.158782958984375,-0.01397705078125,0.1458282470703125
1772534928360416800,3.381416748046875,0.0544281005859375,-0.0474700927734375,0.1072845458984375
1772534928370432800,3.391432861328125,-0.0550994873046875,-0.0156402587890625,0.059417724609375
1772534928380449800,3.40144970703125,-0.1244049072265625,-0.005462646484375,0.053741455078125
1772534928390465800,3.4114658203125,-0.161346435546875,-0.0615692138671875,0.04534912109375
1772534928400482600,3.421482666015625,-0.1542510986328125,-0.1242218017578125,-0.015594482421875
1772534928410498800,3.431498779296875,-0.165283203125,-0.1511383056640625,-0.098052978515625
1772534928420515800,3.441515869140625,-0.16937255859375,-0.19580078125,-0.1835784912109375
1772534928430532600,3.45153271484375,-0.28009033203125,-0.176300048828125,-0.1739349365234375
1772534928440548600,3.461548583984375,-0.4900054931640625,-0.1861419677734375,-0.0987396240234375
1772534928450566000,3.47156591796875,-0.6927032470703125,-0.180267333984375,-0.0180206298828125
1772534928460582000,3.481581787109375,-0.75384521484375,-0.174041748046875,-0.001556396484375
1772534928470598700,3.4915986328125,-0.7310791015625,-0.1932525634765625,-0.0606842041015625
1772534928480614700,3.50161474609375,-0.75933837890625,-0.181427001953125,-0.0967559814453125
1772534928490632000,3.5116318359375,-0.7425537109375,-0.1623687744140625,-0.071624755859375
1772534928500648700,3.521648681640625,-0.668304443359375,-0.18292236328125,-0.0042266845703125
1772534928510664700,3.531664794921875,-0.6194000244140625,-0.204376220703125,0.061187744140625
1772534928520682000,3.541681884765625,-0.461334228515625,-0.2386322021484375,0.085296630859375
1772534928530697700,3.55169775390625,-0.317352294921875,-0.285888671875,0.137847900390625
1772534928540714800,3.56171484375,-0.253662109375,-0.357940673828125,0.1503448486328125
1772534928550730800,3.571730712890625,-0.3249664306640625,-0.38543701171875,0.154388427734375
1772534928560747500,3.58174755859375,-0.58233642578125,-0.4221649169921875,0.1557464599609375
1772534928570763800,3.591763671875,-0.895172119140625,-0.4697265625,0.1176910400390625
1772534928580780800,3.60178076171875,-1.1573944091796875,-0.456787109375,-0.0301666259765625
1772534928590797600,3.611797607421875,-1.3351898193359375,-0.355621337890625,-0.2323760986328125
1772534928600813600,3.6218134765625,-1.463043212890625,-0.255859375,-0.3888397216796875
1772534928610830800,3.631830810546875,-1.53662109375,-0.176910400390625,-0.4568328857421875
1772534928620846800,3.641846923828125,-1.5359649658203125,-0.1740264892578125,-0.359619140625
1772534928630863600,3.651863525390625,-1.87115478515625,-0.354339599609375,-0.0207061767578125
1772534928640879600,3.661879638671875,-2.782958984375,-0.440887451171875,0.194915771484375
1772534928650897000,3.67189697265625,-3.76715087890625,-0.4957122802734375,0.3888092041015625
1772534928660913700,3.68191357421875,-5.200347900390625,-0.564666748046875,0.5276947021484375
1772534928670929700,3.6919296875,-6.068145751953125,0.028289794921875,-0.161407470703125
1772534928680947000,3.701947021484375,-5.8307037353515625,0.8519134521484375,-1.2407073974609375
1772534928690962700,3.711962646484375,-5.261962890625,1.0061187744140625,-1.58111572265625
1772534928700979700,3.721979736328125,-4.31500244140625,0.6551055908203125,-1.1686553955078125
1772534928710995700,3.73199560546875,-3.3003997802734375,0.3775177001953125,-0.6685791015625
1772534928721012700,3.7420126953125,-2.404998779296875,0.2306060791015625,-0.3099517822265625
1772534928731028700,3.75202880859375,-1.8117218017578125,0.0728759765625,-0.0435333251953125
1772534928741045800,3.762045654296875,-1.3869781494140625,-0.070953369140625,0.04205322265625
1772534928751062500,3.7720625,-1.0377655029296875,-0.1704254150390625,-0.0094146728515625
1772534928761078800,3.782078857421875,-0.814727783203125,-0.2194061279296875,-0.1497650146484375
1772534928771095800,3.792095703125,-0.7147216796875,-0.20135498046875,-0.3782806396484375
1772534928781111800,3.80211181640625,-0.56884765625,-0.139007568359375,-0.58868408203125
1772534928791128600,3.812128662109375,-0.36083984375,-0.0645751953125,-0.656463623046875
1772534928801144800,3.822144775390625,-0.187225341796875,-0.0770263671875,-0.598846435546875
1772534928811161900,3.832161865234375,-0.123779296875,-0.0925140380859375,-0.5641021728515625
1772534928821177600,3.842177490234375,-0.0015411376953125,-0.0067596435546875,-0.4822998046875
1772534928831194600,3.852194580078125,0.2255401611328125,0.03436279296875,-0.3555145263671875
1772534928841212000,3.8622119140625,0.4434051513671875,0.008056640625,-0.22119140625
1772534928851227600,3.8722275390625,0.59173583984375,0.0289764404296875,-0.1189727783203125
1772534928861244700,3.88224462890625,0.6613311767578125,0.058349609375,-0.0705413818359375
1772534928871260700,3.8922607421875,0.645721435546875,0.085174560546875,-0.081695556640625
1772534928881277700,3.902277587890625,0.5557861328125,0.0928192138671875,-0.104522705078125
1772534928891293700,3.912293701171875,0.3837127685546875,0.05792236328125,-0.11383056640625
1772534928901310700,3.922310791015625,0.191375732421875,-0.0051116943359375,-0.11895751953125
1772534928911326700,3.93232666015625,0.0533599853515625,-0.03265380859375,-0.1244964599609375
1772534928921343700,3.94234375,0.008026123046875,-0.0095062255859375,-0.13824462890625
1772534928931360800,3.95236083984375,0.005615234375,-0.0143890380859375,-0.1340179443359375
1772534928941376800,3.962376708984375,0.046356201171875,-0.0510406494140625,-0.1130218505859375
1772534928951393800,3.972393798828125,0.0651397705078125,-0.06573486328125,-0.0800323486328125
1772534928961409800,3.982409912109375,-0.00665283203125,-0.078826904296875,-0.0432891845703125
1772534928971426800,3.9924267578125,-0.0820465087890625,-0.0961456298828125,-0.0503997802734375
1772534928981443000,4.002443115234375,-0.0311126708984375,-0.087615966796875,-0.097076416015625
1772534928991460000,4.012460205078125,-0.190338134765625,-0.04913330078125,-0.0754547119140625
1772534929001476400,4.022476318359375,-0.3443145751953125,-0.0129547119140625,-0.0593414306640625
1772534929011493000,4.0324931640625,-0.3043212890625,0.0043792724609375,-0.034393310546875
1772534929021510100,4.04251025390625,-0.2361907958984375,0.013946533203125,0.0233612060546875
1772534929031526100,4.052526123046875,-0.1614990234375,-0.024169921875,0.038787841796875
1772534929041543200,4.062543212890625,-0.107635498046875,-0.0489349365234375,0.0251312255859375
1772534929051559200,4.07255908203125,-0.135894775390625,-0.0345611572265625,0.0472412109375
1772534929061576200,4.082576171875,-0.181304931640625,-0.04498291015625,0.0661163330078125
1772534929071592200,4.09259228515625,-0.236419677734375,-0.039459228515625,0.0567779541015625
1772534929081609200,4.102609130859375,-0.3070220947265625,-0.0043792724609375,0.037109375
1772534929091625200,4.112625244140625,-0.3753509521484375,0.0096588134765625,0.0184783935546875
1772534929101642200,4.122642333984375,-0.4157257080078125,-0.01263427734375,0.003448486328125
1772534929111659300,4.1326591796875,-0.438995361328125,-0.0554962158203125,-0.0359039306640625
1772534929121675300,4.14267529296875,-0.4494171142578125,-0.0778350830078125,-0.0879364013671875
1772534929131692300,4.1526923828125,-0.4743804931640625,-0.106903076171875,-0.134368896484375
1772534929141708000,4.1627080078125,-0.60595703125,-0.1560516357421875,-0.1963043212890625
1772534929151725300,4.172725341796875,-0.824432373046875,-0.1992340087890625,-0.2465972900390625
1772534929161741300,4.1827412109375,-1.0943450927734375,-0.2424468994140625,-0.2716827392578125
1772534929171758000,4.192758056640625,-1.381927490234375,-0.3052520751953125,-0.2637786865234375
1772534929181774000,4.202774169921875,-1.683319091796875,-0.35662841796875,-0.2267608642578125
1772534929191791400,4.212791259765625,-2.0602569580078125,-0.3809356689453125,-0.190338134765625
1772534929201808100,4.22280810546875,-2.660919189453125,-0.3851318359375,-0.1259918212890625
1772534929211824000,4.23282421875,-3.3989715576171875,-0.302734375,-0.1883697509765625
1772534929221841200,4.242841064453125,-4.0769500732421875,-0.1508636474609375,-0.3842315673828125
1772534929231857400,4.252857421875,-4.689544677734375,-0.0320587158203125,-0.6229248046875
1772534929241874200,4.262874267578125,-5.198333740234375,0.073516845703125,-0.9620819091796875
1772534929251890200,4.27289013671875,-5.3372039794921875,0.0760498046875,-1.1262664794921875
1772534929261907200,4.2829072265625,-5.119781494140625,0.0029296875,-0.931549072265625
1772534929271923200,4.292923095703125,-4.54052734375,-0.0137939453125,-0.5287933349609375
1772534929281940200,4.302940185546875,-3.7883453369140625,0.0235443115234375,-0.1780548095703125
1772534929291957200,4.312957275390625,-3.0658416748046875,0.038726806640625,0.00958251953125
1772534929301973000,4.322972900390625,-2.470672607421875,0.006683349609375,0.049591064453125
1772534929311990300,4.332990234375,-2.017730712890625,-0.0514373779296875,0.0007781982421875
1772534929322006300,4.34300634765625,-1.65203857421875,-0.0772705078125,-0.1026763916015625
1772534929332023000,4.35302294921875,-1.32769775390625,-0.115692138671875,-0.277374267578125
1772534929342039000,4.3630390625,-1.003021240234375,-0.116790771484375,-0.619232177734375
1772534929352056300,4.373056396484375,-0.5799560546875,0.0379180908203125,-0.948028564453125
1772534929362072300,4.383072265625,-0.1610107421875,0.169342041015625,-0.9925079345703125
1772534929372089000,4.393089111328125,0.11663818359375,0.151153564453125,-0.75579833984375
1772534929382106400,4.4031064453125,0.2887115478515625,0.074066162109375,-0.3778839111328125
1772534929392122400,4.413122314453125,0.3961029052734375,0.076202392578125,-0.052825927734375
1772534929402139100,4.42313916015625,0.4641265869140625,0.1428680419921875,0.1586456298828125
1772534929412155100,4.433155029296875,0.511749267578125,0.1889495849609375,0.2863006591796875
1772534929422172400,4.44317236328125,0.582672119140625,0.24322509765625,0.345703125
1772534929432188200,4.453188232421875,0.6435546875,0.2911529541015625,0.3410186767578125
1772534929442205200,4.463205078125,0.6448211669921875,0.28289794921875,0.2980194091796875
1772534929452221200,4.47322119140625,0.618743896484375,0.2540130615234375,0.2480926513671875
1772534929462238200,4.48323828125,0.585205078125,0.2520294189453125,0.20416259765625
1772534929472255200,4.493255126953125,0.5265960693359375,0.2281341552734375,0.1716461181640625
1772534929482271200,4.503271240234375,0.4425048828125,0.1759490966796875,0.1509857177734375
1772534929492288000,4.5132880859375,0.319488525390625,0.12506103515625,0.10089111328125
1772534929502304300,4.52330419921875,0.2005462646484375,0.0869140625,0.029815673828125
1772534929512321300,4.5333212890625,0.130828857421875,0.07305908203125,-0.0261993408203125
1772534929522337300,4.543337158203125,0.092376708984375,0.0680999755859375,-0.0435791015625
1772534929532354000,4.55335400390625,0.055511474609375,0.0447540283203125,-0.0301971435546875
1772534929542370000,4.5633701171875,0.0117645263671875,0.0283660888671875,-0.0085601806640625
1772534929552387300,4.57338720703125,-0.0301361083984375,0.0086212158203125,0.0147705078125
1772534929562403300,4.5834033203125,-0.0762786865234375,-0.0362701416015625,0.04046630859375
1772534929572420000,4.593420166015625,-0.150390625,-0.078521728515625,0.04681396484375
1772534929582437400,4.603437255859375,-0.228759765625,-0.12335205078125,0.0128936767578125
1772534929592453000,4.613453125,-0.2319183349609375,-0.233154296875,-0.0849151611328125
1772534929602470100,4.62347021484375,-0.2235565185546875,-0.29083251953125,-0.1793975830078125
1772534929612486100,4.633486083984375,-0.2391357421875,-0.3432769775390625,-0.2376556396484375
1772534929622503200,4.643503173828125,-0.3270416259765625,-0.3217010498046875,-0.224761962890625
1772534929632519200,4.653519287109375,-0.4618072509765625,-0.2510833740234375,-0.1831512451171875
1772534929642536200,4.6635361328125,-0.524383544921875,-0.2239227294921875,-0.153564453125
1772534929652552200,4.67355224609375,-0.4980926513671875,-0.223114013671875,-0.129913330078125
1772534929662569200,4.6835693359375,-0.4442901611328125,-0.2158355712890625,-0.122894287109375
1772534929672586200,4.693586181640625,-0.389007568359375,-0.2032012939453125,-0.133697509765625
1772534929682602200,4.703602294921875,-0.319976806640625,-0.19110107421875,-0.1219329833984375
1772534929692619000,4.713618896484375,-0.2454833984375,-0.1925201416015625,-0.100799560546875
1772534929702635300,4.72363525390625,-0.188507080078125,-0.2185516357421875,-0.0801544189453125
1772534929712652300,4.73365234375,-0.1790313720703125,-0.2850799560546875,-0.0542755126953125
1772534929722668300,4.743668212890625,-0.2616729736328125,-0.344085693359375,-0.0528564453125
1772534929732685000,4.75368505859375,-0.420074462890625,-0.3880767822265625,-0.0806884765625
1772534929742701300,4.763701416015625,-0.6616973876953125,-0.412750244140625,-0.118408203125
1772534929752718300,4.77371826171875,-1.0471038818359375,-0.4069061279296875,-0.1850433349609375
1772534929762734000,4.783734130859375,-1.5595855712890625,-0.363189697265625,-0.3190765380859375
1772534929772751000,4.793751220703125,-2.2053375244140625,-0.2751007080078125,-0.48748779296875
1772534929782768000,4.80376806640625,-2.8383636474609375,-0.2077178955078125,-0.507293701171875
1772534929797792300,4.818792236328125,-3.674285888671875,-0.4464111328125,-0.1611480712890625
1772534929807809000,4.82880908203125,-4.44580078125,-0.5737152099609375,-0.2609710693359375
1772534929817826300,4.838826416015625,-5.0504150390625,-0.4386749267578125,-0.7838897705078125
1772534929827842300,4.84884228515625,-5.4954986572265625,-0.1608734130859375,-1.4674224853515625
1772534929837859000,4.858859130859375,-5.517547607421875,0.336700439453125,-2.1594696044921875
1772534929847875000,4.868875,-4.9339447021484375,0.6569366455078125,-2.1431732177734375
1772534929857892400,4.878892333984375,-4.0780792236328125,0.5259857177734375,-1.3056182861328125
1772534929867908400,4.888908447265625,-3.2157440185546875,0.44598388671875,-0.34930419921875
1772534929877925000,4.898925048828125,-2.5573577880859375,0.5576171875,0.239959716796875
1772534929887941000,4.908941162109375,-2.097991943359375,0.49298095703125,0.5831146240234375
1772534929897958400,4.91895849609375,-1.8058929443359375,0.326507568359375,0.7078399658203125
1772534929907974100,4.92897412109375,-1.55767822265625,0.2261962890625,0.53204345703125
1772534929917991200,4.9389912109375,-1.2848052978515625,0.1242523193359375,0.0741119384765625
1772534929928008200,4.94900830078125,-0.9163360595703125,0.0710296630859375,-0.55694580078125
1772534929938024200,4.959024169921875,-0.492401123046875,0.12457275390625,-1.1402435302734375
1772534929948041200,4.969041259765625,-0.0741729736328125,0.171783447265625,-1.436248779296875
1772534929958057200,4.97905712890625,0.2277984619140625,0.035858154296875,-1.321746826171875
1772534929968074000,4.989073974609375,0.3535919189453125,-0.17559814453125,-0.9627532958984375
1772534929978089200,4.999089111328125,0.36444091796875,-0.2230072021484375,-0.53369140625
1772534929988106200,5.009106201171875,0.3638763427734375,-0.14776611328125,-0.213165283203125
1772534929998122200,5.019122314453125,0.3994903564453125,-0.097625732421875,-0.02093505859375
1772534930008139300,5.02913916015625,0.3888397216796875,-0.0648193359375,0.1039886474609375
1772534930018155300,5.0391552734375,0.3600311279296875,-0.0123443603515625,0.1372222900390625
1772534930028172300,5.04917236328125,0.3399658203125,0.04541015625,0.118133544921875
1772534930038189300,5.059189208984375,0.3000335693359375,0.0498504638671875,0.0388031005859375
1772534930048205300,5.069205322265625,0.283416748046875,0.0386810302734375,-0.059112548828125
1772534930058222300,5.079222412109375,0.2814788818359375,0.0460052490234375,-0.138336181640625
1772534930068238300,5.08923828125,0.2649993896484375,0.020782470703125,-0.1949615478515625
1772534930078255400,5.09925537109375,0.26861572265625,-0.0228424072265625,-0.231414794921875
1772534930088271400,5.109271240234375,0.305419921875,-0.0517730712890625,-0.233612060546875
1772534930098288400,5.119288330078125,0.3458251953125,-0.073699951171875,-0.1966705322265625
1772534930108304400,5.129304443359375,0.35247802734375,-0.0929718017578125,-0.126220703125
1772534930118321400,5.1393212890625,0.2986602783203125,-0.1087646484375,-0.0536956787109375
1772534930128338400,5.14933837890625,0.196319580078125,-0.10540771484375,-0.005706787109375
1772534930138354200,5.159354248046875,0.065582275390625,-0.0715484619140625,0.032989501953125
1772534930148371200,5.16937109375,-0.0996551513671875,-0.0509796142578125,0.06817626953125
1772534930158387500,5.179387451171875,-0.27984619140625,-0.06622314453125,0.0795440673828125
1772534930168404200,5.189404296875,-0.4274139404296875,-0.075836181640625,0.035675048828125
1772534930178420200,5.199420166015625,-0.50067138671875,-0.031036376953125,-0.02850341796875
1772534930188437200,5.209437255859375,-0.509796142578125,-0.0088958740234375,-0.0485992431640625
1772534930198453500,5.21945361328125,-0.4693756103515625,-0.0489044189453125,-0.036956787109375
1772534930208470300,5.22947021484375,-0.3412322998046875,-0.1186981201171875,-0.053375244140625
1772534930218486300,5.239486328125,-0.2281036376953125,-0.1245880126953125,-0.089691162109375
1772534930228503300,5.24950341796875,-0.222320556640625,-0.1121673583984375,-0.1190185546875
1772534930238520300,5.259520263671875,-0.2374725341796875,-0.1271820068359375,-0.1423492431640625
1772534930248536300,5.269536376953125,-0.240081787109375,-0.1259613037109375,-0.162689208984375
1772534930258553300,5.27955322265625,-0.1983795166015625,-0.107330322265625,-0.1608428955078125
1772534930268569300,5.2895693359375,-0.12591552734375,-0.1086578369140625,-0.1142425537109375
1772534930278586400,5.29958642578125,-0.0772552490234375,-0.1375579833984375,-0.0715179443359375
1772534930288602400,5.309602294921875,-0.037750244140625,-0.158447265625,-0.0381317138671875
1772534930298619400,5.319619384765625,-0.0228424072265625,-0.2027435302734375,-0.007659912109375
1772534930309261300,5.33026123046875,-0.094482421875,-0.2840728759765625,-0.0520782470703125
1772534930319278300,5.3402783203125,-0.2478790283203125,-0.36669921875,-0.1403656005859375
1772534930329294000,5.350294189453125,-0.4507904052734375,-0.4566192626953125,-0.242645263671875
1772534930339311400,5.360311279296875,-0.712066650390625,-0.53363037109375,-0.404571533203125
1772534930349328400,5.370328369140625,-1.013885498046875,-0.6189727783203125,-0.522674560546875
1772534930359344000,5.38034423828125,-1.3166046142578125,-0.7421875,-0.4543914794921875
1772534930369361400,5.390361328125,-1.6558380126953125,-0.9973602294921875,-0.1165008544921875
1772534930379377400,5.40037744140625,-2.192413330078125,-1.2937164306640625,0.1492767333984375
1772534930389394200,5.410394287109375,-2.9762725830078125,-1.25811767578125,-0.1665191650390625
1772534930399410200,5.42041015625,-3.747467041015625,-1.05682373046875,-0.8177947998046875
1772534930409427500,5.430427490234375,-4.602996826171875,-0.72314453125,-1.6645050048828125
1772534930419443500,5.440443359375,-5.1033782958984375,-0.1488800048828125,-2.780426025390625
1772534930429460200,5.450460205078125,-4.9739532470703125,0.4468841552734375,-3.5172882080078125
1772534930439477200,5.460477294921875,-4.423309326171875,0.63555908203125,-3.2640380859375
1772534930449493500,5.470493408203125,-3.9620208740234375,0.499664306640625,-2.2689208984375
1772534930459510300,5.48051025390625,-3.3798828125,0.50921630859375,-1.2952117919921875
1772534930469526300,5.4905263671875,-2.86663818359375,0.6853790283203125,-0.658599853515625
1772534930479543300,5.500543212890625,-2.5180511474609375,0.71722412109375,-0.230621337890625
1772534930489559300,5.510559326171875,-2.2868499755859375,0.5769500732421875,0.0834808349609375
1772534930499576300,5.520576416015625,-2.1226959228515625,0.4005126953125,0.207122802734375
1772534930509592300,5.53059228515625,-1.8492889404296875,0.263397216796875,0.108123779296875
1772534930519609000,5.540609130859375,-1.581512451171875,0.172332763671875,-0.1602325439453125
1772534930529625300,5.550625244140625,-1.3045196533203125,0.25408935546875,-0.4160614013671875
1772534930539642400,5.560642333984375,-1.05853271484375,0.2975006103515625,-0.4423828125
1772534930549658400,5.570658447265625,-0.7895965576171875,0.1902008056640625,-0.34375
1772534930559675100,5.580675048828125,-0.513946533203125,0.1403961181640625,-0.26263427734375
1772534930569692400,5.5906923828125,-0.224334716796875,0.2183685302734375,-0.2171173095703125
1772534930579708400,5.60070849609375,0.0909881591796875,0.2950897216796875,-0.1676025390625
1772534930589725200,5.61072509765625,0.3862762451171875,0.2966461181640625,-0.0958709716796875
1772534930599741200,5.6207412109375,0.658203125,0.2571868896484375,-0.048187255859375
1772534930609758500,5.630758544921875,0.9174346923828125,0.2346038818359375,-0.0518951416015625
1772534930619774500,5.6407744140625,1.1136627197265625,0.2225799560546875,-0.0820465087890625
1772534930629791200,5.650791259765625,1.1977081298828125,0.2150115966796875,-0.07818603515625
1772534930639807200,5.66080712890625,1.1179351806640625,0.192291259765625,0.010528564453125
1772534930649824300,5.67082421875,0.883636474609375,0.140045166015625,0.1414031982421875
1772534930659841300,5.68084130859375,0.6067657470703125,0.1072845458984375,0.2321624755859375
1772534930669857300,5.690857177734375,0.3678131103515625,0.09039306640625,0.2654266357421875
1772534930679874300,5.700874267578125,0.1713409423828125,0.0558013916015625,0.2193756103515625
1772534930689890300,5.710890380859375,-0.000762939453125,0.0597686767578125,0.0897216796875
1772534930699907300,5.7209072265625,-0.0962677001953125,0.1227569580078125,-0.0194549560546875
1772534930709923300,5.73092333984375,-0.0654144287109375,0.1440887451171875,-0.0845947265625
1772534930719940400,5.7409404296875,0.0000152587890625,0.0938720703125,-0.1251678466796875
1772534930729956400,5.750956298828125,0.054718017578125,0.02520751953125,-0.1400146484375
1772534930739973400,5.760973388671875,0.0971832275390625,-0.0041046142578125,-0.1514129638671875
1772534930749990100,5.770990234375,0.110992431640625,-0.023468017578125,-0.1845245361328125
1772534930760006400,5.78100634765625,0.107208251953125,-0.0352783203125,-0.1886138916015625
1772534930770023400,5.7910234375,0.1044769287109375,-0.0482635498046875,-0.142364501953125
1772534930780039400,5.801039306640625,0.0643157958984375,-0.0876007080078125,-0.1078033447265625
1772534930790056200,5.81105615234375,-0.033111572265625,-0.13092041015625,-0.1343231201171875
1772534930800072400,5.821072509765625,-0.141845703125,-0.1432342529296875,-0.2063446044921875
1772534930810089500,5.83108935546875,-0.192535400390625,-0.1385345458984375,-0.2796173095703125
1772534930820105200,5.841105224609375,-0.1602935791015625,-0.1376953125,-0.3227386474609375
1772534930830122200,5.851122314453125,-0.086883544921875,-0.1824493408203125,-0.2801361083984375
1772534930840138500,5.861138427734375,-0.0503997802734375,-0.295379638671875,-0.185211181640625
1772534930850155300,5.8711552734375,-0.093963623046875,-0.4026031494140625,-0.1046905517578125
1772534930860172300,5.88117236328125,-0.1711578369140625,-0.45904541015625,-0.0694427490234375
1772534930870188300,5.891188232421875,-0.282623291015625,-0.4944915771484375,-0.0880584716796875
1772534930880205300,5.901205322265625,-0.49853515625,-0.5262908935546875,-0.1847686767578125
1772534930890221300,5.91122119140625,-0.73760986328125,-0.584625244140625,-0.273773193359375
1772534930900238300,5.92123828125,-0.986846923828125,-0.6278076171875,-0.342559814453125
1772534930910254300,5.93125439453125,-1.301116943359375,-0.6504058837890625,-0.3738861083984375
1772534930920271400,5.941271240234375,-1.62890625,-0.695556640625,-0.3493499755859375
1772534930930287400,5.951287353515625,-1.9783172607421875,-0.780670166015625,-0.2948455810546875
1772534930949068300,5.970068359375,-2.8067626953125,-1.0959930419921875,-0.19586181640625
1772534930959085300,5.980085205078125,-3.1974029541015625,-1.0164794921875,-0.432373046875
1772534930969101300,5.990101318359375,-3.7115936279296875,-0.813079833984375,-0.810638427734375
1772534930979118000,6.0001181640625,-4.65557861328125,-0.5543365478515625,-1.1425628662109375
1772534930989134300,6.01013427734375,-5.433380126953125,-0.100250244140625,-1.575897216796875
1772534930999151000,6.020151123046875,-5.414093017578125,0.3947906494140625,-1.8297271728515625
1772534931009167000,6.0301669921875,-4.8739166259765625,0.4405517578125,-1.495208740234375
1772534931019184000,6.04018408203125,-4.0846099853515625,0.219146728515625,-0.8206024169921875
1772534931029200400,6.050200439453125,-3.34661865234375,0.117156982421875,-0.3237152099609375
1772534931039217200,6.060217041015625,-2.820220947265625,0.069793701171875,-0.13677978515625
1772534931049234200,6.070234130859375,-2.4148101806640625,0.0185089111328125,-0.2159423828125
1772534931059250200,6.080250244140625,-2.0558624267578125,0.0515899658203125,-0.4637603759765625
1772534931069267200,6.09026708984375,-1.6594390869140625,0.1319122314453125,-0.7332611083984375
1772534931079283200,6.100283203125,-1.2477264404296875,0.1352996826171875,-0.914825439453125
1772534931089300200,6.11030029296875,-0.953460693359375,0.13787841796875,-0.962005615234375
1772534931099316200,6.120316162109375,-0.7930908203125,0.155517578125,-0.8788604736328125
1772534931109333200,6.130333251953125,-0.7192535400390625,0.2225189208984375,-0.7218780517578125
1772534931119349200,6.140349365234375,-0.657135009765625,0.3728485107421875,-0.502105712890625
1772534931129366300,6.1503662109375,-0.595306396484375,0.4617919921875,-0.2252655029296875
1772534931139382000,6.160382080078125,-0.515594482421875,0.441497802734375,0.049072265625
1772534931149399300,6.1703994140625,-0.33740234375,0.4015655517578125,0.295928955078125
1772534931159416300,6.180416259765625,-0.0351104736328125,0.358306884765625,0.4872283935546875
1772534931169432000,6.19043212890625,0.3213653564453125,0.345367431640625,0.5335235595703125
1772534931179449000,6.200448974609375,0.6144866943359375,0.388458251953125,0.4440460205078125
1772534931189465300,6.21046533203125,0.77593994140625,0.405609130859375,0.3209075927734375
1772534931199482000,6.220482177734375,0.8003997802734375,0.3616943359375,0.2218170166015625
1772534931209498000,6.230498046875,0.741790771484375,0.288421630859375,0.16680908203125
1772534931219515100,6.24051513671875,0.6456756591796875,0.2086639404296875,0.1220245361328125
1772534931229531400,6.250531494140625,0.5167999267578125,0.1681671142578125,0.06341552734375
1772534931239548200,6.260548095703125,0.4116058349609375,0.183837890625,0.050811767578125
1772534931249564200,6.270564208984375,0.311492919921875,0.2055206298828125,0.1103057861328125
1772534931259581200,6.280581298828125,0.188720703125,0.19586181640625,0.2076416015625
1772534931269597200,6.29059716796875,0.0912322998046875,0.1639404296875,0.280029296875
1772534931279614200,6.3006142578125,0.0347747802734375,0.132476806640625,0.26336669921875
1772534931289631200,6.31063134765625,0.0180816650390625,0.114654541015625,0.201690673828125
1772534931299647000,6.32064697265625,0.0072479248046875,0.0835113525390625,0.12615966796875
1772534931309664300,6.330664306640625,-0.002471923828125,0.0540313720703125,0.047027587890625
1772534931319680300,6.34068017578125,0.0093994140625,0.0210113525390625,-0.0003814697265625
1772534931329697000,6.350697021484375,-0.006561279296875,-0.0360260009765625,-0.0072174072265625
1772534931339713000,6.360713134765625,-0.05657958984375,-0.0896148681640625,0.0015716552734375
1772534931349730300,6.370730224609375,-0.120330810546875,-0.12335205078125,-0.005157470703125
1772534931359746300,6.380746337890625,-0.1712799072265625,-0.150482177734375,-0.036529541015625
1772534931369763000,6.39076318359375,-0.18170166015625,-0.18194580078125,-0.0953216552734375
1772534931379779000,6.400779052734375,-0.1772918701171875,-0.20074462890625,-0.1688690185546875
1772534931389796400,6.41079638671875,-0.175537109375,-0.20050048828125,-0.2217559814453125
1772534931399812000,6.42081201171875,-0.1612701416015625,-0.1989593505859375,-0.251129150390625
1772534931409829000,6.4308291015625,-0.106842041015625,-0.2677154541015625,-0.2777557373046875
1772534931419846400,6.440846435546875,-0.1282501220703125,-0.31414794921875,-0.2680511474609375
1772534931429862100,6.450862060546875,-0.2457427978515625,-0.300750732421875,-0.2493133544921875
1772534931439879200,6.460879150390625,-0.3066253662109375,-0.33111572265625,-0.3236846923828125
1772534931449895200,6.470895263671875,-0.296844482421875,-0.3304290771484375,-0.3929901123046875
1772534931459912200,6.480912109375,-0.2894134521484375,-0.3098602294921875,-0.445159912109375
1772534931469928200,6.49092822265625,-0.3436126708984375,-0.341796875,-0.488739013671875
1772534931479945200,6.5009453125,-0.425384521484375,-0.4439544677734375,-0.507476806640625
1772534931489961200,6.510961181640625,-0.52410888671875,-0.5394744873046875,-0.470489501953125
1772534931499978200,6.520978271484375,-0.757568359375,-0.638458251953125,-0.379302978515625
1772534931509994200,6.530994140625,-1.1986236572265625,-0.720062255859375,-0.2877044677734375
1772534931520011300,6.54101123046875,-1.6483154296875,-0.8151702880859375,-0.2215118408203125
1772534931530028000,6.551028076171875,-2.1505584716796875,-1.0222625732421875,-0.169158935546875
1772534931540044300,6.561044189453125,-2.7301025390625,-1.072540283203125,-0.0523834228515625
1772534931550061300,6.571061279296875,-3.1925201416015625,-0.9707794189453125,0.0574951171875
1772534931560077300,6.581077392578125,-3.7945098876953125,-0.817840576171875,0.05816650390625
1772534931570094000,6.591093994140625,-4.8424072265625,-0.6070709228515625,-0.2363739013671875
1772534931580110300,6.6011103515625,-5.7897186279296875,0.06903076171875,-0.9860992431640625
1772534931590127000,6.611127197265625,-6.0759735107421875,0.81988525390625,-1.5116119384765625
1772534931600143000,6.62114306640625,-5.570892333984375,0.760284423828125,-1.3738861083984375
1772534931610160000,6.63116015625,-4.2935333251953125,0.2913970947265625,-0.9051361083984375
1772534931620176400,6.64117626953125,-3.010528564453125,0.1219024658203125,-0.5167694091796875
1772534931630193200,6.651193115234375,-2.10321044921875,0.04864501953125,-0.2342529296875
1772534931640209200,6.661209228515625,-1.701019287109375,-0.012481689453125,0.053985595703125
1772534931650226200,6.67122607421875,-1.58843994140625,-0.052093505859375,0.281219482421875
1772534931660243200,6.6812431640625,-1.587615966796875,-0.0079498291015625,0.2474365234375
1772534931670259200,6.69125927734375,-1.5620269775390625,0.0965576171875,0.0509490966796875
1772534931680276200,6.701276123046875,-1.50115966796875,0.19598388671875,-0.1497955322265625
1772534931690292200,6.711292236328125,-1.4942779541015625,0.1412506103515625,-0.2994232177734375
1772534931700309200,6.721309326171875,-1.438873291015625,0.037200927734375,-0.4972991943359375
1772534931710325200,6.7313251953125,-1.2418212890625,0.036224365234375,-0.6798553466796875
1772534931720342300,6.74134228515625,-0.9495849609375,0.0446319580078125,-0.713104248046875
1772534931730358000,6.75135791015625,-0.615203857421875,0.017303466796875,-0.6066131591796875
1772534931740375300,6.761375244140625,-0.2929840087890625,0.0194244384765625,-0.438507080078125
1772534931750391300,6.771391357421875,0.0115203857421875,0.0821075439453125,-0.239532470703125
1772534931760408000,6.781407958984375,0.2936248779296875,0.1530609130859375,-0.0130767822265625
1772534931770424000,6.791424072265625,0.51806640625,0.16229248046875,0.17999267578125
1772534931780441300,6.80144140625,0.662567138671875,0.149871826171875,0.264892578125
1772534931790458000,6.8114580078125,0.6985015869140625,0.1651458740234375,0.2326812744140625
1772534931800474000,6.82147412109375,0.619232177734375,0.19384765625,0.1351318359375
1772534931810491100,6.8314912109375,0.4587249755859375,0.173553466796875,0.0579833984375
1772534931820507400,6.84150732421875,0.322357177734375,0.132781982421875,-0.0133209228515625
1772534931830524200,6.851524169921875,0.2640380859375,0.1322784423828125,-0.1268157958984375
1772534931840540200,6.8615400390625,0.3041534423828125,0.157958984375,-0.228240966796875
1772534931850557200,6.87155712890625,0.375457763671875,0.1344451904296875,-0.2434539794921875
1772534931860573200,6.8815732421875,0.438720703125,0.0866241455078125,-0.2136688232421875
1772534931870590200,6.891590087890625,0.518096923828125,0.052642822265625,-0.186004638671875
1772534931880606200,6.901606201171875,0.538482666015625,0.020050048828125,-0.1460723876953125
1772534931890623000,6.911623046875,0.486602783203125,-0.00079345703125,-0.099151611328125
1772534931900639200,6.92163916015625,0.3646392822265625,0.0030975341796875,-0.043121337890625
1772534931910656300,6.93165625,0.216888427734375,0.001556396484375,-0.006683349609375
1772534931920673000,6.941673095703125,0.0776824951171875,-0.00091552734375,0.013336181640625
1772534931930689000,6.95168896484375,-0.0462188720703125,-0.0106353759765625,0.02099609375
1772534931940706300,6.961706298828125,-0.133636474609375,-0.0216217041015625,0.0296630859375
1772534931950722300,6.971722412109375,-0.1828765869140625,-0.01898193359375,0.065582275390625
1772534931960739000,6.981739013671875,-0.1918792724609375,-0.0403594970703125,0.112457275390625
1772534931970755000,6.991755126953125,-0.182830810546875,-0.093505859375,0.141448974609375
1772534931980772600,7.001772705078125,-0.1697540283203125,-0.1463470458984375,0.1295166015625
1772534931990788400,7.011788330078125,-0.1372528076171875,-0.194854736328125,0.0804443359375
1772534932000805600,7.0218056640625,-0.0983428955078125,-0.2677001953125,0.032135009765625
1772534932010821600,7.031821533203125,-0.0739288330078125,-0.33477783203125,-0.0419921875
1772534932020838400,7.04183837890625,-0.08782958984375,-0.317596435546875,-0.1119384765625
1772534932030854400,7.0518544921875,-0.185760498046875,-0.32635498046875,-0.0878753662109375
1772534932040871700,7.06187158203125,-0.3533782958984375,-0.41204833984375,-0.033111572265625
1772534932050887700,7.0718876953125,-0.5684967041015625,-0.4548492431640625,-0.0118408203125
1772534932060904400,7.081904541015625,-0.8008575439453125,-0.500274658203125,-0.0377349853515625
1772534932070921700,7.091921630859375,-1.0742034912109375,-0.568206787109375,-0.1379241943359375
1772534932080937700,7.101937744140625,-1.4410400390625,-0.646636962890625,-0.21185302734375
1772534932090954500,7.11195458984375,-1.8441314697265625,-0.756011962890625,-0.2240447998046875
1772534932100970500,7.121970458984375,-2.119842529296875,-0.8425445556640625,-0.3007049560546875
1772534932110987800,7.13198779296875,-2.1990814208984375,-0.8423004150390625,-0.45208740234375
1772534932121003500,7.14200341796875,-2.3486175537109375,-0.8636474609375,-0.492431640625
1772534932131020500,7.1520205078125,-2.77191162109375,-0.73675537109375,-0.533782958984375
1772534932141036500,7.16203662109375,-3.3433074951171875,-0.5105438232421875,-0.537994384765625
1772534932151053600,7.172053466796875,-4.2078399658203125,-0.4995574951171875,-0.4175262451171875
1772534932161069600,7.182069580078125,-5.0282745361328125,-0.2775115966796875,-0.586151123046875
1772534932171086600,7.192086669921875,-5.175872802734375,0.1495208740234375,-0.925933837890625
1772534932181102600,7.2021025390625,-4.7960968017578125,0.256439208984375,-0.959564208984375
1772534932191119600,7.21211962890625,-3.9790191650390625,0.082275390625,-0.66156005859375
1772534932201136600,7.22213671875,-3.1989593505859375,-0.12567138671875,-0.3247222900390625
1772534932211152600,7.232152587890625,-2.4870452880859375,-0.20318603515625,-0.0968017578125
1772534932221169400,7.24216943359375,-1.996368408203125,-0.2415618896484375,0.0290985107421875
1772534932231185700,7.252185546875,-1.6153717041015625,-0.277496337890625,0.071380615234375
1772534932241202700,7.26220263671875,-1.2872161865234375,-0.345611572265625,-0.000885009765625
1772534932251218400,7.272218505859375,-1.0225830078125,-0.4124908447265625,-0.14801025390625
1772534932261235500,7.2822353515625,-0.748291015625,-0.40869140625,-0.3550872802734375
1772534932271251700,7.292251708984375,-0.51739501953125,-0.352630615234375,-0.6308441162109375
1772534932281268500,7.3022685546875,-0.4340362548828125,-0.251861572265625,-0.727996826171875
1772534932291284500,7.312284423828125,-0.4512176513671875,-0.22991943359375,-0.638458251953125
1772534932301301500,7.322301513671875,-0.38232421875,-0.2588348388671875,-0.4957122802734375
1772534932311317800,7.33231787109375,-0.24481201171875,-0.1980133056640625,-0.3672637939453125
1772534932321334500,7.34233447265625,-0.1365814208984375,-0.1243743896484375,-0.220428466796875
1772534932331350500,7.3523505859375,-0.0417022705078125,-0.120330810546875,-0.0464935302734375
1772534932341367600,7.362367431640625,0.032745361328125,-0.1490936279296875,0.091278076171875
1772534932351384600,7.372384521484375,0.0976104736328125,-0.0809783935546875,0.1764984130859375
1772534932361400600,7.382400634765625,0.15386962890625,-0.0578460693359375,0.18804931640625
1772534932371417600,7.39241748046875,0.2311859130859375,-0.0909423828125,0.1558380126953125
1772534932381433600,7.40243359375,0.2645263671875,-0.0704345703125,0.1313018798828125
1772534932391450600,7.41245068359375,0.2778778076171875,-0.080963134765625,0.1301422119140625
1772534932401466600,7.422466552734375,0.253326416015625,-0.0940093994140625,0.1154632568359375
1772534932411483600,7.432483642578125,0.1601104736328125,-0.06927490234375,0.07470703125
1772534932421499400,7.44249951171875,0.04913330078125,-0.027557373046875,0.058807373046875
1772534932431516700,7.4525166015625,-0.0280609130859375,-0.0213165283203125,0.0423431396484375
1772534932441532700,7.46253271484375,-0.064697265625,-0.0286102294921875,0.0040130615234375
1772534932451549400,7.472549560546875,-0.0996551513671875,-0.026763916015625,-0.0181732177734375
1772534932461565400,7.4825654296875,-0.16845703125,-0.0174102783203125,-0.0274200439453125
1772534932471582700,7.492582763671875,-0.1957244873046875,-0.022216796875,-0.022064208984375
1772534932481598700,7.5025986328125,-0.137115478515625,-0.021759033203125,0.0310516357421875
1772534932491615500,7.512615478515625,-0.0897979736328125,-0.01922607421875,0.0572967529296875
1772534932501632800,7.5226328125,-0.058807373046875,-0.036895751953125,0.0376434326171875
1772534932511648800,7.532648681640625,-0.0479583740234375,-0.041778564453125,0.04376220703125
1772534932521665500,7.54266552734375,-0.070831298828125,-0.0301666259765625,0.065673828125
1772534932531681500,7.552681640625,-0.14947509765625,-0.014984130859375,0.0861968994140625
1772534932541698600,7.562698486328125,-0.2281341552734375,0.0069732666015625,0.1180877685546875
1772534932551714600,7.572714599609375,-0.3067169189453125,0.0123748779296875,0.125579833984375
1772534932561731600,7.582731689453125,-0.392486572265625,-0.0059967041015625,0.1077117919921875
1772534932571747600,7.59274755859375,-0.4602813720703125,-0.04998779296875,0.0753631591796875
1772534932581764400,7.602764404296875,-0.525543212890625,-0.103302001953125,0.0518341064453125
1772534932591780600,7.612780517578125,-0.5689239501953125,-0.1319122314453125,0.0499420166015625
1772534932601797600,7.622797607421875,-0.5753173828125,-0.1186370849609375,0.0773468017578125
1772534932611813600,7.632813720703125,-0.5808563232421875,-0.04083251953125,0.0877838134765625
1772534932621830400,7.642830322265625,-0.6975860595703125,-0.0715179443359375,0.0705413818359375
1772534932631846700,7.6528466796875,-1.00531005859375,-0.204803466796875,0.0393218994140625
1772534932641863700,7.66286376953125,-1.2622833251953125,-0.416107177734375,-0.0605926513671875
1772534932651880400,7.67288037109375,-1.31817626953125,-0.534942626953125,-0.2166748046875
1772534932661896400,7.682896484375,-1.6359100341796875,-0.512451171875,-0.50341796875
1772534932671913700,7.692913818359375,-2.3975372314453125,-0.372802734375,-0.688812255859375
1772534932681929500,7.702929443359375,-2.391815185546875,-0.204559326171875,-0.5374755859375
1772534932691946500,7.712946533203125,-2.40069580078125,-0.19342041015625,-0.4024200439453125
1772534932701962500,7.72296240234375,-2.62213134765625,-0.1905059814453125,-0.53546142578125
1772534932711979500,7.7329794921875,-2.730621337890625,-0.1537628173828125,-0.6665496826171875
1772534932721995500,7.74299560546875,-2.7906646728515625,-0.2689361572265625,-0.8311767578125
1772534932732012500,7.753012451171875,-2.9826507568359375,-0.1604461669921875,-0.894561767578125
1772534932742028500,7.763028564453125,-3.04449462890625,0.02447509765625,-0.6907196044921875
1772534932752045600,7.773045654296875,-3.0060882568359375,0.055023193359375,-0.463714599609375
1772534932762061600,7.7830615234375,-2.867645263671875,0.0910186767578125,-0.2609405517578125
1772534932772078600,7.79307861328125,-2.5998992919921875,0.0900115966796875,-0.1248321533203125
1772534932782094600,7.803094482421875,-2.3154296875,-0.0116729736328125,-0.0797576904296875
1772534932792111600,7.813111572265625,-1.9632720947265625,-0.118682861328125,-0.0621337890625
1772534932802127600,7.823127685546875,-1.5728912353515625,-0.2584686279296875,-0.1149749755859375
1772534932812144600,7.83314453125,-1.2389678955078125,-0.3638153076171875,-0.2223968505859375
1772534932822161700,7.84316162109375,-1.05615234375,-0.4205169677734375,-0.314453125
1772534932832177700,7.853177734375,-0.847015380859375,-0.424346923828125,-0.4564971923828125
1772534932842194400,7.8631943359375,-0.616851806640625,-0.41656494140625,-0.6165924072265625
1772534932852210400,7.87321044921875,-0.494171142578125,-0.4167327880859375,-0.644775390625
1772534932862227700,7.883227783203125,-0.4138946533203125,-0.4366607666015625,-0.5821990966796875
1772534932872243700,7.89324365234375,-0.390655517578125,-0.406097412109375,-0.477630615234375
1772534932882260500,7.903260498046875,-0.422607421875,-0.2996063232421875,-0.3098907470703125
1772534932892276500,7.9132763671875,-0.439422607421875,-0.2237701416015625,-0.1470184326171875
1772534932902293800,7.923293701171875,-0.3918609619140625,-0.2234954833984375,-0.0476531982421875
1772534932912309800,7.933309814453125,-0.33837890625,-0.21905517578125,0.0027923583984375
1772534932922326500,7.943326416015625,-0.30999755859375,-0.1586456298828125,0.0201416015625
1772534932932342500,7.953342529296875,-0.2586517333984375,-0.090789794921875,0.0268402099609375
1772534932942359800,7.96335986328125,-0.1937103271484375,-0.1044158935546875,0.0248260498046875
1772534932952375600,7.97337548828125,-0.1308441162109375,-0.0955963134765625,0.0406341552734375
1772534932962392600,7.983392578125,-0.075103759765625,-0.0611724853515625,0.0496826171875
1772534932972409600,7.99340966796875,-0.0319671630859375,-0.09552001953125,0.0255889892578125
1772534932982425600,8.003425537109376,0.01995849609375,-0.144012451171875,0.0213623046875
1772534932992442600,8.013442626953125,0.034210205078125,-0.1580352783203125,0.034698486328125
1772534933002459000,8.023458984375,0.054718017578125,-0.1537628173828125,0.047393798828125
1772534933012475600,8.0334755859375,0.05230712890625,-0.1586151123046875,0.0571441650390625
1772534933022491600,8.04349169921875,0.024749755859375,-0.150848388671875,0.0627288818359375
1772534933032508700,8.0535087890625,-0.0373077392578125,-0.120819091796875,0.0618438720703125
1772534933042525000,8.06352490234375,-0.0989837646484375,-0.0969390869140625,0.0550384521484375
1772534933052541700,8.073541748046875,-0.1077423095703125,-0.104644775390625,0.04473876953125
1772534933062557700,8.0835576171875,-0.0676422119140625,-0.1342315673828125,0.0378265380859375
1772534933072574700,8.09357470703125,-0.0175933837890625,-0.178558349609375,0.0362701416015625
1772534933082590500,8.103590576171875,-0.0082244873046875,-0.212615966796875,0.0208892822265625
1772534933092607700,8.113607666015625,-0.0486602783203125,-0.2140350341796875,-0.005401611328125
1772534933102623700,8.123623779296874,-0.0950164794921875,-0.1928863525390625,-0.021484375
1772534933112640500,8.133640625,-0.1002655029296875,-0.169952392578125,-0.0209808349609375
1772534933122656500,8.143656494140625,-0.1349334716796875,-0.1614227294921875,0.0250396728515625
1772534933132673800,8.153673828125,-0.330963134765625,-0.1812286376953125,0.0500640869140625
1772534933142690600,8.163690673828125,-0.552703857421875,-0.2402801513671875,0.0648956298828125
1772534933152706600,8.17370654296875,-0.7525787353515625,-0.3131561279296875,0.09521484375
1772534933162723800,8.183723876953126,-0.9221954345703125,-0.376251220703125,0.0991058349609375
1772534933172739800,8.19373974609375,-1.0568389892578125,-0.4346771240234375,0.1054534912109375
1772534933182756600,8.203756591796875,-1.2001495361328125,-0.492523193359375,0.0785064697265625
1772534933192772600,8.213772705078124,-1.5225677490234375,-0.56658935546875,-0.0027618408203125
1772534933202790000,8.223789794921874,-1.9776611328125,-0.6846160888671875,-0.0698089599609375
1772534933212805600,8.2338056640625,-2.1591644287109375,-0.77081298828125,-0.341217041015625
1772534933222822700,8.24382275390625,-2.367095947265625,-0.6996002197265625,-0.5337982177734375
1772534933232838700,8.253838623046875,-2.447601318359375,-0.5589752197265625,-0.5289459228515625
1772534933242855700,8.263855712890624,-2.4339752197265625,-0.5576934814453125,-0.570404052734375
1772534933252871700,8.27387158203125,-2.4208526611328125,-0.5756988525390625,-0.588958740234375
1772534933262888700,8.283888671875,-2.3109130859375,-0.67840576171875,-0.4435577392578125
1772534933272904700,8.29390478515625,-2.3756561279296875,-0.9521026611328125,-0.2364349365234375
1772534933282921700,8.303921630859374,-2.5331268310546875,-1.0781707763671875,-0.06396484375
1772534933292937700,8.313937744140626,-2.5774688720703125,-0.896820068359375,0.0681304931640625
1772534933302954800,8.323954833984375,-2.70269775390625,-0.6290283203125,0.2256927490234375
1772534933312971500,8.333971435546875,-2.8780364990234375,-0.412689208984375,0.3619537353515625
1772534933322987800,8.34398779296875,-2.8343048095703125,-0.2474517822265625,0.3069000244140625
1772534933333004800,8.3540048828125,-2.60205078125,-0.09539794921875,0.0860443115234375
1772534933343020800,8.364020751953126,-2.364654541015625,-0.0339813232421875,-0.1499786376953125
1772534933353037600,8.37403759765625,-2.0102996826171875,-0.029388427734375,-0.2738037109375
1772534933363053800,8.3840537109375,-1.5360565185546875,-0.0666961669921875,-0.3187713623046875
1772534933373070600,8.394070556640624,-1.0811004638671875,-0.142913818359375,-0.3470916748046875
1772534933383086600,8.404086669921876,-0.7740478515625,-0.18804931640625,-0.32373046875
1772534933393103600,8.414103515625,-0.5754241943359375,-0.1911163330078125,-0.2858123779296875
1772534933403119900,8.424119873046875,-0.3730621337890625,-0.1439971923828125,-0.2753143310546875
1772534933413136600,8.43413671875,-0.2046661376953125,-0.0875701904296875,-0.191375732421875
1772534933423152600,8.444152587890626,-0.1168212890625,-0.0694427490234375,-0.048553466796875
1772534933433169700,8.454169677734376,-0.0829010009765625,-0.084869384765625,0.0914306640625
1772534933443186000,8.46418603515625,-0.1507720947265625,-0.0887603759765625,0.2082366943359375
1772534933453202700,8.47420263671875,-0.248779296875,-0.05072021484375,0.206390380859375
1772534933463218700,8.48421875,-0.2642364501953125,0.0193023681640625,0.1034088134765625
1772534933473235700,8.494235595703126,-0.2350311279296875,0.0883026123046875,-0.0006561279296875
1772534933483252700,8.504252685546875,-0.200347900390625,0.1118011474609375,-0.0797576904296875
1772534933493268700,8.514268798828125,-0.1539459228515625,0.0610809326171875,-0.141204833984375
1772534933503285800,8.52428564453125,-0.05145263671875,-0.009613037109375,-0.1823272705078125
1772534933513301500,8.534301513671876,0.071807861328125,-0.049072265625,-0.1854095458984375
1772534933523318800,8.54431884765625,0.1457061767578125,-0.079376220703125,-0.1715545654296875
1772534933533334800,8.554334716796875,0.17352294921875,-0.0906524658203125,-0.1438446044921875
1772534933543351600,8.5643515625,0.1803436279296875,-0.08099365234375,-0.088348388671875
1772534933553367600,8.574367431640624,0.1687774658203125,-0.064849853515625,-0.0079345703125
1772534933563384800,8.584384765625,0.1173095703125,-0.054107666015625,0.06732177734375
1772534933573400800,8.59440087890625,0.042388916015625,-0.04669189453125,0.1058807373046875
1772534933583417600,8.60441748046875,-0.016510009765625,-0.0460357666015625,0.096160888671875
1772534933593433600,8.61443359375,-0.0672149658203125,-0.040863037109375,0.0477294921875
1772534933603451000,8.624450927734374,-0.1315155029296875,-0.0364837646484375,-0.0086669921875
1772534933613466600,8.634466552734375,-0.201141357421875,-0.0354461669921875,-0.0535430908203125
1772534933623483600,8.644483642578125,-0.284515380859375,-0.0446319580078125,-0.08282470703125
1772534933633499600,8.654499755859375,-0.35491943359375,-0.066986083984375,-0.0987396240234375
1772534933643516700,8.6645166015625,-0.3338623046875,-0.0942230224609375,-0.11846923828125
1772534933653532700,8.67453271484375,-0.2557220458984375,-0.12432861328125,-0.1342010498046875
1772534933663549700,8.6845498046875,-0.1993865966796875,-0.1586151123046875,-0.1285858154296875
1772534933673566500,8.69456640625,-0.166961669921875,-0.1878662109375,-0.09197998046875
1772534933683582700,8.704582763671874,-0.15313720703125,-0.230987548828125,-0.0465087890625
1772534933693599700,8.714599853515624,-0.2264251708984375,-0.2725677490234375,0.02484130859375
1772534933703615700,8.72461572265625,-0.36346435546875,-0.3069915771484375,0.0715484619140625
1772534933713632500,8.734632568359375,-0.459686279296875,-0.3493804931640625,0.08026123046875
1772534933723648800,8.744648681640625,-0.5379791259765625,-0.389984130859375,0.0797271728515625
1772534933733665800,8.754665771484374,-0.7190399169921875,-0.423309326171875,0.0665740966796875
1772534933743681800,8.764681884765626,-0.99359130859375,-0.4712677001953125,-0.0046539306640625
1772534933753698600,8.774698486328125,-1.3119659423828125,-0.5559539794921875,-0.127349853515625
1772534933763714800,8.78471484375,-1.75433349609375,-0.680206298828125,-0.154083251953125
1772534933773731600,8.794731689453124,-2.2180938720703125,-0.7869873046875,-0.1165924072265625
1772534933783747600,8.80474755859375,-2.4231109619140625,-0.7530059814453125,-0.105926513671875
1772534933793764600,8.8147646484375,-2.54937744140625,-0.6975250244140625,-0.0574951171875
1772534933803780900,8.82478076171875,-2.8540802001953125,-0.654815673828125,-0.0538330078125
1772534933813797600,8.834797607421875,-3.0443878173828125,-0.4448699951171875,-0.17205810546875
1772534933823813600,8.844813720703126,-3.0612335205078125,-0.2558441162109375,-0.2418212890625
1772534933833830700,8.85483056640625,-3.1531524658203125,-0.2402801513671875,-0.202178955078125
1772534933843847700,8.86484765625,-3.1847381591796875,-0.287750244140625,-0.1846160888671875
1772534933853863700,8.87486376953125,-3.127655029296875,-0.31158447265625,-0.2122650146484375
1772534933863880700,8.884880615234374,-3.088104248046875,-0.271270751953125,-0.2547607421875
1772534933873896700,8.894896728515626,-3.0037689208984375,-0.182373046875,-0.2894287109375
1772534933883913700,8.904913818359375,-2.8880767822265625,-0.0556793212890625,-0.183258056640625
1772534933893929700,8.9149296875,-2.7332916259765625,0.01513671875,0.0242919921875
1772534933903946800,8.92494677734375,-2.4334259033203125,0.0010223388671875,0.2041778564453125
1772534933913962500,8.93496240234375,-2.1134033203125,-0.0103912353515625,0.3138885498046875
1772534933923979800,8.944979736328126,-1.8676910400390625,-0.0251312255859375,0.3050994873046875
1772534933933995800,8.954995849609375,-1.6149139404296875,-0.1105194091796875,0.24591064453125
1772534933944012500,8.965012451171875,-1.3563690185546875,-0.2362213134765625,0.1155242919921875
1772534933954028500,8.975028564453124,-1.0908966064453125,-0.282928466796875,-0.1014862060546875
1772534933964045800,8.9850458984375,-0.8368377685546875,-0.2717742919921875,-0.3177490234375
1772534933974061800,8.995061767578125,-0.715728759765625,-0.2783966064453125,-0.371337890625
1772534933984078300,9.005078369140625,-0.596527099609375,-0.3034820556640625,-0.2958984375
1772534933994094300,9.01509423828125,-0.4482421875,-0.306915283203125,-0.159820556640625
1772534934004111400,9.025111328125,-0.3214569091796875,-0.305877685546875,-0.0525054931640625
1772534934014127400,9.03512744140625,-0.169036865234375,-0.227203369140625,0.0095062255859375
1772534934024144400,9.045144287109375,-0.061981201171875,-0.09423828125,0.1001129150390625
1772534934034160400,9.055160400390625,0.0042724609375,-0.02294921875,0.197174072265625
1772534934044177400,9.065177490234374,0.0697174072265625,-0.0191802978515625,0.244964599609375
1772534934054194200,9.075194091796876,0.128753662109375,-0.0138092041015625,0.22894287109375
1772534934064210400,9.08521044921875,0.199432373046875,0.0233612060546875,0.16497802734375
1772534934074227500,9.0952275390625,0.25238037109375,0.0527496337890625,0.09466552734375
1772534934084243200,9.1052431640625,0.2366943359375,-0.0062713623046875,0.10467529296875
1772534934094260200,9.11526025390625,0.150360107421875,-0.12261962890625,0.1461944580078125
1772534934104276500,9.1252763671875,0.0634765625,-0.125030517578125,0.1333465576171875
1772534934114293200,9.135293212890625,0.0151824951171875,-0.029266357421875,0.0748291015625
1772534934124309200,9.145309326171875,0.0399932861328125,0.036041259765625,-0.0075836181640625
1772534934134326300,9.155326171875,0.1137237548828125,0.029296875,-0.0543975830078125
1772534934144342500,9.165342529296876,0.16064453125,-0.023773193359375,-0.067413330078125
1772534934154359300,9.175359375,0.180877685546875,-0.074127197265625,-0.0761260986328125
1772534934164375300,9.185375244140625,0.20623779296875,-0.0830230712890625,-0.0966339111328125
1772534934174392300,9.195392333984374,0.223419189453125,-0.0642242431640625,-0.1252593994140625
1772534934184408300,9.205408203125,0.2220916748046875,-0.052734375,-0.1154022216796875
1772534934194425300,9.21542529296875,0.1822052001953125,-0.065399169921875,-0.0845794677734375
1772534934204441300,9.22544140625,0.11639404296875,-0.074493408203125,-0.04681396484375
1772534934214458000,9.2354580078125,0.045318603515625,-0.05975341796875,-0.0088348388671875
1772534934224475400,9.245475341796874,-0.012359619140625,-0.0353240966796875,0.0231170654296875
1772534934234491400,9.255491455078126,-0.066162109375,-0.0305938720703125,0.029998779296875
1772534934244508200,9.265508056640625,-0.1669464111328125,-0.0236663818359375,0.0305023193359375
1772534934254524200,9.275524169921875,-0.2693328857421875,-0.021575927734375,0.001617431640625
1772534934264541400,9.28554150390625,-0.31622314453125,-0.0525970458984375,-0.0048675537109375
1772534934274557400,9.295557373046876,-0.3708953857421875,-0.119293212890625,0.01190185546875
1772534934284574200,9.30557421875,-0.4665985107421875,-0.19061279296875,0.05499267578125
1772534934294590200,9.315590087890625,-0.58428955078125,-0.2859649658203125,0.1175994873046875
1772534934304607500,9.325607421875,-0.7544403076171875,-0.4169769287109375,0.1906585693359375
1772534934314623200,9.335623291015626,-0.9850616455078125,-0.55474853515625,0.2363739013671875
1772534934324640300,9.34564013671875,-1.2679901123046875,-0.727813720703125,0.2369842529296875
1772534934334656300,9.35565625,-1.6308746337890625,-0.90716552734375,0.2208404541015625
1772534934344673300,9.36567333984375,-1.9441680908203125,-0.9765625,0.128143310546875
1772534934354689300,9.375689208984374,-2.0269012451171875,-0.910003662109375,-0.1238555908203125
1772534934365958100,9.386958251953125,-1.9933624267578125,-0.789031982421875,-0.42449951171875
1772534934375974400,9.396974365234374,-2.0592193603515625,-0.728485107421875,-0.5766754150390625
1772534934385991400,9.406991455078124,-2.3121795654296875,-0.7108306884765625,-0.6309356689453125
1772534934396008200,9.41700830078125,-2.6675262451171875,-0.7058868408203125,-0.6300201416015625
1772534934406024200,9.427024169921875,-2.9969940185546875,-0.6804656982421875,-0.59918212890625
1772534934416041500,9.43704150390625,-3.3173675537109375,-0.5277862548828125,-0.4713287353515625
1772534934426057200,9.44705712890625,-3.4642486572265625,-0.2979583740234375,-0.2706756591796875
1772534934436074200,9.45707421875,-3.4835968017578125,-0.18505859375,-0.011810302734375
1772534934446090200,9.46709033203125,-3.3915252685546875,-0.1692352294921875,0.2025909423828125
1772534934456107300,9.477107177734375,-3.16326904296875,-0.1334991455078125,0.2606048583984375
1772534934466123300,9.487123291015624,-2.8397674560546875,-0.11688232421875,0.171722412109375
1772534934476140300,9.497140380859374,-2.468994140625,-0.2019195556640625,-0.0402069091796875
1772534934486156300,9.50715625,-2.0519561767578125,-0.327392578125,-0.2807769775390625
1772534934496173300,9.51717333984375,-1.5827178955078125,-0.4535675048828125,-0.54083251953125
1772534934506189300,9.527189208984375,-1.12847900390625,-0.549102783203125,-0.783538818359375
1772534934516206300,9.537206298828124,-0.718505859375,-0.595367431640625,-0.8920135498046875
1772534934526222300,9.547222412109376,-0.443206787109375,-0.591094970703125,-0.803558349609375
1772534934536239400,9.5572392578125,-0.3586578369140625,-0.496734619140625,-0.5420379638671875
1772534934546255400,9.56725537109375,-0.3732757568359375,-0.3491058349609375,-0.286956787109375
1772534934556272400,9.5772724609375,-0.3798828125,-0.206329345703125,-0.0920562744140625
1772534934566288100,9.5872880859375,-0.38348388671875,-0.085540771484375,0.0613861083984375
1772534934576305400,9.597305419921875,-0.425750732421875,-0.012939453125,0.15374755859375
1772534934586321400,9.6073212890625,-0.4125518798828125,-0.00628662109375,0.191375732421875
1772534934596338200,9.617338134765625,-0.339263916015625,-0.0275115966796875,0.1495208740234375
1772534934606355500,9.62735546875,-0.25439453125,-0.0302734375,0.070892333984375
1772534934616371500,9.637371337890626,-0.12286376953125,-0.048675537109375,0.004608154296875
1772534934626388200,9.64738818359375,0.01019287109375,-0.10595703125,-0.00885009765625
1772534934636404200,9.657404296875,0.0886383056640625,-0.16253662109375,-0.008056640625
1772534934646421500,9.66742138671875,0.14166259765625,-0.183135986328125,0.0186767578125
1772534934656437500,9.6774375,0.149200439453125,-0.1642608642578125,0.1019134521484375
1772534934666454300,9.687454345703125,0.10888671875,-0.175140380859375,0.1249237060546875
1772534934676470300,9.69747021484375,0.0348358154296875,-0.2056732177734375,0.093780517578125
1772534934686487600,9.707487548828125,-0.035736083984375,-0.18499755859375,0.115142822265625
1772534934696503300,9.71750341796875,-0.0867462158203125,-0.163970947265625,0.122802734375
1772534934706520300,9.727520263671876,-0.1436309814453125,-0.16900634765625,0.107940673828125
1772534934716536300,9.737536376953125,-0.199310302734375,-0.179473876953125,0.0929107666015625
1772534934726553300,9.74755322265625,-0.2384490966796875,-0.1852569580078125,0.0522308349609375
1772534934736569300,9.7575693359375,-0.2297821044921875,-0.1846923828125,0.0152130126953125
1772534934746586400,9.76758642578125,-0.2130889892578125,-0.176422119140625,0.02313232421875
1772534934756602400,9.777602294921875,-0.210601806640625,-0.16351318359375,0.0420989990234375
1772534934766619100,9.787619140625,-0.20343017578125,-0.1680450439453125,0.0522003173828125
1772534934776635400,9.797635498046875,-0.2428131103515625,-0.182037353515625,0.059112548828125
1772534934786652400,9.80765234375,-0.33636474609375,-0.1920318603515625,0.065643310546875
1772534934796668400,9.81766845703125,-0.4366912841796875,-0.2071380615234375,0.0664520263671875
1772534934806685200,9.827685302734375,-0.5362396240234375,-0.2297821044921875,0.050048828125
1772534934816702500,9.837702392578125,-0.6546173095703125,-0.2487030029296875,0.0377655029296875
1772534934826718200,9.84771826171875,-0.7960968017578125,-0.2668609619140625,0.0422821044921875
1772534934836735200,9.8577353515625,-0.9526824951171875,-0.296051025390625,0.038848876953125
1772534934846751200,9.867751220703125,-1.1311492919921875,-0.3310089111328125,0.005401611328125
1772534934856768300,9.877768310546875,-1.294525146484375,-0.3610687255859375,-0.0507354736328125
1772534934866784300,9.8877841796875,-1.4100494384765625,-0.3564605712890625,-0.118988037109375
1772534934876801300,9.89780126953125,-1.4908905029296875,-0.2999725341796875,-0.1469879150390625
1772534934886817300,9.9078173828125,-1.5667266845703125,-0.25091552734375,-0.0705108642578125
1772534934896834300,9.917834228515625,-1.663360595703125,-0.2911834716796875,0.1417083740234375
1772534934906850300,9.927850341796875,-1.7671661376953125,-0.4134368896484375,0.340850830078125
1772534934916867300,9.937867431640624,-1.8519134521484375,-0.445098876953125,0.2740020751953125
1772534934926883300,9.94788330078125,-1.9717559814453125,-0.360931396484375,-0.0328826904296875
1772534934941908500,9.962908447265624,-2.2904510498046875,-0.3656463623046875,-0.313720703125
1772534934951925200,9.97292529296875,-2.440093994140625,-0.3777008056640625,-0.3796844482421875
1772534934961941200,9.982941162109375,-2.4583892822265625,-0.3027496337890625,-0.427093505859375
1772534934971958300,9.992958251953125,-2.5412139892578125,-0.2204437255859375,-0.3423919677734375
1772534934981975300,10.002975341796875,-2.5184326171875,-0.18035888671875,-0.163543701171875
1772534934991992300,10.012992431640624,-2.39501953125,-0.083709716796875,0.0095672607421875
1772534935002008300,10.02300830078125,-2.2461395263671875,-0.0059661865234375,0.1469268798828125
1772534935012025300,10.033025390625,-2.0707855224609375,-0.0611114501953125,0.2203826904296875
1772534935022041300,10.043041259765625,-1.946624755859375,-0.152587890625,0.20068359375
1772534935032058000,10.05305810546875,-1.8641815185546875,-0.2208404541015625,0.0547637939453125
1772534935042074400,10.063074462890626,-1.7614288330078125,-0.25640869140625,-0.154449462890625
1772534935052091400,10.07309130859375,-1.5655670166015625,-0.273895263671875,-0.2845306396484375
1772534935062107400,10.083107421875,-1.2839813232421875,-0.3551483154296875,-0.32830810546875
1772534935072124200,10.093124267578125,-1.0624542236328125,-0.4043731689453125,-0.3011627197265625
1772534935082140200,10.10314013671875,-0.8548583984375,-0.436431884765625,-0.239837646484375
1772534935092157400,10.113157470703126,-0.6611175537109375,-0.46148681640625,-0.197113037109375
1772534935102174200,10.12317431640625,-0.554290771484375,-0.388702392578125,-0.1343841552734375
1772534935112190200,10.133190185546875,-0.4436798095703125,-0.2308502197265625,-0.0762939453125
1772534935122207500,10.14320751953125,-0.349273681640625,-0.1107177734375,0.0330352783203125
1772534935132223500,10.153223388671876,-0.3256378173828125,-0.037750244140625,0.1598968505859375
1772534935142240300,10.163240234375,-0.3549957275390625,-0.02203369140625,0.206878662109375
1772534935152256300,10.17325634765625,-0.3233795166015625,-0.081329345703125,0.1540374755859375
1772534935162273300,10.183273193359375,-0.237579345703125,-0.1060791015625,0.0803680419921875
1772534935172289300,10.193289306640626,-0.1654052734375,-0.111236572265625,0.01373291015625
1772534935182306300,10.203306396484376,-0.1011505126953125,-0.139495849609375,-0.0236663818359375
1772534935192322300,10.213322265625,-0.0469207763671875,-0.159942626953125,-0.004974365234375
1772534935202339300,10.22333935546875,-0.0065460205078125,-0.185394287109375,0.0237274169921875
1772534935212355300,10.233355224609374,0.030853271484375,-0.218109130859375,0.034881591796875
1772534935222372400,10.243372314453126,0.0706329345703125,-0.23773193359375,0.0349884033203125
1772534935232388400,10.253388427734375,0.107635498046875,-0.2428131103515625,0.0376434326171875
1772534935242405400,10.2634052734375,0.1368560791015625,-0.258758544921875,0.0198822021484375
1772534935252421400,10.27342138671875,0.1359100341796875,-0.2830657958984375,-0.0282745361328125
1772534935262438400,10.2834384765625,0.1016693115234375,-0.295867919921875,-0.0717010498046875
1772534935272454100,10.2934541015625,0.05120849609375,-0.29034423828125,-0.0840911865234375
1772534935282471400,10.303471435546875,0.0195159912109375,-0.266815185546875,-0.0736541748046875
1772534935292487400,10.3134873046875,-0.0003814697265625,-0.2343597412109375,-0.0395965576171875
1772534935302504200,10.323504150390624,-0.019195556640625,-0.201416015625,-0.0014801025390625
1772534935312520200,10.333520263671875,-0.04571533203125,-0.17437744140625,0.023162841796875
1772534935322537500,10.343537353515625,-0.0862274169921875,-0.172637939453125,0.025726318359375
1772534935332554200,10.35355419921875,-0.16839599609375,-0.229705810546875,-0.0198516845703125
1772534935342570200,10.3635703125,-0.3008575439453125,-0.2798004150390625,-0.0737152099609375
1772534935352587300,10.373587158203126,-0.46533203125,-0.262451171875,-0.0958251953125
1772534935362603500,10.383603515625,-0.6244964599609375,-0.2124481201171875,-0.0714263916015625
1772534935372620300,10.393620361328125,-0.7445526123046875,-0.1815948486328125,-0.0231170654296875
1772534935382636300,10.40363623046875,-0.832366943359375,-0.2048797607421875,0.0216217041015625
1772534935392653300,10.4136533203125,-0.9972381591796875,-0.3182525634765625,0.0363006591796875
1772534935402669300,10.42366943359375,-1.2704010009765625,-0.4748382568359375,0.01226806640625
1772534935412686300,10.433686279296875,-1.4739227294921875,-0.6017608642578125,-0.071746826171875
1772534935422702300,10.443702392578125,-1.5875396728515625,-0.614654541015625,-0.08807373046875
1772534935432719000,10.453718994140624,-1.6664886474609375,-0.5530548095703125,0.044647216796875
1772534935442735400,10.4637353515625,-1.728118896484375,-0.507110595703125,0.2018890380859375
1772534935452752400,10.47375244140625,-1.8853302001953125,-0.447021484375,0.2397918701171875
1772534935462768400,10.483768310546875,-2.031982421875,-0.3756103515625,0.1735992431640625
1772534935472785200,10.49378515625,-2.0792236328125,-0.3914794921875,0.1112060546875
1772534935482801400,10.503801513671876,-2.153289794921875,-0.5054779052734375,0.0833587646484375
1772534935492818400,10.513818359375,-2.2369537353515625,-0.5626678466796875,0.0207061767578125
1772534935502834400,10.52383447265625,-2.301727294921875,-0.5123748779296875,-0.08447265625
1772534935512851200,10.533851318359375,-2.36859130859375,-0.4325408935546875,-0.152923583984375
1772534935522867500,10.543867431640624,-2.329986572265625,-0.37158203125,-0.141448974609375
1772534935532884500,10.553884521484376,-2.2521514892578125,-0.3156585693359375,-0.0271148681640625
1772534935542901200,10.5639013671875,-2.0621337890625,-0.265045166015625,0.09356689453125
1772534935552917200,10.573917236328125,-1.830535888671875,-0.2484283447265625,0.1540374755859375
1772534935562934300,10.583934326171875,-1.6170654296875,-0.2930450439453125,0.129913330078125
1772534935572950300,10.5939501953125,-1.468109130859375,-0.319732666015625,0.080810546875
1772534935582967300,10.60396728515625,-1.4070892333984375,-0.3036346435546875,0.010528564453125
1772534935592983300,10.6139833984375,-1.3830413818359375,-0.2946014404296875,-0.09210205078125
1772534935603000300,10.624000244140625,-1.2572021484375,-0.308197021484375,-0.213409423828125
1772534935613016300,10.634016357421874,-1.102783203125,-0.3446502685546875,-0.3435821533203125
1772534935623033300,10.644033447265626,-0.9463043212890625,-0.358489990234375,-0.4444580078125
1772534935633049300,10.65404931640625,-0.7948150634765625,-0.380035400390625,-0.4684295654296875
1772534935643066400,10.66406640625,-0.6748046875,-0.4085235595703125,-0.3649139404296875
1772534935653082400,10.674082275390624,-0.59454345703125,-0.366912841796875,-0.1832275390625
1772534935663099400,10.684099365234376,-0.533599853515625,-0.3052825927734375,-0.040252685546875
1772534935673115100,10.694115234375,-0.49688720703125,-0.220428466796875,0.1032257080078125
1772534935683132400,10.70413232421875,-0.49462890625,-0.1330108642578125,0.1632843017578125
1772534935693148400,10.7141484375,-0.4568023681640625,-0.14056396484375,0.1416778564453125
1772534935703165200,10.724165283203124,-0.3549652099609375,-0.1775360107421875,0.115081787109375
1772534935713181200,10.73418115234375,-0.29278564453125,-0.194549560546875,0.073455810546875
1772534935723198500,10.744198486328125,-0.245025634765625,-0.1956787109375,0.0088653564453125
1772534935733214500,10.75421435546875,-0.20318603515625,-0.1960906982421875,-0.0583038330078125
1772534935743231200,10.764231201171874,-0.164398193359375,-0.218536376953125,-0.086090087890625
1772534935753247200,10.774247314453126,-0.171142578125,-0.2244720458984375,-0.0172119140625
1772534935763264500,10.784264404296875,-0.1991119384765625,-0.258209228515625,0.09613037109375
1772534935773281300,10.79428125,-0.236663818359375,-0.296722412109375,0.1492919921875
1772534935783297300,10.80429736328125,-0.3259429931640625,-0.3010711669921875,0.148834228515625
1772534935793314300,10.814314208984374,-0.19842529296875,-0.3692474365234375,0.064727783203125
1772534935803330300,10.824330322265626,-0.1815032958984375,-0.354156494140625,-0.022979736328125
1772534935813347300,10.834347412109375,-0.228515625,-0.2899169921875,0.0212554931640625
1772534935823363300,10.84436328125,-0.35052490234375,-0.256134033203125,0.11566162109375
