time,seconds_elapsed,z,y,x
1772535469008884700,0.221884765625,0,0,0
1772535469018820000,0.231820068359375,-0.030178546905517578,-0.02122783660888672,0.0381607860326767
1772535469028758500,0.241758544921875,-0.06875085830688477,0.001178741455078125,0.07786780595779419
1772535469038688000,0.25168798828125,-0.03317546844482422,0.056430816650390625,0.09737846255302429
1772535469048622800,0.261622802734375,0.04137897491455078,-0.01639842987060547,0.05408093333244324
1772535469058547500,0.27154736328125,0.06003904342651367,-0.13584136962890625,-0.01839315891265869
1772535469068478000,0.28147802734375,0.031215667724609375,-0.06771564483642578,0.14412344992160797
1772535469078398700,0.291398681640625,-0.34553956985473633,-0.14247512817382812,0.16843289136886597
1772535469088325400,0.301325439453125,-0.8543429374694824,-0.17413663864135742,-0.13194388151168823
1772535469108212500,0.32121240234375,-0.8827681541442871,-0.15814828872680664,-0.518681526184082
1772535469118135600,0.331135498046875,-0.6926336288452148,-0.2123551368713379,-0.4671570062637329
1772535469128066600,0.341066650390625,-0.4771742820739746,-0.25092172622680664,-0.44998252391815186
1772535469138002200,0.351002197265625,-0.23704195022583008,-0.25026512145996094,-0.6241157650947571
1772535469147935200,0.360935302734375,0.15711402893066406,-0.27346086502075195,-0.8558925986289978
1772535469157867000,0.370866943359375,0.48392724990844727,-0.3368501663208008,-1.0535261631011963
1772535469167799300,0.38079931640625,0.4654412269592285,-0.27175140380859375,-1.3160524368286133
1772535469177728800,0.390728759765625,0.20600032806396484,-0.004407405853271484,-1.5292644500732422
1772535469187659800,0.40065966796875,0.06923818588256836,0.39240598678588867,-1.457357406616211
1772535469197564700,0.410564697265625,0.1785273551940918,0.8376226425170898,-1.1433055400848389
1772535469207485400,0.4204853515625,0.1959233283996582,1.1333503723144531,-0.7750117778778076
1772535469217460500,0.43046044921875,0.2805333137512207,1.3259148597717285,-0.452378511428833
1772535469227403000,0.440403076171875,0.43424558639526367,1.536144733428955,-0.3600330352783203
1772535469237303300,0.45030322265625,0.7605633735656738,1.736487865447998,-0.38660192489624023
1772535469247229000,0.46022900390625,1.2647552490234375,1.7197399139404297,-0.2191026210784912
1772535469257202700,0.47020263671875,1.4156579971313477,1.4557418823242188,-0.036519527435302734
1772535469267148000,0.48014794921875,1.1501388549804688,1.3207616806030273,-0.08275115489959717
1772535469277032400,0.490032470703125,1.322561264038086,1.2659716606140137,-0.34523725509643555
1772535469286953000,0.499952880859375,2.40031099319458,0.9388494491577148,-0.6940639019012451
1772535469296899800,0.50989990234375,3.1787452697753906,0.34565305709838867,-0.9311801195144653
1772535469306831000,0.5198310546875,3.07395601272583,0.020000457763671875,-1.1202313899993896
1772535469316758500,0.529758544921875,2.604255199432373,0.22602462768554688,-1.3213794231414795
1772535469326688300,0.539688232421875,2.0586862564086914,0.5286760330200195,-1.1561453342437744
1772535469336622000,0.5496220703125,1.8161320686340332,0.8352413177490234,-0.7450312376022339
1772535469346552300,0.55955224609375,2.309791088104248,0.9303798675537109,-0.6407991647720337
1772535469356484600,0.569484619140625,2.9854626655578613,0.6702413558959961,-0.7071843147277832
1772535469366414800,0.579414794921875,3.410625457763672,0.6479415893554688,-0.9428203105926514
1772535469376340500,0.589340576171875,3.558320999145508,0.92486572265625,-1.043096661567688
1772535469386270200,0.599270263671875,3.6520299911499023,1.020878791809082,-0.9077563285827637
1772535469396219400,0.609219482421875,3.8780360221862793,0.7746095657348633,-0.5467747449874878
1772535469406151000,0.61915087890625,4.1796064376831055,0.056969642639160156,-0.2483818531036377
1772535469416078000,0.629078125,4.116898536682129,-0.9626131057739258,-0.21183156967163086
1772535469426009300,0.63900927734375,3.381439208984375,-1.8160972595214844,-0.4443972110748291
1772535469435978200,0.648978271484375,2.2524008750915527,-2.2685561180114746,-0.8911845684051514
1772535469445913300,0.658913330078125,0.975679874420166,-2.462462902069092,-1.209057331085205
1772535469455838700,0.668838623046875,-0.23149824142456055,-2.546456813812256,-1.472396969795227
1772535469465772800,0.678772705078125,-0.9827098846435547,-2.2909770011901855,-1.885763168334961
1772535469475691800,0.68869189453125,-1.2025318145751953,-2.057971477508545,-2.1335608959198
1772535469485624300,0.698624267578125,-1.233625888824463,-2.228637218475342,-2.1047000885009766
1772535469495557000,0.70855712890625,-1.4148149490356445,-2.421234607696533,-1.6548246145248413
1772535469505489700,0.71848974609375,-1.56050443649292,-2.319540500640869,-1.202183485031128
1772535469515420700,0.728420654296875,-1.4937849044799805,-2.185645580291748,-0.8238577842712402
1772535469525353200,0.738353271484375,-1.2824077606201172,-2.382056713104248,-0.5067760944366455
1772535469535283700,0.74828369140625,-1.090406894683838,-2.767709255218506,-0.23000407218933105
1772535469545216000,0.758216064453125,-0.9764981269836426,-2.9218029975891113,-0.1206965446472168
1772535469555154200,0.768154296875,-1.0406556129455566,-2.9201560020446777,-0.2532397508621216
1772535469565087000,0.7780869140625,-1.2698240280151367,-2.9216952323913574,-0.40609467029571533
1772535469574987300,0.7879873046875,-1.4927177429199219,-2.973886013031006,-0.44968974590301514
1772535469584916700,0.797916748046875,-1.5081806182861328,-3.0710463523864746,-0.39001214504241943
1772535469594856400,0.8078564453125,-1.1315159797668457,-3.085266590118408,-0.5214446783065796
1772535469604787200,0.817787109375,-0.7713861465454102,-3.0193047523498535,-0.8618766069412231
1772535469614717000,0.827717041015625,-0.5464687347412109,-3.008754253387451,-1.068922996520996
1772535469624647400,0.8376474609375,-0.3769841194152832,-3.1113595962524414,-0.9403527975082397
1772535469634604500,0.8476044921875,-0.4257988929748535,-3.0478525161743164,-0.6441736221313477
1772535469644537900,0.857537841796875,-0.7188816070556641,-2.677952289581299,-0.1320415735244751
1772535469654467600,0.867467529296875,-0.8823151588439941,-2.282072067260742,0.36541473865509033
1772535469664400600,0.877400634765625,-0.673668384552002,-1.991605281829834,0.5007396340370178
1772535469674347000,0.887346923828125,-0.5000295639038086,-2.0064539909362793,0.4374927878379822
1772535469684236000,0.897236083984375,-0.8654508590698242,-2.1944823265075684,0.2929563522338867
1772535469704117200,0.9171171875,-1.857020616531372,-1.9086003303527832,-0.24274909496307373
1772535469714052900,0.927052978515625,-2.175776243209839,-1.7041840553283691,-0.2742018699645996
1772535469723989800,0.93698974609375,-2.21463680267334,-1.3095316886901855,-0.209822416305542
1772535469733925400,0.94692529296875,-2.2867588996887207,-0.8096909523010254,-0.06625974178314209
1772535469743830000,0.956830078125,-2.4519152641296387,-0.33475303649902344,0.15548646450042725
1772535469753762600,0.966762451171875,-2.463644027709961,0.10106945037841797,0.4859641194343567
1772535469763720200,0.97672021484375,-2.167588233947754,0.5822172164916992,0.9027963876724243
1772535469773655300,0.9866552734375,-1.6344435214996338,1.194706916809082,1.235245704650879
1772535469783586600,0.996586669921875,-0.7616496086120605,1.8184304237365723,1.3402702808380127
1772535469793521400,1.006521484375,0.7783102989196777,2.293813705444336,1.253045916557312
1772535469803439400,1.016439453125,2.5858731269836426,2.3935813903808594,1.1042370796203613
1772535469813372400,1.026372314453125,4.189289569854736,2.1361947059631348,0.8478606939315796
1772535469823315700,1.036315673828125,5.103427886962891,1.7847790718078613,0.5642298460006714
1772535469833249800,1.046249755859375,5.064907073974609,1.4377150535583496,0.47312355041503906
1772535469843176200,1.05617626953125,4.172042369842529,1.0296411514282227,0.38305407762527466
1772535469853109500,1.066109619140625,2.835758686065674,0.6960477828979492,0.4904218912124634
1772535469863039700,1.076039794921875,1.5252642631530762,0.6397790908813477,1.013856291770935
1772535469872972800,1.085972900390625,0.7199192047119141,0.9522514343261719,1.6305689811706543
1772535469882899500,1.0958994140625,0.7176427841186523,1.2910046577453613,1.9185428619384766
1772535469892832000,1.10583203125,1.3227343559265137,1.4120678901672363,1.9174036979675293
1772535469902784300,1.1157841796875,1.7997875213623047,1.2912864685058594,1.7328312397003174
1772535469912718600,1.125718505859375,1.68792724609375,0.9316749572753906,1.4328091144561768
1772535469922628900,1.13562890625,1.4583086967468262,0.8415956497192383,1.0295734405517578
1772535469932561000,1.145560791015625,1.2486329078674316,1.0370588302612305,0.8124901056289673
1772535469942496300,1.155496337890625,0.9760088920593262,1.2081146240234375,1.082658290863037
1772535469952428500,1.165428466796875,0.8259487152099609,1.268280029296875,1.7706841230392456
1772535469962368300,1.1753681640625,1.0962142944335938,1.0991272926330566,2.5223093032836914
1772535469972301300,1.18530126953125,1.6926045417785645,0.5805230140686035,3.3814773559570312
1772535469982220800,1.195220703125,2.4874258041381836,-0.053606510162353516,4.120420455932617
1772535469992152600,1.205152587890625,3.3651490211486816,-0.5395760536193848,4.523587226867676
1772535470002095000,1.21509521484375,4.288280487060547,-0.8921856880187988,4.555184841156006
1772535470012028000,1.22502783203125,4.950523376464844,-1.1936650276184082,4.154871463775635
1772535470021948000,1.234947998046875,5.1955742835998535,-1.6684041023254395,3.4318299293518066
1772535470031879400,1.24487939453125,4.885700702667236,-2.348578929901123,2.667955160140991
1772535470041823500,1.254823486328125,3.859262466430664,-2.9569997787475586,1.6982383728027344
1772535470051756300,1.26475634765625,2.2639031410217285,-3.323922634124756,0.7722580432891846
1772535470061672200,1.274672119140625,0.5728697776794434,-3.4857912063598633,0.15612024068832397
1772535470071603200,1.284603271484375,-0.9499821662902832,-3.4732236862182617,0.007997453212738037
1772535470081538800,1.294538818359375,-2.028660297393799,-3.2974491119384766,0.44632282853126526
1772535470091470300,1.30447021484375,-2.5289573669433594,-2.942582607269287,1.1511754989624023
1772535470101403400,1.3144033203125,-2.6319265365600586,-2.5464887619018555,1.876983642578125
1772535470111335200,1.324335205078125,-2.7048068046569824,-2.3177099227905273,2.5577871799468994
1772535470121275600,1.334275634765625,-2.950735569000244,-2.3152880668640137,2.941143274307251
1772535470131208200,1.344208251953125,-3.3736212253570557,-2.4259190559387207,2.6891160011291504
1772535470141126000,1.3541259765625,-3.6893396377563477,-2.3658618927001953,2.043658494949341
1772535470151057000,1.364056884765625,-3.535797357559204,-2.1765198707580566,1.3323769569396973
1772535470160994600,1.37399462890625,-2.7191123962402344,-2.047168731689453,0.8058855533599854
1772535470170926000,1.383926025390625,-1.5031685829162598,-2.241602897644043,0.7691314816474915
1772535470180858600,1.393858642578125,-0.47736310958862305,-2.627960681915283,0.919865608215332
1772535470190790400,1.403790283203125,0.1483011245727539,-3.0519306659698486,0.8071764707565308
1772535470200731400,1.4137314453125,0.3858938217163086,-3.295928716659546,0.4214972257614136
1772535470210664200,1.423664306640625,0.026534080505371094,-3.2980501651763916,-0.19058436155319214
1772535470220595000,1.433594970703125,-0.9174246788024902,-3.072399854660034,-0.8187959790229797
1772535470230527500,1.443527587890625,-1.8607854843139648,-2.577373504638672,-1.1859606504440308
1772535470240426500,1.453426513671875,-2.4975318908691406,-1.887122631072998,-1.0375704765319824
1772535470250355700,1.463355712890625,-3.0608177185058594,-1.2612786293029785,-0.6513407230377197
1772535470260317000,1.47331689453125,-3.4084866046905518,-0.7416377067565918,-0.29478850960731506
1772535470270249200,1.483249267578125,-3.371739149093628,-0.18828964233398438,-0.08301036059856415
1772535470280174600,1.493174560546875,-2.937680721282959,0.40676212310791016,-0.2639552354812622
1772535470290106000,1.503106201171875,-2.104055881500244,0.8812398910522461,-0.8221092224121094
1772535470300041200,1.513041259765625,-1.065035343170166,1.2703042030334473,-1.5434340238571167
1772535470309973200,1.52297314453125,0.006533145904541016,1.7835040092468262,-2.246687173843384
1772535470319903200,1.5329033203125,0.9998302459716797,2.458789348602295,-2.89263916015625
1772535470329835300,1.542835205078125,1.7799429893493652,2.8931198120117188,-3.3696370124816895
1772535470339767300,1.552767333984375,2.4065775871276855,2.935100555419922,-3.4675912857055664
1772535470349699300,1.56269921875,3.1862311363220215,2.876357078552246,-3.3086721897125244
1772535470359632000,1.5726318359375,4.059319019317627,3.027477264404297,-3.1483864784240723
1772535470369563600,1.582563720703125,4.417782783508301,3.2659053802490234,-3.0171186923980713
1772535470379543300,1.592543212890625,4.055850505828857,3.3954458236694336,-2.83315110206604
1772535470389480000,1.60247998046875,3.567714214324951,3.4217824935913086,-2.6757254600524902
1772535470399368000,1.612367919921875,3.264957904815674,3.315467357635498,-2.5937042236328125
1772535470409299700,1.6222998046875,3.029052257537842,2.9618735313415527,-2.6252477169036865
1772535470419238000,1.63223779296875,2.921644687652588,2.710272789001465,-2.785665512084961
1772535470429170200,1.642170166015625,2.8531651496887207,2.5879054069519043,-2.8514931201934814
1772535470439067400,1.6520673828125,2.770470142364502,2.1377835273742676,-2.6205480098724365
1772535470448996000,1.66199609375,2.6616764068603516,1.5868167877197266,-2.344667911529541
1772535470458929700,1.6719296875,2.527522087097168,1.315330982208252,-2.2002482414245605
1772535470468859000,1.68185888671875,2.5709023475646973,1.4579401016235352,-1.99298095703125
1772535470478793200,1.691793212890625,2.5319952964782715,1.8070526123046875,-1.5635265111923218
1772535470488723000,1.701722900390625,2.3789076805114746,2.105973720550537,-1.1595244407653809
1772535470498662000,1.711661865234375,2.0651164054870605,2.160900592803955,-1.0415183305740356
1772535470508592600,1.721592529296875,1.2729578018188477,1.9021482467651367,-1.241652250289917
1772535470518556700,1.731556640625,0.29836034774780273,1.2944836616516113,-1.6264262199401855
1772535470528490800,1.74149072265625,-0.40910768508911133,0.3603229522705078,-1.8798675537109375
1772535470538387200,1.75138720703125,-0.7405858039855957,-0.5922336578369141,-1.9236608743667603
1772535470548317400,1.7613173828125,-0.4562849998474121,-1.4162249565124512,-1.8245673179626465
1772535470558248400,1.77124853515625,0.39961814880371094,-2.0720677375793457,-1.806352138519287
1772535470568178700,1.7811787109375,1.3561334609985352,-2.548548698425293,-1.8044202327728271
1772535470578136000,1.791135986328125,2.004779815673828,-2.927717685699463,-1.6714975833892822
1772535470588069000,1.801069091796875,2.319159507751465,-3.148566246032715,-1.4838207960128784
1772535470598012000,1.811011962890625,2.4507980346679688,-3.205477237701416,-1.2554353475570679
1772535470607946000,1.820946044921875,2.258726119995117,-3.1633777618408203,-0.7847929000854492
1772535470617840000,1.830840087890625,1.6570014953613281,-3.097830295562744,-0.24488043785095215
1772535470627770000,1.84077001953125,0.7466006278991699,-2.9557032585144043,0.4025779962539673
1772535470637736700,1.85073681640625,-0.1749429702758789,-2.8476333618164062,1.0474296808242798
1772535470647670300,1.860670166015625,-0.8886141777038574,-2.8013949394226074,1.4063619375228882
1772535470657590800,1.8705908203125,-1.494152545928955,-2.8597912788391113,1.5481452941894531
1772535470667523000,1.880523193359375,-2.032284736633301,-3.02412748336792,1.6684848070144653
1772535470677454000,1.8904541015625,-2.453907012939453,-3.2284998893737793,1.769846796989441
1772535470687386400,1.900386474609375,-2.638766288757324,-3.3501832485198975,1.6794168949127197
1772535470697319200,1.910319091796875,-2.6504340171813965,-3.4172399044036865,1.3877421617507935
1772535470707251500,1.92025146484375,-2.6595234870910645,-3.4218761920928955,1.116612195968628
1772535470717180200,1.93018017578125,-2.683279514312744,-3.447498083114624,0.9014447927474976
1772535470727112000,1.94011181640625,-2.5828514099121094,-3.3811309337615967,0.7942711710929871
1772535470737047300,1.95004736328125,-2.3051834106445312,-3.091606616973877,0.6260839700698853
1772535470746979600,1.9599794921875,-2.0251646041870117,-2.510714530944824,0.41253507137298584
1772535470756907500,1.969907470703125,-1.884171962738037,-1.8171720504760742,0.3266925811767578
1772535470766839300,1.97983935546875,-2.0069632530212402,-1.3524212837219238,0.3290327787399292
1772535470776774400,1.9897744140625,-2.1063413619995117,-1.0533175468444824,0.24573028087615967
1772535470786706400,1.99970654296875,-1.9115691184997559,-0.7623772621154785,0.009967565536499023
1772535470796651800,2.00965185546875,-1.4503612518310547,-0.6268577575683594,-0.15095186233520508
1772535470806585000,2.019585205078125,-0.8135471343994141,-0.5920262336730957,-0.22449898719787598
1772535470816500500,2.02950048828125,-0.042188167572021484,-0.5239405632019043,-0.21102499961853027
1772535470826432000,2.039431884765625,0.7519197463989258,-0.3566594123840332,0.012841224670410156
1772535470836354300,2.049354248046875,1.501502513885498,-0.12372827529907227,0.32807493209838867
1772535470846284800,2.059284912109375,2.082324504852295,0.32516908645629883,0.6709423065185547
1772535470856227600,2.0692275390625,2.3784751892089844,0.761204719543457,1.0417155027389526
1772535470866159400,2.079159423828125,2.3193960189819336,0.9830188751220703,1.3149425983428955
1772535470876052500,2.089052490234375,2.084740161895752,1.02479887008667,1.3848347663879395
1772535470885980400,2.09898046875,1.9373693466186523,0.9104709625244141,1.2919986248016357
1772535470895958000,2.1089580078125,1.8970775604248047,0.5947427749633789,1.1545186042785645
1772535470905891000,2.11889111328125,2.0703392028808594,0.2121729850769043,1.0365980863571167
1772535470915820500,2.128820556640625,2.4936676025390625,-0.07632112503051758,0.9369484186172485
1772535470925753300,2.13875341796875,3.225301742553711,-0.3215789794921875,0.7110446691513062
1772535470935686400,2.148686279296875,4.174561023712158,-0.6332554817199707,0.4877709150314331
1772535470945619200,2.158619140625,4.627074241638184,-1.013474464416504,0.1311814785003662
1772535470955549400,2.168549560546875,3.970623016357422,-1.0871062278747559,-0.3290749788284302
1772535470965481700,2.178481689453125,2.6574087142944336,-0.7082881927490234,-0.5521746873855591
1772535470975389700,2.1883896484375,1.0903010368347168,0.0660543441772461,-0.18125665187835693
1772535470985319700,2.198319580078125,-0.4550504684448242,1.2101068496704102,0.5342024564743042
1772535470995275800,2.20827587890625,-1.2098054885864258,2.4834980964660645,1.521943211555481
1772535471005208300,2.218208251953125,-0.6888175010681152,3.1761622428894043,2.7753982543945312
1772535471015136500,2.228136474609375,0.869236946105957,2.9598374366760254,4.000032901763916
1772535471025068500,2.238068603515625,2.7718687057495117,2.2273120880126953,4.518157005310059
1772535471035004400,2.24800439453125,4.5650835037231445,1.2656168937683105,4.434511184692383
1772535471044937000,2.25793701171875,6.105900764465332,0.459228515625,3.805915355682373
1772535471054866200,2.2678662109375,6.9948272705078125,-0.05848264694213867,2.7291605472564697
1772535471064798500,2.277798583984375,6.615784645080566,-0.3473362922668457,1.3316216468811035
1772535471074735600,2.287735595703125,5.3311848640441895,-0.5856008529663086,0.10314226150512695
1772535471084668200,2.297668212890625,3.5249147415161133,-1.092681884765625,-0.8539665341377258
1772535471094609000,2.30760888671875,1.4459028244018555,-1.6810908317565918,-1.3178037405014038
1772535471104542500,2.31754248046875,-0.6912899017333984,-1.9448232650756836,-1.5530798435211182
1772535471114459000,2.327458984375,-2.5880422592163086,-1.932004451751709,-1.8770220279693604
1772535471124391000,2.337390869140625,-3.9989609718322754,-1.868485927581787,-1.872854471206665
1772535471134327800,2.347327880859375,-4.825758934020996,-1.8905243873596191,-1.125329613685608
1772535471144260000,2.357260009765625,-4.79770565032959,-1.9425954818725586,0.03231549263000488
1772535471154187800,2.367187744140625,-3.9552063941955566,-1.9145135879516602,1.330955982208252
1772535471164119600,2.37711962890625,-2.8007965087890625,-1.7817063331604004,2.529895067214966
1772535471174054100,2.38705419921875,-1.4899358749389648,-1.7226104736328125,3.3612687587738037
1772535471183986400,2.396986328125,-0.3873591423034668,-1.8733935356140137,3.7886910438537598
1772535471193916700,2.406916748046875,0.15229225158691406,-2.0839738845825195,3.5019476413726807
1772535471203848700,2.4168486328125,-0.04151153564453125,-2.3306150436401367,2.602828025817871
1772535471213777700,2.426777587890625,-0.6713886260986328,-2.5510735511779785,1.5809818506240845
1772535471223709200,2.436709228515625,-1.3109536170959473,-2.8270819187164307,0.8504104614257812
1772535471233652000,2.44665185546875,-1.7413597106933594,-3.1289021968841553,0.5394937992095947
1772535471243584800,2.456584716796875,-1.9294829368591309,-3.341872453689575,0.41257739067077637
1772535471253507800,2.4665078125,-1.9309234619140625,-3.2728025913238525,0.322220116853714
1772535471263439600,2.476439697265625,-1.8051738739013672,-2.8683130741119385,0.26776015758514404
1772535471273384000,2.486384033203125,-1.638383388519287,-2.1298041343688965,0.0780939906835556
1772535471283317200,2.496317138671875,-1.5577316284179688,-1.3038244247436523,-0.12682007253170013
1772535471293240600,2.506240478515625,-1.6240978240966797,-0.6108651161193848,-0.31718143820762634
1772535471303172600,2.516172607421875,-1.7988557815551758,-0.23137140274047852,-0.4403584599494934
1772535471313076700,2.52607666015625,-1.6581854820251465,0.037210941314697266,-0.547909677028656
1772535471323006000,2.536005859375,-1.2783551216125488,0.21284246444702148,-0.7328171730041504
1772535471332964900,2.54596484375,-1.0909810066223145,0.287325382232666,-0.9830355048179626
1772535471342897200,2.555897216796875,-1.2593369483947754,0.4483304023742676,-1.2570056915283203
1772535471352826000,2.565826171875,-1.8332929611206055,0.7559103965759277,-1.2514488697052002
1772535471362758100,2.575758056640625,-2.3295984268188477,1.2905874252319336,-0.9919711351394653
1772535471372705300,2.585705322265625,-2.307222366333008,1.987381935119629,-0.5691580772399902
1772535471382638800,2.595638916015625,-1.7908124923706055,2.4541215896606445,0.02654394507408142
1772535471392573400,2.605573486328125,-0.8963961601257324,2.587019443511963,0.5780457258224487
1772535471402507000,2.615507080078125,-0.018079280853271484,2.4753594398498535,0.8282841444015503
1772535471412417000,2.6254169921875,0.46053123474121094,2.279778003692627,0.6383652091026306
1772535471422348000,2.63534814453125,0.8884429931640625,2.0535316467285156,0.09099051356315613
1772535471432284200,2.6452841796875,1.489793300628662,1.7966041564941406,-0.517683207988739
1772535471442215700,2.655215576171875,2.2567267417907715,1.6685843467712402,-1.0343823432922363
1772535471452156700,2.66515673828125,3.078693389892578,1.6021480560302734,-1.357276439666748
1772535471462089200,2.675089111328125,3.422484874725342,1.2238144874572754,-1.235235333442688
1772535471472024000,2.685024169921875,3.1255908012390137,0.6375060081481934,-0.9288802146911621
1772535471481956900,2.694956787109375,2.691868305206299,0.5546622276306152,-0.9967057704925537
1772535471491873500,2.70487353515625,2.3914198875427246,1.185760498046875,-1.2817561626434326
1772535471501804800,2.7148046875,2.047299861907959,2.0652785301208496,-1.48440420627594
1772535471511740200,2.724740234375,1.5740184783935547,2.9675955772399902,-1.5840981006622314
1772535471521671700,2.734671630859375,1.0164217948913574,3.437668800354004,-1.3660537004470825
1772535471531605500,2.74460546875,0.49512720108032227,3.3420491218566895,-1.2276997566223145
1772535471541537300,2.754537353515625,0.04297685623168945,2.844925880432129,-1.2845497131347656
1772535471551486700,2.76448681640625,-0.052600860595703125,1.9651522636413574,-1.4879313707351685
1772535471561420300,2.774420166015625,0.3858184814453125,1.036097526550293,-1.7746002674102783
1772535471571331300,2.784331298828125,1.0544514656066895,0.1696171760559082,-2.1130380630493164
1772535471581262800,2.794262939453125,1.672274112701416,-0.640106201171875,-2.481971025466919
1772535471591194000,2.804194091796875,1.9732027053833008,-1.1891698837280273,-2.704172134399414
1772535471601125600,2.814125732421875,2.1220526695251465,-1.408900260925293,-2.6583168506622314
1772535471611055900,2.824055908203125,2.1417417526245117,-1.5852890014648438,-2.3523452281951904
1772535471620987100,2.833987060546875,1.65244722366333,-1.94807767868042,-1.890908122062683
1772535471630919400,2.84391943359375,0.8860030174255371,-2.0147175788879395,-1.3925824165344238
1772535471640850700,2.8538505859375,0.1546945571899414,-1.667436122894287,-0.8834124803543091
1772535471650765600,2.863765625,-0.5607113838195801,-1.3801069259643555,-0.46583208441734314
1772535471660695300,2.8736953125,-1.3026866912841797,-1.4166755676269531,-0.216512531042099
1772535471670631400,2.88363134765625,-1.7366547584533691,-1.535017490386963,-0.09372889995574951
1772535471680562000,2.89356201171875,-1.7212715148925781,-1.4828424453735352,-0.006989836692810059
1772535471690494700,2.90349462890625,-1.0768098831176758,-1.3952407836914062,-0.012369871139526367
1772535471700425500,2.913425537109375,-0.2743206024169922,-1.4472541809082031,0.017741024494171143
1772535471710359300,2.923359375,0.16845417022705078,-1.7453041076660156,0.09027954936027527
1772535471720290300,2.933290283203125,0.005045890808105469,-2.192263603210449,0.00222855806350708
1772535471730226000,2.943225830078125,-0.4720902442932129,-2.613656997680664,-0.40416550636291504
1772535471740157200,2.9531572265625,-0.9510502815246582,-2.8945064544677734,-1.0644763708114624
1772535471750087200,2.963087158203125,-1.231928825378418,-3.1252923011779785,-1.546910285949707
1772535471760018400,2.973018310546875,-1.2773900032043457,-3.2066869735717773,-1.7407687902450562
1772535471769954600,2.98295458984375,-1.2351417541503906,-3.1319031715393066,-1.6731486320495605
1772535471779886300,2.99288623046875,-1.2244362831115723,-2.8215389251708984,-1.3644365072250366
1772535471789812200,3.002812255859375,-1.3182563781738281,-2.2558913230895996,-0.9192757606506348
1772535471799743200,3.0127431640625,-1.4954404830932617,-1.685218334197998,-0.3999485373497009
1772535471809677300,3.02267724609375,-1.5639328956604004,-1.324723720550537,0.09441477060317993
1772535471819608800,3.03260888671875,-1.212575912475586,-1.060328483581543,0.6332858800888062
1772535471829542400,3.04254248046875,-0.5202312469482422,-0.704413890838623,1.1468307971954346
1772535471839474000,3.052473876953125,0.036258697509765625,-0.3827552795410156,1.4520961046218872
1772535471849450200,3.0624501953125,0.28696727752685547,-0.07746171951293945,1.3744680881500244
1772535471859386400,3.072386474609375,0.19890880584716797,0.2695584297180176,0.9956580996513367
1772535471869290000,3.0822900390625,0.008941173553466797,0.5324063301086426,0.5371782779693604
1772535471879223000,3.09222314453125,0.24411487579345703,0.7191562652587891,0.22348032891750336
1772535471889132000,3.102132080078125,0.8264107704162598,0.8588414192199707,0.2648034989833832
1772535471899062500,3.1120625,1.5571517944335938,0.9869780540466309,0.4463407099246979
1772535471909029400,3.122029296875,2.2252092361450195,1.1188879013061523,0.5759921669960022
1772535471918963700,3.131963623046875,2.4631333351135254,1.2122907638549805,0.7303537726402283
1772535471928879900,3.1418798828125,2.097744941711426,1.2132091522216797,0.9376852512359619
1772535471938812400,3.1518125,1.0362324714660645,1.2309236526489258,1.2028379440307617
1772535471948748800,3.161748779296875,0.30515384674072266,1.1795625686645508,0.9907935857772827
1772535471958681300,3.171681396484375,1.015162467956543,0.9902167320251465,-0.006348729133605957
1772535471968616700,3.18161669921875,2.763566493988037,0.4356570243835449,-1.057572364807129
1772535471978550000,3.191550048828125,3.8471336364746094,-0.7418212890625,-1.5835070610046387
1772535471988474400,3.201474365234375,3.7072787284851074,-1.561295509338379,-1.895796537399292
1772535471998406700,3.21140673828125,2.9397220611572266,-1.4893288612365723,-2.227527141571045
1772535472008336100,3.221336181640625,1.8291316032409668,-0.8524527549743652,-1.618550419807434
1772535472018268000,3.231267822265625,1.0644779205322266,0.44820642471313477,-0.02972269058227539
1772535472028201700,3.24120166015625,1.3588123321533203,1.736821174621582,1.4585857391357422
1772535472038133800,3.2511337890625,2.4831838607788086,2.347484588623047,2.8641774654388428
1772535472048062700,3.261062744140625,3.745330810546875,2.177980899810791,3.9478554725646973
1772535472057994500,3.270994384765625,4.68893575668335,1.5454216003417969,4.1665215492248535
1772535472067936000,3.28093603515625,5.274441719055176,0.7493100166320801,3.7016518115997314
1772535472077868500,3.29086865234375,5.336162090301514,-0.1579442024230957,2.7018651962280273
1772535472087788800,3.300788818359375,4.849869251251221,-1.0691003799438477,1.6364288330078125
1772535472097720300,3.31072021484375,3.7841196060180664,-1.7405414581298828,0.932191014289856
1772535472107670300,3.320670166015625,2.34761381149292,-2.0302271842956543,0.4748042821884155
1772535472117603600,3.330603515625,0.7874994277954102,-2.1409244537353516,0.28709280490875244
1772535472127521800,3.340521728515625,-0.7965021133422852,-2.2002673149108887,0.20175576210021973
1772535472137453600,3.35045361328125,-2.0542097091674805,-2.39713716506958,0.10186523199081421
1772535472147395600,3.3603955078125,-2.610933780670166,-2.5887742042541504,-0.04739999771118164
1772535472157328600,3.37032861328125,-2.3342814445495605,-2.615415096282959,-0.014865875244140625
1772535472167248400,3.380248291015625,-1.5038528442382812,-2.506042957305908,0.40420055389404297
1772535472177180200,3.39018017578125,-0.621523380279541,-2.375241756439209,0.951732337474823
1772535472187112400,3.400112548828125,0.05128335952758789,-2.175015926361084,1.3116238117218018
1772535472197044000,3.4100439453125,0.4943981170654297,-2.0513434410095215,1.4807279109954834
1772535472206984000,3.41998388671875,0.7910847663879395,-1.9816436767578125,1.5359482765197754
1772535472216916200,3.429916259765625,0.535982608795166,-2.056469440460205,1.5555171966552734
1772535472226805200,3.43980517578125,-0.5593199729919434,-2.228891372680664,1.3967846632003784
1772535472236733400,3.4497333984375,-1.9162993431091309,-2.2736072540283203,1.2214747667312622
1772535472246709500,3.45970947265625,-2.952167272567749,-2.186758518218994,1.0577493906021118
1772535472256642600,3.469642578125,-3.5761613845825195,-2.1182589530944824,0.9035443067550659
1772535472266575000,3.4795751953125,-3.622498035430908,-2.1161060333251953,0.8387855887413025
1772535472276508000,3.4895078125,-3.131439447402954,-2.084188461303711,0.935523509979248
1772535472286432300,3.499432373046875,-2.543797016143799,-2.012354850769043,1.1486676931381226
1772535472296364000,3.509364013671875,-2.2032742500305176,-1.775650978088379,1.216538429260254
1772535472306309000,3.51930908203125,-1.7628870010375977,-1.5296330451965332,0.9637974500656128
1772535472316242400,3.529242431640625,-1.0572595596313477,-1.2501811981201172,0.701225757598877
1772535472326172400,3.53917236328125,-0.7818765640258789,-0.944575309753418,0.4633890986442566
1772535472336105200,3.549105224609375,-1.2853193283081055,-0.5879344940185547,0.07340586185455322
1772535472346027000,3.559027099609375,-2.1636343002319336,-0.13002681732177734,-0.35649967193603516
1772535472355958800,3.568958740234375,-2.8316736221313477,0.32475852966308594,-0.4412909746170044
1772535472365892900,3.578892822265625,-2.920417070388794,0.7831902503967285,-0.29621636867523193
1772535472375825000,3.588824951171875,-2.5732951164245605,1.1824326515197754,-0.024582982063293457
1772535472385752300,3.59875244140625,-1.9001660346984863,1.5512909889221191,0.415770947933197
1772535472395683800,3.608683837890625,-0.9088559150695801,1.955848217010498,0.8932898044586182
1772535472405650200,3.618650146484375,0.3558187484741211,2.384794235229492,1.1989470720291138
1772535472415585300,3.628585205078125,1.4744248390197754,2.5758275985717773,1.1537176370620728
1772535472425483300,3.638483154296875,1.9806733131408691,2.309340000152588,0.7685444355010986
1772535472435414800,3.648414794921875,1.8781447410583496,2.075942039489746,0.09395629167556763
1772535472445356000,3.65835595703125,1.4948492050170898,2.087930202484131,-0.6125010251998901
1772535472455288300,3.668288330078125,1.2457070350646973,1.991276741027832,-1.0681586265563965
1772535472465208800,3.678208740234375,1.3363537788391113,1.7986235618591309,-1.4635368585586548
1772535472475139800,3.688139892578125,1.6560683250427246,1.6764655113220215,-1.886231541633606
1772535472485071000,3.698071044921875,1.8637523651123047,1.6590871810913086,-1.8263297080993652
1772535472495002000,3.708002197265625,1.6002936363220215,1.54229736328125,-1.1909717321395874
1772535472504944000,3.717944091796875,1.162215232849121,1.43302583694458,-0.395910382270813
1772535472514876200,3.727876220703125,0.5562801361083984,1.7423338890075684,0.3313955068588257
1772535472524798200,3.737798095703125,-0.10985040664672852,2.5495457649230957,0.6999344825744629
1772535472534729500,3.7477294921875,-0.13974857330322266,3.3522467613220215,0.6799361109733582
1772535472544666600,3.75766650390625,0.7732710838317871,3.9027915000915527,0.3036833703517914
1772535472554598400,3.767598388671875,2.155888557434082,3.9174957275390625,-0.3814164996147156
1772535472564527000,3.777527099609375,3.169638156890869,3.3947415351867676,-1.318234920501709
1772535472574458600,3.787458740234375,3.445394992828369,2.491523265838623,-2.2551867961883545
1772535472584401700,3.797401611328125,3.2316951751708984,1.3159594535827637,-2.93608021736145
1772535472594334500,3.80733447265625,2.775634288787842,0.09141826629638672,-3.236558675765991
1772535472604255000,3.8172548828125,2.3710556030273438,-0.901914119720459,-3.3945963382720947
1772535472614186500,3.8271865234375,1.9731931686401367,-1.5006461143493652,-3.3015732765197754
1772535472624123100,3.837123046875,1.3131814002990723,-1.8717784881591797,-3.0615835189819336
1772535472634055200,3.84705517578125,0.47829389572143555,-2.0314950942993164,-2.9065747261047363
1772535472643959600,3.85695947265625,-0.4815025329589844,-2.0164623260498047,-2.6660711765289307
1772535472653888800,3.866888671875,-1.219198226928711,-1.830923080444336,-2.185781478881836
1772535472663850500,3.8768505859375,-1.3757548332214355,-1.5489225387573242,-1.4388446807861328
1772535472673783000,3.886782958984375,-0.8857812881469727,-1.4140100479125977,-0.7018041610717773
1772535472683664100,3.8966640625,0.012500286102294922,-1.4365763664245605,-0.20073363184928894
1772535472703574300,3.91657421875,1.5296072959899902,-1.9183015823364258,-0.16641008853912354
1772535472713511000,3.926510986328125,2.0671892166137695,-2.1745481491088867,-0.21530868113040924
1772535472723438800,3.93643896484375,2.1703109741210938,-2.377455234527588,-0.23741662502288818
1772535472733374700,3.946374755859375,1.3756041526794434,-2.511202812194824,-0.27669936418533325
1772535472743283500,3.956283447265625,0.12184619903564453,-2.5968384742736816,-0.4322160482406616
1772535472753216500,3.966216552734375,-1.105268955230713,-2.651247501373291,-0.48528963327407837
1772535472763180300,3.97618017578125,-2.332275390625,-2.610288143157959,-0.3669357895851135
1772535472773116700,3.98611669921875,-3.4291038513183594,-2.4523396492004395,-0.0549338161945343
1772535472783031600,3.996031494140625,-4.127486228942871,-2.170579433441162,0.24770280718803406
1772535472792965600,4.005965576171875,-4.232535362243652,-1.9480080604553223,0.5940572619438171
1772535472802884900,4.015884765625,-4.8045573234558105,-1.8572888374328613,0.5853859782218933
1772535472812817400,4.0258173828125,-5.322343349456787,-1.4959697723388672,0.2245587408542633
1772535472822737700,4.035737548828125,-3.5607728958129883,-0.9773983955383301,0.12537354230880737
1772535472832669000,4.0456689453125,-0.5873861312866211,-0.6620187759399414,0.09557247161865234
1772535472842637600,4.055637451171875,1.841916561126709,-0.6072006225585938,-0.051590025424957275
1772535472852572700,4.06557275390625,2.8916234970092773,-0.5902633666992188,-0.39885401725769043
1772535472862467300,4.07546728515625,2.421175003051758,-0.6345701217651367,-0.9566594362258911
1772535472872398600,4.085398681640625,1.189481258392334,-1.056786060333252,-1.1858634948730469
1772535472882328600,4.09532861328125,0.13520383834838867,-1.3802742958068848,-0.8928782343864441
1772535472892259600,4.105259521484375,-0.7599167823791504,-0.9669632911682129,-0.6755203604698181
1772535472902193000,4.11519287109375,-1.1117148399353027,-0.0414881706237793,-0.5826601982116699
1772535472912124000,4.1251240234375,-0.36283397674560547,0.8972539901733398,-0.2941884398460388
1772535472922060300,4.135060302734375,0.932708740234375,1.4845690727233887,0.2697378396987915
1772535472931991800,4.14499169921875,1.730241298675537,1.6496915817260742,0.5205579996109009
1772535472941961700,4.154961669921875,1.957160472869873,1.5259160995483398,0.3847137987613678
1772535472951897000,4.16489697265625,1.7500252723693848,1.250809669494629,0.32428741455078125
1772535472971716400,4.18471630859375,0.6713061332702637,0.9490656852722168,0.31232231855392456
1772535472981682700,4.1946826171875,0.5155453681945801,0.9262242317199707,0.16866126656532288
1772535473001547800,4.2145478515625,1.3931770324707031,0.934502124786377,0.2171328067779541
1772535473011481600,4.224481689453125,1.7261433601379395,1.225590705871582,0.016433358192443848
1772535473021379800,4.2343798828125,1.3555397987365723,1.3737835884094238,-0.09989923238754272
1772535473031310000,4.24431005859375,0.6814479827880859,1.443613052368164,0.02271401882171631
1772535473041243100,4.2542431640625,0.07180166244506836,1.6446070671081543,0.47531604766845703
1772535473051173600,4.264173583984375,-0.34619808197021484,1.9764604568481445,1.1066080331802368
1772535473061142300,4.274142333984375,-0.21107006072998047,2.14243221282959,1.7279307842254639
1772535473071076900,4.284076904296875,0.32645606994628906,1.8719415664672852,2.4003705978393555
1772535473080990200,4.293990234375,1.2283601760864258,1.433250904083252,2.9327175617218018
1772535473090922500,4.303922607421875,2.411839485168457,0.9676895141601562,3.3020310401916504
1772535473100854300,4.313854248046875,3.591667652130127,0.39431238174438477,3.6509618759155273
1772535473110786600,4.32378662109375,4.698248386383057,-0.1387500762939453,4.027140140533447
1772535473120731100,4.333731201171875,5.434028625488281,-0.5662784576416016,3.968895196914673
1772535473130664700,4.343664794921875,5.272541046142578,-0.990668773651123,3.4473671913146973
1772535473140583700,4.353583740234375,4.161877155303955,-1.5012307167053223,2.599147081375122
1772535473150515700,4.363515625,2.402958869934082,-1.9481573104858398,1.6066040992736816
1772535473160447500,4.373447509765625,0.7175140380859375,-2.121687412261963,0.6397188305854797
1772535473170379500,4.383379638671875,-0.35248851776123047,-2.012643814086914,-0.0355299711227417
1772535473180322000,4.393322021484375,-0.807373046875,-1.7440714836120605,-0.18934029340744019
1772535473190255000,4.403255126953125,-0.743657112121582,-1.5231361389160156,0.32996290922164917
1772535473200175000,4.413175048828125,-0.2544255256652832,-1.3099513053894043,1.001969814300537
1772535473210107000,4.42310693359375,0.17702627182006836,-1.1223621368408203,1.4270174503326416
1772535473220046000,4.433046142578125,0.22502422332763672,-1.0778522491455078,1.695664882659912
1772535473229978600,4.442978515625,0.13115167617797852,-1.1587700843811035,1.8284803628921509
1772535473239918300,4.45291845703125,-0.21375465393066406,-1.4082636833190918,1.7384212017059326
1772535473249851400,4.462851318359375,-0.8968019485473633,-1.809739112854004,1.3950228691101074
1772535473259768000,4.47276806640625,-1.639899730682373,-2.1288652420043945,0.9923337697982788
1772535473269699600,4.482699462890625,-2.266791343688965,-2.374636173248291,0.6312203407287598
1772535473279635500,4.492635498046875,-2.738968849182129,-2.4521074295043945,0.418678879737854
1772535473289567500,4.5025673828125,-3.0066518783569336,-2.3782997131347656,0.3430413603782654
1772535473299495400,4.512495361328125,-3.090412139892578,-2.2481894493103027,0.3011247515678406
1772535473309427000,4.522427001953125,-3.065365791320801,-2.1309032440185547,0.44718024134635925
1772535473319361000,4.532361083984375,-2.967569351196289,-1.9907827377319336,0.5896974802017212
1772535473329292800,4.542292724609375,-2.7995448112487793,-1.8636236190795898,0.6891770958900452
1772535473339228400,4.552228515625,-2.4731268882751465,-1.6944642066955566,0.800628125667572
1772535473349160400,4.562160400390625,-2.096353054046631,-1.6576194763183594,0.5731219053268433
1772535473359096600,4.5720966796875,-1.7741475105285645,-1.461707592010498,0.3946296274662018
1772535473369029000,4.582029052734375,-1.7934198379516602,-1.0329627990722656,0.09915727376937866
1772535473378948900,4.591948974609375,-2.35252046585083,-0.6972231864929199,-0.6854783892631531
1772535473388880400,4.60188037109375,-3.093860149383545,-0.19566679000854492,-1.4065725803375244
1772535473398814000,4.61181396484375,-3.5220282077789307,0.20859670639038086,-2.0028791427612305
1772535473408745500,4.621745361328125,-3.4224002361297607,0.44208765029907227,-2.1185684204101562
1772535473418669000,4.6316689453125,-2.954768180847168,0.7588620185852051,-1.7696990966796875
1772535473428599800,4.641599853515625,-2.1766395568847656,1.1392745971679688,-1.3932887315750122
1772535473438532400,4.651532470703125,-1.096780776977539,1.5105314254760742,-0.9424567222595215
1772535473448463400,4.66146337890625,0.22154951095581055,1.9210295677185059,-0.7370213270187378
1772535473458386700,4.67138671875,1.325901985168457,2.0102858543395996,-0.745050311088562
1772535473468317000,4.68131689453125,2.104454517364502,1.8076729774475098,-0.8786625862121582
1772535473478279000,4.69127880859375,2.7511558532714844,1.5323662757873535,-1.200688123703003
1772535473488212200,4.701212158203125,2.7860307693481445,1.5012621879577637,-1.4083881378173828
1772535473498147800,4.71114794921875,2.7094497680664062,1.6155848503112793,-1.5262426137924194
1772535473508081400,4.721081298828125,2.8294291496276855,1.7822046279907227,-1.696394920349121
1772535473518003000,4.7310029296875,3.1254172325134277,1.8865814208984375,-2.0334787368774414
1772535473527935500,4.740935546875,3.4967575073242188,1.9332256317138672,-2.4342041015625
1772535473537872400,4.750872314453125,3.439074993133545,2.221590042114258,-2.7038345336914062
1772535473547805200,4.76080517578125,2.515381336212158,2.287642478942871,-2.331723690032959
1772535473557728300,4.770728271484375,1.161485195159912,1.914271354675293,-1.4019732475280762
1772535473567660000,4.780659912109375,0.39936017990112305,1.821418285369873,-1.029007911682129
1772535473577602800,4.790602783203125,0.2783017158508301,1.987727165222168,-1.4170762300491333
1772535473587535600,4.80053564453125,0.18416070938110352,1.8646659851074219,-2.091550827026367
1772535473597463600,4.810463623046875,0.8603696823120117,2.471374034881592,-2.433748483657837
1772535473607396000,4.82039599609375,2.573242664337158,3.1250433921813965,-2.35795521736145
1772535473617320700,4.83032080078125,3.9871435165405273,2.838864326477051,-1.9847869873046875
1772535473627252500,4.84025244140625,4.527815341949463,1.9510483741760254,-1.5665278434753418
1772535473637164000,4.8501640625,4.556180953979492,0.8918709754943848,-1.5222837924957275
1772535473647093500,4.860093505859375,4.125439167022705,-0.280916690826416,-1.8501715660095215
1772535473657048600,4.870048583984375,3.063948154449463,-1.33756685256958,-2.1967387199401855
1772535473666980600,4.879980712890625,1.7429203987121582,-2.1184892654418945,-2.4321982860565186
1772535473676916700,4.889916748046875,0.5658435821533203,-2.617091178894043,-2.588991165161133
1772535473686849300,4.899849365234375,-0.379030704498291,-2.7466001510620117,-2.724271297454834
1772535473706688300,4.919688232421875,-1.9448814392089844,-2.65032958984375,-2.4005684852600098
1772535473726554600,4.9395546875,-1.7104921340942383,-2.130441188812256,-1.5896942615509033
1772535473736487000,4.94948681640625,-0.9680886268615723,-1.9615306854248047,-0.8571886420249939
1772535473746431700,4.959431640625,-0.10210371017456055,-1.8979196548461914,-0.170477956533432
1772535473756365300,4.969365234375,0.6077213287353516,-2.003877639770508,0.5517513751983643
1772535473766301400,4.979301513671875,0.9562339782714844,-2.1361513137817383,1.1302437782287598
1772535473776235300,4.9892353515625,0.8453707695007324,-2.167909622192383,1.6927201747894287
1772535473786162000,4.999161865234375,0.3277559280395508,-2.2085251808166504,2.0769834518432617
1772535473796095000,5.009094970703125,-0.5698885917663574,-2.2637205123901367,1.9904593229293823
1772535473806033200,5.019033203125,-1.7821674346923828,-2.353600025177002,1.5585343837738037
1772535473815966700,5.028966796875,-2.875105857849121,-2.394709587097168,1.2141940593719482
1772535473825888500,5.038888427734375,-3.7236201763153076,-2.340144157409668,0.8885005116462708
1772535473835821000,5.048821044921875,-4.074518203735352,-2.1146326065063477,0.5203688740730286
1772535473845772500,5.0587724609375,-3.873952627182007,-1.8363423347473145,0.15237295627593994
1772535473855707000,5.068706787109375,-3.394676685333252,-1.7170982360839844,-0.014413297176361084
1772535473865621000,5.07862109375,-2.769062042236328,-1.7159490585327148,0.10409611463546753
1772535473875553300,5.08855322265625,-2.042233943939209,-1.663823127746582,0.2448142170906067
1772535473885484000,5.098484130859375,-1.3100543022155762,-1.3799514770507812,0.31160008907318115
1772535473895416300,5.108416259765625,-0.7872624397277832,-0.9470462799072266,0.2665358781814575
1772535473905359000,5.118359130859375,-0.6320085525512695,-0.5516095161437988,0.12128627300262451
1772535473915292400,5.12829248046875,-0.6854863166809082,-0.2668337821960449,0.02776634693145752
1772535473925191700,5.138191650390625,-0.8442778587341309,-0.015244483947753906,0.06769287586212158
1772535473935121400,5.148121337890625,-0.9584989547729492,0.3301239013671875,0.14446043968200684
1772535473945085000,5.1580849609375,-0.7739858627319336,0.7730298042297363,0.16508269309997559
1772535473955018000,5.16801806640625,-0.43221378326416016,1.111229419708252,0.19957363605499268
1772535473964945400,5.1779453125,-0.025467395782470703,1.3377094268798828,0.30900847911834717
1772535473974878000,5.1878779296875,0.5601887702941895,1.5825891494750977,0.40331393480300903
1772535473984781300,5.19778125,1.3249726295471191,1.8407716751098633,0.49917709827423096
1772535473994711000,5.2077109375,1.9459729194641113,1.9102001190185547,0.7368667721748352
1772535474004677400,5.217677490234375,2.402202606201172,1.8275189399719238,1.0253818035125732
1772535474014610700,5.227610595703125,2.653021812438965,1.7056655883789062,1.0981781482696533
1772535474024538600,5.23753857421875,2.600383758544922,1.51847505569458,1.034970998764038
1772535474034471700,5.2474716796875,2.2063775062561035,1.2712678909301758,1.0918185710906982
1772535474044405200,5.2574052734375,1.8269572257995605,1.1682119369506836,1.1125577688217163
1772535474054338000,5.267338134765625,1.8635811805725098,1.3238105773925781,0.8897396326065063
1772535474064261600,5.27726171875,1.9599823951721191,1.5110454559326172,0.5622600317001343
1772535474074193700,5.287193603515625,1.520280361175537,1.4097166061401367,0.3438355326652527
1772535474084102400,5.297102294921875,1.1150460243225098,1.267683982849121,0.010643243789672852
1772535474094032000,5.307031982421875,0.9168696403503418,1.2169170379638672,-0.19587647914886475
1772535474103999200,5.316999267578125,0.732367992401123,1.2012076377868652,0.209064781665802
1772535474113932800,5.326932861328125,0.8112373352050781,1.228226661682129,1.1825199127197266
1772535474123830300,5.336830322265625,1.1317400932312012,1.2284917831420898,2.164834976196289
1772535474133760000,5.346760009765625,1.4358601570129395,1.0638446807861328,3.278937816619873
1772535474143695600,5.356695556640625,1.8095550537109375,0.7068686485290527,4.2444634437561035
1772535474153626000,5.366626220703125,2.425187110900879,0.1681203842163086,4.8831610679626465
1772535474163561500,5.3765615234375,3.4852452278137207,-0.3624424934387207,5.03108024597168
1772535474173492200,5.3864921875,4.618620872497559,-0.8201484680175781,4.684930324554443
1772535474183421000,5.3964208984375,5.3060150146484375,-1.2360138893127441,3.9023489952087402
1772535474193351400,5.406351318359375,5.285510540008545,-1.5930414199829102,2.9447274208068848
1772535474203291400,5.41629150390625,4.521730899810791,-1.9191865921020508,1.9101502895355225
1772535474213223000,5.426222900390625,3.1230740547180176,-2.2082533836364746,1.1245477199554443
1772535474223150000,5.436150146484375,1.4156079292297363,-2.422226905822754,0.5495226979255676
1772535474233081000,5.4460810546875,-0.27327489852905273,-2.3669533729553223,0.10257285833358765
1772535474243014000,5.456013916015625,-1.8414764404296875,-2.1446876525878906,0.1379515528678894
1772535474252945400,5.4659453125,-2.972681999206543,-1.8471693992614746,0.6570740938186646
1772535474262880300,5.47588037109375,-3.3971972465515137,-1.4957261085510254,1.298643708229065
1772535474272812000,5.48581201171875,-3.1942830085754395,-1.250044822692871,1.9022610187530518
1772535474282764300,5.495764404296875,-2.567526340484619,-1.2027382850646973,2.459095001220703
1772535474292698000,5.505697998046875,-1.908541202545166,-1.2394843101501465,2.807518720626831
1772535474302626600,5.51562646484375,-1.4986443519592285,-1.3560614585876465,2.6753735542297363
1772535474312559600,5.5255595703125,-1.2720632553100586,-1.5608735084533691,2.2052831649780273
1772535474322504400,5.53550439453125,-1.2214937210083008,-1.8429594039916992,1.6613411903381348
1772535474332438800,5.545438720703125,-1.3828582763671875,-2.10050106048584,1.3627359867095947
1772535474342334200,5.555334228515625,-1.71299409866333,-2.2768759727478027,1.1824135780334473
1772535474352264700,5.5652646484375,-1.8563575744628906,-2.3162896633148193,1.0772017240524292
1772535474362222000,5.57522216796875,-1.7163262367248535,-2.2431392669677734,1.0013768672943115
1772535474372155100,5.585155029296875,-1.5334715843200684,-2.2177228927612305,0.9671456813812256
1772535474382082000,5.59508203125,-1.4988422393798828,-2.248593807220459,0.9206063151359558
1772535474392014600,5.6050146484375,-1.654637336730957,-2.091935634613037,0.7855762839317322
1772535474401993700,5.61499365234375,-1.8766279220581055,-1.7521424293518066,0.40578219294548035
1772535474411931000,5.624930908203125,-2.150540828704834,-1.3252248764038086,-0.03137737512588501
1772535474421824300,5.63482421875,-2.3478593826293945,-0.9116215705871582,-0.4559285044670105
1772535474431757000,5.644757080078125,-2.460198402404785,-0.5059423446655273,-0.9547039866447449
1772535474441688000,5.65468798828125,-2.5172905921936035,-0.25135231018066406,-1.299770712852478
1772535474451620600,5.66462060546875,-2.3488240242004395,-0.10832452774047852,-1.3104842901229858
1772535474461548000,5.674548095703125,-1.707615852355957,0.07178783416748047,-1.1424121856689453
1772535474471480000,5.68447998046875,-0.940152645111084,0.34226274490356445,-1.0166959762573242
1772535474481402000,5.694402099609375,-0.4289999008178711,0.7693843841552734,-1.0655536651611328
1772535474491333400,5.70433349609375,-0.12804651260375977,1.4119949340820312,-1.2571178674697876
1772535474501272800,5.71427294921875,0.1687331199645996,2.1307778358459473,-1.5867397785186768
1772535474511204600,5.72420458984375,0.5138049125671387,2.547898769378662,-1.7984660863876343
1772535474521133600,5.734133544921875,0.6648492813110352,2.5905747413635254,-1.8645306825637817
1772535474531065300,5.7440654296875,0.6802740097045898,2.492669105529785,-1.90243661403656
1772535474540999700,5.753999755859375,0.6071286201477051,2.427506446838379,-1.9680083990097046
1772535474550931700,5.763931640625,0.4526553153991699,2.39857816696167,-1.937166690826416
1772535474560862500,5.773862548828125,0.45111894607543945,2.4455299377441406,-1.838857889175415
1772535474570794200,5.783794189453125,0.8607673645019531,2.4685778617858887,-1.7765594720840454
1772535474580731400,5.7937314453125,1.7752909660339355,2.617553234100342,-2.003654956817627
1772535474590663700,5.80366357421875,2.6673669815063477,2.922121047973633,-2.4426651000976562
1772535474600601900,5.813601806640625,2.7786641120910645,2.682986259460449,-2.4003190994262695
1772535474610534700,5.82353466796875,2.718191623687744,2.1191720962524414,-2.1305551528930664
1772535474620476400,5.833476318359375,2.757943630218506,1.8574843406677246,-2.173084259033203
1772535474630410200,5.84341015625,2.3678622245788574,1.907508373260498,-2.420823335647583
1772535474640293000,5.853293212890625,1.6698012351989746,1.938319206237793,-2.605133295059204
1772535474650221800,5.863221923828125,1.32257080078125,1.980280876159668,-2.81345796585083
1772535474660180200,5.87318017578125,1.2115373611450195,2.0958175659179688,-3.2069759368896484
1772535474670112000,5.883112060546875,1.0279479026794434,1.9876141548156738,-3.62503719329834
1772535474680042000,5.8930419921875,0.7412314414978027,1.2954907417297363,-3.8290576934814453
1772535474689973500,5.902973388671875,0.4988222122192383,0.07357311248779297,-3.7777624130249023
1772535474699865300,5.912865234375,0.530487060546875,-1.2298688888549805,-3.700233221054077
1772535474719774500,5.9327744140625,0.9487276077270508,-2.980491876602173,-3.7320995330810547
1772535474729710000,5.9427099609375,1.0961132049560547,-3.293919801712036,-3.7311840057373047
1772535474739641900,5.952641845703125,0.9363131523132324,-3.207845449447632,-3.545356273651123
1772535474749577000,5.962576904296875,0.6066265106201172,-2.909878969192505,-3.161252498626709
1772535474759499300,5.972499267578125,0.13643836975097656,-2.46993350982666,-2.5193731784820557
1772535474769433000,5.98243310546875,-0.37010717391967773,-1.9115018844604492,-1.6332165002822876
1772535474779403300,5.9924033203125,-0.662508487701416,-1.3692312240600586,-0.5358426570892334
1772535474789340700,6.002340576171875,-0.6004824638366699,-1.032968521118164,0.5751075744628906
1772535474799229400,6.0122294921875,-0.39984560012817383,-1.0174236297607422,1.3279930353164673
1772535474809162000,6.022161865234375,-0.34102535247802734,-1.2062010765075684,1.6616380214691162
1772535474819094300,6.03209423828125,-0.39817190170288086,-1.3795599937438965,1.6403001546859741
1772535474829026800,6.04202685546875,-0.6320285797119141,-1.5674171447753906,1.351034164428711
1772535474838969900,6.051969970703125,-1.0992374420166016,-1.8231902122497559,0.9620222449302673
1772535474848903400,6.0619033203125,-1.6612653732299805,-2.056173801422119,0.6136651635169983
1772535474858797800,6.0717978515625,-2.285623550415039,-2.1414928436279297,0.40757977962493896
1772535474868727600,6.0817275390625,-2.9703030586242676,-2.1243882179260254,0.33043694496154785
1772535474878686200,6.091686279296875,-3.4328601360321045,-2.0676231384277344,0.27260613441467285
1772535474888619000,6.101618896484375,-3.724916696548462,-1.9680500030517578,0.311474084854126
1772535474898547200,6.111547119140625,-3.9155211448669434,-1.834028720855713,0.5472058653831482
1772535474908479500,6.1214794921875,-3.767385721206665,-1.4928369522094727,0.8462637662887573
1772535474918417700,6.131417724609375,-3.357656717300415,-1.0074329376220703,1.0154860019683838
1772535474928350500,6.1413505859375,-2.8279643058776855,-0.6576070785522461,0.9220436811447144
1772535474938274300,6.1512744140625,-2.103915214538574,-0.4033780097961426,0.7530032396316528
1772535474948206000,6.1612060546875,-1.2255020141601562,-0.0380253791809082,0.5294356942176819
1772535474958144300,6.171144287109375,-0.46578073501586914,0.3766050338745117,0.24255770444869995
1772535474968076800,6.181076904296875,-0.08868741989135742,0.5450634956359863,0.15107083320617676
1772535474978009000,6.191009033203125,0.06006813049316406,0.5949721336364746,0.33444130420684814
1772535474987941600,6.200941650390625,0.3428764343261719,0.8037433624267578,0.6904807686805725
1772535474997869000,6.210869140625,0.7399396896362305,1.252601146697998,1.0427943468093872
1772535475007801000,6.220801025390625,1.0937552452087402,1.7262344360351562,1.2045437097549438
1772535475017735200,6.230735107421875,1.6045341491699219,2.073009490966797,1.0937132835388184
1772535475027667500,6.24066748046875,2.19987154006958,2.1749582290649414,0.7335675954818726
1772535475047506700,6.260506591796875,2.827054500579834,1.6072816848754883,-0.00921177864074707
1772535475057463800,6.2704638671875,2.829944610595703,1.1470484733581543,-0.17242944240570068
1772535475067396400,6.280396240234375,2.6255478858947754,0.7397966384887695,-0.15605008602142334
1772535475077328000,6.290327880859375,2.513078212738037,0.5020155906677246,-0.008329272270202637
1772535475087260400,6.300260498046875,2.677098274230957,0.3864297866821289,0.16529881954193115
1772535475097187800,6.310187744140625,3.4037108421325684,0.257354736328125,0.15340948104858398
1772535475107119900,6.320119873046875,5.005322456359863,0.1952681541442871,-0.4407792091369629
1772535475117049000,6.330049072265625,6.499977111816406,-0.0802001953125,-1.1740955114364624
1772535475126980900,6.33998095703125,7.333897590637207,-0.4998922348022461,-1.545707106590271
1772535475136917500,6.34991748046875,7.208774089813232,-0.617131233215332,-1.7604234218597412
1772535475146849800,6.359849853515625,5.6018147468566895,-0.382479190826416,-1.6182957887649536
1772535475156779500,6.369779541015625,3.102874755859375,0.13571834564208984,-1.0615932941436768
1772535475166711600,6.379711669921875,0.8893027305603027,0.8683605194091797,-0.43832719326019287
1772535475176672500,6.389672607421875,0.2408442497253418,1.445901870727539,0.373012900352478
1772535475186607400,6.399607421875,1.177497386932373,1.4292397499084473,1.5095456838607788
1772535475196508700,6.4095087890625,2.6533279418945312,0.8263635635375977,2.2597904205322266
1772535475206440400,6.4194404296875,3.8455734252929688,0.11030817031860352,2.3453376293182373
1772535475216385500,6.429385498046875,4.734124660491943,-0.4988083839416504,2.187101364135742
1772535475226318300,6.439318359375,4.88934850692749,-0.926844596862793,1.9617670774459839
1772535475236236800,6.44923681640625,4.421258449554443,-0.966029167175293,2.0552425384521484
1772535475246168300,6.459168212890625,3.85136079788208,-0.5286698341369629,2.5934271812438965
1772535475256103400,6.469103515625,3.1754980087280273,-0.10688352584838867,3.423243761062622
1772535475266035200,6.47903515625,1.9670839309692383,-0.07267379760742188,4.378425598144531
1772535475275969800,6.4889697265625,0.34941625595092773,-0.3064699172973633,4.899380683898926
1772535475285901800,6.49890185546875,-1.550950050354004,-0.7841005325317383,4.907679557800293
1772535475295812900,6.508812744140625,-3.4511220455169678,-1.3655824661254883,4.519486427307129
1772535475305742800,6.518742919921875,-4.9017438888549805,-2.024991512298584,3.829599380493164
1772535475315705000,6.528705078125,-5.894161701202393,-2.6709961891174316,2.9898464679718018
1772535475325638400,6.538638427734375,-6.625758647918701,-3.2663395404815674,2.2173383235931396
1772535475335537400,6.548537353515625,-6.98549747467041,-3.6207520961761475,1.441314458847046
1772535475345467100,6.558467041015625,-6.674989700317383,-3.700240135192871,0.5837695598602295
1772535475355401000,6.56840087890625,-5.79232931137085,-3.586700439453125,0.07333910465240479
1772535475365331200,6.578331298828125,-4.713277816772461,-3.2773144245147705,0.1995311975479126
1772535475375295700,6.588295654296875,-3.5303146839141846,-2.718116044998169,0.8060892224311829
1772535475385229300,6.598229248046875,-2.311675548553467,-2.2542476654052734,1.7708442211151123
1772535475395125000,6.608125,-1.2930469512939453,-1.9848198890686035,2.7081775665283203
1772535475405055000,6.618054931640625,-0.8366913795471191,-1.906022548675537,3.4548332691192627
1772535475414998800,6.627998779296875,-0.8501205444335938,-1.8731598854064941,3.6655921936035156
1772535475424930000,6.637929931640625,-1.1061577796936035,-1.7922477722167969,3.4188075065612793
1772535475434858800,6.647858642578125,-1.4593915939331055,-1.6180577278137207,2.7667434215545654
1772535475444789800,6.657789794921875,-1.7734880447387695,-1.503211498260498,1.8755090236663818
1772535475454724900,6.667724853515625,-1.8643889427185059,-1.419856071472168,0.9879907965660095
1772535475464656100,6.67765625,-1.6386399269104004,-1.2547855377197266,0.2963545322418213
1772535475474617300,6.687617431640625,-1.1641440391540527,-1.1006789207458496,-0.16330981254577637
1772535475484551700,6.6975517578125,-0.7024011611938477,-0.8549718856811523,-0.49996960163116455
1772535475494479400,6.707479248046875,-0.4333071708679199,-0.480471134185791,-0.7221243381500244
1772535475504413200,6.7174130859375,-0.21352815628051758,-0.013816356658935547,-0.8873836994171143
1772535475514334200,6.727334228515625,0.027776718139648438,0.49482107162475586,-0.9626510143280029
1772535475524266800,6.737266845703125,0.390106201171875,1.0808711051940918,-1.1068236827850342
1772535475534197200,6.747197265625,0.9966211318969727,1.6408195495605469,-1.4507406949996948
1772535475544129500,6.757129638671875,1.6041975021362305,1.9585304260253906,-1.9205613136291504
1772535475554064100,6.767064208984375,1.8999290466308594,2.0406479835510254,-2.458317279815674
1772535475563996400,6.776996337890625,2.0761327743530273,1.998971939086914,-3.102689266204834
1772535475573904000,6.78690380859375,2.4201393127441406,1.8766608238220215,-3.7409915924072266
1772535475583833900,6.796833740234375,2.939300537109375,1.6808967590332031,-4.037787914276123
1772535475593764900,6.806764892578125,3.38492488861084,1.525190830230713,-3.823789119720459
1772535475603694800,6.81669482421875,3.460684299468994,1.6331019401550293,-3.4171416759490967
1772535475623587800,6.836587890625,2.554433822631836,2.4773478507995605,-2.741443157196045
1772535475633521400,6.846521484375,2.277751922607422,2.940825939178467,-2.5682621002197266
1772535475643454500,6.856454345703125,1.8353080749511719,2.7136783599853516,-1.9384783506393433
1772535475653390600,6.866390625,1.3339653015136719,2.1721882820129395,-1.231764554977417
1772535475663324200,6.87632421875,1.1202330589294434,1.9623103141784668,-1.1179887056350708
1772535475673248800,6.886248779296875,1.0269536972045898,2.200438976287842,-1.6994457244873047
1772535475683181300,6.896181396484375,1.0445032119750977,2.6071629524230957,-2.4763970375061035
1772535475693112600,6.906112548828125,1.1666316986083984,2.75764799118042,-2.930744171142578
1772535475703045000,6.916045166015625,1.3432698249816895,2.6023731231689453,-2.830195665359497
1772535475712939500,6.925939453125,1.595963954925537,2.106668472290039,-2.470221757888794
1772535475722868200,6.9358681640625,1.9436206817626953,1.2908401489257812,-2.268911600112915
1772535475732844000,6.945843994140625,2.1834325790405273,0.2578287124633789,-2.2162022590637207
1772535475742777300,6.95577734375,2.177300453186035,-0.7491273880004883,-2.2752928733825684
1772535475752679200,6.96567919921875,1.9686040878295898,-1.5540547370910645,-2.2932217121124268
1772535475762609400,6.975609375,1.655747890472412,-2.060291290283203,-2.1521949768066406
1772535475772596200,6.98559619140625,1.3067536354064941,-2.274576187133789,-1.8741652965545654
1772535475782532000,6.995531982421875,0.8125476837158203,-2.2460708618164062,-1.4911141395568848
1772535475792432000,7.00543212890625,0.1534442901611328,-2.0501580238342285,-0.956156849861145
1772535475802364400,7.015364501953125,-0.6196084022521973,-1.7510724067687988,-0.42911452054977417
1772535475812300000,7.025300048828125,-1.355482578277588,-1.5279059410095215,0.03032839298248291
1772535475822232800,7.03523291015625,-1.7748723030090332,-1.4450197219848633,0.3461831212043762
1772535475832163000,7.0451630859375,-1.7927570343017578,-1.598358154296875,0.5148760080337524
1772535475842095400,7.055095458984375,-1.436145305633545,-1.91068696975708,0.5966578722000122
1772535475852000800,7.065000732421875,-1.073625087738037,-2.1880860328674316,0.5520278215408325
1772535475861930500,7.074930419921875,-0.8875641822814941,-2.2928740978240967,0.512024998664856
1772535475871885800,7.0848857421875,-0.7610688209533691,-2.2520029544830322,0.5075241327285767
1772535475881818000,7.094818115234375,-0.7117691040039062,-2.2105071544647217,0.5197262763977051
1772535475891753200,7.104753173828125,-0.7292971611022949,-2.1018002033233643,0.5489436388015747
1772535475901685800,7.114685791015625,-1.004084587097168,-2.088151216506958,0.639812171459198
1772535475911616300,7.1246162109375,-1.5608620643615723,-2.1471922397613525,0.716482937335968
1772535475921548500,7.134548583984375,-2.273934841156006,-2.277357816696167,0.7864270210266113
1772535475931481900,7.14448193359375,-2.9901580810546875,-2.419168710708618,0.8006062507629395
1772535475941414100,7.1544140625,-3.4982309341430664,-2.4777023792266846,0.7627445459365845
1772535475951347000,7.164346923828125,-3.9380991458892822,-2.4241645336151123,0.6535242795944214
1772535475961279500,7.174279541015625,-4.225242614746094,-2.1725594997406006,0.5133448243141174
1772535475971222000,7.184221923828125,-4.042000770568848,-1.7984638214111328,0.4358808994293213
1772535475981155600,7.194155517578125,-3.4605307579040527,-1.4272699356079102,0.5119726061820984
1772535475991074000,7.204073974609375,-2.6886067390441895,-1.1293144226074219,0.5322348475456238
1772535476001006000,7.214006103515625,-1.8713021278381348,-0.6883478164672852,0.42152833938598633
1772535476010936800,7.223936767578125,-1.0107345581054688,-0.24657249450683594,0.28368711471557617
1772535476020868600,7.23386865234375,-0.3424549102783203,0.06303882598876953,0.21903067827224731
1772535476030798000,7.243798095703125,-0.11160755157470703,0.2997627258300781,0.2464073896408081
1772535476040729900,7.253729736328125,-0.1837759017944336,0.4733715057373047,0.3962825536727905
1772535476050682000,7.26368212890625,-0.36998987197875977,0.7302751541137695,0.6766694784164429
1772535476060616000,7.273615966796875,-0.5260500907897949,1.0946564674377441,0.8639004230499268
1772535476070529800,7.28352978515625,-0.4558424949645996,1.3235726356506348,0.7976216077804565
1772535476080461600,7.293461669921875,0.009276866912841797,1.4728775024414062,0.5315831303596497
1772535476090397200,7.303397216796875,0.8781013488769531,1.6710877418518066,0.19860678911209106
1772535476100329200,7.3133291015625,1.9754447937011719,1.7955284118652344,-0.07478582859039307
1772535476110266600,7.3232666015625,3.0425477027893066,1.8220319747924805,-0.2066483497619629
1772535476120199400,7.333199462890625,3.8364758491516113,1.720736026763916,-0.18994784355163574
1772535476130121500,7.34312158203125,4.03255033493042,1.4395670890808105,0.02040696144104004
1772535476140053200,7.35305322265625,3.6904959678649902,1.131279468536377,0.21688920259475708
1772535476149984300,7.362984375,3.109684944152832,0.8570141792297363,0.23352211713790894
1772535476159916000,7.372916015625,2.6543498039245605,0.7791213989257812,0.039978981018066406
1772535476169844500,7.382844482421875,2.393012046813965,1.0337438583374023,-0.3786252737045288
1772535476179775700,7.392775634765625,1.8804268836975098,1.2137231826782227,-0.71665358543396
1772535476189709000,7.402708984375,1.3255095481872559,1.308973789215088,-0.7076225280761719
1772535476199640600,7.412640625,1.3751506805419922,1.6256356239318848,-0.3407609462738037
1772535476209574400,7.422574462890625,2.1284518241882324,1.9725427627563477,0.3932192325592041
1772535476219506200,7.432506103515625,3.1061248779296875,2.114091396331787,1.1754155158996582
1772535476229447400,7.442447509765625,3.871263027191162,1.984715461730957,1.9481449127197266
1772535476239380200,7.452380126953125,4.445009231567383,1.305098056793213,2.559112548828125
1772535476249305600,7.4623056640625,4.992130279541016,0.21915626525878906,2.7147934436798096
1772535476259237600,7.472237548828125,5.650471210479736,-0.7268409729003906,2.463813304901123
1772535476269177000,7.482177001953125,6.0161027908325195,-1.2446389198303223,2.174334764480591
1772535476279110000,7.49210986328125,5.811984062194824,-1.2497496604919434,2.110870122909546
1772535476289035000,7.502034912109375,5.201350212097168,-0.9501495361328125,2.288161039352417
1772535476298967000,7.511967041015625,4.443850517272949,-0.5503334999084473,2.3922510147094727
1772535476308906500,7.521906494140625,3.2553281784057617,-0.222198486328125,2.3305821418762207
1772535476318839000,7.531839111328125,1.7403669357299805,0.015170097351074219,2.1191487312316895
1772535476328774100,7.541774169921875,0.2807912826538086,0.15757513046264648,1.9305660724639893
1772535476338707200,7.551707275390625,-0.9732613563537598,-0.006827831268310547,1.6562992334365845
1772535476348597500,7.561597412109375,-1.939826488494873,-0.32463788986206055,1.422095775604248
1772535476358526200,7.571526123046875,-2.6132493019104004,-0.728766918182373,1.315472960472107
1772535476368490200,7.581490234375,-3.179198741912842,-1.24241304397583,1.190460443496704
1772535476378422500,7.591422607421875,-3.6900527477264404,-1.73506498336792,0.9979419708251953
1772535476388352800,7.601352783203125,-4.0933074951171875,-2.2152910232543945,0.7675817608833313
1772535476398284800,7.611284912109375,-4.2495341300964355,-2.6219043731689453,0.6047840118408203
1772535476408215600,7.621215576171875,-4.17066764831543,-2.8865902423858643,0.5743335485458374
1772535476418147600,7.631147705078125,-3.896169424057007,-2.9135758876800537,0.6225120425224304
1772535476428082400,7.64108251953125,-3.3583054542541504,-2.757493734359741,0.7544342279434204
1772535476438014700,7.6510146484375,-2.902416229248047,-2.5522327423095703,0.9573808908462524
1772535476447943700,7.660943603515625,-2.686415195465088,-2.331345558166504,1.282622218132019
1772535476457875700,7.670875732421875,-2.7072525024414062,-2.1405696868896484,1.7037839889526367
1772535476467807200,7.68080712890625,-2.795966625213623,-2.052845001220703,2.000553607940674
1772535476477739300,7.6907392578125,-2.779953956604004,-2.001552104949951,2.0673179626464844
1772535476487649800,7.70064990234375,-2.668552875518799,-1.996701717376709,1.8742501735687256
1772535476497579500,7.71057958984375,-2.331761360168457,-1.939692497253418,1.4129246473312378
1772535476507516200,7.72051611328125,-1.877425193786621,-1.8105578422546387,0.8175666332244873
1772535476517446700,7.73044677734375,-1.5081896781921387,-1.6284236907958984,0.22304677963256836
1772535476527376400,7.74037646484375,-1.2270684242248535,-1.4201102256774902,-0.29799485206604004
1772535476537307000,7.750306884765625,-1.0617384910583496,-1.1156582832336426,-0.6812317967414856
1772535476547245600,7.76024560546875,-1.039985179901123,-0.7402815818786621,-0.7939832210540771
1772535476557176800,7.7701767578125,-1.2573351860046387,-0.393890380859375,-0.654940664768219
1772535476567104800,7.780104736328125,-1.529848575592041,-0.03385162353515625,-0.48715853691101074
1772535476577035800,7.790035888671875,-1.4320063591003418,0.4610753059387207,-0.4201481342315674
1772535476586968800,7.79996875,-1.0393242835998535,1.0283722877502441,-0.5791416168212891
1772535476596900000,7.809900146484375,-0.672330379486084,1.4769577980041504,-0.8994331359863281
1772535476606837000,7.8198369140625,-0.5070209503173828,1.7442827224731445,-1.2967588901519775
1772535476616768800,7.829768798828125,-0.3951573371887207,1.9886927604675293,-1.7730752229690552
1772535476626695000,7.83969482421875,-0.25103282928466797,2.21518611907959,-2.0560860633850098
1772535476636626200,7.849626220703125,-0.02713489532470703,2.299610137939453,-1.9296417236328125
1772535476646579700,7.859579833984375,0.14265966415405273,2.2517380714416504,-1.5864697694778442
1772535476656513000,7.869512939453125,0.3834042549133301,2.2522153854370117,-1.430973768234253
1772535476666446300,7.8794462890625,0.6863884925842285,2.375591278076172,-1.4002044200897217
1772535476676379600,7.889379638671875,1.0479331016540527,2.442868709564209,-1.3491294384002686
1772535476686318000,7.899318115234375,1.4776811599731445,2.472972869873047,-1.311417818069458
1772535476696252000,7.909251953125,2.070291519165039,2.878084659576416,-1.7512242794036865
1772535476706184000,7.919183837890625,2.457946300506592,3.753612518310547,-2.5214526653289795
1772535476716117800,7.92911767578125,1.8109111785888672,3.622084140777588,-2.0250625610351562
1772535476726022400,7.9390224609375,0.995485782623291,2.563586711883545,-0.7766644358634949
1772535476735953200,7.948953125,0.8710203170776367,2.2584900856018066,-0.6353448033332825
1772535476745908000,7.958907958984375,1.06685209274292,2.438866138458252,-1.167021632194519
1772535476755841000,7.968841064453125,1.5724139213562012,2.300590991973877,-1.5400903224945068
1772535476765768200,7.978768310546875,2.374079704284668,2.109973430633545,-1.981156826019287
1772535476775700700,7.98870068359375,3.4552555084228516,1.9498329162597656,-2.6715011596679688
1772535476785608200,7.998608154296875,4.46793270111084,1.5696005821228027,-3.300069808959961
1772535476795538200,8.0085380859375,4.922587871551514,0.9472317695617676,-3.7388272285461426
1772535476805497900,8.018497802734375,4.787357330322266,0.0958867073059082,-3.861475944519043
1772535476815431000,8.028430908203125,4.118017673492432,-0.7721767425537109,-3.6430232524871826
1772535476825356000,8.03835595703125,3.0867843627929688,-1.3081274032592773,-3.1705031394958496
1772535476835288300,8.048288330078124,2.0350418090820312,-1.4947972297668457,-2.7710793018341064
1772535476845231400,8.0582314453125,1.311446189880371,-1.6090102195739746,-2.601893424987793
1772535476855164700,8.06816455078125,0.8547773361206055,-1.7949738502502441,-2.5649750232696533
1772535476865090000,8.078090087890626,0.6349496841430664,-1.9647583961486816,-2.2738609313964844
1772535476875022600,8.088022705078124,0.6181488037109375,-2.0358901023864746,-1.6783027648925781
1772535476884954000,8.0979541015625,0.6750164031982422,-2.0256905555725098,-1.068993091583252
1772535476894886400,8.107886474609375,0.6714658737182617,-2.066342353820801,-0.6126470565795898
1772535476904824800,8.117824951171874,0.4582347869873047,-2.146374225616455,-0.2246709018945694
1772535476914758000,8.1277578125,-0.10962343215942383,-2.16843318939209,0.1288558393716812
1772535476924675600,8.137675537109375,-0.9432759284973145,-2.106875419616699,0.3155696988105774
1772535476934607000,8.147607177734375,-1.7108101844787598,-1.878523349761963,0.32693490386009216
1772535476944557600,8.1575576171875,-2.2806577682495117,-1.692619800567627,0.28391775488853455
1772535476954491000,8.167490966796874,-2.7392125129699707,-1.893411636352539,0.27725762128829956
1772535476964384800,8.177384765625,-3.3523190021514893,-2.2813596725463867,0.35060393810272217
1772535476974314000,8.18731396484375,-3.904935836791992,-2.4639697074890137,0.3411043584346771
1772535476984269800,8.197269775390625,-4.165137767791748,-2.4826736450195312,0.25291624665260315
1772535476994201900,8.207201904296875,-4.2009758949279785,-2.5953264236450195,0.2150924652814865
1772535477004146000,8.21714599609375,-4.116994380950928,-2.7837047576904297,0.17587317526340485
1772535477014079200,8.227079345703125,-3.8644285202026367,-2.7959132194519043,-0.036786675453186035
1772535477024010800,8.2370107421875,-3.456927537918091,-2.5810818672180176,-0.29634058475494385
1772535477033944000,8.246944091796875,-2.903059959411621,-2.1937174797058105,-0.516981840133667
1772535477043870200,8.2568701171875,-2.24906063079834,-1.7792396545410156,-0.5803554654121399
1772535477053802500,8.266802490234374,-1.6598420143127441,-1.3637771606445312,-0.518645167350769
1772535477063727000,8.27672705078125,-1.1704597473144531,-0.9548273086547852,-0.4497188329696655
1772535477073659000,8.286658935546875,-0.9062309265136719,-0.5367655754089355,-0.2273065447807312
1772535477083599400,8.296599365234375,-0.9401378631591797,-0.18947649002075195,0.06976455450057983
1772535477093531600,8.30653173828125,-1.1793212890625,0.12333250045776367,0.29351815581321716
1772535477103456300,8.316456298828125,-1.4227104187011719,0.44870996475219727,0.45211708545684814
1772535477113387800,8.3263876953125,-1.414522647857666,0.8357367515563965,0.39484360814094543
1772535477123319800,8.33631982421875,-1.263232707977295,1.1387901306152344,0.32029861211776733
1772535477133251600,8.34625146484375,-1.01057767868042,1.2949719429016113,0.10674679279327393
1772535477143182000,8.35618212890625,-0.567965030670166,1.3309803009033203,-0.31913232803344727
1772535477153113900,8.36611376953125,-0.1315302848815918,1.251889705657959,-0.6206195950508118
1772535477163052300,8.37605224609375,0.23169422149658203,1.3352999687194824,-0.4915926456451416
1772535477172984600,8.385984619140626,0.6838269233703613,1.5529780387878418,0.08832323551177979
1772535477182908200,8.395908203125,1.0905237197875977,1.6002311706542969,0.7617335319519043
1772535477192839700,8.405839599609376,1.4230294227600098,1.4213910102844238,1.244215726852417
1772535477202781400,8.415781494140624,1.7384114265441895,1.2088747024536133,1.4278836250305176
1772535477212714000,8.4257138671875,2.027428150177002,0.9381756782531738,1.3858805894851685
1772535477222616600,8.435616455078126,2.3630123138427734,0.6548209190368652,1.120795488357544
1772535477232545800,8.4455458984375,2.966515064239502,0.6752781867980957,0.4702727198600769
1772535477242515700,8.455515625,3.4218010902404785,1.059516429901123,-0.2850269079208374
1772535477252449300,8.46544921875,2.834700584411621,0.8811588287353516,-0.3202054500579834
1772535477262366000,8.475365966796875,2.1564087867736816,0.6025605201721191,0.11558014154434204
1772535477272298000,8.485298095703126,1.9432787895202637,0.8682513236999512,0.5263082385063171
1772535477282240500,8.495240478515624,1.6509895324707031,1.1902480125427246,1.1118601560592651
1772535477292173600,8.505173583984375,1.3660001754760742,1.2253060340881348,1.7737003564834595
1772535477302097700,8.51509765625,1.509603500366211,0.944880485534668,2.3654463291168213
1772535477312029700,8.52502978515625,2.1293177604675293,0.48755455017089844,2.8376011848449707
1772535477321970200,8.53497021484375,2.94619083404541,0.0741872787475586,3.004023313522339
1772535477331903000,8.544903076171876,3.907972812652588,-0.4492607116699219,2.9335389137268066
1772535477341828600,8.55482861328125,4.887855052947998,-1.0000505447387695,2.863429546356201
1772535477351761000,8.564760986328125,5.3737993240356445,-1.3398633003234863,2.5240676403045654
1772535477361693200,8.574693115234375,5.02511739730835,-1.5539336204528809,1.939237356185913
1772535477371625500,8.58462548828125,3.773937702178955,-1.731452465057373,1.3827531337738037
1772535477381551000,8.594551025390626,2.0822529792785645,-1.8457374572753906,1.078724980354309
1772535477391482600,8.604482666015626,0.40807437896728516,-1.9000096321105957,1.013978362083435
1772535477401448400,8.614448486328126,-1.0786676406860352,-1.8150701522827148,0.946200430393219
1772535477411383600,8.624383544921875,-2.0993618965148926,-1.697150707244873,0.8013797402381897
1772535477421282600,8.634282470703125,-2.297337532043457,-1.6403398513793945,0.6424642205238342
1772535477431213800,8.6442138671875,-1.8991923332214355,-1.6963391304016113,0.6042889952659607
1772535477441124000,8.6541240234375,-1.2889137268066406,-1.7876667976379395,0.7136632800102234
1772535477451053300,8.66405322265625,-0.7588467597961426,-1.6840386390686035,0.8378119468688965
1772535477461006000,8.674006103515625,-0.2818922996520996,-1.3981876373291016,1.0930135250091553
1772535477470937600,8.6839375,0.010369300842285156,-1.1283893585205078,1.5377254486083984
1772535477480874200,8.693874267578124,-0.04289054870605469,-0.9811978340148926,1.9387140274047852
1772535477490806300,8.70380615234375,-0.4016590118408203,-0.9676389694213867,1.908705711364746
1772535477500742700,8.71374267578125,-1.007298469543457,-1.0604491233825684,1.535642385482788
1772535477510675200,8.72367529296875,-1.5396389961242676,-1.1406888961791992,1.240354061126709
1772535477520615400,8.733615478515626,-1.8985114097595215,-1.2096152305603027,1.1684746742248535
1772535477530548700,8.743548828125,-2.270364284515381,-1.3443264961242676,1.111142873764038
1772535477540463600,8.753463623046875,-2.404201030731201,-1.4505929946899414,0.9884239435195923
1772535477550395100,8.76339501953125,-2.2219438552856445,-1.514753818511963,0.8777651786804199
1772535477560331300,8.773331298828126,-1.854680061340332,-1.5772638320922852,0.8453807830810547
1772535477570263300,8.78326318359375,-1.6271729469299316,-1.5043792724609375,0.7391443252563477
1772535477580204300,8.793204345703124,-1.7680854797363281,-1.2532458305358887,0.5594848394393921
1772535477590137300,8.803137451171875,-2.1580967903137207,-0.8849678039550781,0.21618492901325226
1772535477600055300,8.81305517578125,-2.4534964561462402,-0.45153093338012695,-0.3161051869392395
1772535477609986600,8.822986572265625,-2.8207201957702637,-0.07886314392089844,-0.6849488615989685
1772535477619928000,8.832927978515626,-3.1975889205932617,0.19920778274536133,-0.8282418847084045
1772535477629860400,8.8428603515625,-3.3809852600097656,0.5045757293701172,-0.8406202793121338
1772535477639760400,8.852760498046875,-3.205888271331787,0.7432332038879395,-0.8080275058746338
1772535477649689300,8.862689453125,-2.564239501953125,0.8874044418334961,-0.7716944813728333
1772535477659656700,8.87265673828125,-1.6659722328186035,1.0597867965698242,-0.8106622099876404
1772535477669589800,8.88258984375,-0.6999430656433105,1.45786714553833,-0.9894525408744812
1772535477679489300,8.8924892578125,0.1933913230895996,1.8818535804748535,-1.1963332891464233
1772535477689419000,8.9024189453125,0.8638520240783691,2.008697032928467,-1.2691526412963867
1772535477699355600,8.912355712890625,1.3851938247680664,2.0282020568847656,-1.2923238277435303
1772535477709286100,8.9222861328125,1.768662452697754,1.9627685546875,-1.3701837062835693
1772535477719220000,8.932219970703125,1.8725643157958984,1.9397850036621094,-1.5511188507080078
1772535477729150700,8.942150634765625,1.8024697303771973,2.001983165740967,-1.763010025024414
1772535477739084300,8.952084228515625,1.634272575378418,2.092541217803955,-1.7872734069824219
1772535477749015300,8.962015380859375,1.4005422592163086,2.2029781341552734,-1.6379737854003906
1772535477758944300,8.9719443359375,1.2139172554016113,2.3168821334838867,-1.5044573545455933
1772535477768875000,8.981875,1.3916893005371094,2.533298969268799,-1.6263989210128784
1772535477778854100,8.991854248046875,1.8646435737609863,3.084165096282959,-2.1537883281707764
1772535477788790000,9.0017900390625,1.6439061164855957,3.295562744140625,-2.0450618267059326
1772535477798676700,9.0116767578125,1.200897216796875,2.7134881019592285,-1.1230661869049072
1772535477808607500,9.021607421875,1.2480549812316895,2.3485898971557617,-0.6464742422103882
1772535477818545400,9.03154541015625,1.4588403701782227,2.5502400398254395,-0.9514597058296204
1772535477828477000,9.041476806640626,1.5714449882507324,2.6464786529541016,-1.4249651432037354
1772535477838403300,9.0514033203125,1.886185646057129,2.5327115058898926,-2.048880100250244
1772535477848334300,9.061334228515625,2.574662208557129,2.2614388465881348,-2.7780098915100098
1772535477858273300,9.071273193359374,3.3100857734680176,1.7570414543151855,-3.4571590423583984
1772535477868205000,9.081205078125,3.8054251670837402,0.9765639305114746,-3.883822441101074
1772535477878149600,9.091149658203125,3.8601889610290527,-0.08483266830444336,-3.8774333000183105
1772535477888082700,9.101082763671876,3.478550910949707,-1.0533227920532227,-3.517094850540161
1772535477898015500,9.111015380859374,2.8053784370422363,-1.6533303260803223,-3.022548198699951
1772535477907948500,9.120948486328125,2.10213041305542,-1.974621295928955,-2.594353675842285
1772535477917892400,9.130892333984375,1.4052643775939941,-2.1877150535583496,-2.277292013168335
1772535477927826700,9.14082666015625,0.6079916954040527,-2.2858333587646484,-1.9087564945220947
1772535477937750500,9.15075048828125,-0.2113356590270996,-2.217456340789795,-1.6179983615875244
1772535477947683600,9.16068359375,-0.8756403923034668,-2.068188190460205,-1.2865872383117676
1772535477957603600,9.170603515625,-1.2080292701721191,-1.9713144302368164,-0.7754562497138977
1772535477967535600,9.18053564453125,-1.0961761474609375,-1.8955888748168945,-0.3961264491081238
1772535477977472000,9.190471923828126,-0.7209467887878418,-1.8565587997436523,-0.22251343727111816
1772535477987404300,9.200404296875,-0.4466733932495117,-1.7774477005004883,-0.20555943250656128
1772535477997346800,9.210346923828125,-0.3117389678955078,-1.6970915794372559,-0.1656617522239685
1772535478007280400,9.2202802734375,-0.35090208053588867,-1.6957478523254395,-0.042817115783691406
1772535478017190100,9.230190185546874,-0.5812973976135254,-1.7321882247924805,0.12192144989967346
1772535478027121000,9.240120849609376,-0.9494032859802246,-1.8356027603149414,0.25384753942489624
1772535478037068800,9.25006884765625,-1.4085001945495605,-2.0708398818969727,0.282878577709198
1772535478047001300,9.26000146484375,-1.8314452171325684,-2.2438178062438965,0.25682610273361206
1772535478056924200,9.269924072265624,-2.1339635848999023,-2.3574085235595703,0.13527452945709229
1772535478066856000,9.27985595703125,-2.278472900390625,-2.5261566638946533,-0.057486772537231445
1772535478076807400,9.289807373046875,-2.493659019470215,-2.6610805988311768,-0.35309356451034546
1772535478086741200,9.2997412109375,-2.6499223709106445,-2.611440896987915,-0.428594172000885
1772535478096633000,9.309633056640624,-2.542191982269287,-2.3742265701293945,-0.21773827075958252
1772535478106562600,9.3195625,-2.2898049354553223,-1.9368443489074707,0.10154575109481812
1772535478116521500,9.329521484375,-2.0116567611694336,-1.4482121467590332,0.26291149854660034
1772535478126454000,9.3394541015625,-1.822300910949707,-1.1081457138061523,0.21728354692459106
1772535478136385000,9.349385009765625,-1.8223729133605957,-0.957758903503418,0.14285969734191895
1772535478146317300,9.3593173828125,-1.846606731414795,-0.8261985778808594,0.2563747763633728
1772535478156253400,9.36925341796875,-1.5062828063964844,-0.5327739715576172,0.5448789000511169
1772535478166186000,9.37918603515625,-0.9032063484191895,-0.1815505027770996,0.8898808360099792
1772535478176087300,9.38908740234375,-0.308046817779541,0.07236433029174805,1.0768067836761475
1772535478186016800,9.399016845703125,0.023946762084960938,0.09717035293579102,0.8773926496505737
1772535478195975000,9.408974853515625,0.043183326721191406,0.009474754333496094,0.3774802088737488
1772535478205907200,9.4189072265625,0.18098115921020508,0.1269221305847168,-0.4269781708717346
1772535478215840800,9.4288408203125,0.6148381233215332,0.4118208885192871,-0.8591400384902954
1772535478225773000,9.43877294921875,1.0591492652893066,0.49315643310546875,-0.49500489234924316
1772535478235706400,9.448706298828125,1.285871982574463,0.48121166229248047,0.24097371101379395
1772535478245639000,9.458638916015625,1.3032207489013672,0.5287361145019531,0.7774501442909241
1772535478255573800,9.46857373046875,1.0791826248168945,0.5937938690185547,1.114203929901123
1772535478265506600,9.478506591796876,0.7148456573486328,0.6103978157043457,1.3651326894760132
1772535478275410000,9.488409912109375,0.5358681678771973,0.45430612564086914,1.3776806592941284
1772535478285340000,9.49833984375,0.6361274719238281,0.34145116806030273,1.224924087524414
1772535478295275800,9.50827587890625,1.1066455841064453,0.2603597640991211,0.9599483013153076
1772535478305206300,9.518206298828124,1.9579811096191406,0.27087974548339844,0.5647034049034119
1772535478315161300,9.528161376953125,2.738996982574463,0.3601222038269043,0.029633283615112305
1772535478325094400,9.538094482421876,2.346113681793213,0.2473926544189453,-0.1047290563583374
1772535478335031800,9.54803173828125,1.1471223831176758,0.29497241973876953,-0.05642282962799072
1772535478344965000,9.557965087890626,0.34495019912719727,0.9343400001525879,-0.2528013586997986
1772535478354893000,9.56789306640625,0.10462045669555664,1.6666364669799805,-0.4052097797393799
1772535478364826000,9.577826171875,-0.2505760192871094,1.966667652130127,-0.149847149848938
1772535478374754300,9.58775439453125,-0.26046133041381836,2.0679359436035156,0.4263111352920532
1772535478384686600,9.5976865234375,0.4694070816040039,1.7440533638000488,1.1493350267410278
1772535478394624300,9.607624267578124,1.3445706367492676,1.098832130432129,1.8700443506240845
1772535478404557000,9.61755712890625,2.4579105377197266,0.5954713821411133,2.318010091781616
1772535478414508300,9.62750830078125,4.118255138397217,0.24999761581420898,2.4932093620300293
1772535478424443000,9.63744287109375,5.587597846984863,-0.08011102676391602,2.2302370071411133
1772535478434355000,9.64735498046875,6.331794261932373,-0.3775663375854492,1.7490330934524536
1772535478444287200,9.657287353515626,6.203866958618164,-0.5342545509338379,1.2151405811309814
1772535478454200300,9.667200439453126,5.015711307525635,-0.5344715118408203,0.6512787342071533
1772535478464130800,9.677130859375,3.264298915863037,-0.4822998046875,0.422249972820282
1772535478474076000,9.687075927734375,1.4686589241027832,-0.45093774795532227,0.6301122903823853
1772535478484008000,9.697008056640625,-0.22310638427734375,-0.5145373344421387,0.9046138525009155
1772535478493946600,9.706946533203125,-1.1010308265686035,-0.5785202980041504,1.1716864109039307
1772535478503879400,9.71687939453125,-1.0467758178710938,-0.8046078681945801,1.2634696960449219
1772535478513808000,9.726807861328124,-0.5054292678833008,-1.360565185546875,1.1752556562423706
1772535478523740200,9.736740234375,-0.2528042793273926,-1.8448662757873535,0.9154163599014282
1772535478533646600,9.746646484375,-0.3158688545227051,-1.7113699913024902,0.11968398094177246
1772535478543576300,9.756576416015625,-1.1288995742797852,-1.3277339935302734,-1.400191307067871
1772535478553527300,9.76652734375,1.0569748878479004,-2.0395665168762207,-1.6783121824264526
1772535478563459000,9.776458984375,3.1014227867126465,-2.439584255218506,-0.25373291969299316
1772535478573402000,9.786402099609376,3.8414745330810547,-1.659759521484375,1.6445220708847046
1772535478583335000,9.7963349609375,2.8485965728759766,-0.6880626678466797,2.781158447265625
1772535478593262000,9.806261962890625,0.27955102920532227,-0.04404640197753906,3.0409042835235596
1772535478603194400,9.8161943359375,-1.9714159965515137,0.7225885391235352,2.850991725921631
1772535478613121800,9.826121826171875,-3.2662582397460938,0.8094758987426758,2.247525453567505
