time,seconds_elapsed,z,y,x
1772535468998963500,0.21196337890625,-0.34114086627960205,0.015845341607928276,-0.3493964374065399
1772535469008884700,0.221884765625,-0.3443365693092346,-0.009720250964164734,-0.32596129179000854
1772535469018820000,0.231820068359375,-0.33901041746139526,-0.022503048181533813,-0.2972000241279602
1772535469028758500,0.241758544921875,-0.32729285955429077,-0.04593817517161369,-0.27376487851142883
1772535469038688000,0.25168798828125,-0.3230319023132324,-0.08322133123874664,-0.25032976269721985
1772535469048622800,0.261622802734375,-0.3336842358112335,-0.10133028775453568,-0.20998406410217285
1772535469058547500,0.27154736328125,-0.3326190114021301,-0.07469946891069412,-0.16737474501132965
1772535469068478000,0.28147802734375,-0.33048853278160095,-0.005459319334477186,-0.12689588963985443
1772535469078398700,0.291398681640625,-0.3752283453941345,0.10639014840126038,-0.06937330216169357
1772535469088325400,0.301325439453125,-0.43701183795928955,0.1681736707687378,-0.043807707726955414
1772535469108212500,0.32121240234375,-0.4828168749809265,0.16071702539920807,-0.16098333895206451
1772535469118135600,0.331135498046875,-0.4849473237991333,0.2097177505493164,-0.2460688352584839
1772535469128066600,0.341066650390625,-0.48814302682876587,0.27895790338516235,-0.31424373388290405
1772535469138002200,0.351002197265625,-0.49879536032676697,0.3386109471321106,-0.3493964374065399
1772535469147935200,0.360935302734375,-0.5051867365837097,0.35245898365974426,-0.33661362528800964
1772535469157867000,0.370866943359375,-0.4870778024196625,0.31411057710647583,-0.24819929897785187
1772535469167799300,0.38079931640625,-0.42742475867271423,0.2203700840473175,-0.0874822586774826
1772535469177728800,0.390728759765625,-0.32835808396339417,0.07336792349815369,0.08082455396652222
1772535469187659800,0.40065966796875,-0.19413872063159943,-0.0555252730846405,0.16497796773910522
1772535469197564700,0.410564697265625,-0.07163692265748978,-0.23861220479011536,0.23847904801368713
1772535469207485400,0.4204853515625,0.008255556225776672,-0.4782896339893341,0.3460675776004791
1772535469217460500,0.43046044921875,0.03488638252019882,-0.6764229536056519,0.4322183132171631
1772535469227403000,0.440403076171875,0.03488638252019882,-0.8382052183151245,0.5067846179008484
1772535469237303300,0.45030322265625,0.017842652276158333,-1.0160990953445435,0.5834813714027405
1772535469247229000,0.46022900390625,-0.015179570764303207,-1.2014497518539429,0.679352343082428
1772535469257202700,0.47020263671875,-0.06418029218912125,-1.2738854885101318,0.7975932359695435
1772535469267148000,0.48014794921875,-0.112115778028965,-1.1907973289489746,0.8551158308982849
1772535469277032400,0.490032470703125,-0.1334204375743866,-1.0821435451507568,0.7901365756988525
1772535469286953000,0.499952880859375,-0.10892007499933243,-0.933010995388031,0.6761566400527954
1772535469296899800,0.50989990234375,-0.030092833563685417,-0.682814359664917,0.6623086333274841
1772535469306831000,0.5198310546875,0.09440627694129944,-0.44313693046569824,0.7507229447364807
1772535469316758500,0.529758544921875,0.23501703143119812,-0.3067871034145355,0.8444634675979614
1772535469326688300,0.539688232421875,0.36923640966415405,-0.21624229848384857,0.8881380558013916
1772535469336622000,0.5496220703125,0.45445504784584045,-0.08641702681779861,0.824224054813385
1772535469346552300,0.55955224609375,0.4704335331916809,0.07017222791910172,0.6484606266021729
1772535469356484600,0.569484619140625,0.457650750875473,0.21823962032794952,0.48867565393447876
1772535469366414800,0.579414794921875,0.44593316316604614,0.31198012828826904,0.4545882046222687
1772535469376340500,0.589340576171875,0.4384765326976776,0.29174068570137024,0.5312849879264832
1772535469386270200,0.599270263671875,0.4182371199131012,0.2001306563615799,0.6346125602722168
1772535469396219400,0.609219482421875,0.37349733710289,0.1585865616798401,0.7070484161376953
1772535469406151000,0.61915087890625,0.2999962568283081,0.2533923089504242,0.7379401922225952
1772535469416078000,0.629078125,0.23395180702209473,0.501458466053009,0.763505756855011
1772535469426009300,0.63900927734375,0.2158428430557251,0.8199630975723267,0.7943975329399109
1772535469445913300,0.658913330078125,0.3671059310436249,1.297054409980774,0.7592448592185974
1772535469455838700,0.668838623046875,0.47682493925094604,1.3300765752792358,0.679352343082428
1772535469465772800,0.678772705078125,0.5641740560531616,1.2331403493881226,0.5643072128295898
1772535469475691800,0.68869189453125,0.6238270998001099,0.9989222884178162,0.4343487620353699
1772535469485624300,0.698624267578125,0.6643059253692627,0.6868090033531189,0.3364804685115814
1772535469495557000,0.70855712890625,0.6812165379524231,0.40572062134742737,0.2715012729167938
1772535469505489700,0.71848974609375,0.6557840704917908,0.18202169239521027,0.19480448961257935
1772535469515420700,0.728420654296875,0.5918700695037842,0.020106272771954536,0.09786828607320786
1772535469525353200,0.738353271484375,0.5109124183654785,-0.054460037499666214,0.008388710208237171
1772535469535283700,0.74828369140625,0.4406070113182068,-0.021437814459204674,-0.06404713541269302
1772535469545216000,0.758216064453125,0.3841496706008911,0.0925421193242073,-0.12689588963985443
1772535469555154200,0.768154296875,0.3330184817314148,0.25765323638916016,-0.1737661361694336
1772535469565087000,0.7780869140625,0.29467007517814636,0.3780245780944824,-0.20785360038280487
1772535469574987300,0.7879873046875,0.2797568142414093,0.40998154878616333,-0.23967742919921875
1772535469584916700,0.797916748046875,0.28401774168014526,0.39826399087905884,-0.2769605815410614
1772535469594856400,0.8078564453125,0.30745288729667664,0.39932921528816223,-0.3195699155330658
1772535469604787200,0.817787109375,0.3436708152294159,0.4609795808792114,-0.3408745527267456
1772535469614717000,0.827717041015625,0.3958672285079956,0.5430025458335876,-0.32383084297180176
1772535469624647400,0.8376474609375,0.46830305457115173,0.6015903353691101,-0.275895357131958
1772535469634604500,0.8476044921875,0.546065092086792,0.702787458896637,-0.21943800151348114
1772535469644537900,0.857537841796875,0.6046528816223145,0.8402025699615479,-0.1822880059480667
1772535469654467600,0.867467529296875,0.6121095418930054,0.9712262153625488,-0.1716356724500656
1772535469664400600,0.877400634765625,0.560978353023529,1.046724557876587,-0.1620485782623291
1772535469674347000,0.887346923828125,0.4928034245967865,1.0627031326293945,-0.08961272984743118
1772535469684236000,0.897236083984375,0.4491288661956787,1.0552464723587036,0.054193731397390366
1772535469704117200,0.9171171875,0.481085866689682,0.8497896194458008,0.27043604850769043
1772535469714052900,0.927052978515625,0.5418041348457336,0.694265604019165,0.30345824360847473
1772535469723989800,0.93698974609375,0.5908048748970032,0.5334154367446899,0.29919731616973877
1772535469733925400,0.94692529296875,0.6185009479522705,0.4035901725292206,0.25871846079826355
1772535469743830000,0.956830078125,0.616370439529419,0.31411057710647583,0.16497796773910522
1772535469753762600,0.966762451171875,0.584413468837738,0.2416747361421585,-0.0011983871227130294
1772535469763720200,0.97672021484375,0.5343475341796875,0.1884130984544754,-0.22689463198184967
1772535469773655300,0.9866552734375,0.4512593448162079,0.1788259893655777,-0.4708330035209656
1772535469783586600,0.996586669921875,0.33727940917015076,0.1692388951778412,-0.697727620601654
1772535469793521400,1.006521484375,0.20306004583835602,0.11704248189926147,-0.849922776222229
1772535469803439400,1.016439453125,0.05193011090159416,0.054193731397390366,-0.8690969944000244
1772535469813372400,1.026372314453125,-0.0790935531258583,0.031823836266994476,-0.7147713303565979
1772535469823315700,1.036315673828125,-0.14939893782138824,0.06697652488946915,-0.3920057415962219
1772535469833249800,1.046249755859375,-0.16857312619686127,0.11917294561862946,0.024367205798625946
1772535469843176200,1.05617626953125,-0.13981182873249054,0.15326039493083954,0.40558746457099915
1772535469853109500,1.066109619140625,-0.05139749497175217,0.14473854005336761,0.6516563296318054
1772535469863039700,1.076039794921875,0.06564498692750931,0.06804175674915314,0.7294183373451233
1772535469872972800,1.085972900390625,0.13488513231277466,-0.08854749798774719,0.6591129302978516
1772535469882899500,1.0958994140625,0.11784140020608902,-0.275895357131958,0.4822842478752136
1772535469892832000,1.10583203125,0.05512581020593643,-0.3962666988372803,0.26830556988716125
1772535469902784300,1.1157841796875,-0.0034620072692632675,-0.3749620318412781,0.10106398165225983
1772535469912718600,1.125718505859375,-0.03328853100538254,-0.23861220479011536,0.0030625448562204838
1772535469922628900,1.13562890625,-0.023701434955000877,-0.10346075892448425,-0.08535179495811462
1772535469932561000,1.145560791015625,0.04021254554390907,0.012649642303586006,-0.18122276663780212
1772535469942496300,1.155496337890625,0.1316894292831421,0.08188978582620621,-0.2972000241279602
1772535469952428500,1.165428466796875,0.18175537884235382,0.047802332788705826,-0.4591154456138611
1772535469962368300,1.1753681640625,0.1625811904668808,-0.067242830991745,-0.6657706499099731
1772535469972301300,1.18530126953125,0.09440627694129944,-0.2141118347644806,-0.872292697429657
1772535469982220800,1.195220703125,-0.025831900537014008,-0.41117995977401733,-1.0363385677337646
1772535469992152600,1.205152587890625,-0.19200825691223145,-0.6348788738250732,-1.1407314538955688
1772535470002095000,1.21509521484375,-0.3762935698032379,-0.811574399471283,-1.1812102794647217
1772535470012028000,1.22502783203125,-0.5572500228881836,-0.8627055883407593,-1.1481879949569702
1772535470021948000,1.234947998046875,-0.7212958931922913,-0.7339455485343933,-1.034208059310913
1772535470031879400,1.24487939453125,-0.8416672348976135,-0.5027899742126465,-0.8477923274040222
1772535470041823500,1.254823486328125,-0.9034507870674133,-0.20665520429611206,-0.6071828007698059
1772535470051756300,1.26475634765625,-0.8704285621643066,0.061650361865758896,-0.37815773487091064
1772535470061672200,1.274672119140625,-0.7212958931922913,0.18734785914421082,-0.21943800151348114
1772535470071603200,1.284603271484375,-0.48814302682876587,0.11917294561862946,-0.13861344754695892
1772535470081538800,1.294538818359375,-0.23248711228370667,-0.1396786868572235,-0.1311568170785904
1772535470091470300,1.30447021484375,-0.018375270068645477,-0.5326164960861206,-0.16524426639080048
1772535470101403400,1.3144033203125,0.10079767554998398,-0.9734898209571838,-0.2057231217622757
1772535470111335200,1.324335205078125,0.11890663951635361,-1.3729522228240967,-0.24180789291858673
1772535470121275600,1.334275634765625,0.04553871229290962,-1.6774756908416748,-0.2865476906299591
1772535470131208200,1.344208251953125,-0.09294158220291138,-1.8958485126495361,-0.3621792197227478
1772535470141126000,1.3541259765625,-0.23674803972244263,-2.0629568099975586,-0.48255056142807007
1772535470151057000,1.364056884765625,-0.3539236783981323,-2.173741102218628,-0.6465964317321777
1772535470160994600,1.37399462890625,-0.4551208019256592,-2.150305986404419,-0.8371400237083435
1772535470170926000,1.383926025390625,-0.554054319858551,-2.014089345932007,-0.9830769300460815
1772535470180858600,1.393858642578125,-0.6680342555046082,-1.8042384386062622,-1.0075773000717163
1772535470190790400,1.403790283203125,-0.7958621978759766,-1.515560269355774,-0.9117063283920288
1772535470200731400,1.4137314453125,-0.8917331695556641,-1.1662969589233398,-0.7328802943229675
1772535470210664200,1.423664306640625,-0.9183640480041504,-0.7403369545936584,-0.5081161260604858
1772535470220595000,1.433594970703125,-0.8704285621643066,-0.3280917704105377,-0.30572187900543213
1772535470230527500,1.443527587890625,-0.7713618874549866,-0.11517832428216934,-0.1737661361694336
1772535470240426500,1.453426513671875,-0.6744256615638733,-0.0981345921754837,-0.09706936031579971
1772535470250355700,1.463355712890625,-0.6424686908721924,-0.18015754222869873,-0.067242830991745
1772535470260317000,1.47331689453125,-0.6797518134117126,-0.3163742125034332,-0.11198262125253677
1772535470270249200,1.483249267578125,-0.7766880393028259,-0.45485448837280273,-0.24287313222885132
1772535470280174600,1.493174560546875,-0.9162335395812988,-0.5251598954200745,-0.4228975176811218
1772535470290106000,1.503106201171875,-1.051518201828003,-0.5475297570228577,-0.5933347940444946
1772535470300041200,1.513041259765625,-1.1324758529663086,-0.5571168661117554,-0.705184280872345
1772535470309973200,1.52297314453125,-1.1527153253555298,-0.5208989381790161,-0.743532657623291
1772535470319903200,1.5329033203125,-1.1260844469070435,-0.4271584451198578,-0.7243584394454956
1772535470329835300,1.542835205078125,-1.0568443536758423,-0.26311254501342773,-0.6668358445167542
1772535470339767300,1.552767333984375,-0.9503210186958313,-0.04274247586727142,-0.5944000482559204
1772535470349699300,1.56269921875,-0.8224930763244629,0.18308693170547485,-0.5081161260604858
1772535470359632000,1.5726318359375,-0.6861432194709778,0.4513925015926361,-0.3738967776298523
1772535470369563600,1.582563720703125,-0.5465977191925049,0.7560491561889648,-0.1524614691734314
1772535470379543300,1.592543212890625,-0.4199681282043457,0.9882699251174927,0.1351514458656311
1772535470389480000,1.60247998046875,-0.32835808396339417,1.044594168663025,0.4194355010986328
1772535470399368000,1.612367919921875,-0.26763978600502014,0.9350082874298096,0.6665695905685425
1772535470409299700,1.6222998046875,-0.1983996480703354,0.7517881989479065,0.8636376857757568
1772535470419238000,1.63223779296875,-0.0801587849855423,0.5898727774620056,0.9893351793289185
1772535470429170200,1.642170166015625,0.10612384229898453,0.5387415885925293,1.0520507097244263
1772535470439067400,1.6520673828125,0.33621418476104736,0.5078498721122742,1.1063776016235352
1772535470448996000,1.66199609375,0.5631088018417358,0.3801550269126892,1.2022485733032227
1772535470458929700,1.6719296875,0.7664351463317871,0.17030413448810577,1.3194242715835571
1772535470468859000,1.68185888671875,0.9358072280883789,-0.024633513763546944,1.4035776853561401
1772535470478793200,1.691793212890625,1.0380696058273315,-0.1087869256734848,1.4397956132888794
1772535470488723000,1.701722900390625,1.0295476913452148,-0.08322133123874664,1.4057080745697021
1772535470498662000,1.711661865234375,0.9155677556991577,0.05312849581241608,1.2981195449829102
1772535470508592600,1.721592529296875,0.7440652847290039,0.32156720757484436,1.121290922164917
1772535470518556700,1.731556640625,0.5748263597488403,0.6346125602722168,0.8497896194458008
1772535470528490800,1.74149072265625,0.45552027225494385,0.8721595406532288,0.483349472284317
1772535470538387200,1.75138720703125,0.3958672285079956,1.007444143295288,0.07869409024715424
1772535470548317400,1.7613173828125,0.3639102280139923,1.0403331518173218,-0.32383084297180176
1772535470558248400,1.77124853515625,0.34686651825904846,1.0266183614730835,-0.6902710199356079
1772535470568178700,1.7811787109375,0.3564535975456238,1.0680292844772339,-0.9553808569908142
1772535470578136000,1.791135986328125,0.3958672285079956,1.128747582435608,-1.0778826475143433
1772535470588069000,1.801069091796875,0.4501941204071045,1.1468565464019775,-1.0661650896072388
1772535470598012000,1.811011962890625,0.5268908739089966,1.1244865655899048,-0.9479242563247681
1772535470607946000,1.820946044921875,0.630218505859375,1.090399146080017,-0.7445979118347168
1772535470617840000,1.830840087890625,0.7291520237922668,1.053115963935852,-0.49639859795570374
1772535470627770000,1.84077001953125,0.7877398133277893,0.9872047305107117,-0.2545906901359558
1772535470637736700,1.85073681640625,0.7909355163574219,0.8732247948646545,-0.061916667968034744
1772535470647670300,1.860670166015625,0.7312824726104736,0.7347444891929626,0.06910699605941772
1772535470657590800,1.8705908203125,0.6366099119186401,0.6356778144836426,0.145803764462471
1772535470667523000,1.880523193359375,0.5332822799682617,0.5845466256141663,0.18415215611457825
1772535470677454000,1.8904541015625,0.420367568731308,0.5568505525588989,0.17669552564620972
1772535470687386400,1.900386474609375,0.3031919598579407,0.5696333646774292,0.12023817747831345
1772535470697319200,1.910319091796875,0.21264714002609253,0.6601781845092773,0.044606633484363556
1772535470707251500,1.92025146484375,0.16045072674751282,0.8114412426948547,-0.018242115154862404
1772535470717180200,1.93018017578125,0.14340700209140778,0.9616391062736511,-0.057655736804008484
1772535470727112000,1.94011181640625,0.1412765234708786,1.0584421157836914,-0.08002562820911407
1772535470737047300,1.95004736328125,0.1423417627811432,1.1340737342834473,-0.08002562820911407
1772535470746979600,1.9599794921875,0.14979839324951172,1.2320750951766968,-0.053394805639982224
1772535470766839300,1.97983935546875,0.1306242048740387,1.430208444595337,0.006258244160562754
1772535470776774400,1.9897744140625,0.08162347972393036,1.460034966468811,-0.036351077258586884
1772535470786706400,1.99970654296875,0.04660394415259361,1.4248822927474976,-0.14287437498569489
1772535470796651800,2.00965185546875,0.06258244067430496,1.3343374729156494,-0.2673735022544861
1772535470806585000,2.019585205078125,0.11571093648672104,1.1905310153961182,-0.35578784346580505
1772535470816500500,2.02950048828125,0.18814678490161896,0.9946613311767578,-0.3813534080982208
1772535470826432000,2.039431884765625,0.27230018377304077,0.7358096837997437,-0.3312874734401703
1772535470836354300,2.049354248046875,0.3426055610179901,0.4822842478752136,-0.2119813710451126
1772535470846284800,2.059284912109375,0.377758264541626,0.316241055727005,-0.0555252730846405
1772535470856227600,2.0692275390625,0.36923640966415405,0.255522757768631,0.10106398165225983
1772535470866159400,2.079159423828125,0.31703996658325195,0.2715012729167938,0.22250054776668549
1772535470885980400,2.09898046875,0.1625811904668808,0.30132779479026794,0.29174068570137024
1772535470895958000,2.1089580078125,0.10505861043930054,0.2118482142686844,0.26724034547805786
1772535470905891000,2.11889111328125,0.07310161739587784,0.037150003015995026,0.23528334498405457
1772535470915820500,2.128820556640625,0.07097115367650986,-0.19706811010837555,0.21291345357894897
1772535470925753300,2.13875341796875,0.10505861043930054,-0.4175713360309601,0.21930484473705292
1772535470935686400,2.148686279296875,0.20199480652809143,-0.5102466344833374,0.2757622003555298
1772535470945619200,2.158619140625,0.37030163407325745,-0.35791829228401184,0.4194355010986328
1772535470955549400,2.168549560546875,0.6057181358337402,0.009453942999243736,0.6410039663314819
1772535470965481700,2.178481689453125,0.9027850031852722,0.3364804685115814,0.8551158308982849
1772535470975389700,2.1883896484375,1.2053111791610718,0.47802332043647766,0.9722914695739746
1772535470985319700,2.198319580078125,1.4246159791946411,0.4226312041282654,0.9019860625267029
1772535470995275800,2.20827587890625,1.492790937423706,0.07762885838747025,0.594133734703064
1772535471005208300,2.218208251953125,1.3532453775405884,-0.5177032351493835,0.11810771375894547
1772535471015136500,2.228136474609375,1.0178301334381104,-1.1524490118026733,-0.35578784346580505
1772535471025068500,2.238068603515625,0.5684349536895752,-1.6306054592132568,-0.706249475479126
1772535471035004400,2.24800439453125,0.13381989300251007,-1.9139574766159058,-0.9074453711509705
1772535471044937000,2.25793701171875,-0.21650861203670502,-2.0013065338134766,-0.9553808569908142
1772535471054866200,2.2678662109375,-0.4721645414829254,-1.8617609739303589,-0.8296833634376526
1772535471064798500,2.277798583984375,-0.6392729878425598,-1.482538104057312,-0.5698996782302856
1772535471074735600,2.287735595703125,-0.7351439595222473,-1.0150339603424072,-0.31211328506469727
1772535471084668200,2.297668212890625,-0.7447310090065002,-0.5667039752006531,-0.13328728079795837
1772535471094609000,2.30760888671875,-0.6669690012931824,-0.18548369407653809,-0.033155377954244614
1772535471104542500,2.31754248046875,-0.541404664516449,0.1031944528222084,-0.011850717477500439
1772535471114459000,2.327458984375,-0.38375020027160645,0.26724034547805786,-0.0768299326300621
1772535471124391000,2.337390869140625,-0.17283405363559723,0.23741380870342255,-0.20891882479190826
1772535471134327800,2.347327880859375,0.06364767253398895,-0.005459319334477186,-0.37709248065948486
1772535471144260000,2.357260009765625,0.2477998286485672,-0.37922295928001404,-0.5762910842895508
1772535471154187800,2.367187744140625,0.32769230008125305,-0.7232932448387146,-0.7648373246192932
1772535471164119600,2.37711962890625,0.29360485076904297,-0.9287500381469727,-0.8850755095481873
1772535471174054100,2.38705419921875,0.15405932068824768,-0.9830769300460815,-0.9074453711509705
1772535471183986400,2.396986328125,-0.07163692265748978,-0.9149020314216614,-0.8211615085601807
1772535471193916700,2.406916748046875,-0.3358147144317627,-0.7786853313446045,-0.6284874677658081
1772535471203848700,2.4168486328125,-0.5679023265838623,-0.6348788738250732,-0.3738967776298523
1772535471213777700,2.426777587890625,-0.6978607773780823,-0.5880086421966553,-0.1290263533592224
1772535471223709200,2.436709228515625,-0.7276872992515564,-0.6668358445167542,0.054193731397390366
1772535471233652000,2.44665185546875,-0.6904041767120361,-0.8051829934120178,0.1575213372707367
1772535471243584800,2.456584716796875,-0.6126421689987183,-0.9138367772102356,0.19267402589321136
1772535471253507800,2.4665078125,-0.5264914035797119,-0.9362066984176636,0.1884130984544754
1772535471263439600,2.476439697265625,-0.4497946500778198,-0.8435314297676086,0.1553908735513687
1772535471273384000,2.486384033203125,-0.3975982367992401,-0.6327484250068665,0.12343387305736542
1772535471283317200,2.496317138671875,-0.3656412363052368,-0.3717663288116455,0.12023817747831345
1772535471293240600,2.506240478515625,-0.35072797536849976,-0.1087869256734848,0.12982527911663055
1772535471303172600,2.516172607421875,-0.3379451632499695,0.09147688746452332,0.13834713399410248
1772535471313076700,2.52607666015625,-0.3336842358112335,0.17243459820747375,0.1351514458656311
1772535471323006000,2.536005859375,-0.32835808396339417,0.2203700840473175,0.15326039493083954
1772535471332964900,2.54596484375,-0.2942706346511841,0.25765323638916016,0.22250054776668549
1772535471342897200,2.555897216796875,-0.21437814831733704,0.2501966059207916,0.3386109471321106
1772535471352826000,2.565826171875,-0.09187635034322739,0.18628261983394623,0.4737623929977417
1772535471362758100,2.575758056640625,0.021038351580500603,-0.026763979345560074,0.5430025458335876
1772535471372705300,2.585705322265625,0.098667211830616,-0.32383084297180176,0.509980320930481
1772535471382638800,2.595638916015625,0.12316756695508957,-0.5965304970741272,0.421565979719162
1772535471392573400,2.605573486328125,0.06990591436624527,-0.8328790664672852,0.33328479528427124
1772535471402507000,2.615507080078125,-0.05991935729980469,-0.9362066984176636,0.2842840552330017
1772535471412417000,2.6254169921875,-0.21118244528770447,-0.8850755095481873,0.26937079429626465
1772535471422348000,2.63534814453125,-0.31983622908592224,-0.7935985922813416,0.24380521476268768
1772535471432284200,2.6452841796875,-0.33901041746139526,-0.6998580694198608,0.21823962032794952
1772535471442215700,2.655215576171875,-0.28574874997138977,-0.598660945892334,0.22995717823505402
1772535471452156700,2.66515673828125,-0.18881255388259888,-0.49320289492607117,0.30984964966773987
1772535471462089200,2.675089111328125,-0.0695064514875412,-0.37815773487091064,0.47695809602737427
1772535471472024000,2.685024169921875,0.04340824484825134,-0.2865476906299591,0.678287148475647
1772535471481956900,2.694956787109375,0.14340700209140778,-0.2023942768573761,0.8146369457244873
1772535471491873500,2.70487353515625,0.2616478502750397,-0.05659050494432449,0.847659170627594
1772535471501804800,2.7148046875,0.3766930401325226,0.1362166702747345,0.8103760480880737
1772535471511740200,2.724740234375,0.4384765326976776,0.3045234978199005,0.7102441191673279
1772535471521671700,2.734671630859375,0.41397619247436523,0.3929378390312195,0.5653724074363708
1772535471531605500,2.74460546875,0.30532240867614746,0.45778387784957886,0.3705679476261139
1772535471541537300,2.754537353515625,0.17110306024551392,0.5440677404403687,0.10532491654157639
1772535471551486700,2.76448681640625,0.06990591436624527,0.594133734703064,-0.2046578973531723
1772535471561420300,2.774420166015625,0.022103585302829742,0.5685681104660034,-0.48361578583717346
1772535471571331300,2.784331298828125,0.017842652276158333,0.4854799509048462,-0.6487269401550293
1772535471581262800,2.794262939453125,0.07629731297492981,0.35565468668937683,-0.6583139896392822
1772535471591194000,2.804194091796875,0.2169080674648285,0.18202169239521027,-0.5187684893608093
1772535471601125600,2.814125732421875,0.41291093826293945,-0.034220609813928604,-0.2865476906299591
1772535471611055900,2.824055908203125,0.6131747364997864,-0.275895357131958,-0.006524552125483751
1772535471620987100,2.833987060546875,0.7834789156913757,-0.4591154456138611,0.2874797582626343
1772535471630919400,2.84391943359375,0.9145025610923767,-0.5944000482559204,0.5195674300193787
1772535471640850700,2.8538505859375,0.9698946475982666,-0.6987928748130798,0.6260907053947449
1772535471650765600,2.863765625,0.9400681257247925,-0.7179670333862305,0.5962641835212708
1772535471660695300,2.8736953125,0.8484581112861633,-0.5965304970741272,0.44500109553337097
1772535471670631400,2.88363134765625,0.750456690788269,-0.36963585019111633,0.18095645308494568
1772535471680562000,2.89356201171875,0.6653711795806885,-0.06937330216169357,-0.14713531732559204
1772535471690494700,2.90349462890625,0.5620435476303101,0.297066867351532,-0.4665720760822296
1772535471700425500,2.913425537109375,0.44273748993873596,0.6900047063827515,-0.6700315475463867
1772535471710359300,2.923359375,0.30425718426704407,1.0914644002914429,-0.7041190266609192
1772535471720290300,2.933290283203125,0.16045072674751282,1.4483174085617065,-0.6114437580108643
1772535471730226000,2.943225830078125,0.03914731368422508,1.6750789880752563,-0.4793548583984375
1772535471740157200,2.9531572265625,-0.010918638668954372,1.7198187112808228,-0.3525921404361725
1772535471750087200,2.963087158203125,0.03275591507554054,1.6070371866226196,-0.2343512624502182
1772535471760018400,2.973018310546875,0.13701559603214264,1.373751163482666,-0.1087869256734848
1772535471769954600,2.98295458984375,0.27443066239356995,1.074420690536499,0.045671865344047546
1772535471779886300,2.99288623046875,0.4054543077945709,0.7656362652778625,0.21610915660858154
1772535471789812200,3.002812255859375,0.5066514611244202,0.5131760239601135,0.3684374690055847
1772535471799743200,3.0127431640625,0.5567173957824707,0.3513937294483185,0.4737623929977417
1772535471809677300,3.02267724609375,0.5641740560531616,0.23528334498405457,0.5206326246261597
1772535471819608800,3.03260888671875,0.5407389402389526,0.12449911236763,0.5174369215965271
1772535471829542400,3.04254248046875,0.47789016366004944,0.07017222791910172,0.4971975088119507
1772535471839474000,3.052473876953125,0.3575188219547272,0.14154283702373505,0.4971975088119507
1772535471849450200,3.0624501953125,0.20092958211898804,0.33435001969337463,0.5131760239601135
1772535471859386400,3.072386474609375,0.04660394415259361,0.5909380316734314,0.5216978788375854
1772535471869290000,3.0822900390625,-0.08548495173454285,0.8178326487541199,0.4844147264957428
1772535471879223000,3.09222314453125,-0.16857312619686127,0.9467258453369141,0.3991960883140564
1772535471889132000,3.102132080078125,-0.19946488738059998,1.0042483806610107,0.31304535269737244
1772535471899062500,3.1120625,-0.21118244528770447,1.0212922096252441,0.26724034547805786
1772535471909029400,3.122029296875,-0.23674803972244263,1.0095746517181396,0.28002312779426575
1772535471918963700,3.131963623046875,-0.28681400418281555,0.9808133244514465,0.3599156141281128
1772535471928879900,3.1418798828125,-0.3805544972419739,0.8977251052856445,0.47056668996810913
1772535471938812400,3.1518125,-0.51796954870224,0.7645710110664368,0.5270240306854248
1772535471948748800,3.161748779296875,-0.6808170676231384,0.5227631330490112,0.4418053925037384
1772535471958681300,3.171681396484375,-0.8086450099945068,0.18095645308494568,0.2416747361421585
1772535471968616700,3.18161669921875,-0.8214278221130371,-0.05978620424866676,0.07762885838747025
1772535471978550000,3.191550048828125,-0.7021217346191406,0.026497671380639076,0.060585130006074905
1772535471988474400,3.201474365234375,-0.4497946500778198,0.49187135696411133,0.08721595257520676
1772535471998406700,3.21140673828125,-0.05033225938677788,1.144726037979126,0.008388710208237171
1772535472008336100,3.221336181640625,0.4491288661956787,1.7006444931030273,-0.18761417269706726
1772535472018268000,3.231267822265625,0.8708279728889465,1.9296696186065674,-0.46124589443206787
1772535472028201700,3.24120166015625,1.0391348600387573,1.740058183670044,-0.7488588094711304
1772535472038133800,3.2511337890625,0.9571118950843811,1.3151633739471436,-0.9383371472358704
1772535472048062700,3.261062744140625,0.675890326499939,0.809310793876648,-0.9425980448722839
1772535472057994500,3.270994384765625,0.3095833361148834,0.2960016131401062,-0.7776201367378235
1772535472067936000,3.28093603515625,-0.018375270068645477,-0.2023942768573761,-0.51344233751297
1772535472077868500,3.29086865234375,-0.22716094553470612,-0.5890738368034363,-0.20039696991443634
1772535472087788800,3.300788818359375,-0.29746630787849426,-0.8318138122558594,0.12449911236763
1772535472097720300,3.31072021484375,-0.2580527067184448,-0.934076189994812,0.42476168274879456
1772535472107670300,3.320670166015625,-0.16857312619686127,-0.895727813243866,0.6527215242385864
1772535472117603600,3.330603515625,-0.09826774895191193,-0.743532657623291,0.7645710110664368
1772535472127521800,3.340521728515625,-0.08548495173454285,-0.4985290467739105,0.7187659740447998
1772535472137453600,3.35045361328125,-0.112115778028965,-0.25032976269721985,0.49932798743247986
1772535472147395600,3.3603955078125,-0.12809427082538605,-0.08215609937906265,0.14473854005336761
1772535472157328600,3.37032861328125,-0.09507204592227936,0.025432437658309937,-0.2535254657268524
1772535472167248400,3.380248291015625,-0.03328853100538254,0.0925421193242073,-0.5858781337738037
1772535472177180200,3.39018017578125,-0.00133154122158885,0.13941237330436707,-0.7701634764671326
1772535472187112400,3.400112548828125,-0.019440501928329468,0.19373925030231476,-0.8063814043998718
1772535472197044000,3.4100439453125,-0.07057169079780579,0.22889193892478943,-0.728619396686554
1772535472206984000,3.41998388671875,-0.13661614060401917,0.24806614220142365,-0.5571168661117554
1772535472216916200,3.429916259765625,-0.1983996480703354,0.2949363887310028,-0.3195699155330658
1772535472226805200,3.43980517578125,-0.2495308369398117,0.3620460629463196,-0.067242830991745
1772535472236733400,3.4497333984375,-0.28787922859191895,0.3513937294483185,0.10532491654157639
1772535472246709500,3.45970947265625,-0.31877097487449646,0.27043604850769043,0.14473854005336761
1772535472256642600,3.469642578125,-0.3347494900226593,0.17989122867584229,0.06484606117010117
1772535472266575000,3.4795751953125,-0.33048853278160095,0.08934641629457474,-0.08535179495811462
1772535472276508000,3.4895078125,-0.32835808396339417,0.007323476951569319,-0.24180789291858673
1772535472286432300,3.499432373046875,-0.34114086627960205,-0.04274247586727142,-0.33554840087890625
1772535472296364000,3.509364013671875,-0.38161972165107727,-0.03209014609456062,-0.36644014716148376
1772535472306309000,3.51930908203125,-0.42529428005218506,-0.011850717477500439,-0.3621792197227478
1772535472316242400,3.529242431640625,-0.4220985770225525,-0.021437814459204674,-0.30252617597579956
1772535472326172400,3.53917236328125,-0.3667064607143402,0.035019535571336746,-0.14926578104496002
1772535472336105200,3.549105224609375,-0.2921401560306549,0.10639014840126038,0.05312849581241608
1772535472346027000,3.559027099609375,-0.20266057550907135,0.08188978582620621,0.21397867798805237
1772535472355958800,3.568958740234375,-0.08548495173454285,-0.08215609937906265,0.2853493094444275
1772535472365892900,3.578892822265625,0.023168819025158882,-0.3195699155330658,0.25978371500968933
1772535472375825000,3.588824951171875,0.09653674066066742,-0.5571168661117554,0.18308693170547485
1772535472385752300,3.59875244140625,0.14340700209140778,-0.7573806643486023,0.11278154700994492
1772535472395683800,3.608683837890625,0.14340700209140778,-0.8935973644256592,0.06484606117010117
1772535472405650200,3.618650146484375,0.07842778414487839,-0.933010995388031,0.05312849581241608
1772535472415585300,3.628585205078125,-0.029027599841356277,-0.8531184792518616,0.11278154700994492
1772535472425483300,3.638483154296875,-0.14833369851112366,-0.7094451785087585,0.2533923089504242
1772535472435414800,3.648414794921875,-0.23781327903270721,-0.5773562788963318,0.4236964285373688
1772535472445356000,3.65835595703125,-0.2633788585662842,-0.4708330035209656,0.5515244007110596
1772535472455288300,3.668288330078125,-0.22076953947544098,-0.4239627420902252,0.6005251407623291
1772535472465208800,3.678208740234375,-0.13022473454475403,-0.45165881514549255,0.6015903353691101
1772535472475139800,3.688139892578125,-0.0077229393646121025,-0.53794264793396,0.610112190246582
1772535472485071000,3.698071044921875,0.1529940962791443,-0.6710968017578125,0.670830488204956
1772535472495002000,3.708002197265625,0.31810522079467773,-0.8904016613960266,0.785875678062439
1772535472504944000,3.717944091796875,0.43421560525894165,-1.2152976989746094,0.8892032504081726
1772535472514876200,3.727876220703125,0.481085866689682,-1.5166255235671997,0.9296821355819702
1772535472524798200,3.737798095703125,0.4374113082885742,-1.7019760608673096,0.8444634675979614
1772535472534729500,3.7477294921875,0.30745288729667664,-1.7935861349105835,0.6047860383987427
1772535472544666600,3.75766650390625,0.11890663951635361,-1.7626943588256836,0.2736317217350006
1772535472554598400,3.767598388671875,-0.09400681406259537,-1.5539087057113647,-0.024633513763546944
1772535472564527000,3.777527099609375,-0.2910749316215515,-1.1141005754470825,-0.2046578973531723
1772535472574458600,3.787458740234375,-0.4220985770225525,-0.5581821203231812,-0.2780258059501648
1772535472584401700,3.797401611328125,-0.45938172936439514,-0.07363422960042953,-0.3067871034145355
1772535472594334500,3.80733447265625,-0.41570720076560974,0.292805939912796,-0.3078523576259613
1772535472604255000,3.8172548828125,-0.30811864137649536,0.5366111397743225,-0.2854824364185333
1772535472614186500,3.8271865234375,-0.15685556828975677,0.6665695905685425,-0.21943800151348114
1772535472624123100,3.837123046875,-0.00133154122158885,0.6804175972938538,-0.10346075892448425
1772535472634055200,3.84705517578125,0.1316894292831421,0.5621767044067383,0.029693370684981346
1772535472643959600,3.85695947265625,0.25312599539756775,0.33328479528427124,0.13089050352573395
1772535472653888800,3.866888671875,0.36071452498435974,0.041410934180021286,0.14473854005336761
1772535472663850500,3.8768505859375,0.4267589747905731,-0.23967742919921875,0.04673709720373154
1772535472673783000,3.886782958984375,0.4278241991996765,-0.4346150755882263,-0.12263495475053787
1772535472683664100,3.8966640625,0.3639102280139923,-0.5102466344833374,-0.27056917548179626
1772535472703574300,3.91657421875,0.1934729516506195,-0.3302222490310669,-0.29187384247779846
1772535472713511000,3.926510986328125,0.1519288569688797,-0.14713531732559204,-0.16737474501132965
1772535472723438800,3.93643896484375,0.13381989300251007,0.09147688746452332,0.047802332788705826
1772535472733374700,3.946374755859375,0.12316756695508957,0.39719876646995544,0.30984964966773987
1772535472743283500,3.956283447265625,0.12316756695508957,0.6644390821456909,0.5291544795036316
1772535472753216500,3.966216552734375,0.13701559603214264,0.8561810255050659,0.6399387121200562
1772535472763180300,3.97618017578125,0.15725502371788025,1.0212922096252441,0.6452649235725403
1772535472773116700,3.98611669921875,0.16364642977714539,1.1596393585205078,0.5376763939857483
1772535472783031600,3.996031494140625,0.13381989300251007,1.2267489433288574,0.3173062801361084
1772535472792965600,4.005965576171875,0.07949301600456238,1.191596269607544,0.038215234875679016
1772535472802884900,4.015884765625,0.0018641578499227762,1.1692264080047607,-0.22050324082374573
1772535472812817400,4.0258173828125,-0.07696308940649033,1.1702916622161865,-0.491072416305542
1772535472822737700,4.035737548828125,-0.12489857524633408,0.7081136703491211,-0.7925333976745605
1772535472832669000,4.0456689453125,-0.1430075317621231,0.2725664973258972,-0.9117063283920288
1772535472842637600,4.055637451171875,-0.15152940154075623,0.14367330074310303,-0.7243584394454956
1772535472852572700,4.06557275390625,-0.15046416223049164,0.07443315535783768,-0.29080861806869507
1772535472862467300,4.07546728515625,-0.12170287221670151,0.013714875094592571,0.20439158380031586
1772535472872398600,4.085398681640625,-0.0588541254401207,-0.10133028775453568,0.5738942623138428
1772535472882328600,4.09532861328125,0.05193011090159416,-0.2588516175746918,0.7528534531593323
1772535472892259600,4.105259521484375,0.19134248793125153,-0.30252617597579956,0.7358096837997437
1772535472902193000,4.11519287109375,0.3106485903263092,-0.23861220479011536,0.5451329946517944
1772535472912124000,4.1251240234375,0.3766930401325226,-0.23754696547985077,0.297066867351532
1772535472922060300,4.135060302734375,0.3671059310436249,-0.26098209619522095,0.1564560979604721
1772535472931991800,4.14499169921875,0.2680392563343048,-0.16843996942043304,0.17456506192684174
1772535472941961700,4.154961669921875,0.14447222650051117,-0.07043853402137756,0.29174068570137024
1772535472951897000,4.16489697265625,0.0583215095102787,-0.041677240282297134,0.4343487620353699
1772535472971716400,4.18471630859375,-0.04181039705872536,-0.08002562820911407,0.5994598865509033
1772535472981682700,4.1946826171875,-0.06418029218912125,-0.14820054173469543,0.5664376616477966
1772535473001547800,4.2145478515625,-0.03967992961406708,-0.31317850947380066,0.40452224016189575
1772535473011481600,4.224481689453125,-0.008788172155618668,-0.23861220479011536,0.3588503897190094
1772535473021379800,4.2343798828125,0.029560215771198273,-0.06937330216169357,0.339676171541214
1772535473031310000,4.24431005859375,0.05938674136996269,0.044606633484363556,0.2842840552330017
1772535473041243100,4.2542431640625,0.0773625448346138,0.07975932210683823,0.16497796773910522
1772535473051173600,4.264173583984375,0.06564498692750931,0.037150003015995026,-0.03209014609456062
1772535473061142300,4.274142333984375,0.0050598569214344025,-0.0991998240351677,-0.2982652485370636
1772535473071076900,4.284076904296875,-0.09294158220291138,-0.2982652485370636,-0.5816172361373901
1772535473080990200,4.293990234375,-0.21544337272644043,-0.5230293869972229,-0.8531184792518616
1772535473090922500,4.303922607421875,-0.345401793718338,-0.7371412515640259,-1.0746870040893555
1772535473100854300,4.313854248046875,-0.4604469835758209,-0.8637708425521851,-1.2184934616088867
1772535473110786600,4.32378662109375,-0.5710980296134949,-0.9053149223327637,-1.2792117595672607
1772535473120731100,4.333731201171875,-0.7063826322555542,-0.7966611385345459,-1.2376675605773926
1772535473130664700,4.343664794921875,-0.852319598197937,-0.5038552284240723,-1.0991873741149902
1772535473140583700,4.353583740234375,-0.9737561345100403,-0.16524426639080048,-0.9138367772102356
1772535473150515700,4.363515625,-1.0355396270751953,0.08615072071552277,-0.7531197667121887
1772535473160447500,4.373447509765625,-1.020626425743103,0.1692388951778412,-0.6668358445167542
1772535473170379500,4.383379638671875,-0.9087769389152527,0.04993279650807381,-0.6657706499099731
1772535473180322000,4.393322021484375,-0.7287525534629822,-0.1906767040491104,-0.7019885778427124
1772535473190255000,4.403255126953125,-0.5487281680107117,-0.49639859795570374,-0.7243584394454956
1772535473200175000,4.413175048828125,-0.4412727653980255,-0.7765548825263977,-0.696662425994873
1772535473210107000,4.42310693359375,-0.43594661355018616,-0.9212934374809265,-0.6093133091926575
1772535473220046000,4.433046142578125,-0.5051867365837097,-0.9457937479019165,-0.4772244095802307
1772535473229978600,4.442978515625,-0.6169030666351318,-0.9298152923583984,-0.3195699155330658
1772535473239918300,4.45291845703125,-0.7426005601882935,-0.8808145523071289,-0.15565717220306396
1772535473249851400,4.462851318359375,-0.8480586409568787,-0.7818810343742371,-0.019307348877191544
1772535473259768000,4.47276806640625,-0.9087769389152527,-0.6764229536056519,0.04993279650807381
1772535473269699600,4.482699462890625,-0.9279510974884033,-0.5944000482559204,0.040345702320337296
1772535473279635500,4.492635498046875,-0.9119726419448853,-0.5177032351493835,-0.03209014609456062
1772535473289567500,4.5025673828125,-0.8896027207374573,-0.4580501914024353,-0.1396786868572235
1772535473299495400,4.512495361328125,-0.8917331695556641,-0.45485448837280273,-0.2577863931655884
1772535473309427000,4.522427001953125,-0.9151683449745178,-0.5155727863311768,-0.3440702557563782
1772535473319361000,4.532361083984375,-0.9631038308143616,-0.5965304970741272,-0.3920057415962219
1772535473329292800,4.542292724609375,-1.0334092378616333,-0.6476616859436035,-0.4058537781238556
1772535473339228400,4.552228515625,-1.1175626516342163,-0.6774882078170776,-0.3845491111278534
1772535473349160400,4.562160400390625,-1.195191502571106,-0.6657706499099731,-0.3323526978492737
1772535473359096600,4.5720966796875,-1.1632344722747803,-0.5560516119003296,-0.2854824364185333
1772535473369029000,4.582029052734375,-1.164299726486206,-0.26204732060432434,-0.2684387266635895
1772535473378948900,4.591948974609375,-1.201582908630371,0.06697652488946915,-0.23754696547985077
1772535473388880400,4.60188037109375,-1.137802004814148,0.24806614220142365,-0.2236989289522171
1772535473398814000,4.61181396484375,-1.0184959173202515,0.20652204751968384,-0.28441721200942993
1772535473408745500,4.621745361328125,-0.8906679749488831,0.013714875094592571,-0.38774481415748596
1772535473418669000,4.6316689453125,-0.7713618874549866,-0.1928071826696396,-0.5006595253944397
1772535473428599800,4.641599853515625,-0.6786866188049316,-0.3728315532207489,-0.6061176061630249
1772535473438532400,4.651532470703125,-0.6275554299354553,-0.5315513014793396,-0.6924014687538147
1772535473448463400,4.66146337890625,-0.6211640238761902,-0.6551182866096497,-0.7158365845680237
1772535473458386700,4.67138671875,-0.6499252915382385,-0.706249475479126,-0.6423355340957642
1772535473468317000,4.68131689453125,-0.6690995097160339,-0.5422036051750183,-0.5688344240188599
1772535473478279000,4.69127880859375,-0.6307511329650879,-0.22582940757274628,-0.48574626445770264
1772535473488212200,4.701212158203125,-0.5158390998840332,-0.08641702681779861,-0.25032976269721985
1772535473498147800,4.71114794921875,-0.37416309118270874,0.0030625448562204838,-0.048068638890981674
1772535473508081400,4.721081298828125,-0.24846559762954712,0.035019535571336746,0.11917294561862946
1772535473518003000,4.7310029296875,-0.13661614060401917,-0.007589785382151604,0.2853493094444275
1772535473527935500,4.740935546875,-0.006657706573605537,-0.06511236727237701,0.4535229504108429
1772535473537872400,4.750872314453125,0.14873315393924713,-0.0555252730846405,0.6399387121200562
1772535473547805200,4.76080517578125,0.29467007517814636,0.010519175790250301,0.8327459096908569
1772535473557728300,4.770728271484375,0.3862801194190979,-0.043807707726955414,0.9488562941551208
1772535473567660000,4.780659912109375,0.41184571385383606,-0.2790910601615906,0.9179645776748657
1772535473577602800,4.790602783203125,0.3990629315376282,-0.551790714263916,0.785875678062439
1772535473587535600,4.80053564453125,0.43208515644073486,-0.7925333976745605,0.6282211542129517
1772535473597463600,4.810463623046875,0.5215647220611572,-1.0906654596328735,0.44819679856300354
1772535473607396000,4.82039599609375,0.5343475341796875,-1.2504503726959229,0.251261830329895
1772535473617320700,4.83032080078125,0.4949339032173157,-1.1343400478363037,0.16178226470947266
1772535473627252500,4.84025244140625,0.40438908338546753,-0.8445966243743896,0.18308693170547485
1772535473637164000,4.8501640625,0.26484355330467224,-0.5187684893608093,0.2203700840473175
1772535473647093500,4.860093505859375,0.1721682846546173,-0.13754820823669434,0.2501966059207916
1772535473657048600,4.870048583984375,0.16897258162498474,0.2427399754524231,0.26937079429626465
1772535473666980600,4.879980712890625,0.22329947352409363,0.49080610275268555,0.2544575333595276
1772535473676916700,4.889916748046875,0.3138442933559418,0.594133734703064,0.2011958807706833
1772535473686849300,4.899849365234375,0.43208515644073486,0.5973294377326965,0.12449911236763
1772535473706688300,4.919688232421875,0.6929340958595276,0.3364804685115814,-0.09600412845611572
1772535473726554600,4.9395546875,0.859110414981842,-0.12796111404895782,-0.40798425674438477
1772535473736487000,4.94948681640625,0.927285373210907,-0.32596129179000854,-0.5315513014793396
1772535473746431700,4.959431640625,0.9475247859954834,-0.45272403955459595,-0.5858781337738037
1772535473756365300,4.969365234375,0.9294158220291138,-0.42183226346969604,-0.5411383509635925
1772535473766301400,4.979301513671875,0.8836107850074768,-0.18961147964000702,-0.4271584451198578
1772535473776235300,4.9892353515625,0.8133054375648499,0.19054356217384338,-0.2886781394481659
1772535473786162000,4.999161865234375,0.713173508644104,0.6750914454460144,-0.16524426639080048
1772535473796095000,5.009094970703125,0.5812177658081055,1.238466501235962,-0.09600412845611572
1772535473806033200,5.019033203125,0.4597811996936798,1.6846660375595093,-0.07896039634943008
1772535473815966700,5.028966796875,0.3745625615119934,1.8764079809188843,-0.09174319356679916
1772535473825888500,5.038888427734375,0.3095833361148834,1.8721470832824707,-0.15778763592243195
1772535473835821000,5.048821044921875,0.270169734954834,1.7081011533737183,-0.2748301327228546
1772535473845772500,5.0587724609375,0.2573869228363037,1.4930572509765625,-0.4143756330013275
1772535473855707000,5.068706787109375,0.27656111121177673,1.313032865524292,-0.536877453327179
1772535473865621000,5.07862109375,0.3213009238243103,1.1969224214553833,-0.6295527219772339
1772535473875553300,5.08855322265625,0.3660407066345215,1.1436607837677002,-0.6774882078170776
1772535473885484000,5.098484130859375,0.3979976773262024,1.137269377708435,-0.6540530920028687
1772535473895416300,5.108416259765625,0.41291093826293945,1.182009220123291,-0.5539211630821228
1772535473905359000,5.118359130859375,0.4193023443222046,1.244857907295227,-0.3930709958076477
1772535473915292400,5.12829248046875,0.4288894534111023,1.2363361120224,-0.2130466103553772
1772535473925191700,5.138191650390625,0.44380271434783936,1.1191604137420654,-0.043807707726955414
1772535473935121400,5.148121337890625,0.4374113082885742,0.9094427227973938,0.09467258304357529
1772535473945085000,5.1580849609375,0.39160630106925964,0.6420692205429077,0.1884130984544754
1772535473955018000,5.16801806640625,0.3223661482334137,0.39719876646995544,0.24487043917179108
1772535473964945400,5.1779453125,0.24140843749046326,0.19054356217384338,0.2736317217350006
1772535473974878000,5.1878779296875,0.16684211790561676,-0.0011983871227130294,0.28961023688316345
1772535473984781300,5.19778125,0.11890663951635361,-0.14287437498569489,0.3055887222290039
1772535473994711000,5.2077109375,0.09440627694129944,-0.17802706360816956,0.33435001969337463
1772535474004677400,5.217677490234375,0.07629731297492981,-0.14287437498569489,0.3886769115924835
1772535474014610700,5.227610595703125,0.04660394415259361,-0.10452599078416824,0.4758928418159485
1772535474024538600,5.23753857421875,0.022103585302829742,-0.08854749798774719,0.594133734703064
1772535474034471700,5.2474716796875,0.015712186694145203,-0.0874822586774826,0.7049179673194885
1772535474044405200,5.2574052734375,0.011451254598796368,-0.12583065032958984,0.7709624171257019
1772535474054338000,5.267338134765625,0.0061250897124409676,-0.19493764638900757,0.7698971629142761
1772535474064261600,5.27726171875,0.00719032296910882,-0.19706811010837555,0.7283530831336975
1772535474074193700,5.287193603515625,0.017842652276158333,-0.07896039634943008,0.6846785545349121
1772535474084102400,5.297102294921875,0.04873441159725189,0.005193010903894901,0.5898727774620056
1772535474094032000,5.307031982421875,0.1316894292831421,0.037150003015995026,0.4418053925037384
1772535474103999200,5.316999267578125,0.2605826258659363,0.0829550251364708,0.2661750912666321
1772535474113932800,5.326932861328125,0.39267152547836304,0.08615072071552277,0.04993279650807381
1772535474123830300,5.336830322265625,0.457650750875473,0.035019535571336746,-0.18761417269706726
1772535474133760000,5.346760009765625,0.41397619247436523,-0.06404713541269302,-0.40904948115348816
1772535474143695600,5.356695556640625,0.2680392563343048,-0.23115555942058563,-0.6242265701293945
1772535474153626000,5.366626220703125,0.0476691760122776,-0.42183226346969604,-0.8339443206787109
1772535474163561500,5.3765615234375,-0.19520394504070282,-0.5912043452262878,-1.0160990953445435
1772535474173492200,5.3864921875,-0.40718531608581543,-0.6572487950325012,-1.1066439151763916
1772535474183421000,5.3964208984375,-0.5657718777656555,-0.5571168661117554,-1.0459256172180176
1772535474193351400,5.406351318359375,-0.6701647043228149,-0.3813534080982208,-0.8403357267379761
1772535474203291400,5.41629150390625,-0.7138392925262451,-0.19600287079811096,-0.5315513014793396
1772535474213223000,5.426222900390625,-0.6904041767120361,-0.011850717477500439,-0.19294032454490662
1772535474223150000,5.436150146484375,-0.5966636538505554,0.10532491654157639,0.07443315535783768
1772535474233081000,5.4460810546875,-0.4444684684276581,0.13195574283599854,0.22782671451568604
1772535474243014000,5.456013916015625,-0.2591179311275482,0.07443315535783768,0.26724034547805786
1772535474252945400,5.4659453125,-0.09400681406259537,-0.08961272984743118,0.19054356217384338
1772535474262880300,5.47588037109375,-0.0002663082559593022,-0.33448317646980286,0.024367205798625946
1772535474272812000,5.48581201171875,-0.0077229393646121025,-0.5667039752006531,-0.16524426639080048
1772535474282764300,5.495764404296875,-0.10572437942028046,-0.7339455485343933,-0.31424373388290405
1772535474292698000,5.505697998046875,-0.26657456159591675,-0.8169005513191223,-0.3845491111278534
1772535474302626600,5.51562646484375,-0.44766417145729065,-0.7935985922813416,-0.3813534080982208
1772535474312559600,5.5255595703125,-0.6190335154533386,-0.7232932448387146,-0.3302222490310669
1772535474322504400,5.53550439453125,-0.7468615174293518,-0.6742925047874451,-0.23754696547985077
1772535474332438800,5.545438720703125,-0.8224930763244629,-0.6615096926689148,-0.10665645450353622
1772535474342334200,5.555334228515625,-0.8619066476821899,-0.7137061357498169,0.028628136962652206
1772535474352264700,5.5652646484375,-0.8906679749488831,-0.8190310597419739,0.11810771375894547
1772535474362222000,5.57522216796875,-0.9172987937927246,-0.8946625590324402,0.1468690037727356
1772535474372155100,5.585155029296875,-0.9311468005180359,-0.8648360371589661,0.14367330074310303
1772535474382082000,5.59508203125,-0.9343425035476685,-0.7190322875976562,0.12876003980636597
1772535474392014600,5.6050146484375,-0.9417991638183594,-0.5113118290901184,0.1149120107293129
1772535474401993700,5.61499365234375,-0.9524514675140381,-0.29293906688690186,0.0925421193242073
1772535474411931000,5.624930908203125,-0.9503210186958313,-0.11624355614185333,0.0712374597787857
1772535474421824300,5.63482421875,-0.9386034607887268,-0.016111649572849274,0.048867564648389816
1772535474431757000,5.644757080078125,-0.9204944968223572,0.010519175790250301,0.019041040912270546
1772535474441688000,5.65468798828125,-0.8682980537414551,-0.016111649572849274,-0.017176883295178413
1772535474451620600,5.66462060546875,-0.7745575904846191,-0.08002562820911407,-0.07256899774074554
1772535474461548000,5.674548095703125,-0.6712299585342407,-0.16098333895206451,-0.13541774451732635
1772535474471480000,5.68447998046875,-0.576424241065979,-0.19919857382774353,-0.14713531732559204
1772535474481402000,5.694402099609375,-0.49240395426750183,-0.16524426639080048,-0.09174319356679916
1772535474491333400,5.70433349609375,-0.41783764958381653,-0.10346075892448425,0.001997311832383275
1772535474501272800,5.71427294921875,-0.345401793718338,-0.050199106335639954,0.09893351793289185
1772535474511204600,5.72420458984375,-0.2825530469417572,-0.034220609813928604,0.2011958807706833
1772535474521133600,5.734133544921875,-0.2388785034418106,-0.040612008422613144,0.33115431666374207
1772535474531065300,5.7440654296875,-0.2079867422580719,-0.08961272984743118,0.47802332043647766
1772535474540999700,5.753999755859375,-0.16750788688659668,-0.1737661361694336,0.6111774444580078
1772535474550931700,5.763931640625,-0.111050546169281,-0.24819929897785187,0.6963961124420166
1772535474560862500,5.773862548828125,-0.05778888985514641,-0.32596129179000854,0.6995918154716492
1772535474570794200,5.783794189453125,-0.023701434955000877,-0.3952014446258545,0.63248211145401
1772535474580731400,5.7937314453125,0.0007989247678779066,-0.4122451841831207,0.5430025458335876
1772535474590663700,5.80366357421875,0.03382114693522453,-0.2897433936595917,0.4982627332210541
1772535474600601900,5.813601806640625,0.08908011019229889,-0.08109086751937866,0.5344806909561157
1772535474610534700,5.82353466796875,0.13808083534240723,0.0009320789249613881,0.6005251407623291
1772535474620476400,5.833476318359375,0.1615159511566162,0.006258244160562754,0.6665695905685425
1772535474630410200,5.84341015625,0.1849510818719864,0.0936073511838913,0.7240921258926392
1772535474640293000,5.853293212890625,0.2147776037454605,0.19693495333194733,0.7272878289222717
1772535474650221800,5.863221923828125,0.22116900980472565,0.2629793882369995,0.6378082633018494
1772535474660180200,5.87318017578125,0.19666863977909088,0.3833507299423218,0.4822842478752136
1772535474670112000,5.883112060546875,0.14766792953014374,0.5845466256141663,0.27895790338516235
1772535474680042000,5.8930419921875,0.09014534205198288,0.7730928659439087,0.042476166039705276
1772535474689973500,5.902973388671875,0.05299534276127815,0.8955946564674377,-0.19933173060417175
1772535474699865300,5.912865234375,0.06884068250656128,0.9467258453369141,-0.4228975176811218
1772535474709796900,5.922796875,0.15405932068824768,0.9872047305107117,-0.6039870977401733
1772535474719774500,5.9327744140625,0.31810522079467773,1.0456594228744507,-0.721162736415863
1772535474729710000,5.9427099609375,0.5513912439346313,1.0882686376571655,-0.7605763673782349
1772535474739641900,5.952641845703125,0.8101097345352173,1.0882686376571655,-0.7169018387794495
1772535474749577000,5.962576904296875,1.0465914011001587,0.9957265853881836,-0.5997262001037598
1772535474759499300,5.972499267578125,1.243659496307373,0.777353823184967,-0.4388760030269623
1772535474769433000,5.98243310546875,1.3830718994140625,0.46950146555900574,-0.27056917548179626
1772535474779403300,5.9924033203125,1.4288769960403442,0.1031944528222084,-0.13328728079795837
1772535474789340700,6.002340576171875,1.3596367835998535,-0.2535254657268524,-0.047003407031297684
1772535474799229400,6.0122294921875,1.2031806707382202,-0.4804200828075409,-0.0001331541279796511
1772535474809162000,6.022161865234375,1.012503981590271,-0.528355598449707,0.03288906812667847
1772535474819094300,6.03209423828125,0.8250229954719543,-0.4367455542087555,0.06591129302978516
1772535474829026800,6.04202685546875,0.6621754765510559,-0.2577863931655884,0.10532491654157639
1772535474838969900,6.051969970703125,0.546065092086792,-0.034220609813928604,0.145803764462471
1772535474848903400,6.0619033203125,0.4842815697193146,0.19267402589321136,0.17989122867584229
1772535474858797800,6.0717978515625,0.46404212713241577,0.4110468029975891,0.19800019264221191
1772535474868727600,6.0817275390625,0.45445504784584045,0.5930684804916382,0.17243459820747375
1772535474878686200,6.091686279296875,0.4491288661956787,0.7208964228630066,0.08615072071552277
1772535474888619000,6.101618896484375,0.4597811996936798,0.8125064969062805,-0.047003407031297684
1772535474898547200,6.111547119140625,0.48641201853752136,0.8519201278686523,-0.20146219432353973
1772535474908479500,6.1214794921875,0.4906729757785797,0.8135717511177063,-0.364309698343277
1772535474918417700,6.131417724609375,0.4491288661956787,0.7070484161376953,-0.514507532119751
1772535474928350500,6.1413505859375,0.37243208289146423,0.5781552195549011,-0.6252917647361755
1772535474938274300,6.1512744140625,0.30532240867614746,0.45991435647010803,-0.6902710199356079
1772535474948206000,6.1612060546875,0.2680392563343048,0.3918725848197937,-0.7073147296905518
1772535474958144300,6.171144287109375,0.25312599539756775,0.41637295484542847,-0.6700315475463867
1772535474968076800,6.181076904296875,0.2573869228363037,0.4652405083179474,-0.5837476849555969
1772535474978009000,6.191009033203125,0.27443066239356995,0.4439358711242676,-0.47402870655059814
1772535474987941600,6.200941650390625,0.2786915898323059,0.33328479528427124,-0.364309698343277
1772535474997869000,6.210869140625,0.24353890120983124,0.20226112008094788,-0.2545906901359558
1772535475007801000,6.220801025390625,0.15405932068824768,0.08508548885583878,-0.1396786868572235
1772535475017735200,6.230735107421875,0.013581721112132072,-0.025698747485876083,-0.034220609813928604
1772535475027667500,6.24066748046875,-0.15046416223049164,-0.1087869256734848,0.059519894421100616
1772535475037576700,6.25057666015625,-0.2921401560306549,-0.09706936031579971,0.15965180099010468
1772535475047506700,6.260506591796875,-0.367771714925766,0.017975807189941406,0.24060951173305511
1772535475057463800,6.2704638671875,-0.3656412363052368,0.20332635939121246,0.2821536064147949
1772535475067396400,6.280396240234375,-0.30918389558792114,0.40998154878616333,0.2853493094444275
1772535475077328000,6.290327880859375,-0.23248711228370667,0.5685681104660034,0.25765323638916016
1772535475087260400,6.300260498046875,-0.15898603200912476,0.6612433791160583,0.21717438101768494
1772535475097187800,6.310187744140625,-0.09933298081159592,0.6633738875389099,0.2001306563615799
1772535475107119900,6.320119873046875,-0.04607132822275162,0.5845466256141663,0.25765323638916016
1772535475117049000,6.330049072265625,0.028494983911514282,0.42582690715789795,0.4822842478752136
1772535475126980900,6.33998095703125,0.10505861043930054,0.19054356217384338,0.8785509467124939
1772535475136917500,6.34991748046875,0.1625811904668808,0.08934641629457474,1.3215546607971191
1772535475146849800,6.359849853515625,0.25312599539756775,0.27789267897605896,1.6059719324111938
1772535475156779500,6.369779541015625,0.39054104685783386,0.7358096837997437,1.497318148612976
1772535475166711600,6.379711669921875,0.5428693890571594,1.313032865524292,0.9264864325523376
1772535475176672500,6.389672607421875,0.6483274698257446,1.8114287853240967,0.023301972076296806
1772535475186607400,6.399607421875,0.6419360637664795,2.183195114135742,-0.9298152923583984
1772535475196508700,6.4095087890625,0.5215647220611572,2.375869035720825,-1.6689538955688477
1772535475206440400,6.4194404296875,0.37136685848236084,2.348173141479492,-2.080000638961792
1772535475216385500,6.429385498046875,0.28401774168014526,2.099041700363159,-2.163088798522949
1772535475226318300,6.439318359375,0.2999962568283081,1.6166242361068726,-1.9246097803115845
1772535475236236800,6.44923681640625,0.39267152547836304,0.9371387362480164,-1.4335373640060425
1772535475246168300,6.459168212890625,0.47469446063041687,0.1692388951778412,-0.7914681434631348
1772535475256103400,6.469103515625,0.46617260575294495,-0.5166380405426025,-0.08109086751937866
1772535475266035200,6.47903515625,0.31810522079467773,-1.032077670097351,0.5973294377326965
1772535475275969800,6.4889697265625,0.05193011090159416,-1.3346037864685059,1.128747582435608
1772535475285901800,6.49890185546875,-0.2580527067184448,-1.407971739768982,1.4227519035339355
1772535475295812900,6.508812744140625,-0.5593804717063904,-1.3559085130691528,1.4472522735595703
1772535475305742800,6.518742919921875,-0.8075798153877258,-1.2184934616088867,1.2299447059631348
1772535475315705000,6.528705078125,-0.9737561345100403,-0.9670984148979187,0.8508548736572266
1772535475325638400,6.538638427734375,-1.0547138452529907,-0.6742925047874451,0.39719876646995544
1772535475335537400,6.548537353515625,-1.0653661489486694,-0.4921376705169678,-0.06937330216169357
1772535475345467100,6.558467041015625,-1.0110392570495605,-0.5358121991157532,-0.4995943009853363
1772535475355401000,6.56840087890625,-0.8810808658599854,-0.7914681434631348,-0.8159685134887695
1772535475365331200,6.578331298828125,-0.7106435894966125,-1.1524490118026733,-0.9894683361053467
1772535475375295700,6.588295654296875,-0.5657718777656555,-1.4857337474822998,-1.0459256172180176
1772535475385229300,6.598229248046875,-0.4966649115085602,-1.7104979753494263,-1.018229603767395
1772535475395125000,6.608125,-0.5232957005500793,-1.7275416851043701,-0.9202281832695007
1772535475405055000,6.618054931640625,-0.6371424794197083,-1.5017122030258179,-0.7818810343742371
1772535475414998800,6.627998779296875,-0.8033188581466675,-1.1599055528640747,-0.6519225835800171
1772535475424930000,6.637929931640625,-0.9822779893875122,-0.825422465801239,-0.5635082721710205
1772535475434858800,6.647858642578125,-1.1505848169326782,-0.5645735263824463,-0.504920482635498
1772535475444789800,6.657789794921875,-1.2846710681915283,-0.4292888939380646,-0.45485448837280273
1772535475454724900,6.667724853515625,-1.3571069240570068,-0.4505935609340668,-0.40159285068511963
1772535475464656100,6.67765625,-1.365628719329834,-0.5954652428627014,-0.3419398069381714
1772535475474617300,6.687617431640625,-1.3304760456085205,-0.7925333976745605,-0.26950395107269287
1772535475484551700,6.6975517578125,-1.2537792921066284,-0.9425980448722839,-0.17909230291843414
1772535475494479400,6.707479248046875,-1.1420629024505615,-0.9937292337417603,-0.08641702681779861
1772535475504413200,6.7174130859375,-1.0248873233795166,-0.9830769300460815,-0.019307348877191544
1772535475514334200,6.727334228515625,-0.9204944968223572,-0.9255543351173401,0.016910573467612267
1772535475524266800,6.737266845703125,-0.8395367860794067,-0.8371400237083435,0.031823836266994476
1772535475534197200,6.747197265625,-0.8022536039352417,-0.7445979118347168,0.03288906812667847
1772535475544129500,6.757129638671875,-0.7852098941802979,-0.644465982913971,0.054193731397390366
1772535475554064100,6.767064208984375,-0.7489919662475586,-0.528355598449707,0.11704248189926147
1772535475563996400,6.776996337890625,-0.6659038066864014,-0.5102466344833374,0.21504391729831696
1772535475573904000,6.78690380859375,-0.5275566577911377,-0.6647053956985474,0.36524176597595215
1772535475583833900,6.796833740234375,-0.3326190114021301,-0.9468590021133423,0.5962641835212708
1772535475593764900,6.806764892578125,-0.10678961127996445,-1.2323414087295532,0.9019860625267029
1772535475603694800,6.81669482421875,0.09227581322193146,-1.3761478662490845,1.2299447059631348
1772535475613654800,6.82665478515625,0.24566936492919922,-1.3346037864685059,1.48347008228302
1772535475623587800,6.836587890625,0.354323148727417,-1.147122859954834,1.5665583610534668
1772535475633521400,6.846521484375,0.42249804735183716,-0.8659012913703918,1.4760135412216187
1772535475643454500,6.856454345703125,0.45552027225494385,-0.5496602654457092,1.3247504234313965
1772535475653390600,6.866390625,0.4469984173774719,-0.3387441039085388,1.1468565464019775
1772535475663324200,6.87632421875,0.39160630106925964,-0.30359140038490295,0.9648348093032837
1772535475673248800,6.886248779296875,0.30638766288757324,-0.3408745527267456,0.8103760480880737
1772535475683181300,6.896181396484375,0.24566936492919922,-0.4058537781238556,0.6655043363571167
1772535475693112600,6.906112548828125,0.24247366189956665,-0.46444159746170044,0.5046541690826416
1772535475703045000,6.916045166015625,0.2669740319252014,-0.4473978579044342,0.3077192008495331
1772535475712939500,6.925939453125,0.2605826258659363,-0.36644014716148376,0.07443315535783768
1772535475722868200,6.9358681640625,0.21051667630672455,-0.21517707407474518,-0.1620485782623291
1772535475732844000,6.945843994140625,0.1529940962791443,-0.006524552125483751,-0.35578784346580505
1772535475742777300,6.95577734375,0.1306242048740387,0.20545682311058044,-0.4772244095802307
1772535475752679200,6.96567919921875,0.16577689349651337,0.39932921528816223,-0.528355598449707
1772535475762609400,6.975609375,0.2509955167770386,0.5472634434700012,-0.53794264793396
1772535475772596200,6.98559619140625,0.36071452498435974,0.679352343082428,-0.5326164960861206
1772535475782532000,6.995531982421875,0.4821510910987854,0.8465939164161682,-0.5262250900268555
1772535475792432000,7.00543212890625,0.5993267297744751,1.0627031326293945,-0.5422036051750183
1772535475802364400,7.015364501953125,0.674825131893158,1.2778801918029785,-0.5933347940444946
1772535475812300000,7.025300048828125,0.6886731386184692,1.4120994806289673,-0.6764229536056519
1772535475822232800,7.03523291015625,0.6461969614028931,1.3801425695419312,-0.7840114831924438
1772535475832163000,7.0451630859375,0.560978353023529,1.2022485733032227,-0.8744231462478638
1772535475842095400,7.055095458984375,0.4629769027233124,0.9264864325523376,-0.9010539650917053
1772535475852000800,7.065000732421875,0.3852148950099945,0.6516563296318054,-0.8392704725265503
1772535475861930500,7.074930419921875,0.3447360396385193,0.4290226101875305,-0.7073147296905518
1772535475871885800,7.0848857421875,0.3213009238243103,0.251261830329895,-0.5453993082046509
1772535475881818000,7.094818115234375,0.29680055379867554,0.14047759771347046,-0.36963585019111633
1772535475891753200,7.104753173828125,0.27656111121177673,0.09893351793289185,-0.19080986082553864
1772535475901685800,7.114685791015625,0.25419121980667114,0.13834713399410248,-0.016111649572849274
1772535475911616300,7.1246162109375,0.23182134330272675,0.24806614220142365,0.12023817747831345
1772535475921548500,7.134548583984375,0.2254299372434616,0.4035901725292206,0.17669552564620972
1772535475931481900,7.14448193359375,0.23927797377109528,0.5579158067703247,0.14473854005336761
1772535475941414100,7.1544140625,0.2616478502750397,0.6431344151496887,0.058454662561416626
1772535475951347000,7.164346923828125,0.29360485076904297,0.6697652339935303,-0.034220609813928604
1772535475961279500,7.174279541015625,0.3330184817314148,0.6047860383987427,-0.13222205638885498
1772535475971222000,7.184221923828125,0.37349733710289,0.4535229504108429,-0.24713405966758728
1772535475981155600,7.194155517578125,0.40012815594673157,0.2949363887310028,-0.3483312129974365
1772535475991074000,7.204073974609375,0.4065195620059967,0.19693495333194733,-0.40159285068511963
1772535476001006000,7.214006103515625,0.3990629315376282,0.16497796773910522,-0.4047885537147522
1772535476010936800,7.223936767578125,0.37882348895072937,0.16497796773910522,-0.364309698343277
1772535476020868600,7.23386865234375,0.354323148727417,0.22250054776668549,-0.27269965410232544
1772535476030798000,7.243798095703125,0.3351489305496216,0.34393709897994995,-0.14287437498569489
1772535476040729900,7.253729736328125,0.31597474217414856,0.4311530590057373,-0.013981183059513569
1772535476050682000,7.26368212890625,0.28508299589157104,0.4343487620353699,0.07869409024715424
1772535476060616000,7.273615966796875,0.22223423421382904,0.3705679476261139,0.10958584398031235
1772535476070529800,7.28352978515625,0.12423279881477356,0.24380521476268768,0.07336792349815369
1772535476080461600,7.293461669921875,0.021038351580500603,0.058454662561416626,-0.0001331541279796511
1772535476090397200,7.303397216796875,-0.05352795869112015,-0.12476541846990585,-0.06937330216169357
1772535476100329200,7.3133291015625,-0.10252867639064789,-0.26204732060432434,-0.10239552706480026
1772535476110266600,7.3232666015625,-0.13981182873249054,-0.31850466132164,-0.07043853402137756
1772535476120199400,7.333199462890625,-0.17070358991622925,-0.2769605815410614,0.03928046673536301
1772535476130121500,7.34312158203125,-0.18455162644386292,-0.13222205638885498,0.20545682311058044
1772535476140053200,7.35305322265625,-0.17816022038459778,0.06591129302978516,0.37589409947395325
1772535476149984300,7.362984375,-0.15259462594985962,0.232087641954422,0.4971975088119507
1772535476159916000,7.372916015625,-0.10252867639064789,0.3290238380432129,0.5547201037406921
1772535476169844500,7.382844482421875,-0.03328853100538254,0.36630702018737793,0.5728290677070618
1772535476179775700,7.392775634765625,0.03914731368422508,0.3375457227230072,0.594133734703064
1772535476189709000,7.402708984375,0.1093195378780365,0.11278154700994492,0.6250254511833191
1772535476199640600,7.412640625,0.14553746581077576,-0.35898351669311523,0.6591129302978516
1772535476209574400,7.422574462890625,0.1199718713760376,-0.872292697429657,0.6974613070487976
1772535476219506200,7.432506103515625,0.05512581020593643,-1.2685593366622925,0.6985265612602234
1772535476229447400,7.442447509765625,-0.06098458915948868,-1.5208864212036133,0.6303516626358032
1772535476239380200,7.452380126953125,-0.24526990950107574,-1.6359316110610962,0.48015379905700684
1772535476249305600,7.4623056640625,-0.42422905564308167,-1.6540405750274658,0.27043604850769043
1772535476259237600,7.472237548828125,-0.49240395426750183,-1.5208864212036133,0.037150003015995026
1772535476269177000,7.482177001953125,-0.40292438864707947,-1.1449923515319824,-0.17057043313980103
1772535476279110000,7.49210986328125,-0.2090519815683365,-0.6061176061630249,-0.31317850947380066
1772535476289035000,7.502034912109375,-0.024766668677330017,-0.1290263533592224,-0.3728315532207489
1772535476298967000,7.511967041015625,0.06990591436624527,0.17563030123710632,-0.32383084297180176
1772535476308906500,7.521906494140625,0.08162347972393036,0.3886769115924835,-0.1524614691734314
1772535476318839000,7.531839111328125,0.04340824484825134,0.45778387784957886,0.08402025699615479
1772535476328774100,7.541774169921875,-0.022636201232671738,0.3268933892250061,0.3183715343475342
1772535476338707200,7.551707275390625,-0.111050546169281,0.07336792349815369,0.5195674300193787
1772535476348597500,7.561597412109375,-0.2079867422580719,-0.2343512624502182,0.6676347851753235
1772535476358526200,7.571526123046875,-0.30066201090812683,-0.5219641923904419,0.7517881989479065
1772535476368490200,7.581490234375,-0.3794892728328705,-0.7083799839019775,0.7667014598846436
1772535476378422500,7.591422607421875,-0.43488138914108276,-0.7744244337081909,0.7049179673194885
1772535476388352800,7.601352783203125,-0.4508598744869232,-0.7328802943229675,0.5600462555885315
1772535476398284800,7.611284912109375,-0.42316383123397827,-0.6497921347618103,0.3588503897190094
1772535476408215600,7.621215576171875,-0.35285845398902893,-0.5539211630821228,0.13195574283599854
1772535476418147600,7.631147705078125,-0.26550933718681335,-0.45272403955459595,-0.10452599078416824
1772535476428082400,7.64108251953125,-0.19200825691223145,-0.3547225892543793,-0.3195699155330658
1772535476438014700,7.6510146484375,-0.13874660432338715,-0.24926452338695526,-0.47296345233917236
1772535476447943700,7.660943603515625,-0.11318100988864899,-0.11837401986122131,-0.5603125691413879
1772535476457875700,7.670875732421875,-0.13661614060401917,0.006258244160562754,-0.6082480549812317
1772535476467807200,7.68080712890625,-0.22290000319480896,0.07549838721752167,-0.6348788738250732
1772535476477739300,7.6907392578125,-0.35285845398902893,0.09999874979257584,-0.6519225835800171
1772535476487649800,7.70064990234375,-0.49133872985839844,0.09786828607320786,-0.6615096926689148
1772535476497579500,7.71057958984375,-0.6041202545166016,0.059519894421100616,-0.644465982913971
1772535476507516200,7.72051611328125,-0.6786866188049316,-0.011850717477500439,-0.5805519819259644
1772535476517446700,7.73044677734375,-0.7021217346191406,-0.09493889659643173,-0.46124589443206787
1772535476527376400,7.74037646484375,-0.6776213645935059,-0.191741943359375,-0.3099828064441681
1772535476537307000,7.750306884765625,-0.623294472694397,-0.2982652485370636,-0.1418091505765915
1772535476547245600,7.76024560546875,-0.5572500228881836,-0.406919002532959,0.038215234875679016
1772535476557176800,7.7701767578125,-0.5009258389472961,-0.5102466344833374,0.210782989859581
1772535476567104800,7.780104736328125,-0.46683835983276367,-0.6050523519515991,0.3290238380432129
1772535476577035800,7.790035888671875,-0.45618605613708496,-0.6625749468803406,0.36311131715774536
1772535476586968800,7.79996875,-0.4615122079849243,-0.6252917647361755,0.3375457227230072
1772535476596900000,7.809900146484375,-0.47749069333076477,-0.5070509314537048,0.31091487407684326
1772535476606837000,7.8198369140625,-0.4838820993900299,-0.34620073437690735,0.2938711643218994
1772535476616768800,7.829768798828125,-0.4615122079849243,-0.1906767040491104,0.2725664973258972
1772535476626695000,7.83969482421875,-0.4007939398288727,-0.06937330216169357,0.24700090289115906
1772535476636626200,7.849626220703125,-0.3134448230266571,0.03288906812667847,0.21930484473705292
1772535476646579700,7.859579833984375,-0.2292914092540741,0.12449911236763,0.19267402589321136
1772535476656513000,7.869512939453125,-0.16324695944786072,0.1692388951778412,0.18308693170547485
1772535476666446300,7.8794462890625,-0.09933298081159592,0.15432563424110413,0.19586972892284393
1772535476676379600,7.889379638671875,-0.03648423030972481,0.09467258304357529,0.23421810567378998
1772535476686318000,7.899318115234375,0.010386021807789803,0.020106272771954536,0.27789267897605896
1772535476696252000,7.909251953125,0.04447348043322563,-0.012915950268507004,0.3055887222290039
1772535476706184000,7.919183837890625,0.07629731297492981,0.1138467788696289,0.32263246178627014
1772535476716117800,7.92911767578125,0.12742850184440613,0.33221954107284546,0.34287187457084656
1772535476726022400,7.9390224609375,0.1615159511566162,0.40678587555885315,0.2864145338535309
1772535476735953200,7.948953125,0.12529803812503815,0.3695026934146881,0.15006470680236816
1772535476745908000,7.958907958984375,0.06045197322964668,0.3268933892250061,-0.00226362026296556
1772535476755841000,7.968841064453125,0.03169068321585655,0.23528334498405457,-0.151396244764328
1772535476765768200,7.978768310546875,0.026364516466856003,0.13941237330436707,-0.275895357131958
1772535476775700700,7.98870068359375,0.023168819025158882,0.10958584398031235,-0.35578784346580505
1772535476785608200,7.998608154296875,0.05512581020593643,0.17136935889720917,-0.3483312129974365
1772535476795538200,8.0085380859375,0.13275466859340668,0.32156720757484436,-0.2354165017604828
1772535476805497900,8.018497802734375,0.2371474951505661,0.4631100594997406,-0.041677240282297134
1772535476815431000,8.028430908203125,0.3575188219547272,0.5195674300193787,0.19160878658294678
1772535476825356000,8.03835595703125,0.461911678314209,0.43647924065589905,0.42582690715789795
1772535476835288300,8.048288330078124,0.48747727274894714,0.20545682311058044,0.6228950023651123
1772535476845231400,8.0582314453125,0.4406070113182068,-0.14500483870506287,0.7539186477661133
1772535476855164700,8.06816455078125,0.39160630106925964,-0.5411383509635925,0.8359416127204895
1772535476865090000,8.078090087890626,0.41291093826293945,-0.8935973644256592,0.8892032504081726
1772535476875022600,8.088022705078124,0.4928034245967865,-1.1556446552276611,0.9211602807044983
1772535476884954000,8.0979541015625,0.5556522011756897,-1.286668300628662,0.931812584400177
1772535476894886400,8.107886474609375,0.5790873169898987,-1.2504503726959229,0.9232907295227051
1772535476904824800,8.117824951171874,0.59293532371521,-1.0480561256408691,0.8902685046195984
1772535476914758000,8.1277578125,0.6057181358337402,-0.7083799839019775,0.8327459096908569
1772535476924675600,8.137675537109375,0.5993267297744751,-0.2972000241279602,0.7464620471000671
1772535476934607000,8.147607177734375,0.5758916139602661,0.1138467788696289,0.6228950023651123
1772535476944557600,8.1575576171875,0.522629976272583,0.44713157415390015,0.4758928418159485
1772535476954491000,8.167490966796874,0.4512593448162079,0.694265604019165,0.33328479528427124
1772535476964384800,8.177384765625,0.39160630106925964,0.8977251052856445,0.21717438101768494
1772535476974314000,8.18731396484375,0.35858407616615295,1.05098557472229,0.0925421193242073
1772535476984269800,8.197269775390625,0.33727940917015076,1.1340737342834473,-0.061916667968034744
1772535476994201900,8.207201904296875,0.3202356696128845,1.1532479524612427,-0.2236989289522171
1772535477004146000,8.21714599609375,0.3095833361148834,1.1180951595306396,-0.36857062578201294
1772535477014079200,8.227079345703125,0.31917044520378113,1.0328766107559204,-0.49320289492607117
1772535477024010800,8.2370107421875,0.3521926701068878,0.9275516271591187,-0.5997262001037598
1772535477033944000,8.246944091796875,0.4086500108242035,0.8391373157501221,-0.6860100626945496
1772535477043870200,8.2568701171875,0.46830305457115173,0.8071803450584412,-0.7477935552597046
1772535477053802500,8.266802490234374,0.5183690190315247,0.8551158308982849,-0.7765548825263977
1772535477063727000,8.27672705078125,0.560978353023529,0.9882699251174927,-0.7680330276489258
1772535477073659000,8.286658935546875,0.5940005779266357,1.152182698249817,-0.7105104327201843
1772535477083599400,8.296599365234375,0.607848584651947,1.2704235315322876,-0.6061176061630249
1772535477093531600,8.30653173828125,0.5876091718673706,1.299184799194336,-0.47296345233917236
1772535477103456300,8.316456298828125,0.5290213227272034,1.2097052335739136,-0.32596129179000854
1772535477113387800,8.3263876953125,0.43315038084983826,0.9850742220878601,-0.19294032454490662
1772535477123319800,8.33631982421875,0.3138442933559418,0.7070484161376953,-0.09174319356679916
1772535477133251600,8.34625146484375,0.1828206181526184,0.4524577260017395,-0.03954677656292915
1772535477143182000,8.35618212890625,0.06364767253398895,0.24593567848205566,-0.021437814459204674
1772535477153113900,8.36611376953125,0.014646953903138638,0.1255643367767334,-0.010785484686493874
1772535477163052300,8.37605224609375,0.04447348043322563,0.08402025699615479,-0.012915950268507004
1772535477172984600,8.385984619140626,0.09440627694129944,0.0925421193242073,-0.028894444927573204
1772535477182908200,8.395908203125,0.10505861043930054,0.15965180099010468,-0.058720968663692474
1772535477192839700,8.405839599609376,0.05406057462096214,0.2715012729167938,-0.0981345921754837
1772535477202781400,8.415781494140624,-0.03222329914569855,0.3726983964443207,-0.14393961429595947
1772535477212714000,8.4257138671875,-0.12170287221670151,0.41637295484542847,-0.17909230291843414
1772535477222616600,8.435616455078126,-0.19307348132133484,0.37376365065574646,-0.1833532303571701
1772535477232545800,8.4455458984375,-0.22609570622444153,0.22356578707695007,-0.1418091505765915
1772535477242515700,8.455515625,-0.20159535109996796,0.09467258304357529,-0.024633513763546944
1772535477252449300,8.46544921875,-0.112115778028965,0.06591129302978516,0.13195574283599854
1772535477262366000,8.475365966796875,0.015712186694145203,0.017975807189941406,0.18521739542484283
1772535477272298000,8.485298095703126,0.12636326253414154,-0.018242115154862404,0.11704248189926147
1772535477282240500,8.495240478515624,0.1732335239648819,0.010519175790250301,-0.015046416781842709
1772535477292173600,8.505173583984375,0.14873315393924713,0.007323476951569319,-0.2130466103553772
1772535477302097700,8.51509765625,0.05619104206562042,-0.09387365728616714,-0.4580501914024353
1772535477312029700,8.52502978515625,-0.07376738637685776,-0.25032976269721985,-0.6849448084831238
1772535477321970200,8.53497021484375,-0.20266057550907135,-0.4037233293056488,-0.8531184792518616
1772535477331903000,8.544903076171876,-0.29853156208992004,-0.5091813802719116,-0.9457937479019165
1772535477341828600,8.55482861328125,-0.3485974967479706,-0.5390079021453857,-0.933010995388031
1772535477351761000,8.564760986328125,-0.36351075768470764,-0.44313693046569824,-0.7914681434631348
1772535477361693200,8.574693115234375,-0.3539236783981323,-0.21730753779411316,-0.5485950112342834
1772535477371625500,8.58462548828125,-0.3155752718448639,0.038215234875679016,-0.2748301327228546
1772535477381551000,8.594551025390626,-0.2495308369398117,0.18521739542484283,-0.043807707726955414
1772535477391482600,8.604482666015626,-0.19520394504070282,0.16071702539920807,0.1042596846818924
1772535477401448400,8.614448486328126,-0.16750788688659668,0.016910573467612267,0.1553908735513687
1772535477411383600,8.624383544921875,-0.15259462594985962,-0.22795987129211426,0.09573781490325928
1772535477421282600,8.634282470703125,-0.132355198264122,-0.5240946412086487,-0.047003407031297684
1772535477431213800,8.6442138671875,-0.09294158220291138,-0.7882724404335022,-0.20039696991443634
1772535477441124000,8.6541240234375,-0.0482017956674099,-0.9468590021133423,-0.30252617597579956
1772535477451053300,8.66405322265625,-0.00452724052593112,-0.9617722630500793,-0.3525921404361725
1772535477461006000,8.674006103515625,0.03595161437988281,-0.8350095152854919,-0.36644014716148376
1772535477470937600,8.6839375,0.04553871229290962,-0.5954652428627014,-0.3536573648452759
1772535477480874200,8.693874267578124,-0.011983871459960938,-0.3270265460014343,-0.3163742125034332
1772535477490806300,8.70380615234375,-0.13128997385501862,-0.11091738939285278,-0.2535254657268524
1772535477500742700,8.71374267578125,-0.2591179311275482,-0.010785484686493874,-0.16843996942043304
1772535477510675200,8.72367529296875,-0.3581846058368683,-0.07576470077037811,-0.07576470077037811
1772535477520615400,8.733615478515626,-0.4327509105205536,-0.27269965410232544,0.030758604407310486
1772535477530548700,8.743548828125,-0.5051867365837097,-0.505985677242279,0.14473854005336761
1772535477540463600,8.753463623046875,-0.5753589868545532,-0.7232932448387146,0.21610915660858154
1772535477550395100,8.76339501953125,-0.6339467763900757,-0.8605751395225525,0.232087641954422
1772535477560331300,8.773331298828126,-0.6733604073524475,-0.8712274432182312,0.21291345357894897
1772535477570263300,8.78326318359375,-0.6882736682891846,-0.7307498455047607,0.19267402589321136
1772535477580204300,8.793204345703124,-0.6904041767120361,-0.45485448837280273,0.17030413448810577
1772535477590137300,8.803137451171875,-0.6957303285598755,-0.17589659988880157,0.13195574283599854
1772535477600055300,8.81305517578125,-0.6946650743484497,0.024367205798625946,0.08402025699615479
1772535477609986600,8.822986572265625,-0.6786866188049316,0.15432563424110413,0.05632419511675835
1772535477619928000,8.832927978515626,-0.6499252915382385,0.17669552564620972,0.035019535571336746
1772535477629860400,8.8428603515625,-0.6190335154533386,0.09786828607320786,-0.016111649572849274
1772535477639760400,8.852760498046875,-0.5987941026687622,-0.044872939586639404,-0.08854749798774719
1772535477649689300,8.862689453125,-0.5913375020027161,-0.23648172616958618,-0.16950520873069763
1772535477659656700,8.87265673828125,-0.576424241065979,-0.3930709958076477,-0.22902509570121765
1772535477669589800,8.88258984375,-0.5551195740699768,-0.45485448837280273,-0.252460241317749
1772535477679489300,8.8924892578125,-0.5232957005500793,-0.4282236695289612,-0.2332860380411148
1772535477689419000,8.9024189453125,-0.4860125780105591,-0.3408745527267456,-0.17483137547969818
1772535477699355600,8.912355712890625,-0.45725128054618835,-0.23648172616958618,-0.09067796170711517
1772535477709286100,8.9222861328125,-0.429555207490921,-0.12263495475053787,0.015845341607928276
1772535477719220000,8.932219970703125,-0.38268497586250305,-0.005459319334477186,0.14367330074310303
1772535477729150700,8.942150634765625,-0.3123795986175537,0.07017222791910172,0.2715012729167938
1772535477739084300,8.952084228515625,-0.22609570622444153,0.08082455396652222,0.3886769115924835
1772535477749015300,8.962015380859375,-0.1440727710723877,0.037150003015995026,0.49187135696411133
1772535477758944300,8.9719443359375,-0.0801587849855423,-0.053394805639982224,0.5621767044067383
1772535477768875000,8.981875,-0.03222329914569855,-0.16737474501132965,0.5888075828552246
1772535477778854100,8.991854248046875,0.015712186694145203,-0.18961147964000702,0.5749595165252686
1772535477788790000,9.0017900390625,0.08588441461324692,-0.08109086751937866,0.5589810013771057
1772535477798676700,9.0116767578125,0.1316894292831421,-0.025698747485876083,0.4971975088119507
1772535477808607500,9.021607421875,0.10079767554998398,-0.034220609813928604,0.36417654156684875
1772535477818545400,9.03154541015625,0.002929390873759985,-0.009720250964164734,0.22250054776668549
1772535477828477000,9.041476806640626,-0.08974587917327881,0.014780107885599136,0.1042596846818924
1772535477838403300,9.0514033203125,-0.14939893782138824,-0.016111649572849274,-0.020372580736875534
1772535477848334300,9.061334228515625,-0.18455162644386292,-0.066177599132061,-0.1396786868572235
1772535477858273300,9.071273193359374,-0.17389929294586182,-0.05232957378029823,-0.2057231217622757
1772535477868205000,9.081205078125,-0.09933298081159592,0.038215234875679016,-0.20891882479190826
1772535477878149600,9.091149658203125,0.030625449493527412,0.1671084314584732,-0.14607007801532745
1772535477888082700,9.101082763671876,0.19027724862098694,0.2981320917606354,-0.033155377954244614
1772535477898015500,9.111015380859374,0.3511274456977844,0.3790898025035858,0.09467258304357529
1772535477907948500,9.120948486328125,0.4800206422805786,0.3790898025035858,0.2011958807706833
1772535477917892400,9.130892333984375,0.5663045048713684,0.32156720757484436,0.2853493094444275
1772535477927826700,9.14082666015625,0.6259575486183167,0.2427399754524231,0.34500235319137573
1772535477937750500,9.15075048828125,0.6653711795806885,0.145803764462471,0.35565468668937683
1772535477947683600,9.16068359375,0.6929340958595276,0.024367205798625946,0.2949363887310028
1772535477957603600,9.170603515625,0.7035863995552063,-0.10452599078416824,0.16604319214820862
1772535477967535600,9.18053564453125,0.6865426898002625,-0.20026381313800812,0.007323476951569319
1772535477977472000,9.190471923828126,0.6461969614028931,-0.2247641682624817,-0.13222205638885498
1772535477987404300,9.200404296875,0.6089138388633728,-0.17483137547969818,-0.2130466103553772
1772535477997346800,9.210346923828125,0.5833482146263123,-0.08215609937906265,-0.22582940757274628
1772535478007280400,9.2202802734375,0.5556522011756897,0.043541401624679565,-0.18974463641643524
1772535478017190100,9.230190185546874,0.5247604250907898,0.19480448961257935,-0.1290263533592224
1772535478027121000,9.240120849609376,0.47682493925094604,0.3577851355075836,-0.05978620424866676
1772535478037068800,9.25006884765625,0.4288894534111023,0.5398068428039551,-0.016111649572849274
1772535478047001300,9.26000146484375,0.3990629315376282,0.7347444891929626,-0.009720250964164734
1772535478056924200,9.269924072265624,0.3841496706008911,0.9115731716156006,-0.03209014609456062
1772535478066856000,9.27985595703125,0.3766930401325226,1.0328766107559204,-0.058720968663692474
1772535478076807400,9.289807373046875,0.396932452917099,1.0712249279022217,-0.06298190355300903
1772535478086741200,9.2997412109375,0.457650750875473,0.9914656281471252,-0.044872939586639404
1772535478096633000,9.309633056640624,0.5343475341796875,0.7975932359695435,-0.010785484686493874
1772535478106562600,9.3195625,0.584413468837738,0.5728290677070618,0.043541401624679565
1772535478116521500,9.329521484375,0.5780220627784729,0.38654643297195435,0.10958584398031235
1772535478126454000,9.3394541015625,0.5354127287864685,0.2746969759464264,0.1692388951778412
1772535478136385000,9.349385009765625,0.4949339032173157,0.24060951173305511,0.20865251123905182
1772535478146317300,9.3593173828125,0.4842815697193146,0.2533923089504242,0.20226112008094788
1772535478156253400,9.36925341796875,0.4906729757785797,0.3045234978199005,0.14154283702373505
1772535478166186000,9.37918603515625,0.4725640118122101,0.41743817925453186,0.06378082931041718
1772535478176087300,9.38908740234375,0.39054104685783386,0.5493939518928528,0.020106272771954536
1772535478186016800,9.399016845703125,0.2467346042394638,0.6378082633018494,0.023301972076296806
1772535478195975000,9.408974853515625,0.10399337112903595,0.6473953723907471,0.0723026916384697
1772535478205907200,9.4189072265625,0.019973119720816612,0.5153064727783203,0.15219517052173615
1772535478215840800,9.4288408203125,0.017842652276158333,0.22676147520542145,0.2736317217350006
1772535478225773000,9.43877294921875,0.07310161739587784,-0.08215609937906265,0.42689213156700134
1772535478235706400,9.448706298828125,0.11571093648672104,-0.30252617597579956,0.5845466256141663
1772535478245639000,9.458638916015625,0.11571093648672104,-0.3930709958076477,0.6889394521713257
1772535478255573800,9.46857373046875,0.09014534205198288,-0.3856143653392792,0.7155702710151672
1772535478265506600,9.478506591796876,0.04127778112888336,-0.3504616618156433,0.6665695905685425
1772535478275410000,9.488409912109375,-0.04394086077809334,-0.34726595878601074,0.5579158067703247
1772535478285340000,9.49833984375,-0.13128997385501862,-0.39946237206459045,0.43647924065589905
1772535478295275800,9.50827587890625,-0.20585627853870392,-0.505985677242279,0.3386109471321106
1772535478305206300,9.518206298828124,-0.2527265250682831,-0.5773562788963318,0.26724034547805786
1772535478315161300,9.528161376953125,-0.24633513391017914,-0.4708330035209656,0.23315288126468658
1772535478325094400,9.538094482421876,-0.18242116272449493,-0.10665645450353622,0.24380521476268768
1772535478335031800,9.54803173828125,-0.08868064731359482,0.32369768619537354,0.20226112008094788
1772535478344965000,9.557965087890626,-0.010918638668954372,0.5153064727783203,0.06697652488946915
1772535478354893000,9.56789306640625,0.016777420416474342,0.4142425060272217,-0.0555252730846405
1772535478364826000,9.577826171875,0.0018641578499227762,0.15219517052173615,-0.11304785311222076
1772535478374754300,9.58775439453125,-0.03648423030972481,-0.19706811010837555,-0.2119813710451126
1772535478384686600,9.5976865234375,-0.09613727778196335,-0.51344233751297,-0.40798425674438477
1772535478394624300,9.607624267578124,-0.1643121987581253,-0.644465982913971,-0.6348788738250732
1772535478404557000,9.61755712890625,-0.23674803972244263,-0.6189003586769104,-0.8456618785858154
1772535478414508300,9.62750830078125,-0.3166405260562897,-0.47615915536880493,-1.0118381977081299
1772535478424443000,9.63744287109375,-0.3773587942123413,-0.17483137547969818,-1.065099835395813
1772535478434355000,9.64735498046875,-0.3901416063308716,0.21504391729831696,-0.9692289233207703
1772535478444287200,9.657287353515626,-0.3688369393348694,0.594133734703064,-0.7254236936569214
1772535478454200300,9.667200439453126,-0.30811864137649536,0.9232907295227051,-0.38987529277801514
1772535478464130800,9.677130859375,-0.218639075756073,1.1042472124099731,-0.07896039634943008
1772535478474076000,9.687075927734375,-0.1536598652601242,1.113834261894226,0.12449911236763
1772535478484008000,9.697008056640625,-0.13661614060401917,1.0722901821136475,0.1788259893655777
1772535478493946600,9.706946533203125,-0.15685556828975677,0.969095766544342,0.06484606117010117
1772535478503879400,9.71687939453125,-0.19094301760196686,0.8455287218093872,-0.1822880059480667
1772535478513808000,9.726807861328124,-0.21331290900707245,0.7880061268806458,-0.4175713360309601
1772535478523740200,9.736740234375,-0.1962691843509674,0.801854133605957,-0.5251598954200745
1772535478533646600,9.746646484375,-0.17176882922649384,0.6761566400527954,-0.34513550996780396
1772535478543576300,9.756576416015625,-0.21650861203670502,-0.30359140038490295,0.20226112008094788
1772535478553527300,9.76652734375,-0.09294158220291138,-1.6380621194839478,0.37589409947395325
1772535478563459000,9.776458984375,0.23395180702209473,-1.676410436630249,0.3908073604106903
1772535478573402000,9.786402099609376,0.4299546778202057,-1.20997154712677,0.5035889148712158
1772535478583335000,9.7963349609375,0.3628450036048889,-0.6647053956985474,0.6718957424163818
1772535478593262000,9.806261962890625,0.15512455999851227,-0.13754820823669434,0.7730928659439087
1772535478603194400,9.8161943359375,-0.08335448056459427,0.047802332788705826,0.679352343082428
1772535478613121800,9.826121826171875,-0.3762935698032379,-0.048068638890981674,0.45884913206100464
