time,seconds_elapsed,z,y,x
1772535469008884700,0.221884765625,6.358926296234131,7.454240798950195,-0.2799602448940277
1772535469018820000,0.231820068359375,6.320641040802002,7.392027378082275,-0.2267199456691742
1772535469028758500,0.241758544921875,6.267998695373535,7.396812915802002,-0.16929219663143158
1772535469038688000,0.25168798828125,6.311069488525391,7.454240798950195,-0.13579268753528595
1772535469048622800,0.261622802734375,6.4115681648254395,7.363313674926758,-0.18364913761615753
1772535469058547500,0.27154736328125,6.454638957977295,7.205387115478516,-0.2799602448940277
1772535469068478000,0.28147802734375,6.440282344818115,7.253243446350098,-0.11665010452270508
1772535469078398700,0.291398681640625,6.019145488739014,7.152745246887207,-0.10229317098855972
1772535469088325400,0.301325439453125,5.405984401702881,7.095317363739014,-0.4618147611618042
1772535469108212500,0.32121240234375,5.19541597366333,7.061817646026611,-1.0360921621322632
1772535469118135600,0.331135498046875,5.338985443115234,6.970292568206787,-1.074377417564392
1772535469128066600,0.341066650390625,5.535196781158447,6.888936519622803,-1.1461620330810547
1772535469138002200,0.351002197265625,5.7792649269104,6.845865726470947,-1.4243277311325073
1772535469147935200,0.360935302734375,6.205785751342773,6.778866767883301,-1.7736797332763672
1772535469157867000,0.370866943359375,6.579065799713135,6.673582553863525,-2.09431791305542
1772535469167799300,0.38079931640625,6.593422889709473,6.711867332458496,-2.482553482055664
1772535469177728800,0.390728759765625,6.339783668518066,6.97986364364624,-2.812762975692749
1772535469187659800,0.40065966796875,6.196214199066162,7.406384468078613,-2.8319056034088135
1772535469197564700,0.410564697265625,6.3014984130859375,7.908876895904541,-2.568695068359375
1772535469207485400,0.4204853515625,6.311069488525391,8.282755851745605,-2.2091734409332275
1772535469217460500,0.43046044921875,6.387639999389648,8.565108299255371,-1.8646070957183838
1772535469237303300,0.45030322265625,6.866204738616943,9.187840461730957,-1.716252088546753
1772535469247229000,0.46022900390625,7.3884382247924805,9.283554077148438,-1.4865410327911377
1772535469257202700,0.47020263671875,7.551149845123291,9.125627517700195,-1.2323036193847656
1772535469267148000,0.48014794921875,7.2783684730529785,9.091529846191406,-1.2179467678070068
1772535469277032400,0.490032470703125,7.4506516456604,9.130413055419922,-1.4386845827102661
1772535469286953000,0.499952880859375,8.571090698242188,8.876175880432129,-1.7641085386276245
1772535469296899800,0.50989990234375,9.413962364196777,8.335397720336914,-1.9938194751739502
1772535469306831000,0.5198310546875,9.356534957885742,8.057231903076172,-2.1852452754974365
1772535469316758500,0.529758544921875,8.906085968017578,8.325826644897461,-2.3916261196136475
1772535469326688300,0.539688232421875,8.35573673248291,8.703892707824707,-2.2187447547912598
1772535469336622000,0.5496220703125,8.102097511291504,9.091529846191406,-1.7880367040634155
1772535469346552300,0.55955224609375,8.609375953674316,9.259625434875488,-1.6683956384658813
1772535469356484600,0.569484619140625,9.327820777893066,9.053244590759277,-1.7306089401245117
1772535469366414800,0.579414794921875,9.806385040283203,9.081958770751953,-1.9746768474578857
1772535469376340500,0.589340576171875,10.002596855163574,9.422337532043457,-2.084746837615967
1772535469386270200,0.599270263671875,10.137192726135254,9.589835166931152,-1.9507486820220947
1772535469396219400,0.609219482421875,10.40040397644043,9.412766456604004,-1.5822539329528809
1772535469406151000,0.61915087890625,10.740184783935547,8.746963500976562,-1.2801600694656372
1772535469416078000,0.629078125,10.706685066223145,7.755736351013184,-1.2610175609588623
1772535469426009300,0.63900927734375,9.973882675170898,6.912864685058594,-1.5391831398010254
1772535469445913300,0.658913330078125,7.479365348815918,6.2668023109436035,-2.4538395404815674
1772535469455838700,0.668838623046875,6.1914286613464355,6.175875186920166,-2.7936203479766846
1772535469465772800,0.678772705078125,5.353342533111572,6.424728870391846,-3.276970624923706
1772535469475691800,0.68869189453125,5.0566325187683105,6.649653911590576,-3.57906436920166
1772535469485624300,0.698624267578125,4.960919380187988,6.463014125823975,-3.57906436920166
1772535469495557000,0.70855712890625,4.721039295196533,6.247660160064697,-3.128615617752075
1772535469505489700,0.71848974609375,4.524827480316162,6.324230194091797,-2.654836654663086
1772535469515420700,0.728420654296875,4.553541660308838,6.429514408111572,-2.242672920227051
1772535469525353200,0.738353271484375,4.7401814460754395,6.1950178146362305,-1.8885352611541748
1772535469535283700,0.74828369140625,4.917250633239746,5.758925914764404,-1.5774682760238647
1772535469545216000,0.758216064453125,5.023132801055908,5.5483574867248535,-1.4434702396392822
1772535469555154200,0.768154296875,4.951348304748535,5.49092960357666,-1.567897081375122
1772535469565087000,0.7780869140625,4.711467742919922,5.42871618270874,-1.7258232831954956
1772535469574987300,0.7879873046875,4.47697114944458,5.313860893249512,-1.7784653902053833
1772535469584916700,0.797916748046875,4.453042984008789,5.151148796081543,-1.7258232831954956
1772535469594856400,0.8078564453125,4.831109046936035,5.069792747497559,-1.8646070957183838
1772535469604787200,0.817787109375,5.200201988220215,5.069792747497559,-2.2187447547912598
1772535469614717000,0.827717041015625,5.434698581695557,5.01715087890625,-2.444268226623535
1772535469624647400,0.8376474609375,5.611767292022705,4.8538408279418945,-2.328814744949341
1772535469634604500,0.8476044921875,5.563910961151123,4.863411903381348,-2.0416758060455322
1772535469644537900,0.857537841796875,5.262415409088135,5.189434051513672,-1.5343974828720093
1772535469654467600,0.867467529296875,5.085346221923828,5.5483574867248535,-1.0408778190612793
1772535469664400600,0.877400634765625,5.281557559967041,5.806782245635986,-0.916451096534729
1772535469674347000,0.887346923828125,5.439484119415283,5.763711452484131,-0.9978070259094238
1772535469684236000,0.897236083984375,5.042275428771973,5.55314302444458,-1.1653046607971191
1772535469704117200,0.9171171875,3.94097900390625,5.821139335632324,-1.740180253982544
1772535469714052900,0.927052978515625,3.5575289726257324,6.027520179748535,-1.7736797332763672
1772535469723989800,0.93698974609375,3.4570305347442627,6.429514408111572,-1.6971094608306885
1772535469733925400,0.94692529296875,3.3278181552886963,6.941578388214111,-1.5296118259429932
1772535469743830000,0.956830078125,3.11246395111084,7.430312633514404,-1.275374412536621
1772535469753762600,0.966762451171875,3.064607620239258,7.875377655029297,-0.9068797826766968
1772535469763720200,0.97672021484375,3.3469607830047607,8.359326362609863,-0.44745782017707825
1772535469773655300,0.9866552734375,3.893122434616089,8.967103004455566,-0.07357929646968842
1772535469783586600,0.996586669921875,4.807180881500244,9.5802640914917,0.06520441919565201
1772535469793521400,1.006521484375,6.421139717102051,10.039685249328613,0.0029910283628851175
1772535469803439400,1.016439453125,8.327022552490234,10.121041297912598,-0.13100704550743103
1772535469813372400,1.026372314453125,10.036096572875977,9.848259925842285,-0.3852444589138031
1772535469823315700,1.036315673828125,11.041680335998535,9.494122505187988,-0.6771687865257263
1772535469833249800,1.046249755859375,11.060822486877441,9.163912773132324,-0.7824530005455017
1772535469843176200,1.05617626953125,10.185050010681152,8.790034294128418,-0.8877372145652771
1772535469853109500,1.066109619140625,8.82951545715332,8.50289535522461,-0.7872386574745178
1772535469863039700,1.076039794921875,7.479365348815918,8.498109817504883,-0.25064817070961
1772535469872972800,1.085972900390625,6.631708145141602,8.861818313598633,0.4001995921134949
1772535469882899500,1.0958994140625,6.602993965148926,9.245268821716309,0.735194742679596
1772535469892832000,1.10583203125,7.206583499908447,9.398408889770508,0.7836494445800781
1772535469902784300,1.1157841796875,7.699504852294922,9.297910690307617,0.6394818425178528
1772535469912718600,1.125718505859375,7.608577728271484,8.947959899902344,0.36670008301734924
1772535469922628900,1.13562890625,7.40279483795166,8.861818313598633,-0.020937198773026466
1772535469932561000,1.145560791015625,7.220940589904785,9.058030128479004,-0.2267199456691742
1772535469942496300,1.155496337890625,6.981060028076172,9.226125717163086,0.06041877344250679
1772535469952428500,1.165428466796875,6.8757758140563965,9.273982048034668,0.7782655358314514
1772535469962368300,1.1753681640625,7.211369037628174,9.07717227935791,1.573280930519104
1772535469972301300,1.18530126953125,7.895716667175293,8.512466430664062,2.4879374504089355
1772535469982220800,1.195220703125,8.800801277160645,7.813164234161377,3.2925238609313965
1772535469992152600,1.205152587890625,9.806385040283203,7.248457908630371,3.7663028240203857
1772535470002095000,1.21509521484375,10.869397163391113,6.807580471038818,3.8668015003204346
1772535470012028000,1.22502783203125,11.673983573913574,6.415157318115234,3.5222349166870117
1772535470021948000,1.234947998046875,12.05204963684082,5.849853038787842,2.8277182579040527
1772535470031879400,1.24487939453125,11.85583782196045,5.0841498374938965,2.0620148181915283
1772535470041823500,1.254823486328125,10.912467956542969,4.399204254150391,1.0564311742782593
1772535470051756300,1.26475634765625,9.366106033325195,3.968496322631836,0.06999006122350693
1772535470061672200,1.274672119140625,7.694719314575195,3.7525441646575928,-0.6101697683334351
1772535470071603200,1.284603271484375,6.172286033630371,3.7190446853637695,-0.8015955686569214
1772535470081538800,1.294538818359375,5.085346221923828,3.8530426025390625,-0.36610186100006104
1772535470091470300,1.30447021484375,4.577469825744629,4.169493675231934,0.3858426511287689
1772535470101403400,1.3144033203125,4.4721856117248535,4.528416633605957,1.2047861814498901
1772535470111335200,1.324335205078125,4.400400638580322,4.719842433929443,2.0141584873199463
1772535470121275600,1.334275634765625,4.156332969665527,4.681557655334473,2.54536509513855
1772535470131208200,1.344208251953125,3.73459792137146,4.5236310958862305,2.444866418838501
1772535470141126000,1.3541259765625,3.4235310554504395,4.528416633605957,1.9471594095230103
1772535470151057000,1.364056884765625,3.5910286903381348,4.652843475341797,1.3770694732666016
1772535470160994600,1.37399462890625,4.438685894012451,4.705485820770264,0.9798609018325806
1772535470170926000,1.383926025390625,5.702694416046143,4.423132419586182,1.0564311742782593
1772535470180858600,1.393858642578125,6.784848690032959,3.944568157196045,1.3004990816116333
1772535470190790400,1.403790283203125,7.46500825881958,3.43190598487854,1.2526426315307617
1772535470200731400,1.4137314453125,7.747361660003662,3.111267566680908,0.898504912853241
1772535470210664200,1.423664306640625,7.417151927947998,3.0490541458129883,0.2805584669113159
1772535470220595000,1.433594970703125,6.483353137969971,3.2309088706970215,-0.3852444589138031
1772535470230527500,1.443527587890625,5.535196781158447,3.6951162815093994,-0.8015955686569214
1772535470240426500,1.453426513671875,4.883750915527344,4.3657050132751465,-0.6963114142417908
1772535470250355700,1.463355712890625,4.299902439117432,4.978865623474121,-0.34217363595962524
1772535470260317000,1.47331689453125,3.9314076900482178,5.486144065856934,-0.006580262444913387
1772535470270249200,1.483249267578125,3.955335855484009,6.022734642028809,0.18963119387626648
1772535470280174600,1.493174560546875,4.390829563140869,6.592226505279541,-0.01136590726673603
1772535470290106000,1.503106201171875,5.24327278137207,7.033103942871094,-0.6005984544754028
1772535470300041200,1.513041259765625,6.315855503082275,7.382455825805664,-1.3621143102645874
1772535470309973200,1.52297314453125,7.431509017944336,7.856235027313232,-2.1134605407714844
1772535470319903200,1.5329033203125,8.475378036499023,8.498109817504883,-2.8175487518310547
1772535470329835300,1.542835205078125,9.30867862701416,8.904889106750488,-3.363112211227417
1772535470339767300,1.552767333984375,9.988240242004395,8.924032211303711,-3.5407793521881104
1772535470349699300,1.56269921875,10.821540832519531,8.847461700439453,-3.468994617462158
1772535470359632000,1.5726318359375,11.745768547058105,8.9910306930542,-3.4067811965942383
1772535470369563600,1.582563720703125,12.142976760864258,9.240483283996582,-3.387638568878174
1772535470379543300,1.592543212890625,11.798410415649414,9.403194427490234,-3.324826955795288
1772535470389480000,1.60247998046875,11.305488586425781,9.484550476074219,-3.2865419387817383
1772535470399368000,1.612367919921875,10.979466438293457,9.451051712036133,-3.3104701042175293
1772535470409299700,1.6222998046875,10.706685066223145,9.18305492401123,-3.4307093620300293
1772535470419238000,1.63223779296875,10.553544044494629,9.024530410766602,-3.6604204177856445
1772535470429170200,1.642170166015625,10.433902740478516,9.000602722167969,-3.7800614833831787
1772535470439067400,1.6520673828125,10.295119285583496,8.651249885559082,-3.583850145339966
1772535470448996000,1.66199609375,10.122238159179688,8.206185340881348,-3.315255880355835
1772535470458929700,1.6719296875,9.916455268859863,8.047660827636719,-3.1477582454681396
1772535470468859000,1.68185888671875,9.882955551147461,8.311469078063965,-2.8893332481384277
1772535470478793200,1.691793212890625,9.763314247131348,8.785248756408691,-2.3916261196136475
1772535470488723000,1.701722900390625,9.528818130493164,9.20698356628418,-1.9172492027282715
1772535470498662000,1.711661865234375,9.136395454406738,9.374481201171875,-1.74496591091156
1772535470508592600,1.721592529296875,8.2695951461792,9.211769104003906,-1.922034740447998
1772535470518556700,1.731556640625,7.230511665344238,8.675178527832031,-2.3192434310913086
1772535470528490800,1.74149072265625,6.478567123413086,7.779664516448975,-2.6117658615112305
1772535470538387200,1.75138720703125,6.129215240478516,6.831508636474609,-2.7074787616729736
1772535470548317400,1.7613173828125,6.425925254821777,5.979663848876953,-2.664407968521118
1772535470558248400,1.77124853515625,7.3262248039245605,5.26600456237793,-2.702693223953247
1772535470568178700,1.7811787109375,8.350951194763184,4.71027135848999,-2.7601208686828613
1772535470588069000,1.801069091796875,9.471389770507812,3.930211305618286,-2.5591237545013428
1772535470598012000,1.811011962890625,9.67238712310791,3.7908291816711426,-2.3820550441741943
1772535470607946000,1.820946044921875,9.53360366821289,3.7669010162353516,-1.9507486820220947
1772535470617840000,1.830840087890625,8.963513374328613,3.786043643951416,-1.4386845827102661
1772535470627770000,1.84077001953125,8.063812255859375,3.9014973640441895,-0.8063812255859375
1772535470637736700,1.85073681640625,7.134799003601074,3.9972102642059326,-0.16450655460357666
1772535470647670300,1.860670166015625,6.401997089385986,4.040280818939209,0.19920247793197632
1772535470657590800,1.8705908203125,5.769693374633789,3.9828531742095947,0.3475574851036072
1772535470667523000,1.880523193359375,5.200201988220215,3.8195431232452393,0.47198426723480225
1772535470677454000,1.8904541015625,4.744967460632324,3.613760471343994,0.5724828243255615
1772535470687386400,1.900386474609375,4.529613494873047,3.4845480918884277,0.47198426723480225
1772535470697319200,1.910319091796875,4.491328239440918,3.4031920433044434,0.15613168478012085
1772535470707251500,1.92025146484375,4.457828521728516,3.3792638778686523,-0.15493527054786682
1772535470717180200,1.93018017578125,4.409972190856934,3.331407308578491,-0.42352959513664246
1772535470727112000,1.94011181640625,4.486542224884033,3.3744781017303467,-0.5910272002220154
1772535470737047300,1.95004736328125,4.7401814460754395,3.6424741744995117,-0.8255237936973572
1772535470746979600,1.9599794921875,4.994419097900391,4.207778453826904,-1.1126625537872314
1772535470756907500,1.969907470703125,5.104488849639893,4.892126083374023,-1.2801600694656372
1772535470766839300,1.97983935546875,4.946562767028809,5.352146148681641,-1.3668999671936035
1772535470776774400,1.9897744140625,4.811966419219971,5.644070625305176,-1.5439687967300415
1772535470786706400,1.99970654296875,4.980062007904053,5.921638011932373,-1.8741782903671265
1772535470796651800,2.00965185546875,5.425127029418945,6.0370917320251465,-2.1230318546295166
1772535470806585000,2.019585205078125,6.057430744171143,6.0466628074646,-2.2713868618011475
1772535470816500500,2.02950048828125,6.832705020904541,6.089733600616455,-2.314457654953003
1772535470826432000,2.039431884765625,7.63729190826416,6.238088607788086,-2.1230318546295166
1772535470836354300,2.049354248046875,8.398807525634766,6.463014125823975,-1.8167506456375122
1772535470846284800,2.059284912109375,8.987442016601562,6.91765022277832,-1.4673985242843628
1772535470856227600,2.0692275390625,9.284749984741211,7.372884750366211,-1.0839486122131348
1772535470866159400,2.079159423828125,9.217751502990723,7.621738433837891,-0.8015955686569214
1772535470876052500,2.089052490234375,8.96829891204834,7.693522930145264,-0.729810893535614
1772535470885980400,2.09898046875,8.805587768554688,7.607381343841553,-0.8255237936973572
1772535470895958000,2.1089580078125,8.752944946289062,7.315456867218018,-0.9643075466156006
1772535470905891000,2.11889111328125,8.920442581176758,6.951149940490723,-1.074377417564392
1772535470915820500,2.128820556640625,9.346963882446289,6.678368091583252,-1.1509476900100708
1772535470925753300,2.13875341796875,10.088738441467285,6.448657035827637,-1.3381860256195068
1772535470935686400,2.148686279296875,11.051251411437988,6.156732559204102,-1.5104693174362183
1772535470945619200,2.158619140625,11.506485939025879,5.806782245635986,-1.8167506456375122
1772535470955549400,2.168549560546875,10.826326370239258,5.782854080200195,-2.237887382507324
1772535470965481700,2.178481689453125,9.46181869506836,6.233303070068359,-2.42512583732605
1772535470975389700,2.1883896484375,7.823931694030762,7.095317363739014,-2.0033907890319824
1772535470985319700,2.198319580078125,6.205785751342773,8.330612182617188,-1.2131611108779907
1772535470995275800,2.20827587890625,5.401198863983154,9.68076229095459,-0.11665010452270508
1772535471005208300,2.218208251953125,5.91804838180542,10.418350219726562,1.2813565731048584
1772535471015136500,2.228136474609375,7.522436141967773,10.207781791687012,2.674577474594116
1772535471025068500,2.238068603515625,9.509675025939941,9.44626522064209,3.3643085956573486
1772535471035004400,2.24800439453125,11.410773277282715,8.431110382080078,3.4408788681030273
1772535471044937000,2.25793701171875,13.067204475402832,7.559525012969971,2.9527430534362793
1772535471054866200,2.2678662109375,14.063217163085938,6.97986364364624,1.9854445457458496
1772535471064798500,2.277798583984375,13.766507148742676,6.64486837387085,0.6538388133049011
1772535471074735600,2.287735595703125,12.53599739074707,6.376872539520264,-0.5527420043945312
1772535471084668200,2.297668212890625,10.759326934814453,5.849853038787842,-1.5248262882232666
1772535471094609000,2.30760888671875,8.6907320022583,5.246861934661865,-2.0273189544677734
1772535471104542500,2.31754248046875,6.550352096557617,4.969294548034668,-2.314457654953003
1772535471114459000,2.327458984375,4.644468784332275,4.964509010314941,-2.693121910095215
1772535471124391000,2.337390869140625,3.2273194789886475,5.002793788909912,-2.726621389389038
1772535471134327800,2.347327880859375,2.403590440750122,4.945366382598877,-1.9794625043869019
1772535471144260000,2.357260009765625,2.451446771621704,4.844269275665283,-0.7776673436164856
1772535471154187800,2.367187744140625,3.332603693008423,4.810770034790039,0.6011967062950134
1772535471164119600,2.37711962890625,4.5391845703125,4.872983455657959,1.8993029594421387
1772535471174054100,2.38705419921875,5.908477306365967,4.858626365661621,2.8277182579040527
1772535471183986400,2.396986328125,7.067800045013428,4.638486862182617,3.335594654083252
1772535471193916700,2.406916748046875,7.65164852142334,4.370490550994873,3.10109806060791
1772535471203848700,2.4168486328125,7.4841508865356445,4.0833516120910645,2.224726915359497
1772535471213777700,2.426777587890625,6.861418724060059,3.8386857509613037,1.2095718383789062
1772535471223709200,2.436709228515625,6.215356826782227,3.551547050476074,0.4863412082195282
1772535471233652000,2.44665185546875,5.769693374633789,3.2452657222747803,0.1944168359041214
1772535471243584800,2.456584716796875,5.563910961151123,3.029911756515503,0.09870393574237823
1772535471253507800,2.4665078125,5.544768333435059,3.0969107151031494,0.046061836183071136
1772535471263439600,2.476439697265625,5.6548380851745605,3.4989049434661865,0.026919255033135414
1772535471273384000,2.486384033203125,5.807978630065918,4.23649263381958,-0.14057832956314087
1772535471283317200,2.496317138671875,5.8749775886535645,5.065007209777832,-0.34217363595962524
1772535471293240600,2.506240478515625,5.793622016906738,5.763711452484131,-0.5479564070701599
1772535471303172600,2.516172607421875,5.602196216583252,6.151947021484375,-0.7010970115661621
1772535471313076700,2.52607666015625,5.726622581481934,6.429514408111572,-0.8446664214134216
1772535471323006000,2.536005859375,6.090929985046387,6.616154670715332,-1.069591760635376
1772535471332964900,2.54596484375,6.258427619934082,6.7070817947387695,-1.3621143102645874
1772535471342897200,2.555897216796875,6.062216281890869,6.893722057342529,-1.673181176185608
1772535471352826000,2.565826171875,5.449055194854736,7.238886833190918,-1.6923238039016724
1772535471362758100,2.575758056640625,4.907679080963135,7.8179497718811035,-1.43389892578125
1772535471372705300,2.585705322265625,4.88853645324707,8.560322761535645,-0.9834501147270203
1772535471382638800,2.595638916015625,5.372485160827637,9.067601203918457,-0.33738797903060913
1772535471392573400,2.605573486328125,6.244070529937744,9.235696792602539,0.2805584669113159
1772535471402507000,2.615507080078125,7.106084823608398,9.154341697692871,0.5964110493659973
1772535471412417000,2.6254169921875,7.5702924728393555,8.986245155334473,0.4576273262500763
1772535471422348000,2.63534814453125,7.9866437911987305,8.785248756408691,-0.054436713457107544
1772535471432284200,2.6452841796875,8.58066177368164,8.550751686096191,-0.638883650302887
1772535471442215700,2.655215576171875,9.342177391052246,8.445467948913574,-1.1365907192230225
1772535471452156700,2.66515673828125,10.156335830688477,8.407182693481445,-1.4434702396392822
1772535471462089200,2.675089111328125,10.481760025024414,8.067401885986328,-1.3046865463256836
1772535471472024000,2.685024169921875,10.15155029296875,7.530810832977295,-0.9786644577980042
1772535471481956900,2.694956787109375,9.67238712310791,7.506882667541504,-1.0265209674835205
1772535471491873500,2.70487353515625,9.32303524017334,8.201399803161621,-1.2945170402526855
1772535471501804800,2.7148046875,8.930013656616211,9.144769668579102,-1.4865410327911377
1772535471511740200,2.724740234375,8.413164138793945,10.106684684753418,-1.5822539329528809
1772535471521671700,2.734671630859375,7.819146156311035,10.628918647766113,-1.3668999671936035
1772535471531605500,2.74460546875,7.273582458496094,10.571490287780762,-1.2418749332427979
1772535471541537300,2.754537353515625,6.813562393188477,10.092328071594238,-1.3286148309707642
1772535471551486700,2.76448681640625,6.732206344604492,9.20698356628418,-1.5726827383041382
1772535471561420300,2.774420166015625,7.206583499908447,8.249256134033203,-1.9028922319412231
1772535471571331300,2.784331298828125,7.9244303703308105,7.339385032653809,-2.2809581756591797
1772535471581262800,2.794262939453125,8.595019340515137,6.482156753540039,-2.678765058517456
1772535471591194000,2.804194091796875,8.93958568572998,5.892923831939697,-2.908475875854492
1772535471601125600,2.814125732421875,9.117252349853516,5.648856163024902,-2.8414769172668457
1772535471611055900,2.824055908203125,9.145966529846191,5.467001438140869,-2.482553482055664
1772535471620987100,2.833987060546875,8.642875671386719,5.117649555206299,-1.9411773681640625
1772535471630919400,2.84391943359375,7.843074321746826,5.07936429977417,-1.342971682548523
1772535471640850700,2.8538505859375,7.067800045013428,5.462215900421143,-0.7202396392822266
1772535471650765600,2.863765625,6.306283950805664,5.782854080200195,-0.18843477964401245
1772535471660695300,2.8736953125,5.525625705718994,5.768496990203857,0.16091732680797577
1772535471670631400,2.88363134765625,5.070989608764648,5.653641700744629,0.36191442608833313
1772535471680562000,2.89356201171875,5.090131759643555,5.687141418457031,0.5006981492042542
1772535471690494700,2.90349462890625,5.7649078369140625,5.734997749328613,0.5150550603866577
1772535471700425500,2.913425537109375,6.617351055145264,5.629713535308838,0.529412031173706
1772535471710359300,2.923359375,7.11565637588501,5.275575637817383,0.5485545992851257
1772535471720290300,2.933290283203125,7.000202655792236,4.777270317077637,0.37148571014404297
1772535471730226000,2.943225830078125,6.55992317199707,4.31306266784668,-0.1501496136188507
1772535471740157200,2.9531572265625,6.105287075042725,3.9972102642059326,-0.9355936646461487
1772535471750087200,2.963087158203125,5.836692810058594,3.738187074661255,-1.5343974828720093
1772535471760018400,2.973018310546875,5.793622016906738,3.637688636779785,-1.8215361833572388
1772535471769954600,2.98295458984375,5.827121257781982,3.7046875953674316,-1.8167506456375122
1772535471779886300,2.99288623046875,5.817550182342529,4.021138668060303,-1.5391831398010254
1772535471789812200,3.002812255859375,5.6931233406066895,4.604987144470215,-1.098305583000183
1772535471799743200,3.0127431640625,5.477769374847412,5.20379114151001,-0.5670989751815796
1772535471809677300,3.02267724609375,5.36769962310791,5.5962138175964355,-0.049651071429252625
1772535471819608800,3.03260888671875,5.678766250610352,5.892923831939697,0.5198407173156738
1772535471829542400,3.04254248046875,6.33499813079834,6.281159400939941,1.0660024881362915
1772535471839474000,3.052473876953125,6.856633186340332,6.6352972984313965,1.3914263248443604
1772535471849450200,3.0624501953125,7.072585582733154,6.975078105926514,1.3100703954696655
1772535471859386400,3.072386474609375,6.9475603103637695,7.358527660369873,0.898504912853241
1772535471869290000,3.0822900390625,6.722635269165039,7.655237674713135,0.3810569941997528
1772535471879223000,3.09222314453125,6.928418159484863,7.87059211730957,-0.006580262444913387
1772535471889132000,3.102132080078125,7.488936901092529,8.033304214477539,-0.04486542567610741
1772535471899062500,3.1120625,8.202595710754395,8.182256698608398,0.05563312768936157
1772535471909029400,3.122029296875,8.85344409942627,8.335397720336914,0.10348957777023315
1772535471918963700,3.131963623046875,9.068798065185547,8.455039024353027,0.17527425289154053
1772535471928879900,3.1418798828125,8.671588897705078,8.48853874206543,0.2997010350227356
1772535471938812400,3.1518125,7.5702924728393555,8.541180610656738,0.4815555512905121
1772535471948748800,3.161748779296875,6.803991317749023,8.517251968383789,0.18963119387626648
1772535471958681300,3.171681396484375,7.498507976531982,8.34018325805664,-0.8781659007072449
1772535471968616700,3.18161669921875,9.251250267028809,7.784450054168701,-1.989033818244934
1772535471978550000,3.191550048828125,10.342975616455078,6.601797580718994,-2.5734808444976807
1772535471988474400,3.201474365234375,10.204192161560059,5.778068542480469,-2.9563324451446533
1772535471998406700,3.21140673828125,9.43310546875,5.845067501068115,-3.372683525085449
1772535472008336100,3.221336181640625,8.322237014770508,6.472585201263428,-2.8462624549865723
1772535472018268000,3.231267822265625,7.5702924728393555,7.755736351013184,-1.319043517112732
1772535472028201700,3.24120166015625,7.9005022048950195,9.014959335327148,0.13698910176753998
1772535472038133800,3.2511337890625,9.083154678344727,9.585049629211426,1.534995675086975
1772535472048062700,3.261062744140625,10.41476058959961,9.369695663452148,2.626721143722534
1772535472057994500,3.270994384765625,11.425129890441895,8.694320678710938,2.861815929412842
1772535472067936000,3.28093603515625,12.06640625,7.8658061027526855,2.42093825340271
1772535472077868500,3.29086865234375,12.166905403137207,6.941578388214111,1.4536397457122803
1772535472087788800,3.300788818359375,11.697911262512207,6.032305717468262,0.4289134442806244
1772535472097720300,3.31072021484375,10.62532901763916,5.380859851837158,-0.2267199456691742
1772535472107670300,3.320670166015625,9.160323143005371,5.127220630645752,-0.6340979933738708
1772535472117603600,3.330603515625,7.555935859680176,5.0602216720581055,-0.7776673436164856
1772535472127521800,3.340521728515625,5.922834396362305,5.041079044342041,-0.8350951075553894
1772535472137453600,3.35045361328125,4.625326156616211,4.868197441101074,-0.9260223507881165
1772535472147395600,3.3603955078125,4.051048755645752,4.676771640777588,-1.0791629552841187
1772535472157328600,3.37032861328125,4.338187217712402,4.624129772186279,-1.0552347898483276
1772535472167248400,3.380248291015625,5.204987525939941,4.686343193054199,-0.6436693072319031
1772535472177180200,3.39018017578125,6.138786315917969,4.758127689361572,-0.10229317098855972
1772535472187112400,3.400112548828125,6.866204738616943,4.89691162109375,0.2470589429140091
1772535472197044000,3.4100439453125,7.359724044799805,4.964509010314941,0.4001995921134949
1772535472206984000,3.41998388671875,7.694719314575195,4.988437175750732,0.4336991012096405
1772535472216916200,3.429916259765625,7.4602227210998535,4.882554531097412,0.42412781715393066
1772535472226805200,3.43980517578125,6.363711833953857,4.695914268493652,0.22791635990142822
1772535472236733400,3.4497333984375,4.989633560180664,4.64805793762207,0.012562318705022335
1772535472246709500,3.45970947265625,3.9314076900482178,4.734199523925781,-0.18843477964401245
1772535472256642600,3.469642578125,3.2895328998565674,4.796412944793701,-0.3756731450557709
1772535472266575000,3.4795751953125,3.2368907928466797,4.782055854797363,-0.4666004180908203
1772535472276508000,3.4895078125,3.73459792137146,4.786841869354248,-0.3900300860404968
1772535472286432300,3.499432373046875,4.338187217712402,4.825126647949219,-0.19322042167186737
1772535472296364000,3.509364013671875,4.697110652923584,5.026721954345703,-0.1453639715909958
1772535472306309000,3.51930908203125,5.157131195068359,5.237290382385254,-0.42352959513664246
1772535472316242400,3.529242431640625,5.879763603210449,5.486144065856934,-0.7106683254241943
1772535472326172400,3.53917236328125,6.16271448135376,5.773283004760742,-0.973878800868988
1772535472336105200,3.549105224609375,5.650052547454834,6.128018856048584,-1.3908281326293945
1772535472346027000,3.559027099609375,4.749752998352051,6.597012042999268,-1.8406788110733032
1772535472355958800,3.568958740234375,4.0558342933654785,7.071389198303223,-1.9268203973770142
1772535472365892900,3.578892822265625,3.9457645416259766,7.549953460693359,-1.7593228816986084
1772535472375825000,3.588824951171875,4.280759811401367,7.966304779052734,-1.4434702396392822
1772535472385752300,3.59875244140625,4.951348304748535,8.349754333496094,-0.9403793215751648
1772535472395683800,3.608683837890625,5.946762561798096,8.766105651855469,-0.3900300860404968
1772535472405650200,3.618650146484375,7.220940589904785,9.20698356628418,-0.01136590726673603
1772535472415585300,3.628585205078125,8.346165657043457,9.412766456604004,0.0029910283628851175
1772535472425483300,3.638483154296875,8.848658561706543,9.16869831085205,-0.34217363595962524
1772535472435414800,3.648414794921875,8.72901725769043,8.967103004455566,-0.9930213689804077
1772535472445356000,3.65835595703125,8.317451477050781,9.019744873046875,-1.6875381469726562
1772535472455288300,3.668288330078125,8.034500122070312,8.967103004455566,-2.132603168487549
1772535472465208800,3.678208740234375,8.09252643585205,8.818747520446777,-2.5112674236297607
1772535472475139800,3.688139892578125,8.37966537475586,8.742177963256836,-2.9036903381347656
1772535472485071000,3.698071044921875,8.551948547363281,8.775676727294922,-2.7936203479766846
1772535472495002000,3.708002197265625,8.24566650390625,8.718249320983887,-2.079961061477661
1772535472504944000,3.717944091796875,7.756932735443115,8.675178527832031,-1.1748759746551514
1772535472514876200,3.727876220703125,7.096513748168945,9.053244590759277,-0.31345975399017334
1772535472524798200,3.737798095703125,6.378068923950195,9.924830436706543,0.19920247793197632
1772535472534729500,3.7477294921875,6.311069488525391,10.777273178100586,0.3188436031341553
1772535472544666600,3.75766650390625,7.211369037628174,11.356934547424316,0.06520441919565201
1772535472554598400,3.767598388671875,8.60459041595459,11.38086223602295,-0.5288137793540955
1772535472564527000,3.777527099609375,9.64367389678955,10.853843688964844,-1.4195420742034912
1772535472574458600,3.787458740234375,9.949954986572266,9.939187049865723,-2.358126640319824
1772535472584401700,3.797401611328125,9.768099784851074,8.746963500976562,-3.0759735107421875
1772535472594334500,3.80733447265625,9.342177391052246,7.502097129821777,-3.435495138168335
1772535472604255000,3.8172548828125,8.963513374328613,6.486942291259766,-3.6604204177856445
1772535472614186500,3.8271865234375,8.585447311401367,5.868995666503906,-3.631706476211548
1772535472624123100,3.837123046875,7.934001445770264,5.486144065856934,-3.445066452026367
1772535472634055200,3.84705517578125,7.096513748168945,5.323431968688965,-3.324826955795288
1772535472643959600,3.85695947265625,6.124429702758789,5.342574596405029,-3.095116138458252
1772535472653888800,3.866888671875,5.372485160827637,5.534000396728516,-2.5974090099334717
1772535472663850500,3.8768505859375,5.209773063659668,5.816353797912598,-1.80717933177948
1772535472673783000,3.886782958984375,5.707480430603027,5.9407806396484375,-1.0121639966964722
1772535472683664100,3.8966640625,6.626922130584717,5.897709846496582,-0.45224347710609436
1772535472703574300,3.91657421875,8.197810173034668,5.36650276184082,-0.3326023519039154
1772535472713511000,3.926510986328125,8.752944946289062,5.093721389770508,-0.3613162338733673
1772535472723438800,3.93643896484375,8.858229637145996,4.887340068817139,-0.380458801984787
1772535472733374700,3.946374755859375,8.044071197509766,4.767699241638184,-0.4378865361213684
1772535472743283500,3.956283447265625,6.751348972320557,4.71027135848999,-0.6293123364448547
1772535472753216500,3.966216552734375,5.472983360290527,4.691128730773926,-0.729810893535614
1772535472763180300,3.97618017578125,4.18983268737793,4.767699241638184,-0.6675975322723389
1772535472773116700,3.98611669921875,3.040679454803467,4.95493745803833,-0.41874396800994873
1772535472783031600,3.996031494140625,2.3030917644500732,5.251647472381592,-0.18364913761615753
1772535472792965600,4.005965576171875,2.1786649227142334,5.471786975860596,0.09391828626394272
1772535472802884900,4.015884765625,1.6037893295288086,5.543571949005127,0.012562318705022335
1772535472812817400,4.0258173828125,1.1012966632843018,5.868995666503906,-0.42831525206565857
1772535472822737700,4.035737548828125,2.9066812992095947,6.333801746368408,-0.5814558863639832
1772535472832669000,4.0456689453125,5.941977024078369,6.5874409675598145,-0.638883650302887
1772535472842637600,4.055637451171875,8.427521705627441,6.592226505279541,-0.8063812255859375
1772535472852572700,4.06557275390625,9.504889488220215,6.5874409675598145,-1.1700903177261353
1772535472862467300,4.07546728515625,9.025727272033691,6.553941249847412,-1.740180253982544
1772535472872398600,4.085398681640625,7.756932735443115,6.166304111480713,-1.9698911905288696
1772535472882328600,4.09532861328125,6.650850772857666,5.888138294219971,-1.6588243246078491
1772535472892259600,4.105259521484375,5.702694416046143,6.348158359527588,-1.409970760345459
1772535472902193000,4.11519287109375,5.310271739959717,7.310671329498291,-1.2801600694656372
1772535472912124000,4.1251240234375,6.038288116455078,8.273183822631836,-0.9499505758285522
1772535472922060300,4.135060302734375,7.3262248039245605,8.876175880432129,-0.34217363595962524
1772535472931991800,4.14499169921875,8.116454124450684,9.058030128479004,-0.05922235921025276
1772535472941961700,4.154961669921875,8.327022552490234,8.957531929016113,-0.1788634955883026
1772535472951897000,4.16489697265625,8.09252643585205,8.71346378326416,-0.2315055876970291
1772535472971716400,4.18471630859375,6.93320369720459,8.48853874206543,-0.23629122972488403
1772535472981682700,4.1946826171875,6.736992359161377,8.50289535522461,-0.3756731450557709
1772535473001547800,4.2145478515625,7.555935859680176,8.569893836975098,-0.2991028428077698
1772535473011481600,4.224481689453125,7.867002487182617,8.885746955871582,-0.48574298620224
1772535473021379800,4.2343798828125,7.474579811096191,9.058030128479004,-0.5958128571510315
1772535473031310000,4.24431005859375,6.780063152313232,9.149555206298828,-0.4713860750198364
1772535473041243100,4.2542431640625,6.157928943634033,9.364909172058105,-0.01615155301988125
1772535473051173600,4.264173583984375,5.7409796714782715,9.699904441833496,0.6203392744064331
1772535473061142300,4.274142333984375,5.898906230926514,9.853045463562012,1.2526426315307617
1772535473071076900,4.284076904296875,6.483353137969971,9.551549911499023,1.9423737525939941
1772535473080990200,4.293990234375,7.455437183380127,9.06281566619873,2.4975085258483887
1772535473090922500,4.303922607421875,8.72901725769043,8.531609535217285,2.895315408706665
1772535473100854300,4.313854248046875,10.012167930603027,7.880163192749023,3.273381471633911
1772535473110786600,4.32378662109375,11.228918075561523,7.262814998626709,3.675375461578369
1772535473120731100,4.333731201171875,12.071191787719727,6.750152587890625,3.627519130706787
1772535473130664700,4.343664794921875,12.004193305969238,6.247660160064697,3.0867412090301514
1772535473140583700,4.353583740234375,10.969895362854004,5.667998790740967,2.186441659927368
1772535473150515700,4.363515625,9.270393371582031,5.160720348358154,1.1186445951461792
1772535473160447500,4.373447509765625,7.632505893707275,4.930410861968994,0.06999006122350693
1772535473170379500,4.383379638671875,6.607779502868652,4.983651161193848,-0.672383189201355
1772535473180322000,4.393322021484375,6.200999736785889,5.194219589233398,-0.8638089895248413
1772535473190255000,4.403255126953125,6.315855503082275,5.356931686401367,-0.34695929288864136
1772535473200175000,4.413175048828125,6.856633186340332,5.514857769012451,0.3523431420326233
1772535473210107000,4.42310693359375,7.335795879364014,5.653641700744629,0.8171489238739014
1772535473220046000,4.433046142578125,7.421937465667725,5.6584272384643555,1.1234302520751953
1772535473229978600,4.442978515625,7.354938507080078,5.5483574867248535,1.2861422300338745
1772535473239918300,4.45291845703125,7.024729251861572,5.280361175537109,1.2143574953079224
1772535473249851400,4.462851318359375,6.344569206237793,4.868197441101074,0.8745766878128052
1772535473259768000,4.47276806640625,5.597410202026367,4.542773723602295,0.4624129831790924
1772535473269699600,4.482699462890625,4.965705394744873,4.289134502410889,0.08434699475765228
1772535473279635500,4.492635498046875,4.491328239440918,4.198207378387451,-0.1501496136188507
1772535473289567500,4.5025673828125,4.2281174659729,4.25084924697876,-0.25064817070961
1772535473299495400,4.512495361328125,4.156332969665527,4.351347923278809,-0.31824541091918945
1772535473309427000,4.522427001953125,4.199403762817383,4.432703971862793,-0.19322042167186737
1772535473319361000,4.532361083984375,4.319045066833496,4.533202648162842,-0.0687936544418335
1772535473329292800,4.542292724609375,4.510470867156982,4.619344234466553,0.012562318705022335
1772535473339228400,4.552228515625,4.859822750091553,4.748556613922119,0.10348957777023315
1772535473349160400,4.562160400390625,5.25762939453125,4.748556613922119,-0.1501496136188507
1772535473359096600,4.5720966796875,5.597410202026367,4.911268711090088,-0.3613162338733673
1772535473369029000,4.582029052734375,5.592624664306641,5.309075355529785,-0.7106683254241943
1772535473378948900,4.591948974609375,5.042275428771973,5.6153564453125,-1.5774682760238647
1772535473388880400,4.60188037109375,4.304687976837158,6.089733600616455,-2.3916261196136475
1772535473398814000,4.61181396484375,3.882952928543091,6.463014125823975,-3.071187973022461
1772535473408745500,4.621745361328125,3.9984066486358643,6.6592254638671875,-3.2482566833496094
1772535473418669000,4.6316689453125,4.491328239440918,6.932007312774658,-2.937189817428589
1772535473428599800,4.641599853515625,5.30548620223999,7.262814998626709,-2.5782663822174072
1772535473438532400,4.651532470703125,6.430710792541504,7.578667640686035,-2.1278176307678223
1772535473448463400,4.66146337890625,7.800003528594971,7.932805061340332,-1.9124635457992554
1772535473458386700,4.67138671875,8.95394229888916,7.971090316772461,-1.9076778888702393
1772535473468317000,4.68131689453125,9.777671813964844,7.7222371101379395,-2.0416758060455322
1772535473478279000,4.69127880859375,10.462616920471191,7.406384468078613,-2.386840581893921
1772535473488212200,4.701212158203125,10.520044326782227,7.3537421226501465,-2.6213371753692627
1772535473498147800,4.71114794921875,10.453045845031738,7.463811874389648,-2.764906644821167
1772535473508081400,4.721081298828125,10.572687149047852,7.640881061553955,-2.9563324451446533
1772535473518003000,4.7310029296875,10.859825134277344,7.7700934410095215,-3.3056845664978027
1772535473527935500,4.740935546875,11.214561462402344,7.856235027313232,-3.7082769870758057
1772535473537872400,4.750872314453125,11.127821922302246,8.201399803161621,-3.971487283706665
1772535473547805200,4.76080517578125,10.161121368408203,8.34018325805664,-3.5886356830596924
1772535473557728300,4.770728271484375,8.752944946289062,8.047660827636719,-2.6356940269470215
1772535473567660000,4.780659912109375,7.938787460327148,8.033304214477539,-2.2187447547912598
1772535473577602800,4.790602783203125,7.77607536315918,8.26839828491211,-2.544766902923584
1772535473587535600,4.80053564453125,7.65164852142334,8.201399803161621,-3.1381869316101074
1772535473597463600,4.810463623046875,8.312665939331055,8.85224723815918,-3.372683525085449
1772535473607396000,4.82039599609375,10.026525497436523,9.537193298339844,-3.1764719486236572
1772535473617320700,4.83032080078125,11.449058532714844,9.273982048034668,-2.693121910095215
1772535473627252500,4.84025244140625,11.994621276855469,8.407182693481445,-2.190030813217163
1772535473637164000,4.8501640625,12.023335456848145,7.368099212646484,-2.09431791305542
1772535473647093500,4.860093505859375,11.587841987609863,6.214160442352295,-2.4059832096099854
1772535473657048600,4.870048583984375,10.5152587890625,5.175076961517334,-2.764906644821167
1772535473666980600,4.879980712890625,9.179466247558594,4.408775806427002,-3.0281169414520264
1772535473676916700,4.889916748046875,7.9866437911987305,3.920639991760254,-3.214757204055786
1772535473686849300,4.899849365234375,7.029514789581299,3.7956149578094482,-3.372683525085449
1772535473706688300,4.919688232421875,5.453841209411621,3.881756544113159,-3.0424740314483643
1772535473726554600,4.9395546875,5.721837043762207,4.351347923278809,-2.132603168487549
1772535473736487000,4.94948681640625,6.49770975112915,4.480560302734375,-1.319043517112732
1772535473746431700,4.959431640625,7.40279483795166,4.4997029304504395,-0.5383850932121277
1772535473756365300,4.969365234375,8.149953842163086,4.351347923278809,0.2757728099822998
1772535473766301400,4.979301513671875,8.528019905090332,4.183850288391113,0.9272187948226929
1772535473776235300,4.9892353515625,8.437092781066895,4.126422882080078,1.5302101373672485
1772535473786162000,4.999161865234375,7.929215908050537,4.068994998931885,1.913659930229187
1772535473796095000,5.009094970703125,7.034300327301025,4.001996040344238,1.7742780447006226
1772535473806033200,5.019033203125,5.817550182342529,3.9014973640441895,1.2478569746017456
1772535473815966700,5.028966796875,4.716253280639648,3.848257064819336,0.7884350419044495
1772535473825888500,5.038888427734375,3.8590247631073,3.8865420818328857,0.34277185797691345
1772535473835821000,5.048821044921875,3.5048868656158447,4.088137626647949,-0.13579268753528595
1772535473845772500,5.0587724609375,3.710669755935669,4.332205295562744,-0.6005984544754028
1772535473855707000,5.068706787109375,4.204189300537109,4.408775806427002,-0.849452018737793
1772535473865621000,5.07862109375,4.8502516746521,4.36091947555542,-0.8015955686569214
1772535473875553300,5.08855322265625,5.602196216583252,4.36091947555542,-0.7250252366065979
1772535473885484000,5.098484130859375,6.358926296234131,4.595416069030762,-0.7202396392822266
1772535473895416300,5.108416259765625,6.8997039794921875,4.988437175750732,-0.8303094506263733
1772535473905359000,5.118359130859375,7.063014030456543,5.356931686401367,-1.0456634759902954
1772535473915292400,5.12829248046875,7.004988193511963,5.629713535308838,-1.2083754539489746
1772535473925191700,5.138191650390625,6.832705020904541,5.883352756500244,-1.2275179624557495
1772535473935121400,5.148121337890625,6.698707103729248,6.2428741455078125,-1.1940184831619263
1772535473945085000,5.1580849609375,6.861418724060059,6.7070817947387695,-1.1988041400909424
1772535473955018000,5.16801806640625,7.182655334472656,7.071389198303223,-1.1748759746551514
1772535473964945400,5.1779453125,7.5702924728393555,7.325028419494629,-1.0648061037063599
1772535473974878000,5.1878779296875,8.140382766723633,7.5978102684021,-0.9595218896865845
1772535473984781300,5.19778125,8.891729354858398,7.88494873046875,-0.8446664214134216
1772535473994711000,5.2077109375,9.500103950500488,7.985447406768799,-0.5862415432929993
1772535474004677400,5.217677490234375,9.940383911132812,7.937591075897217,-0.2799602448940277
1772535474014610700,5.227610595703125,10.170692443847656,7.856235027313232,-0.19322042167186737
1772535474024538600,5.23753857421875,10.088738441467285,7.717451095581055,-0.24586252868175507
1772535474034471700,5.2474716796875,9.65803050994873,7.526025295257568,-0.1788634955883026
1772535474044405200,5.2574052734375,9.236893653869629,7.482954502105713,-0.1453639715909958
1772535474054338000,5.267338134765625,9.232108116149902,7.69830846786499,-0.3517449200153351
1772535474064261600,5.27726171875,9.289535522460938,7.942376613616943,-0.6628118753433228
1772535474074193700,5.287193603515625,8.810373306274414,7.894520282745361,-0.8733802437782288
1772535474084102400,5.297102294921875,8.37009334564209,7.798807144165039,-1.2035897970199585
1772535474094032000,5.307031982421875,8.14516830444336,7.784450054168701,-1.4051851034164429
1772535474103999200,5.316999267578125,7.943572998046875,7.7940216064453125,-0.9882357716560364
1772535474113932800,5.326932861328125,8.020143508911133,7.832306861877441,0.0077766734175384045
1772535474123830300,5.336830322265625,8.35573673248291,7.827520847320557,1.022931694984436
1772535474133760000,5.346760009765625,8.6907320022583,7.640881061553955,2.176870346069336
1772535474143695600,5.356695556640625,9.112466812133789,7.2436723709106445,3.187239646911621
1772535474153626000,5.366626220703125,9.792028427124023,6.64486837387085,3.871587038040161
1772535474163561500,5.3765615234375,10.931610107421875,6.0370917320251465,4.063611030578613
1772535474173492200,5.3864921875,12.152547836303711,5.49092960357666,3.751945972442627
1772535474183421000,5.3964208984375,12.923635482788086,4.988437175750732,2.9862427711486816
1772535474193351400,5.406351318359375,12.971491813659668,4.557130813598633,2.0237298011779785
1772535474203291400,5.41629150390625,12.253644943237305,4.179064750671387,0.9655039310455322
1772535474213223000,5.426222900390625,10.87418270111084,3.8626139163970947,0.1417747437953949
1772535474223150000,5.436150146484375,9.165108680725098,3.6424741744995117,-0.47617170214653015
1772535474233081000,5.4460810546875,7.4602227210998535,3.7046875953674316,-0.9595218896865845
1772535474243014000,5.456013916015625,5.870192050933838,3.9397823810577393,-0.9451649188995361
1772535474252945400,5.4659453125,4.721039295196533,4.246063709259033,-0.42352959513664246
1772535474262880300,5.47588037109375,4.29033088684082,4.595416069030762,0.2470589429140091
1772535474272812000,5.48581201171875,4.500899314880371,4.825126647949219,0.898504912853241
1772535474282764300,5.495764404296875,5.147559642791748,4.844269275665283,1.511067509651184
1772535474292698000,5.505697998046875,5.831906795501709,4.77248477935791,1.913659930229187
1772535474302626600,5.51562646484375,6.267998695373535,4.619344234466553,1.82273268699646
1772535474312559600,5.5255595703125,6.516852378845215,4.380061626434326,1.3770694732666016
1772535474322504400,5.53550439453125,6.583851337432861,4.068994998931885,0.8458628058433533
1772535474332438800,5.545438720703125,6.430710792541504,3.7908291816711426,0.5533402562141418
1772535474342334200,5.555334228515625,6.100501537322998,3.604189157485962,0.3810569941997528
1772535474352264700,5.5652646484375,5.951548099517822,3.5611183643341064,0.29012975096702576
1772535474362222000,5.57522216796875,6.08614444732666,3.6329028606414795,0.23270200192928314
1772535474372155100,5.585155029296875,6.263213157653809,3.6568312644958496,0.21355941891670227
1772535474382082000,5.59508203125,6.291927337646484,3.6233317852020264,0.1704886108636856
1772535474392014600,5.6050146484375,6.129215240478516,3.776472330093384,0.022133609279990196
1772535474401993700,5.61499365234375,5.898906230926514,4.11206579208374,-0.3900300860404968
1772535474411931000,5.624930908203125,5.616552829742432,4.533202648162842,-0.8733802437782288
1772535474421824300,5.63482421875,5.410770416259766,4.940580368041992,-1.3525429964065552
1772535474431757000,5.644757080078125,5.291129112243652,5.337789058685303,-1.9076778888702393
1772535474441688000,5.65468798828125,5.228915691375732,5.581857204437256,-2.3048863410949707
1772535474451620600,5.66462060546875,5.396413326263428,5.711069583892822,-2.358126640319824
1772535474461548000,5.674548095703125,6.043073654174805,5.873781204223633,-2.2187447547912598
1772535474471480000,5.68447998046875,6.818347930908203,6.128018856048584,-2.1134605407714844
1772535474481402000,5.694402099609375,7.335795879364014,6.544369697570801,-2.18045973777771
1772535474491333400,5.70433349609375,7.63729190826416,7.186244487762451,-2.3916261196136475
1772535474501272800,5.71427294921875,7.929215908050537,7.913662910461426,-2.740978240966797
1772535474511204600,5.72420458984375,8.264809608459473,8.349754333496094,-2.970689296722412
1772535474521133600,5.734133544921875,8.398807525634766,8.421539306640625,-3.0520453453063965
1772535474531065300,5.7440654296875,8.389236450195312,8.36411190032959,-3.0999016761779785
1772535474540999700,5.753999755859375,8.283951759338379,8.349754333496094,-3.166900873184204
1772535474550931700,5.763931640625,8.09252643585205,8.37846851348877,-3.128615617752075
1772535474560862500,5.773862548828125,8.054241180419922,8.483752250671387,-3.0137600898742676
1772535474570794200,5.783794189453125,8.432307243347168,8.560322761535645,-2.9276185035705566
1772535474580731400,5.7937314453125,9.32303524017334,8.756534576416016,-3.128615617752075
1772535474590663700,5.80366357421875,10.194621086120605,9.106484413146973,-3.5503506660461426
1772535474600601900,5.813601806640625,10.280762672424316,8.914461135864258,-3.5024940967559814
1772535474610534700,5.82353466796875,10.189835548400879,8.402397155761719,-3.229114055633545
1772535474620476400,5.833476318359375,10.194621086120605,8.196614265441895,-3.267399311065674
1772535474630410200,5.84341015625,9.763314247131348,8.306683540344238,-3.5168511867523193
1772535474640293000,5.853293212890625,9.020941734313965,8.397610664367676,-3.7082769870758057
1772535474650221800,5.863221923828125,8.63330364227295,8.493324279785156,-3.9284164905548096
1772535474660180200,5.87318017578125,8.489734649658203,8.651249885559082,-4.3447675704956055
1772535474670112000,5.883112060546875,8.283951759338379,8.569893836975098,-4.804787635803223
1772535474680042000,5.8930419921875,7.9866437911987305,7.88494873046875,-5.06799840927124
1772535474689973500,5.902973388671875,7.747361660003662,6.649653911590576,-5.087141036987305
1772535474699865300,5.912865234375,7.795217990875244,5.313860893249512,-5.082355499267578
1772535474719774500,5.9327744140625,8.274380683898926,3.4606196880340576,-5.249852657318115
1772535474729710000,5.9427099609375,8.4562349319458,3.092125177383423,-5.302495002746582
1772535474739641900,5.952641845703125,8.327022552490234,3.1304101943969727,-5.154139995574951
1772535474749577000,5.962576904296875,8.020143508911133,3.393620729446411,-4.785645484924316
1772535474759499300,5.972499267578125,7.565506935119629,3.8147575855255127,-4.129413604736328
1772535474769433000,5.98243310546875,7.067800045013428,4.370490550994873,-3.1956145763397217
1772535474779403300,5.9924033203125,6.780063152313232,4.920839786529541,-2.017747640609741
1772535474789340700,6.002340576171875,6.847062110900879,5.270790100097656,-0.8015955686569214
1772535474799229400,6.0122294921875,7.05344295501709,5.299503803253174,0.06520441919565201
1772535474809162000,6.022161865234375,7.11565637588501,5.122435092926025,0.5054838061332703
1772535474819094300,6.03209423828125,7.058228492736816,4.959722995758057,0.5724828243255615
1772535474829026800,6.04202685546875,6.818347930908203,4.782055854797363,0.3475574851036072
1772535474838969900,6.051969970703125,6.339783668518066,4.537988185882568,-0.001794616924598813
1772535474848903400,6.0619033203125,5.760122299194336,4.3178486824035645,-0.3326023519039154
1772535474858797800,6.0717978515625,5.114060401916504,4.246063709259033,-0.5383850932121277
1772535474868727600,6.0817275390625,4.405186653137207,4.274777889251709,-0.6293123364448547
1772535474878686200,6.091686279296875,3.9218363761901855,4.336990833282471,-0.7106683254241943
1772535474888619000,6.101618896484375,3.614956855773926,4.432703971862793,-0.7010970115661621
1772535474898547200,6.111547119140625,3.418745279312134,4.552345275878906,-0.4953143000602722
1772535474908479500,6.1214794921875,3.5718860626220703,4.868197441101074,-0.22193430364131927
1772535474918417700,6.131417724609375,3.9984066486358643,5.318646430969238,-0.07357929646968842
1772535474928350500,6.1413505859375,4.553541660308838,5.624927997589111,-0.18364913761615753
1772535474938274300,6.1512744140625,5.310271739959717,5.830710411071777,-0.36610186100006104
1772535474948206000,6.1612060546875,6.22492790222168,6.147161483764648,-0.6005984544754028
1772535474958144300,6.171144287109375,7.0199432373046875,6.515655994415283,-0.9020941257476807
1772535474968076800,6.181076904296875,7.426723480224609,6.64486837387085,-1.0121639966964722
1772535474978009000,6.191009033203125,7.599006652832031,6.664011001586914,-0.8446664214134216
1772535474987941600,6.200941650390625,7.9005022048950195,6.850651264190674,-0.4953143000602722
1772535474997869000,6.210869140625,8.312665939331055,7.2867431640625,-0.14057832956314087
1772535475007801000,6.220801025390625,8.676374435424805,7.755736351013184,0.026919255033135414
1772535475017735200,6.230735107421875,9.193822860717773,8.105687141418457,-0.07836493849754333
1772535475027667500,6.24066748046875,9.792028427124023,8.2157564163208,-0.4378865361213684
1772535475037576700,6.25057666015625,10.208977699279785,8.042875289916992,-0.8733802437782288
1772535475047506700,6.260506591796875,10.409975051879883,7.679165840148926,-1.2131611108779907
1772535475057463800,6.2704638671875,10.40040397644043,7.238886833190918,-1.414756417274475
1772535475067396400,6.280396240234375,10.18026351928711,6.850651264190674,-1.4482558965682983
1772535475077328000,6.290327880859375,10.050453186035156,6.63051176071167,-1.3573286533355713
1772535475087260400,6.300260498046875,10.199406623840332,6.530013084411621,-1.2418749332427979
1772535475097187800,6.310187744140625,10.912467956542969,6.415157318115234,-1.3094722032546997
1772535475107119900,6.320119873046875,12.502498626708984,6.372086524963379,-1.9507486820220947
1772535475117049000,6.330049072265625,13.977075576782227,6.1328043937683105,-2.717050075531006
1772535475126980900,6.33998095703125,14.772090911865234,5.778068542480469,-3.0999016761779785
1772535475136917500,6.34991748046875,14.58066463470459,5.758925914764404,-3.315255880355835
1772535475146849800,6.359849853515625,12.88056468963623,6.113661766052246,-3.181257724761963
1772535475156779500,6.369779541015625,10.280762672424316,6.745367050170898,-2.654836654663086
1772535475166711600,6.379711669921875,7.9866437911987305,7.554739475250244,-2.0895323753356934
1772535475176672500,6.389672607421875,7.307082176208496,8.148757934570312,-1.3621143102645874
1772535475186607400,6.399607421875,8.2695951461792,8.081758499145508,-0.3326023519039154
1772535475196508700,6.4095087890625,9.815957069396973,7.372884750366211,0.29012975096702576
1772535475206440400,6.4194404296875,11.103893280029297,6.515655994415283,0.23748764395713806
1772535475216385500,6.429385498046875,12.095120429992676,5.754140377044678,-0.049651071429252625
1772535475226318300,6.439318359375,12.344572067260742,5.189434051513672,-0.37088751792907715
1772535475236236800,6.44923681640625,11.951550483703613,5.050650596618652,-0.31824541091918945
1772535475246168300,6.459168212890625,11.434700965881348,5.438287734985352,0.24227328598499298
1772535475256103400,6.469103515625,10.783255577087402,5.86421012878418,1.1473584175109863
1772535475266035200,6.47903515625,9.567103385925293,5.950351715087891,2.210369825363159
1772535475275969800,6.4889697265625,7.910073280334473,5.80199670791626,2.846860647201538
1772535475285901800,6.49890185546875,5.946762561798096,5.423930644989014,2.957528829574585
1772535475295812900,6.508812744140625,3.9744784832000732,4.935196876525879,2.6458635330200195
1772535475305742800,6.518742919921875,2.4562325477600098,4.346562385559082,2.004587173461914
1772535475315705000,6.528705078125,1.4123635292053223,3.738187074661255,1.1808580160140991
1772535475325638400,6.538638427734375,0.6508477330207825,3.1447670459747314,0.39541393518447876
1772535475335537400,6.548537353515625,0.2871387302875519,2.7565317153930664,-0.4091726839542389
1772535475345467100,6.558467041015625,0.6221339106559753,2.612962245941162,-1.2897313833236694
1772535475355401000,6.56840087890625,1.555932879447937,2.641676187515259,-1.7976080179214478
1772535475365331200,6.578331298828125,2.7050859928131104,2.857030153274536,-1.6301103830337524
1772535475375295700,6.588295654296875,3.9696927070617676,3.321835994720459,-0.9451649188995361
1772535475385229300,6.598229248046875,5.271986484527588,3.6951162815093994,0.12263216078281403
1772535475395125000,6.608125,6.368497371673584,3.881756544113159,1.1665010452270508
1772535475405055000,6.618054931640625,6.890132904052734,3.8865420818328857,1.999801516532898
1772535475414998800,6.627998779296875,6.928418159484863,3.8530426025390625,2.263011932373047
1772535475424930000,6.637929931640625,6.713063716888428,3.872185230255127,2.0333011150360107
1772535475434858800,6.647858642578125,6.392425537109375,3.9876389503479004,1.3674981594085693
1772535475444789800,6.657789794921875,6.105287075042725,4.045066833496094,0.44327038526535034
1772535475454724900,6.667724853515625,6.038288116455078,4.073780536651611,-0.48095735907554626
1772535475464656100,6.67765625,6.2871413230896,4.18863582611084,-1.1988041400909424
1772535475474617300,6.687617431640625,6.784848690032959,4.2987060546875,-1.6683956384658813
1772535475484551700,6.6975517578125,7.268796920776367,4.509274482727051,-1.9986051321029663
1772535475494479400,6.707479248046875,7.555935859680176,4.858626365661621,-2.204387903213501
1772535475504413200,6.7174130859375,7.790432453155518,5.309075355529785,-2.348555326461792
1772535475514334200,6.727334228515625,8.044071197509766,5.806782245635986,-2.4011974334716797
1772535475524266800,6.737266845703125,8.417949676513672,6.386443614959717,-2.5256242752075195
1772535475534197200,6.747197265625,9.035298347473145,6.941578388214111,-2.8558337688446045
1772535475544129500,6.757129638671875,9.653244972229004,7.258029460906982,-3.3200414180755615
1772535475554064100,6.767064208984375,9.954740524291992,7.344171047210693,-3.861417531967163
1772535475563996400,6.776996337890625,10.132407188415527,7.315456867218018,-4.508078098297119
1772535475573904000,6.78690380859375,10.472187995910645,7.2197442054748535,-5.13021183013916
1772535475583833900,6.796833740234375,10.979466438293457,7.071389198303223,-5.37906551361084
1772535475593764900,6.806764892578125,11.401201248168945,6.989434719085693,-5.082355499267578
1772535475603694800,6.81669482421875,11.434700965881348,7.200601577758789,-4.570291042327881
1772535475613654800,6.82665478515625,10.97468090057373,7.655237674713135,-4.043272018432617
1772535475623587800,6.836587890625,10.395618438720703,8.301898002624512,-3.679563045501709
1772535475633521400,6.846521484375,10.04566764831543,8.890532493591309,-3.421138286590576
1772535475643454500,6.856454345703125,9.53360366821289,8.775676727294922,-2.726621389389038
1772535475653390600,6.866390625,8.96829891204834,8.330612182617188,-1.9698911905288696
1772535475663324200,6.87632421875,8.700303077697754,8.201399803161621,-1.811964988708496
1772535475673248800,6.886248779296875,8.561519622802734,8.507680892944336,-2.3533411026000977
1772535475683181300,6.896181396484375,8.542376518249512,8.971888542175293,-3.0903303623199463
1772535475693112600,6.906112548828125,8.638090133666992,9.16869831085205,-3.5024940967559814
1772535475703045000,6.916045166015625,8.800801277160645,9.043673515319824,-3.3583266735076904
1772535475712939500,6.925939453125,9.05444049835205,8.560322761535645,-2.96111798286438
1772535475722868200,6.9358681640625,9.418747901916504,7.736593723297119,-2.7361927032470703
1772535475732844000,6.945843994140625,9.686744689941406,6.678368091583252,-2.678765058517456
1772535475742777300,6.95577734375,9.715457916259766,5.6344990730285645,-2.750549554824829
1772535475752679200,6.96567919921875,9.543174743652344,4.786841869354248,-2.7936203479766846
1772535475762609400,6.975609375,9.265607833862305,4.23649263381958,-2.6835505962371826
1772535475772596200,6.98559619140625,8.949156761169434,3.978067636489868,-2.4394826889038086
1772535475782532000,6.995531982421875,8.484949111938477,3.9637107849121094,-2.09431791305542
1772535475792432000,7.00543212890625,7.8526458740234375,4.116851329803467,-1.6061822175979614
1772535475802364400,7.015364501953125,7.106084823608398,4.370490550994873,-1.1365907192230225
1772535475812300000,7.025300048828125,6.39721155166626,4.542773723602295,-0.7441678643226624
1772535475822232800,7.03523291015625,6.009573936462402,4.566701889038086,-0.4953143000602722
1772535475832163000,7.0451630859375,6.028716564178467,4.346562385559082,-0.3852444589138031
1772535475842095400,7.055095458984375,6.425925254821777,3.9637107849121094,-0.34695929288864136
1772535475852000800,7.065000732421875,6.8279194831848145,3.6185460090637207,-0.41874396800994873
1772535475861930500,7.074930419921875,7.048657417297363,3.455834150314331,-0.4713860750198364
1772535475871885800,7.0848857421875,7.201797962188721,3.4510483741760254,-0.47617170214653015
1772535475881818000,7.094818115234375,7.268796920776367,3.4606196880340576,-0.4570291340351105
1772535475891753200,7.104753173828125,7.259225845336914,3.551547050476074,-0.41874396800994873
1772535475901685800,7.114685791015625,6.981060028076172,3.5611183643341064,-0.32303106784820557
1772535475911616300,7.1246162109375,6.4115681648254395,3.5084762573242188,-0.25064817070961
1772535475921548500,7.134548583984375,5.678766250610352,3.3888349533081055,-0.19800607860088348
1772535475931481900,7.14448193359375,4.941776752471924,3.2548370361328125,-0.21236300468444824
1772535475941414100,7.1544140625,4.41475772857666,3.197409152984619,-0.2847459018230438
1772535475951347000,7.164346923828125,3.9601213932037354,3.2452657222747803,-0.42831525206565857
1772535475961279500,7.174279541015625,3.662813186645508,3.4845480918884277,-0.5958128571510315
1772535475971222000,7.184221923828125,3.844667673110962,3.8386857509613037,-0.6867401003837585
1772535475981155600,7.194155517578125,4.433900356292725,4.183850288391113,-0.6101697683334351
1772535475991074000,7.204073974609375,5.219344615936279,4.451846599578857,-0.5814558863639832
1772535476001006000,7.214006103515625,6.052644729614258,4.863411903381348,-0.6819544434547424
1772535476010936800,7.223936767578125,6.928418159484863,5.280361175537109,-0.8111668825149536
1772535476020868600,7.23386865234375,7.608577728271484,5.5722856521606445,-0.8733802437782288
1772535476030798000,7.243798095703125,7.843074321746826,5.80199670791626,-0.8542376756668091
1772535476040729900,7.253729736328125,7.766504287719727,5.979663848876953,-0.7202396392822266
1772535476050682000,7.26368212890625,7.5702924728393555,6.247660160064697,-0.4570291340351105
1772535476060616000,7.273615966796875,7.40279483795166,6.625725746154785,-0.2847459018230438
1772535476070529800,7.28352978515625,7.46500825881958,6.865008354187012,-0.3613162338733673
1772535476080461600,7.293461669921875,7.929215908050537,7.018148899078369,-0.6293123364448547
1772535476090397200,7.303397216796875,8.805587768554688,7.214958667755127,-0.9547362327575684
1772535476100329200,7.3133291015625,9.916455268859863,7.334599494934082,-1.2131611108779907
1772535476110266600,7.3232666015625,10.99860954284668,7.358527660369873,-1.3286148309707642
1772535476120199400,7.333199462890625,11.80319595336914,7.262814998626709,-1.2993026971817017
1772535476130121500,7.34312158203125,11.999407768249512,6.999006271362305,-1.0887342691421509
1772535476140053200,7.35305322265625,11.645269393920898,6.721438884735107,-0.9068797826766968
1772535476149984300,7.362984375,11.041680335998535,6.486942291259766,-0.916451096534729
1772535476159916000,7.372916015625,10.558329582214355,6.453442573547363,-1.1413763761520386
1772535476169844500,7.382844482421875,10.26640510559082,6.754938125610352,-1.591825246810913
1772535476179775700,7.392775634765625,9.720243453979492,6.984649181365967,-1.9555343389511108
1772535476189709000,7.402708984375,9.131608963012695,7.133602619171143,-1.9507486820220947
1772535476199640600,7.412640625,9.150752067565918,7.506882667541504,-1.5487544536590576
1772535476209574400,7.422574462890625,9.878170013427734,7.913662910461426,-0.7393822073936462
1772535476219506200,7.432506103515625,10.835897445678711,8.11525821685791,0.14656038582324982
1772535476229447400,7.442447509765625,11.587841987609863,8.038089752197266,1.0372886657714844
1772535476239380200,7.452380126953125,12.157333374023438,7.396812915802002,1.7647067308425903
1772535476249305600,7.4623056640625,12.713067054748535,6.329015731811523,2.028515338897705
1772535476259237600,7.472237548828125,13.393226623535156,5.380859851837158,1.8705891370773315
1772535476269177000,7.482177001953125,13.790434837341309,4.844269275665283,1.6498512029647827
1772535476279110000,7.49210986328125,13.622937202453613,4.810770034790039,1.6259230375289917
1772535476289035000,7.502034912109375,13.048062324523926,5.07936429977417,1.817348837852478
1772535476298967000,7.511967041015625,12.320643424987793,5.4526448249816895,1.9184455871582031
1772535476308906500,7.521906494140625,11.146964073181152,5.768496990203857,1.8370895385742188
1772535476318839000,7.531839111328125,9.629316329956055,6.013163089752197,1.597209095954895
1772535476328774100,7.541774169921875,8.149953842163086,6.180660724639893,1.3866406679153442
1772535476338707200,7.551707275390625,6.861418724060059,6.056233882904053,1.1042876243591309
1772535476348597500,7.561597412109375,5.851049423217773,5.787639617919922,0.8793623447418213
1772535476358526200,7.571526123046875,5.128417015075684,5.438287734985352,0.7980063557624817
1772535476368490200,7.581490234375,4.510470867156982,4.978865623474121,0.706480860710144
1772535476378422500,7.591422607421875,3.950550079345703,4.533202648162842,0.5485545992851257
1772535476388352800,7.601352783203125,3.5048868656158447,4.088137626647949,0.3475574851036072
1772535476398284800,7.611284912109375,3.318246841430664,3.699902057647705,0.20877377688884735
1772535476408215600,7.621215576171875,3.380460262298584,3.4366915225982666,0.19920247793197632
1772535476418147600,7.631147705078125,3.6532418727874756,3.393620729446411,0.26620152592658997
1772535476428082400,7.64108251953125,4.204189300537109,3.518047571182251,0.4145565330982208
1772535476438014700,7.6510146484375,4.682754039764404,3.6807594299316406,0.6299105882644653
1772535476447943700,7.660943603515625,4.926821708679199,3.8530426025390625,0.9607182741165161
1772535476457875700,7.670875732421875,4.936991214752197,3.992424488067627,1.3770694732666016
1772535476467807200,7.68080712890625,4.878965377807617,4.025924205780029,1.659422516822815
1772535476477739300,7.6907392578125,4.926821708679199,4.021138668060303,1.7024933099746704
1772535476487649800,7.70064990234375,5.070989608764648,3.968496322631836,1.4775680303573608
1772535476497579500,7.71057958984375,5.439484119415283,3.968496322631836,0.9798609018325806
1772535476507516200,7.72051611328125,5.922834396362305,4.045066833496094,0.3475574851036072
1772535476517446700,7.73044677734375,6.315855503082275,4.183850288391113,-0.2799602448940277
1772535476527376400,7.74037646484375,6.612565517425537,4.36091947555542,-0.8255237936973572
1772535476537307000,7.750306884765625,6.784848690032959,4.64805793762207,-1.222732424736023
1772535476547245600,7.76024560546875,6.803991317749023,5.021936416625977,-1.3381860256195068
1772535476557176800,7.7701767578125,6.574280261993408,5.380859851837158,-1.1892328262329102
1772535476567104800,7.780104736328125,6.282355785369873,5.763711452484131,-1.00259268283844
1772535476577035800,7.790035888671875,6.358926296234131,6.285944938659668,-0.9116654396057129
1772535476586968800,7.79996875,6.732206344604492,6.879364967346191,-1.0504491329193115
1772535476596900000,7.809900146484375,7.082156658172607,7.3537421226501465,-1.3621143102645874
1772535476606837000,7.8198369140625,7.230511665344238,7.645666599273682,-1.7641085386276245
1772535476616768800,7.829768798828125,7.3262248039245605,7.913662910461426,-2.2570300102233887
1772535476626695000,7.83969482421875,7.455437183380127,8.163114547729492,-2.5639095306396484
1772535476636626200,7.849626220703125,7.666005611419678,8.26839828491211,-2.4634108543395996
1772535476646579700,7.859579833984375,7.823931694030762,8.23968505859375,-2.1469600200653076
1772535476656513000,7.869512939453125,8.054241180419922,8.258827209472656,-2.017747640609741
1772535476666446300,7.8794462890625,8.346165657043457,8.402397155761719,-2.008176326751709
1772535476676379600,7.889379638671875,8.695517539978027,8.493324279785156,-1.9698911905288696
1772535476686318000,7.899318115234375,9.112466812133789,8.550751686096191,-1.9363917112350464
1772535476696252000,7.909251953125,9.691530227661133,8.986245155334473,-2.3772692680358887
1772535476706184000,7.919183837890625,10.064809799194336,9.896116256713867,-3.157329559326172
1772535476716117800,7.92911767578125,9.399605751037598,9.800403594970703,-2.6835505962371826
1772535476726022400,7.9390224609375,8.566305160522461,8.770891189575195,-1.4578272104263306
1772535476735953200,7.948953125,8.432307243347168,8.483752250671387,-1.3381860256195068
1772535476745908000,7.958907958984375,8.628518104553223,8.670392990112305,-1.893320918083191
1772535476755841000,7.968841064453125,9.145966529846191,8.526823043823242,-2.2857437133789062
1772535476765768200,7.978768310546875,9.969097137451172,8.321041107177734,-2.740978240966797
1772535476775700700,7.98870068359375,11.079965591430664,8.139185905456543,-3.445066452026367
1772535476785608200,7.998608154296875,12.123833656311035,7.736593723297119,-4.091128349304199
1772535476795538200,8.0085380859375,12.602996826171875,7.10010290145874,-4.555934429168701
1772535476805497900,8.018497802734375,12.478569984436035,6.247660160064697,-4.709074974060059
1772535476815431000,8.028430908203125,11.80319595336914,5.395216941833496,-4.517649173736572
1772535476825356000,8.03835595703125,10.749755859375,4.892126083374023,-4.057629108428955
1772535476835288300,8.048288330078124,9.662816047668457,4.753342151641846,-3.6508491039276123
1772535476845231400,8.0582314453125,8.896514892578125,4.695914268493652,-3.4498519897460938
1772535476855164700,8.06816455078125,8.394021987915039,4.5714874267578125,-3.3535408973693848
1772535476865090000,8.078090087890626,8.126026153564453,4.466203689575195,-2.9754750728607178
1772535476875022600,8.088022705078124,8.059026718139648,4.4614176750183105,-2.266601324081421
1772535476884954000,8.0979541015625,8.063812255859375,4.537988185882568,-1.5296118259429932
1772535476894886400,8.107886474609375,8.005785942077637,4.561916351318359,-0.9451649188995361
1772535476904824800,8.117824951171874,7.737790107727051,4.542773723602295,-0.4426721930503845
1772535476914758000,8.1277578125,7.11565637588501,4.576273441314697,0.0029910283628851175
1772535476924675600,8.137675537109375,6.2297139167785645,4.686343193054199,0.251844584941864
1772535476934607000,8.147607177734375,5.415555953979492,4.95493745803833,0.2949153780937195
1772535476944557600,8.1575576171875,4.807180881500244,5.170291423797607,0.2566302418708801
1772535476954491000,8.167490966796874,4.319045066833496,4.988437175750732,0.23270200192928314
1772535476964384800,8.177384765625,3.6819558143615723,4.609772682189941,0.2709871530532837
1772535476974314000,8.18731396484375,3.11246395111084,4.427918434143066,0.21355941891670227
1772535476984269800,8.197269775390625,2.843869686126709,4.399204254150391,0.06999006122350693
1772535476994201900,8.207201904296875,2.8103702068328857,4.265206336975098,-0.025722842663526535
1772535477004146000,8.21714599609375,2.9066812992095947,4.045066833496094,-0.12143574655056
1772535477014079200,8.227079345703125,3.1794631481170654,3.992424488067627,-0.3852444589138031
1772535477024010800,8.2370107421875,3.614956855773926,4.159922122955322,-0.6867401003837585
1772535477033944000,8.246944091796875,4.204189300537109,4.494917392730713,-0.9403793215751648
1772535477043870200,8.2568701171875,4.898108005523682,4.8538408279418945,-1.031306505203247
1772535477053802500,8.266802490234374,5.530411243438721,5.213362216949463,-0.9978070259094238
1772535477063727000,8.27672705078125,6.062216281890869,5.567500114440918,-0.9643075466156006
1772535477073659000,8.286658935546875,6.363711833953857,5.935994625091553,-0.7872386574745178
1772535477083599400,8.296599365234375,6.358926296234131,6.2428741455078125,-0.5431707501411438
1772535477093531600,8.30653173828125,6.138786315917969,6.5252275466918945,-0.3756731450557709
1772535477103456300,8.316456298828125,5.90369176864624,6.831508636474609,-0.27038896083831787
1772535477113387800,8.3263876953125,5.913262844085693,7.210172653198242,-0.37088751792907715
1772535477123319800,8.33631982421875,6.062216281890869,7.511668682098389,-0.47617170214653015
1772535477133251600,8.34625146484375,6.311069488525391,7.669594764709473,-0.7106683254241943
1772535477143182000,8.35618212890625,6.751348972320557,7.707880020141602,-1.1509476900100708
1772535477153113900,8.36611376953125,7.187440872192383,7.631309509277344,-1.4626128673553467
1772535477163052300,8.37605224609375,7.551149845123291,7.717451095581055,-1.3381860256195068
1772535477172984600,8.385984619140626,8.005785942077637,7.937591075897217,-0.7585247755050659
1772535477182908200,8.395908203125,8.417949676513672,7.985447406768799,-0.08793623000383377
1772535477192839700,8.405839599609376,8.757730484008789,7.803592681884766,0.3810569941997528
1772535477202781400,8.415781494140624,9.083154678344727,7.583453178405762,0.5389832854270935
1772535477212714000,8.4257138671875,9.385248184204102,7.301100254058838,0.4624129831790924
1772535477222616600,8.435616455078126,9.734601020812988,7.003791809082031,0.16091732680797577
1772535477232545800,8.4455458984375,10.352546691894531,7.013363361358643,-0.519242525100708
1772535477242515700,8.455515625,10.816754341125488,7.396812915802002,-1.2945170402526855
1772535477252449300,8.46544921875,10.228120803833008,7.229315280914307,-1.342971682548523
1772535477262366000,8.475365966796875,9.543174743652344,6.965506553649902,-0.9068797826766968
1772535477272298000,8.485298095703126,9.327820777893066,7.2436723709106445,-0.48574298620224
1772535477282240500,8.495240478515624,9.040083885192871,7.569096088409424,0.11306086927652359
1772535477292173600,8.505173583984375,8.772088050842285,7.593024253845215,0.7884350419044495
1772535477302097700,8.51509765625,8.949156761169434,7.281957626342773,1.3962119817733765
1772535477312029700,8.52502978515625,9.619745254516602,6.774080753326416,1.8897316455841064
1772535477321970200,8.53497021484375,10.50090217590332,6.295516490936279,2.0811574459075928
1772535477331903000,8.544903076171876,11.535200119018555,5.696712493896484,2.0380866527557373
1772535477341828600,8.55482861328125,12.588640213012695,5.069792747497559,1.9950158596038818
1772535477351761000,8.564760986328125,13.138989448547363,4.662415027618408,1.6737794876098633
1772535477361693200,8.574693115234375,12.837493896484375,4.399204254150391,1.089930772781372
1772535477371625500,8.58462548828125,11.611769676208496,4.193421840667725,0.5150550603866577
1772535477381551000,8.594551025390626,9.926026344299316,4.068994998931885,0.18484555184841156
1772535477391482600,8.604482666015626,8.24566650390625,4.016352653503418,0.09870393574237823
1772535477401448400,8.614448486328126,6.74656343460083,4.107280254364014,0.022133609279990196
1772535477411383600,8.624383544921875,5.7170515060424805,4.226921081542969,-0.11186445504426956
1772535477421282600,8.634282470703125,5.520840167999268,4.274777889251709,-0.23629122972488403
1772535477431213800,8.6442138671875,5.932405471801758,4.198207378387451,-0.21714866161346436
1772535477441124000,8.6541240234375,6.564708709716797,4.078566074371338,-0.03529413416981697
1772535477451053300,8.66405322265625,7.120441913604736,4.150351047515869,0.1657029688358307
1772535477461006000,8.674006103515625,7.622934818267822,4.403990268707275,0.4911268353462219
1772535477470937600,8.6839375,7.938787460327148,4.643272399902344,0.989432156085968
1772535477480874200,8.693874267578124,7.905287742614746,4.762913703918457,1.420140266418457
1772535477490806300,8.70380615234375,7.560721397399902,4.753342151641846,1.3962119817733765
1772535477500742700,8.71374267578125,6.961917400360107,4.643272399902344,1.0133603811264038
1772535477510675200,8.72367529296875,6.430710792541504,4.552345275878906,0.706480860710144
1772535477520615400,8.733615478515626,6.067001819610596,4.480560302734375,0.6346961855888367
1772535477530548700,8.743548828125,5.683551788330078,4.351347923278809,0.5916253924369812
1772535477540463600,8.753463623046875,5.535196781158447,4.2556352615356445,0.49591249227523804
1772535477550395100,8.76339501953125,5.702694416046143,4.202992916107178,0.41934216022491455
1772535477560331300,8.773331298828126,6.057430744171143,4.150351047515869,0.41934216022491455
1772535477570263300,8.78326318359375,6.27278470993042,4.231706619262695,0.3332005441188812
1772535477580204300,8.793204345703124,6.119643688201904,4.490131855010986,0.15134602785110474
1772535477590137300,8.803137451171875,5.7170515060424805,4.863411903381348,-0.21714866161346436
1772535477600055300,8.81305517578125,5.410770416259766,5.299503803253174,-0.7920243144035339
1772535477609986600,8.822986572265625,5.0327043533325195,5.672784328460693,-1.2131611108779907
1772535477619928000,8.832927978515626,4.644468784332275,5.950351715087891,-1.409970760345459
1772535477629860400,8.8428603515625,4.453042984008789,6.252445697784424,-1.4673985242843628
1772535477639760400,8.852760498046875,4.625326156616211,6.482156753540039,-1.4673985242843628
1772535477649689300,8.862689453125,5.271986484527588,6.6113691329956055,-1.4482558965682983
1772535477659656700,8.87265673828125,6.181857109069824,6.764509677886963,-1.4913266897201538
1772535477669589800,8.88258984375,7.163512706756592,7.143173694610596,-1.6683956384658813
1772535477679489300,8.8924892578125,8.073383331298828,7.549953460693359,-1.8741782903671265
1772535477689419000,8.9024189453125,8.757730484008789,7.664809226989746,-1.9507486820220947
1772535477699355600,8.912355712890625,9.289535522460938,7.679165840148926,-1.984248161315918
1772535477709286100,8.9222861328125,9.677172660827637,7.616952896118164,-2.079961061477661
1772535477719220000,8.932219970703125,9.777671813964844,7.607381343841553,-2.2857437133789062
1772535477729150700,8.942150634765625,9.69631576538086,7.693522930145264,-2.5256242752075195
1772535477739084300,8.952084228515625,9.509675025939941,7.8179497718811035,-2.5734808444976807
1772535477749015300,8.962015380859375,9.251250267028809,7.971090316772461,-2.4394826889038086
1772535477758944300,8.9719443359375,9.035298347473145,8.134400367736816,-2.3096721172332764
1772535477768875000,8.981875,9.18425178527832,8.402397155761719,-2.42512583732605
1772535477778854100,8.991854248046875,9.629316329956055,9.005388259887695,-2.9419753551483154
1772535477788790000,9.0017900390625,9.380462646484375,9.269196510314941,-2.827120065689087
1772535477798676700,9.0116767578125,8.910871505737305,8.732605934143066,-1.898106575012207
1772535477808607500,9.021607421875,8.93958568572998,8.402397155761719,-1.414756417274475
1772535477818545400,9.03154541015625,9.141180992126465,8.62732219696045,-1.721037745475769
1772535477828477000,9.041476806640626,9.251250267028809,8.737391471862793,-2.204387903213501
1772535477838403300,9.0514033203125,9.57188892364502,8.62732219696045,-2.8414769172668457
1772535477848334300,9.061334228515625,10.27597713470459,8.349754333496094,-3.583850145339966
1772535477858273300,9.071273193359374,11.032109260559082,7.832306861877441,-4.277768611907959
1772535477868205000,9.081205078125,11.549556732177734,7.03788948059082,-4.7234320640563965
1772535477878149600,9.091149658203125,11.621341705322266,5.9647088050842285,-4.737788677215576
1772535477888082700,9.101082763671876,11.248061180114746,4.993222713470459,-4.397409915924072
1772535477898015500,9.111015380859374,10.572687149047852,4.399204254150391,-3.9188451766967773
1772535477907948500,9.120948486328125,9.859027862548828,4.092923164367676,-3.497708559036255
1772535477917892400,9.130892333984375,9.145966529846191,3.9014973640441895,-3.1764719486236572
1772535477927826700,9.14082666015625,8.327022552490234,3.8291144371032715,-2.7936203479766846
1772535477937750500,9.15075048828125,7.4841508865356445,3.9254255294799805,-2.4777679443359375
1772535477947683600,9.16068359375,6.799205780029297,4.097708702087402,-2.108675003051758
1772535477957603600,9.170603515625,6.454638957977295,4.207778453826904,-1.5487544536590576
1772535477967535600,9.18053564453125,6.564708709716797,4.284348964691162,-1.1126625537872314
1772535477977472000,9.190471923828126,6.9475603103637695,4.31306266784668,-0.882951557636261
1772535477987404300,9.200404296875,7.235297679901123,4.3752760887146,-0.8159525394439697
1772535477997346800,9.210346923828125,7.383652687072754,4.4374895095825195,-0.7345965504646301
1772535478007280400,9.2202802734375,7.354938507080078,4.423132419586182,-0.5814558863639832
1772535478017190100,9.230190185546874,7.130013465881348,4.3752760887146,-0.39960137009620667
1772535478027121000,9.240120849609376,6.760920524597168,4.265206336975098,-0.26560330390930176
1772535478037068800,9.25006884765625,6.296712875366211,4.025924205780029,-0.25064817070961
1772535478047001300,9.26000146484375,5.865406513214111,3.848257064819336,-0.3086741268634796
1772535478056924200,9.269924072265624,5.554339408874512,3.7286159992218018,-0.47617170214653015
1772535478066856000,9.27985595703125,5.401198863983154,3.551547050476074,-0.7250252366065979
1772535478076807400,9.289807373046875,5.176273345947266,3.40797758102417,-1.0791629552841187
1772535478086741200,9.2997412109375,5.0087761878967285,3.4510483741760254,-1.2035897970199585
1772535478096633000,9.309633056640624,5.104488849639893,3.685544967651367,-1.0217353105545044
1772535478106562600,9.3195625,5.343770980834961,4.126422882080078,-0.7106683254241943
1772535478116521500,9.329521484375,5.6069817543029785,4.624129772186279,-0.5431707501411438
1772535478126454000,9.3394541015625,5.7792649269104,4.978865623474121,-0.576670229434967
1772535478136385000,9.349385009765625,5.760122299194336,5.146363258361816,-0.638883650302887
1772535478146317300,9.3593173828125,5.7170515060424805,5.294718265533447,-0.5144568681716919
1772535478156253400,9.36925341796875,6.043073654174805,5.60099983215332,-0.21714866161346436
1772535478166186000,9.37918603515625,6.636493682861328,5.959922790527344,0.12741780281066895
1772535478176087300,9.38908740234375,7.225726127624512,6.2189459800720215,0.2997010350227356
1772535478186016800,9.399016845703125,7.551149845123291,6.247660160064697,0.06999006122350693
1772535478195975000,9.408974853515625,7.560721397399902,6.166304111480713,-0.4713860750198364
1772535478205907200,9.4189072265625,7.685148239135742,6.295516490936279,-1.3142578601837158
1772535478215840800,9.4288408203125,8.102097511291504,6.601797580718994,-1.7641085386276245
1772535478225773000,9.43877294921875,8.523234367370605,6.716653347015381,-1.3908281326293945
1772535478235706400,9.448706298828125,8.719446182250977,6.750152587890625,-0.6245267391204834
1772535478245639000,9.458638916015625,8.700303077697754,6.850651264190674,-0.049651071429252625
1772535478255573800,9.46857373046875,8.437092781066895,6.970292568206787,0.3236292600631714
1772535478265506600,9.478506591796876,8.034500122070312,7.03788948059082,0.6059823632240295
1772535478275410000,9.488409912109375,7.823931694030762,6.922435760498047,0.6442674994468689
1772535478285340000,9.49833984375,7.9005022048950195,6.8410797119140625,0.5150550603866577
1772535478295275800,9.50827587890625,8.35573673248291,6.783652305603027,0.2757728099822998
1772535478305206300,9.518206298828124,9.1986083984375,6.812366008758545,-0.09272187948226929
1772535478315161300,9.528161376953125,9.973882675170898,6.91765022277832,-0.6101697683334351
1772535478325094400,9.538094482421876,9.57188892364502,6.821937561035156,-0.7489534616470337
1772535478335031800,9.54803173828125,8.360522270202637,6.884150981903076,-0.729810893535614
1772535478344965000,9.557965087890626,7.551149845123291,7.530810832977295,-0.9643075466156006
1772535478354893000,9.56789306640625,7.311867713928223,8.263612747192383,-1.1461620330810547
1772535478364826000,9.577826171875,6.961917400360107,8.560322761535645,-0.9020941257476807
1772535478374754300,9.58775439453125,6.966702938079834,8.651249885559082,-0.31345975399017334
1772535478384686600,9.5976865234375,7.728219032287598,8.301898002624512,0.44327038526535034
1772535478394624300,9.607624267578124,8.652446746826172,7.612166881561279,1.2047861814498901
1772535478404557000,9.61755712890625,9.830313682556152,7.047461032867432,1.688136339187622
1772535478414508300,9.62750830078125,11.56869888305664,6.625725746154785,1.8849459886550903
1772535478424443000,9.63744287109375,13.11984634399414,6.214160442352295,1.6163517236709595
1772535478434355000,9.64735498046875,13.938790321350098,5.840281963348389,1.0995019674301147
1772535478444287200,9.657287353515626,13.867005348205566,5.624927997589111,0.5006981492042542
1772535478454200300,9.667200439453126,12.708281517028809,5.591428279876709,-0.1501496136188507
1772535478464130800,9.677130859375,10.96032428741455,5.6344990730285645,-0.47617170214653015
1772535478474076000,9.687075927734375,9.150752067565918,5.672784328460693,-0.3613162338733673
1772535478484008000,9.697008056640625,7.4362945556640625,5.620141983032227,-0.1740778535604477
1772535478493946600,9.706946533203125,6.540780544281006,5.557928562164307,0.012562318705022335
1772535478503879400,9.71687939453125,6.593422889709473,5.313860893249512,0.03170489892363548
1772535478513808000,9.726807861328124,7.149155616760254,4.719842433929443,-0.12622138857841492
1772535478523740200,9.736740234375,7.421937465667725,4.18863582611084,-0.4570291340351105
1772535478533646600,9.746646484375,7.369295597076416,4.289134502410889,-1.3142578601837158
1772535478543576300,9.756576416015625,6.545566558837891,4.681557655334473,-2.827120065689087
1772535478553527300,9.76652734375,8.733802795410156,3.992424488067627,-2.9898319244384766
1772535478563459000,9.776458984375,10.783255577087402,3.6185460090637207,-1.4243277311325073
1772535478573402000,9.786402099609376,11.516057014465332,4.4374895095825195,0.5964110493659973
1772535478583335000,9.7963349609375,10.496116638183594,5.462215900421143,1.812563180923462
1772535478593262000,9.806261962890625,7.881359577178955,6.166304111480713,2.1003000736236572
1772535478603194400,9.8161943359375,5.5830535888671875,6.984649181365967,1.908874273300171
1772535478613121800,9.826121826171875,4.252045631408691,7.104888439178467,1.290927767753601
