time,seconds_elapsed,z,y,x
1772574351137005000,0.142005126953125,-0.06631075590848923,-0.0588541254401207,0.07869409024715424
1772574351206861000,0.211861083984375,-0.0801587849855423,0.016777420416474342,0.22995717823505402
1772574351216796700,0.221796630859375,-0.13128997385501862,0.04979964345693588,0.23315288126468658
1772574351226743000,0.231742919921875,-0.10892007499933243,-0.006657706573605537,0.22569625079631805
1772574351236650800,0.241650634765625,-0.06631075590848923,-0.04181039705872536,0.20545682311058044
1772574351246581500,0.25158154296875,-0.06418029218912125,-0.04181039705872536,0.16497796773910522
1772574351256520700,0.261520751953125,-0.07483261823654175,-0.03861469775438309,0.1149120107293129
1772574351266454800,0.271454833984375,-0.07696308940649033,-0.04181039705872536,0.061650361865758896
1772574351276383500,0.281383544921875,-0.06737598776817322,-0.06098458915948868,0.0009320789249613881
1772574351286315500,0.2913154296875,-0.05352795869112015,-0.07057169079780579,-0.050199106335639954
1772574351296247000,0.3012470703125,-0.04287562891840935,-0.07163692265748978,-0.09493889659643173
1772574351306178800,0.3111787109375,-0.03328853100538254,-0.06311506032943726,-0.12689588963985443
1772574351316113000,0.32111279296875,-0.031158065423369408,-0.05139749497175217,-0.15672241151332855
1772574351326045700,0.331045654296875,-0.03222329914569855,-0.03967992961406708,-0.172700896859169
1772574351335986700,0.340986572265625,-0.027962366119027138,-0.03648423030972481,-0.16950520873069763
1772574351345922600,0.350922607421875,-0.018375270068645477,-0.026897134259343147,-0.15459194779396057
1772574351355840500,0.360840576171875,-0.00452724052593112,-0.0077229393646121025,-0.1290263533592224
1772574351365769000,0.37076904296875,0.009187635034322739,0.015712186694145203,-0.0981345921754837
1772574351375709400,0.38070947265625,0.02516612969338894,0.025299284607172012,-0.066177599132061
1772574351385642800,0.390642822265625,0.03688369318842888,0.019973119720816612,-0.034220609813928604
1772574351395581400,0.40058154296875,0.05073172226548195,0.019973119720816612,-0.008655018173158169
1772574351405517000,0.41051708984375,0.06138405203819275,0.030625449493527412,0.008388710208237171
1772574351415441000,0.42044091796875,0.06884068250656128,0.03808208182454109,0.021171506494283676
1772574351425371600,0.43037158203125,0.07416684925556183,0.04234301298856735,0.033954303711652756
1772574351435299300,0.44029931640625,0.07523208111524582,0.03914731368422508,0.044606633484363556
1772574351445228800,0.450228759765625,0.07416684925556183,0.03595161437988281,0.050998032093048096
1772574351455165400,0.46016552734375,0.0773625448346138,0.04660394415259361,0.059519894421100616
1772574351465098000,0.470097900390625,0.07949301600456238,0.06471290439367294,0.0712374597787857
1772574351475032800,0.48003271484375,0.07949301600456238,0.07536523789167404,0.07869409024715424
1772574351484966100,0.489966064453125,0.07949301600456238,0.08388710021972656,0.07656362652778625
1772574351494898200,0.499898193359375,0.07949301600456238,0.09134373068809509,0.06697652488946915
1772574351504831000,0.5098310546875,0.09014534205198288,0.09986559301614761,0.057389430701732635
1772574351514761500,0.519761474609375,0.10186290740966797,0.1318225860595703,0.050998032093048096
1772574351524693200,0.529693359375,0.10612384229898453,0.17017097771167755,0.04993279650807381
1772574351534626300,0.539626220703125,0.10292813926935196,0.1765623688697815,0.045671865344047546
1772574351544558300,0.549558349609375,0.09547150880098343,0.1754971444606781,0.043541401624679565
1772574351554494200,0.559494140625,0.0667102187871933,0.164844810962677,0.035019535571336746
1772574351564426500,0.569426513671875,0.07097115367650986,0.1872147023677826,0.020106272771954536
1772574351574358800,0.57935888671875,0.10292813926935196,0.22556309401988983,0.004127778112888336
1772574351584291000,0.589291015625,0.10825430601835251,0.2191716879606247,0.005193010903894901
1772574351594234600,0.599234619140625,0.11571093648672104,0.23728065192699432,0.029693370684981346
1772574351604168000,0.60916796875,0.098667211830616,0.2703028917312622,0.050998032093048096
1772574351614097400,0.619097412109375,0.11677616834640503,0.2820204496383667,0.06271559745073318
1772574351624030500,0.629030517578125,0.2041252851486206,0.2703028917312622,0.07656362652778625
1772574351633964500,0.638964599609375,0.19240771234035492,0.1861494779586792,0.04993279650807381
1772574351643897600,0.648897705078125,0.16790735721588135,0.12969212234020233,0.023301972076296806
1772574351653817000,0.658817138671875,0.17642922699451447,0.1659100502729416,0.011584409512579441
1772574351663748900,0.668748779296875,0.19986434280872345,0.1978670358657837,0.001997311832383275
1772574351673680100,0.67868017578125,0.24034319818019867,0.23301972448825836,0.005193010903894901
1772574351683612000,0.68861181640625,0.19666863977909088,0.17975807189941406,-0.037416309118270874
1772574351693544000,0.6985439453125,0.16045072674751282,0.10306129604578018,-0.07576470077037811
1772574351703475700,0.708475830078125,0.16790735721588135,0.15632294118404388,-0.08109086751937866
1772574351713424400,0.71842431640625,0.17536398768424988,0.2170412242412567,-0.05978620424866676
1772574351723358000,0.72835791015625,0.17110306024551392,0.22556309401988983,-0.028894444927573204
1772574351733275100,0.738275146484375,0.13488513231277466,0.16804051399230957,0.012649642303586006
1772574351743207000,0.74820703125,0.11145000159740448,0.14567062258720398,0.061650361865758896
1772574351753134800,0.758134765625,0.13595037162303925,0.19467133283615112,0.10532491654157639
1772574351763066400,0.76806640625,0.15405932068824768,0.2074541300535202,0.14154283702373505
1772574351773003800,0.778003662109375,0.1625811904668808,0.22556309401988983,0.18095645308494568
1772574351782935800,0.787935791015625,0.21264714002609253,0.3171731233596802,0.23954427242279053
1772574351792863700,0.79786376953125,0.16790735721588135,0.2500634491443634,0.22676147520542145
1772574351802795300,0.807795166015625,0.10079767554998398,0.10732222348451614,0.19693495333194733
1772574351812743000,0.817742919921875,0.08481918275356293,0.09880036115646362,0.19373925030231476
1772574351822676200,0.82767626953125,0.09547150880098343,0.09134373068809509,0.19160878658294678
1772574351832611000,0.837611083984375,0.09121058136224747,0.04873441159725189,0.19160878658294678
1772574351842544400,0.84754443359375,0.08162347972393036,0.012516488321125507,0.19160878658294678
1772574351852463000,0.857463134765625,0.07842778414487839,-0.0034620072692632675,0.1681736707687378
1772574351862395100,0.86739501953125,0.06884068250656128,-0.019440501928329468,0.14260807633399963
1772574351872325400,0.877325439453125,0.05925358831882477,-0.015179570764303207,0.12023817747831345
1772574351882257200,0.887257080078125,0.04860125854611397,-0.010918638668954372,0.08934641629457474
1772574351892192000,0.89719189453125,0.03794892504811287,-0.016244804486632347,0.05632419511675835
1772574351902124000,0.9071240234375,0.02942706272006035,0.014646953903138638,0.029693370684981346
1772574351912056600,0.917056640625,0.015579032711684704,0.03488638252019882,-0.004394086077809334
1772574351921988600,0.926988525390625,0.007057168986648321,0.009320789016783237,-0.036351077258586884
1772574351931922400,0.93692236328125,0.002929390873759985,-0.00452724052593112,-0.058720968663692474
1772574351941854700,0.946854736328125,-0.0002663082559593022,-0.027962366119027138,-0.0768299326300621
1772574351951803000,0.956802978515625,0.0007989247678779066,-0.04607132822275162,-0.07896039634943008
1772574351961736700,0.96673681640625,0.002929390873759985,-0.05246272683143616,-0.07363422960042953
1772574351971629600,0.976629638671875,0.00399462366476655,-0.06098458915948868,-0.066177599132061
1772574351981559300,0.986559326171875,0.0007989247678779066,-0.0695064514875412,-0.054460037499666214
1772574351991497500,0.99649755859375,-0.00133154122158885,-0.06737598776817322,-0.03848154470324516
1772574352001428000,1.006427978515625,-0.0023967742454260588,-0.05033225938677788,-0.024633513763546944
1772574352011363000,1.016363037109375,-0.00452724052593112,-0.04074516147375107,-0.017176883295178413
1772574352021294000,1.026294189453125,-0.009853405877947807,-0.06418029218912125,-0.018242115154862404
1772574352041195800,1.04619580078125,-0.0077229393646121025,-0.08548495173454285,-0.021437814459204674
1772574352051094800,1.0560947265625,-0.009853405877947807,-0.07057169079780579,-0.025698747485876083
1772574352061025800,1.06602587890625,-0.013049104250967503,-0.05778888985514641,-0.033155377954244614
1772574352070954500,1.07595458984375,-0.013049104250967503,-0.05778888985514641,-0.03954677656292915
1772574352090852900,1.095852783203125,-0.0077229393646121025,-0.04394086077809334,-0.043807707726955414
1772574352100787500,1.105787353515625,-0.006657706573605537,-0.0482017956674099,-0.04913387447595596
1772574352110722300,1.115722412109375,-0.008788172155618668,-0.05672365799546242,-0.05232957378029823
1772574352120657000,1.125656982421875,-0.006657706573605537,-0.05991935729980469,-0.057655736804008484
1772574352130552300,1.13555224609375,-0.0023967742454260588,-0.05778888985514641,-0.060851436108350754
1772574352140483000,1.145483154296875,0.0007989247678779066,-0.04713656008243561,-0.06298190355300903
1772574352150414300,1.155414306640625,0.005991935729980469,-0.03435376659035683,-0.058720968663692474
1772574352160345000,1.165344970703125,0.011318100616335869,-0.020505735650658607,-0.037416309118270874
1772574352170301000,1.175301025390625,0.013448567129671574,-0.016244804486632347,-0.012915950268507004
1772574352180234000,1.18523388671875,0.015579032711684704,-0.018375270068645477,0.001997311832383275
1772574352190177800,1.195177734375,0.01877473294734955,-0.020505735650658607,0.004127778112888336
1772574352200112000,1.205112060546875,0.02197043038904667,-0.030092833563685417,0.006258244160562754
1772574352210034000,1.215033935546875,0.02303566411137581,-0.04181039705872536,0.015845341607928276
1772574352219967000,1.224967041015625,0.02410089783370495,-0.03861469775438309,0.027562905102968216
1772574352229896000,1.23489599609375,0.02197043038904667,-0.021570969372987747,0.038215234875679016
1772574352239828500,1.244828369140625,0.02410089783370495,-0.021570969372987747,0.048867564648389816
1772574352249759700,1.254759765625,0.02729659713804722,-0.021570969372987747,0.061650361865758896
1772574352259692300,1.2646923828125,0.03049229457974434,-0.011983871459960938,0.0712374597787857
1772574352269642200,1.274642333984375,0.02942706272006035,0.0018641578499227762,0.0723026916384697
1772574352279576300,1.284576416015625,0.02410089783370495,0.012516488321125507,0.06378082931041718
1772574352289500700,1.294500732421875,0.01877473294734955,0.019973119720816612,0.042476166039705276
1772574352299434000,1.30443408203125,0.012383334338665009,0.028494983911514282,0.019041040912270546
1772574352309368300,1.314368408203125,0.007057168986648321,0.024234050884842873,-0.0033288532868027687
1772574352319301600,1.324301513671875,0.010252867825329304,0.014646953903138638,-0.019307348877191544
1772574352329223000,1.334222900390625,0.009187635034322739,0.012516488321125507,-0.029959678649902344
1772574352339155000,1.344155029296875,0.002929390873759985,0.00399462366476655,-0.041677240282297134
1772574352349096700,1.3540966796875,-0.0023967742454260588,-0.017310036346316338,-0.054460037499666214
1772574352359029800,1.36402978515625,-0.0034620072692632675,-0.04394086077809334,-0.06937330216169357
1772574352368950300,1.3739501953125,-0.00452724052593112,-0.06737598776817322,-0.08535179495811462
1772574352378882000,1.383882080078125,-0.005592473316937685,-0.09400681406259537,-0.10026505589485168
1772574352388827100,1.3938271484375,-0.00452724052593112,-0.11850717663764954,-0.10772168636322021
1772574352398760400,1.403760498046875,-0.00452724052593112,-0.1227681040763855,-0.10133028775453568
1772574352408681500,1.413681396484375,-0.00452724052593112,-0.0695064514875412,-0.07043853402137756
1772574352418613200,1.42361328125,-0.0023967742454260588,-0.011983871459960938,-0.024633513763546944
1772574352428546600,1.433546630859375,-0.005592473316937685,0.015712186694145203,0.020106272771954536
1772574352438478600,1.443478515625,-0.011983871459960938,0.03488638252019882,0.054193731397390366
1772574352448418000,1.45341796875,-0.015179570764303207,0.04340824484825134,0.06591129302978516
1772574352458350800,1.463350830078125,-0.016244804486632347,0.03808208182454109,0.060585130006074905
1772574352468277500,1.473277587890625,-0.017310036346316338,0.026364516466856003,0.050998032093048096
1772574352478209500,1.48320947265625,-0.021570969372987747,0.015712186694145203,0.042476166039705276
1772574352488119300,1.493119384765625,-0.026897134259343147,0.0061250897124409676,0.038215234875679016
1772574352498049300,1.50304931640625,-0.03222329914569855,-0.013049104250967503,0.031823836266994476
1772574352508002800,1.5130029296875,-0.03541899845004082,-0.04074516147375107,0.017975807189941406
1772574352517935000,1.52293505859375,-0.03861469775438309,-0.06631075590848923,0.006258244160562754
1772574352527869700,1.53286962890625,-0.04074516147375107,-0.05991935729980469,-0.004394086077809334
1772574352537802200,1.54280224609375,-0.04181039705872536,-0.03328853100538254,-0.013981183059513569
1772574352547742200,1.5527421875,-0.04287562891840935,-0.011983871459960938,-0.024633513763546944
1772574352557675500,1.562675537109375,-0.04500609636306763,0.00399462366476655,-0.03209014609456062
1772574352567603000,1.57260302734375,-0.04926702752709389,0.011451254598796368,-0.044872939586639404
1772574352577535500,1.582535400390625,-0.05246272683143616,0.009320789016783237,-0.057655736804008484
1772574352587464400,1.59246435546875,-0.05459319427609444,0.00399462366476655,-0.066177599132061
1772574352597397000,1.60239697265625,-0.05459319427609444,-0.0002663082559593022,-0.07576470077037811
1772574352607330300,1.612330322265625,-0.05352795869112015,-0.0034620072692632675,-0.0778951644897461
1772574352617262800,1.622262939453125,-0.05352795869112015,-0.006657706573605537,-0.07256899774074554
1772574352627176200,1.63217626953125,-0.05139749497175217,-0.008788172155618668,-0.06298190355300903
1772574352637106700,1.642106689453125,-0.05033225938677788,-0.00452724052593112,-0.047003407031297684
1772574352647066000,1.652066162109375,-0.05246272683143616,-0.0077229393646121025,-0.033155377954244614
1772574352656999400,1.66199951171875,-0.05033225938677788,-0.015179570764303207,-0.020372580736875534
1772574352666923800,1.671923828125,-0.04607132822275162,-0.019440501928329468,-0.004394086077809334
1772574352676856000,1.68185595703125,-0.04181039705872536,-0.017310036346316338,0.010519175790250301
1772574352686750500,1.69175048828125,-0.03967992961406708,-0.017310036346316338,0.025432437658309937
1772574352696679200,1.70167919921875,-0.03648423030972481,-0.016244804486632347,0.031823836266994476
1772574352706662400,1.711662353515625,-0.030092833563685417,-0.025831900537014008,0.028628136962652206
1772574352716596500,1.721596435546875,-0.025831900537014008,-0.031158065423369408,0.023301972076296806
1772574352726518300,1.731518310546875,-0.021570969372987747,-0.03222329914569855,0.017975807189941406
1772574352736451300,1.741451416015625,-0.021570969372987747,-0.031158065423369408,0.015845341607928276
1772574352746391300,1.751391357421875,-0.019440501928329468,-0.026897134259343147,0.010519175790250301
1772574352756325000,1.7613251953125,-0.018375270068645477,-0.030092833563685417,0.0009320789249613881
1772574352766301000,1.771301025390625,-0.019440501928329468,-0.03861469775438309,-0.012915950268507004
1772574352776238800,1.78123876953125,-0.019440501928329468,-0.03222329914569855,-0.026763979345560074
1772574352786113500,1.791113525390625,-0.017310036346316338,-0.013049104250967503,-0.03848154470324516
1772574352796045300,1.80104541015625,-0.017310036346316338,-0.006657706573605537,-0.051264338195323944
1772574352805975600,1.8109755859375,-0.018375270068645477,-0.011983871459960938,-0.066177599132061
1772574352815907000,1.820906982421875,-0.017310036346316338,-0.017310036346316338,-0.0768299326300621
1772574352825842400,1.830842529296875,-0.017310036346316338,-0.024766668677330017,-0.08428656309843063
1772574352835774200,1.840774169921875,-0.019440501928329468,-0.030092833563685417,-0.08428656309843063
1772574352845706800,1.850706787109375,-0.020505735650658607,-0.030092833563685417,-0.07896039634943008
1772574352855638500,1.860638427734375,-0.020505735650658607,-0.021570969372987747,-0.07150376588106155
1772574352865573600,1.87057373046875,-0.020505735650658607,-0.015179570764303207,-0.07150376588106155
1772574352875506000,1.880505859375,-0.023701434955000877,-0.014114337973296642,-0.07469946891069412
1772574352885438000,1.89043798828125,-0.026897134259343147,-0.022636201232671738,-0.0768299326300621
1772574352895370000,1.900369873046875,-0.025831900537014008,-0.029027599841356277,-0.07363422960042953
1772574352905306600,1.910306640625,-0.026897134259343147,-0.03328853100538254,-0.067242830991745
1772574352915239400,1.920239501953125,-0.029027599841356277,-0.04500609636306763,-0.054460037499666214
1772574352925170000,1.930169921875,-0.030092833563685417,-0.05459319427609444,-0.043807707726955414
1772574352935102500,1.9401025390625,-0.030092833563685417,-0.06311506032943726,-0.03209014609456062
1772574352945043000,1.95004296875,-0.027962366119027138,-0.06844121962785721,-0.017176883295178413
1772574352954976300,1.959976318359375,-0.025831900537014008,-0.06098458915948868,0.004127778112888336
1772574352964897500,1.9698974609375,-0.025831900537014008,-0.05246272683143616,0.023301972076296806
1772574352974829600,1.97982958984375,-0.026897134259343147,-0.05033225938677788,0.037150003015995026
1772574352984772600,1.989772705078125,-0.031158065423369408,-0.04394086077809334,0.043541401624679565
1772574352994705700,1.99970556640625,-0.03541899845004082,-0.04074516147375107,0.043541401624679565
1772574353004633300,2.00963330078125,-0.04181039705872536,-0.03967992961406708,0.03928046673536301
1772574353014566000,2.01956591796875,-0.04926702752709389,-0.03648423030972481,0.03288906812667847
1772574353024491500,2.029491455078125,-0.05352795869112015,-0.031158065423369408,0.023301972076296806
1772574353034423600,2.039423583984375,-0.05352795869112015,-0.023701434955000877,0.007323476951569319
1772574353044363800,2.04936376953125,-0.05672365799546242,-0.018375270068645477,-0.009720250964164734
1772574353054296600,2.059296630859375,-0.05991935729980469,-0.013049104250967503,-0.026763979345560074
1772574353064211700,2.069211669921875,-0.06524552404880524,-0.011983871459960938,-0.03954677656292915
1772574353074142700,2.079142822265625,-0.0695064514875412,-0.011983871459960938,-0.047003407031297684
1772574353084064000,2.08906396484375,-0.07163692265748978,-0.008788172155618668,-0.053394805639982224
1772574353093994000,2.098993896484375,-0.07163692265748978,-0.0034620072692632675,-0.05659050494432449
1772574353103950800,2.108950927734375,-0.07483261823654175,0.0018641578499227762,-0.053394805639982224
1772574353113883400,2.11888330078125,-0.07376738637685776,0.009320789016783237,-0.04593817517161369
1772574353123828000,2.128827880859375,-0.07057169079780579,0.012516488321125507,-0.03954677656292915
1772574353133762000,2.138761962890625,-0.07057169079780579,0.008255556225776672,-0.03848154470324516
1772574353143693600,2.148693603515625,-0.07163692265748978,0.0018641578499227762,-0.03848154470324516
1772574353153627100,2.158627197265625,-0.07483261823654175,0.0018641578499227762,-0.03528584539890289
1772574353163532000,2.168531982421875,-0.07802832126617432,0.010386021807789803,-0.022503048181533813
1772574353173462800,2.178462890625,-0.07589785009622574,0.021038351580500603,-0.005459319334477186
1772574353183391700,2.188391845703125,-0.07163692265748978,0.030625449493527412,0.010519175790250301
1772574353193322500,2.198322509765625,-0.07057169079780579,0.03595161437988281,0.024367205798625946
1772574353203257600,2.208257568359375,-0.07376738637685776,0.030625449493527412,0.026497671380639076
1772574353213188600,2.218188720703125,-0.06844121962785721,0.024234050884842873,0.026497671380639076
1772574353223155500,2.228155517578125,-0.06311506032943726,0.030625449493527412,0.022236740216612816
1772574353233090000,2.238090087890625,-0.05672365799546242,0.030625449493527412,0.012649642303586006
1772574353242982100,2.247982177734375,-0.05459319427609444,0.025299284607172012,-0.0011983871227130294
1772574353252912600,2.25791259765625,-0.05033225938677788,0.022103585302829742,-0.012915950268507004
1772574353262847000,2.267846923828125,-0.04607132822275162,0.026364516466856003,-0.015046416781842709
1772574353272777700,2.27777783203125,-0.04287562891840935,0.017842652276158333,-0.009720250964164734
1772574353282718200,2.28771826171875,-0.03648423030972481,-0.009853405877947807,0.001997311832383275
1772574353292650000,2.29764990234375,-0.026897134259343147,-0.03222329914569855,0.022236740216612816
1772574353302579000,2.307578857421875,-0.016244804486632347,-0.03541899845004082,0.050998032093048096
1772574353312510500,2.317510498046875,-0.009853405877947807,-0.029027599841356277,0.07762885838747025
1772574353322449000,2.327448974609375,-0.0034620072692632675,-0.029027599841356277,0.0925421193242073
1772574353332381000,2.337380859375,0.0007989247678779066,-0.03222329914569855,0.10106398165225983
1772574353342309000,2.34730908203125,0.00399462366476655,-0.020505735650658607,0.09893351793289185
1772574353352241000,2.357240966796875,0.008122402243316174,-0.009853405877947807,0.07656362652778625
1772574353362207700,2.367207763671875,0.009187635034322739,-0.019440501928329468,0.045671865344047546
1772574353372143000,2.37714306640625,0.008122402243316174,-0.03541899845004082,0.023301972076296806
1772574353382060300,2.387060302734375,0.010252867825329304,-0.03967992961406708,0.010519175790250301
1772574353391993900,2.396993896484375,0.013448567129671574,-0.04074516147375107,-0.0001331541279796511
1772574353401936100,2.40693603515625,0.01664426550269127,-0.04607132822275162,-0.011850717477500439
1772574353411870500,2.416870361328125,0.02303566411137581,-0.05459319427609444,-0.018242115154862404
1772574353421793300,2.426793212890625,0.02942706272006035,-0.05033225938677788,-0.026763979345560074
1772574353431726600,2.4367265625,0.03262276202440262,-0.04500609636306763,-0.03528584539890289
1772574353441697000,2.446697021484375,0.03368799388408661,-0.04926702752709389,-0.040612008422613144
1772574353451634000,2.456634033203125,0.0347532257437706,-0.0588541254401207,-0.04274247586727142
1772574353461525800,2.46652587890625,0.03581846132874489,-0.06844121962785721,-0.03954677656292915
1772574353471458000,2.4764580078125,0.03688369318842888,-0.07270215451717377,-0.025698747485876083
1772574353481397500,2.4863974609375,0.03794892504811287,-0.07270215451717377,-0.004394086077809334
1772574353491330800,2.496330810546875,0.04220985993742943,-0.0588541254401207,0.020106272771954536
1772574353501260500,2.506260498046875,0.04220985993742943,-0.04394086077809334,0.040345702320337296
1772574353511193300,2.516193359375,0.04114462435245514,-0.03541899845004082,0.05312849581241608
1772574353521114000,2.526114013671875,0.04220985993742943,-0.021570969372987747,0.061650361865758896
1772574353531045600,2.536045654296875,0.04220985993742943,-0.0077229393646121025,0.06591129302978516
1772574353540980500,2.54598046875,0.03901416063308716,0.0061250897124409676,0.06378082931041718
1772574353550912500,2.55591259765625,0.03368799388408661,0.013581721112132072,0.050998032093048096
1772574353560847000,2.56584716796875,0.02942706272006035,0.00399462366476655,0.038215234875679016
1772574353570779400,2.575779296875,0.02836182899773121,-0.006657706573605537,0.022236740216612816
1772574353580708400,2.585708251953125,0.03049229457974434,-0.0077229393646121025,0.012649642303586006
1772574353590640000,2.59564013671875,0.02942706272006035,0.0007989247678779066,0.007323476951569319
1772574353600573200,2.6055732421875,0.02942706272006035,0.010386021807789803,0.0009320789249613881
1772574353610505200,2.615505126953125,0.02942706272006035,0.011451254598796368,-0.005459319334477186
1772574353620441000,2.625441162109375,0.02836182899773121,0.009320789016783237,-0.009720250964164734
1772574353630373400,2.635373291015625,0.02410089783370495,0.011451254598796368,-0.016111649572849274
1772574353640308200,2.64530810546875,0.02090519852936268,0.014646953903138638,-0.027829213067889214
1772574353650241000,2.655240966796875,0.01877473294734955,0.012516488321125507,-0.041677240282297134
1772574353660182500,2.6651826171875,0.01983996480703354,0.0050598569214344025,-0.0555252730846405
1772574353670116000,2.6751162109375,0.01770949922502041,-0.00133154122158885,-0.06937330216169357
1772574353680047400,2.68504736328125,0.014513799920678139,-0.00133154122158885,-0.0768299326300621
1772574353689980700,2.694980712890625,0.011318100616335869,0.0007989247678779066,-0.08428656309843063
1772574353699906000,2.704906005859375,0.009187635034322739,0.00399462366476655,-0.08854749798774719
1772574353709838600,2.714838623046875,0.007057168986648321,0.012516488321125507,-0.08535179495811462
1772574353719770000,2.72477001953125,0.007057168986648321,0.018907885998487473,-0.0778951644897461
1772574353729702400,2.734702392578125,0.007057168986648321,0.019973119720816612,-0.07150376588106155
1772574353739631600,2.744631591796875,0.009187635034322739,0.014646953903138638,-0.066177599132061
1772574353749563600,2.754563720703125,0.012383334338665009,0.010386021807789803,-0.0555252730846405
1772574353759473000,2.764472900390625,0.015579032711684704,0.012516488321125507,-0.03848154470324516
1772574353769402600,2.774402587890625,0.015579032711684704,0.019973119720816612,-0.021437814459204674
1772574353779359200,2.784359130859375,0.011318100616335869,0.023168819025158882,-0.00226362026296556
1772574353789291500,2.79429150390625,0.011318100616335869,0.022103585302829742,0.025432437658309937
1772574353799225900,2.804225830078125,0.012383334338665009,0.029560215771198273,0.05632419511675835
1772574353809158400,2.814158447265625,0.012383334338665009,0.03275591507554054,0.08082455396652222
1772574353819089200,2.824089111328125,0.012383334338665009,0.029560215771198273,0.09467258304357529
1772574353829021700,2.834021728515625,0.015579032711684704,0.025299284607172012,0.0925421193242073
1772574353838952200,2.8439521484375,0.01983996480703354,0.014646953903138638,0.0829550251364708
1772574353848884700,2.853884765625,0.02197043038904667,0.002929390873759985,0.07017222791910172
1772574353858821000,2.863821044921875,0.02303566411137581,0.002929390873759985,0.050998032093048096
1772574353868754000,2.87375390625,0.02303566411137581,0.0018641578499227762,0.028628136962652206
1772574353878696000,2.883696044921875,0.02197043038904667,0.0018641578499227762,-0.00226362026296556
1772574353888629500,2.89362939453125,0.01770949922502041,0.0007989247678779066,-0.03209014609456062
1772574353898544400,2.90354443359375,0.014513799920678139,-0.0023967742454260588,-0.053394805639982224
1772574353908476200,2.91347607421875,0.015579032711684704,-0.005592473316937685,-0.060851436108350754
1772574353918414600,2.92341455078125,0.015579032711684704,-0.006657706573605537,-0.051264338195323944
1772574353928347100,2.93334716796875,0.02197043038904667,-0.0023967742454260588,-0.031024912372231483
1772574353938277400,2.94327734375,0.02516612969338894,0.0050598569214344025,-0.006524552125483751
1772574353948209700,2.953209716796875,0.02623136341571808,0.009320789016783237,0.011584409512579441
1772574353958161700,2.96316162109375,0.02410089783370495,0.010386021807789803,0.015845341607928276
1772574353968095700,2.973095703125,0.02303566411137581,0.0050598569214344025,0.014780107885599136
1772574353978007000,2.983007080078125,0.02516612969338894,0.0007989247678779066,0.011584409512579441
1772574353987938800,2.992938720703125,0.02623136341571808,-0.0002663082559593022,0.009453942999243736
1772574353997869600,3.00286962890625,0.02729659713804722,0.0007989247678779066,0.004127778112888336
1772574354007801300,3.01280126953125,0.02729659713804722,-0.005592473316937685,-0.007589785382151604
1772574354017749000,3.0227490234375,0.02623136341571808,-0.006657706573605537,-0.017176883295178413
1772574354027682300,3.032682373046875,0.02942706272006035,0.00399462366476655,-0.023568280041217804
1772574354037616600,3.04261669921875,0.0347532257437706,0.0050598569214344025,-0.026763979345560074
1772574354047550000,3.052550048828125,0.0347532257437706,-0.0034620072692632675,-0.027829213067889214
1772574354057470000,3.062469970703125,0.03581846132874489,-0.0077229393646121025,-0.028894444927573204
1772574354067402000,3.072402099609375,0.03368799388408661,-0.010918638668954372,-0.03848154470324516
1772574354077341200,3.082341064453125,0.02516612969338894,-0.00133154122158885,-0.06298190355300903
1772574354087274000,3.09227392578125,0.01664426550269127,0.008255556225776672,-0.09706936031579971
1772574354097198600,3.102198486328125,0.013448567129671574,0.009320789016783237,-0.12689588963985443
1772574354107130600,3.112130615234375,0.01770949922502041,0.012516488321125507,-0.14820054173469543
1772574354117050400,3.12205029296875,0.02090519852936268,0.014646953903138638,-0.15565717220306396
1772574354126981000,3.131981201171875,0.01877473294734955,0.009320789016783237,-0.15352670848369598
1772574354136923600,3.141923583984375,0.01664426550269127,0.008255556225776672,-0.13328728079795837
1772574354146855700,3.151855712890625,0.014513799920678139,0.013581721112132072,-0.10133028775453568
1772574354156793900,3.1617939453125,0.013448567129671574,0.026364516466856003,-0.07256899774074554
1772574354166726400,3.171726318359375,0.014513799920678139,0.03488638252019882,-0.04593817517161369
1772574354176661800,3.181661865234375,0.014513799920678139,0.03382114693522453,-0.025698747485876083
1772574354186594800,3.1915947265625,0.013448567129671574,0.03275591507554054,-0.008655018173158169
1772574354196526600,3.201526611328125,0.013448567129671574,0.03275591507554054,0.005193010903894901
1772574354206459400,3.21145947265625,0.01664426550269127,0.03595161437988281,0.014780107885599136
1772574354216398300,3.2213984375,0.015579032711684704,0.03382114693522453,0.013714875094592571
1772574354226332000,3.231331787109375,0.012383334338665009,0.025299284607172012,0.010519175790250301
1772574354236253700,3.241253662109375,0.010252867825329304,0.015712186694145203,0.006258244160562754
1772574354246186000,3.25118603515625,0.015579032711684704,0.012516488321125507,0.0030625448562204838
1772574354256121000,3.26112109375,0.01664426550269127,0.009320789016783237,0.001997311832383275
1772574354266053600,3.2710537109375,0.01770949922502041,0.012516488321125507,0.005193010903894901
1772574354275980800,3.280980712890625,0.02090519852936268,0.018907885998487473,0.012649642303586006
1772574354285912600,3.29091259765625,0.02197043038904667,0.019973119720816612,0.014780107885599136
1772574354295847700,3.30084765625,0.02090519852936268,0.011451254598796368,0.007323476951569319
1772574354305780000,3.310780029296875,0.01983996480703354,0.0061250897124409676,-0.0011983871227130294
1772574354315724000,3.32072412109375,0.02090519852936268,-0.006657706573605537,-0.006524552125483751
1772574354325657300,3.3306572265625,0.02197043038904667,-0.015179570764303207,-0.004394086077809334
1772574354335591000,3.3405908203125,0.02516612969338894,-0.017310036346316338,0.005193010903894901
1772574354345524500,3.3505244140625,0.02836182899773121,-0.015179570764303207,0.013714875094592571
1772574354355440400,3.3604404296875,0.03049229457974434,-0.013049104250967503,0.020106272771954536
1772574354365372000,3.370371826171875,0.03155753016471863,-0.006657706573605537,0.025432437658309937
1772574354375285200,3.38028515625,0.03049229457974434,-0.005592473316937685,0.024367205798625946
1772574354385215000,3.390215087890625,0.02942706272006035,-0.015179570764303207,0.021171506494283676
1772574354395149600,3.400149658203125,0.02836182899773121,-0.022636201232671738,0.022236740216612816
1772574354405079800,3.410079833984375,0.02516612969338894,-0.03222329914569855,0.023301972076296806
1772574354415047200,3.420047119140625,0.01983996480703354,-0.0375494658946991,0.024367205798625946
1772574354424981000,3.42998095703125,0.01770949922502041,-0.03328853100538254,0.025432437658309937
1772574354434879500,3.43987939453125,0.013448567129671574,-0.025831900537014008,0.027562905102968216
1772574354444810000,3.44981005859375,0.012383334338665009,-0.016244804486632347,0.027562905102968216
1772574354454742000,3.459741943359375,0.010252867825329304,-0.008788172155618668,0.026497671380639076
1772574354464672500,3.469672607421875,0.008122402243316174,-0.011983871459960938,0.022236740216612816
1772574354474609400,3.479609375,0.010252867825329304,-0.006657706573605537,0.019041040912270546
1772574354484540400,3.48954052734375,0.012383334338665009,0.00719032296910882,0.022236740216612816
1772574354494507800,3.4995078125,0.014513799920678139,0.022103585302829742,0.033954303711652756
1772574354504442600,3.509442626953125,0.015579032711684704,0.03169068321585655,0.04993279650807381
1772574354514340900,3.5193408203125,0.013448567129671574,0.03488638252019882,0.060585130006074905
1772574354524271900,3.52927197265625,0.014513799920678139,0.03275591507554054,0.06697652488946915
1772574354534201600,3.53920166015625,0.013448567129671574,0.025299284607172012,0.06378082931041718
1772574354544132600,3.549132568359375,0.012383334338665009,0.012516488321125507,0.048867564648389816
1772574354554068500,3.559068359375,0.009187635034322739,-0.006657706573605537,0.026497671380639076
1772574354564000000,3.569,0.009187635034322739,-0.021570969372987747,0.0009320789249613881
1772574354573956900,3.578956787109375,0.008122402243316174,-0.03222329914569855,-0.020372580736875534
1772574354583891000,3.588890869140625,0.005991935729980469,-0.03648423030972481,-0.03848154470324516
1772574354593820200,3.598820068359375,0.00399462366476655,-0.03648423030972481,-0.05232957378029823
1772574354603753700,3.608753662109375,0.00399462366476655,-0.0375494658946991,-0.066177599132061
1772574354613698000,3.618697998046875,0.0007989247678779066,-0.03541899845004082,-0.07043853402137756
1772574354623633000,3.6286328125,-0.00133154122158885,-0.03222329914569855,-0.07150376588106155
1772574354633524700,3.638524658203125,-0.0034620072692632675,-0.030092833563685417,-0.06830807030200958
1772574354643455200,3.648455322265625,-0.00452724052593112,-0.03328853100538254,-0.061916667968034744
1772574354653434000,3.65843408203125,-0.0077229393646121025,-0.03328853100538254,-0.048068638890981674
1772574354663369200,3.668369140625,-0.0077229393646121025,-0.029027599841356277,-0.03209014609456062
1772574354673281800,3.67828173828125,-0.009853405877947807,-0.026897134259343147,-0.019307348877191544
1772574354683214600,3.688214599609375,-0.009853405877947807,-0.024766668677330017,-0.010785484686493874
1772574354693144300,3.698144287109375,-0.011983871459960938,-0.019440501928329468,-0.0001331541279796511
1772574354703076900,3.708076904296875,-0.013049104250967503,-0.013049104250967503,0.010519175790250301
1772574354712988400,3.717988525390625,-0.008788172155618668,-0.005592473316937685,0.021171506494283676
1772574354722919000,3.7279189453125,-0.009853405877947807,-0.0002663082559593022,0.029693370684981346
1772574354732873700,3.737873779296875,-0.010918638668954372,-0.00133154122158885,0.03288906812667847
1772574354742806500,3.747806640625,-0.014114337973296642,-0.008788172155618668,0.028628136962652206
1772574354752756500,3.757756591796875,-0.016244804486632347,-0.014114337973296642,0.023301972076296806
1772574354762691300,3.76769140625,-0.015179570764303207,-0.014114337973296642,0.017975807189941406
1772574354772605000,3.77760498046875,-0.014114337973296642,-0.013049104250967503,0.012649642303586006
1772574354782537200,3.787537109375,-0.015179570764303207,-0.010918638668954372,0.006258244160562754
1772574354792508400,3.79750830078125,-0.017310036346316338,-0.011983871459960938,-0.0033288532868027687
1772574354802444800,3.80744482421875,-0.018375270068645477,-0.014114337973296642,-0.015046416781842709
1772574354812335600,3.817335693359375,-0.021570969372987747,-0.009853405877947807,-0.026763979345560074
1772574354822267600,3.827267578125,-0.022636201232671738,-0.008788172155618668,-0.036351077258586884
1772574354832200200,3.8372001953125,-0.022636201232671738,-0.0077229393646121025,-0.041677240282297134
1772574354842132000,3.847132080078125,-0.021570969372987747,-0.0034620072692632675,-0.03954677656292915
1772574354852066000,3.857066162109375,-0.020505735650658607,-0.00452724052593112,-0.031024912372231483
1772574354861998300,3.866998291015625,-0.020505735650658607,-0.00452724052593112,-0.020372580736875534
1772574354871926300,3.87692626953125,-0.018375270068645477,-0.0023967742454260588,-0.006524552125483751
1772574354881858000,3.886858154296875,-0.018375270068645477,-0.00452724052593112,0.005193010903894901
1772574354891792400,3.89679248046875,-0.019440501928329468,-0.009853405877947807,0.012649642303586006
1772574354901724400,3.906724365234375,-0.018375270068645477,-0.013049104250967503,0.019041040912270546
1772574354911662000,3.916662109375,-0.019440501928329468,-0.015179570764303207,0.021171506494283676
1772574354921594600,3.9265947265625,-0.021570969372987747,-0.013049104250967503,0.022236740216612816
1772574354931524000,3.936524169921875,-0.023701434955000877,-0.014114337973296642,0.021171506494283676
1772574354941422000,3.946422119140625,-0.024766668677330017,-0.011983871459960938,0.020106272771954536
1772574354961319700,3.966319580078125,-0.031158065423369408,-0.006657706573605537,0.016910573467612267
1772574354971254800,3.9762548828125,-0.03328853100538254,-0.009853405877947807,0.011584409512579441
1772574354981194200,3.9861943359375,-0.03541899845004082,-0.008788172155618668,0.006258244160562754
1772574354991129900,3.9961298828125,-0.03435376659035683,-0.006657706573605537,0.0030625448562204838
1772574355001052400,4.006052490234375,-0.03541899845004082,-0.00452724052593112,0.001997311832383275
1772574355010986800,4.01598681640625,-0.03648423030972481,-0.00133154122158885,0.001997311832383275
1772574355020907800,4.02590771484375,-0.03222329914569855,-0.0002663082559593022,0.005193010903894901
1772574355030840800,4.0358408203125,-0.031158065423369408,-0.0023967742454260588,0.010519175790250301
1772574355040778500,4.045778564453125,-0.031158065423369408,-0.013049104250967503,0.011584409512579441
1772574355050712000,4.055712158203125,-0.025831900537014008,-0.013049104250967503,0.009453942999243736
1772574355060647200,4.065647216796875,-0.021570969372987747,-0.008788172155618668,0.010519175790250301
1772574355070580700,4.075580810546875,-0.016244804486632347,-0.010918638668954372,0.014780107885599136
1772574355080519400,4.08551953125,-0.0077229393646121025,-0.0023967742454260588,0.022236740216612816
1772574355090453800,4.095453857421875,-0.0023967742454260588,0.009320789016783237,0.026497671380639076
1772574355100374300,4.105374267578125,-0.00133154122158885,0.012516488321125507,0.025432437658309937
1772574355110307000,4.11530712890625,-0.0002663082559593022,0.015712186694145203,0.014780107885599136
1772574355120237000,4.125237060546875,0.002929390873759985,0.021038351580500603,0.001997311832383275
1772574355130169300,4.13516943359375,0.0007989247678779066,0.022103585302829742,-0.011850717477500439
1772574355140108800,4.14510888671875,0.0007989247678779066,0.021038351580500603,-0.022503048181533813
1772574355150042000,4.1550419921875,-0.0002663082559593022,0.012516488321125507,-0.031024912372231483
1772574355159979800,4.164979736328125,0.0007989247678779066,0.010386021807789803,-0.036351077258586884
1772574355169913600,4.17491357421875,0.002929390873759985,0.00719032296910882,-0.03954677656292915
1772574355179836000,4.1848359375,0.0050598569214344025,0.0050598569214344025,-0.03954677656292915
1772574355189768400,4.1947685546875,0.009187635034322739,0.0061250897124409676,-0.03848154470324516
1772574355199702500,4.20470263671875,0.013448567129671574,0.0018641578499227762,-0.037416309118270874
1772574355209635000,4.214635009765625,0.01664426550269127,-0.0023967742454260588,-0.037416309118270874
1772574355219608800,4.22460888671875,0.01877473294734955,0.0007989247678779066,-0.036351077258586884
1772574355229545700,4.234545654296875,0.02303566411137581,0.0007989247678779066,-0.036351077258586884
1772574355239409700,4.24440966796875,0.02729659713804722,-0.006657706573605537,-0.037416309118270874
1772574355249339400,4.25433935546875,0.0347532257437706,-0.009853405877947807,-0.03954677656292915
1772574355259307000,4.26430712890625,0.04007939249277115,-0.0002663082559593022,-0.04593817517161369
1772574355269240300,4.274240234375,0.04327509179711342,0.00719032296910882,-0.050199106335639954
1772574355279171600,4.284171630859375,0.04220985993742943,0.012516488321125507,-0.057655736804008484
1772574355289104600,4.294104736328125,0.04753602296113968,0.022103585302829742,-0.061916667968034744
1772574355299025400,4.304025390625,0.0454055592417717,0.016777420416474342,-0.05978620424866676
1772574355308957400,4.31395751953125,0.04007939249277115,0.0007989247678779066,-0.051264338195323944
1772574355318888400,4.323888427734375,0.03688369318842888,-0.015179570764303207,-0.03954677656292915
1772574355328820200,4.3338203125,0.03262276202440262,-0.018375270068645477,-0.028894444927573204
1772574355338766000,4.34376611328125,0.02729659713804722,-0.013049104250967503,-0.018242115154862404
1772574355348700200,4.3537001953125,0.01983996480703354,-0.0077229393646121025,-0.010785484686493874
1772574355358618400,4.363618408203125,0.014513799920678139,-0.006657706573605537,-0.00226362026296556
1772574355368550000,4.3735498046875,0.008122402243316174,-0.006657706573605537,0.004127778112888336
1772574355378484000,4.38348388671875,0.005991935729980469,0.0018641578499227762,0.007323476951569319
1772574355388415700,4.393415771484375,0.00399462366476655,0.010386021807789803,0.009453942999243736
1772574355398347000,4.403346923828125,0.0018641578499227762,0.009320789016783237,0.005193010903894901
1772574355408278800,4.41327880859375,0.0007989247678779066,0.00399462366476655,0.001997311832383275
1772574355418217000,4.423217041015625,-0.0002663082559593022,-0.00133154122158885,-0.0033288532868027687
1772574355428149500,4.4331494140625,-0.0023967742454260588,-0.00452724052593112,-0.006524552125483751
1772574355438090000,4.443090087890625,-0.0023967742454260588,-0.005592473316937685,-0.007589785382151604
1772574355448023300,4.453023193359375,-0.0023967742454260588,-0.0023967742454260588,-0.005459319334477186
1772574355457947000,4.46294677734375,0.0007989247678779066,-0.0034620072692632675,-0.0011983871227130294
1772574355467879200,4.472879150390625,0.00399462366476655,-0.006657706573605537,0.004127778112888336
1772574355477807400,4.482807373046875,0.005991935729980469,-0.005592473316937685,0.011584409512579441
1772574355487739100,4.4927392578125,0.0050598569214344025,-0.006657706573605537,0.013714875094592571
1772574355497673700,4.502673828125,0.005991935729980469,-0.008788172155618668,0.014780107885599136
1772574355507606000,4.51260595703125,0.007057168986648321,-0.00452724052593112,0.013714875094592571
1772574355517538300,4.522538330078125,0.008122402243316174,-0.0002663082559593022,0.013714875094592571
1772574355527470600,4.532470703125,0.008122402243316174,0.002929390873759985,0.014780107885599136
1772574355537412900,4.542412841796875,0.009187635034322739,0.00719032296910882,0.008388710208237171
1772574355547346200,4.55234619140625,0.008122402243316174,0.00719032296910882,0.0030625448562204838
1772574355557268500,4.5622685546875,0.007057168986648321,0.00399462366476655,-0.006524552125483751
1772574355567200800,4.57220068359375,0.008122402243316174,0.0018641578499227762,-0.015046416781842709
1772574355577114400,4.5821142578125,0.009187635034322739,-0.00133154122158885,-0.017176883295178413
1772574355587044600,4.592044677734375,0.010252867825329304,-0.0023967742454260588,-0.020372580736875534
1772574355596979500,4.6019794921875,0.010252867825329304,0.0018641578499227762,-0.018242115154862404
1772574355606910200,4.61191015625,0.011318100616335869,0.008255556225776672,-0.012915950268507004
1772574355616871200,4.62187109375,0.011318100616335869,0.014646953903138638,-0.006524552125483751
1772574355626805000,4.631804931640625,0.011318100616335869,0.010386021807789803,-0.00226362026296556
1772574355636710400,4.64171044921875,0.010252867825329304,-0.0002663082559593022,0.0009320789249613881
1772574355646641400,4.651641357421875,0.011318100616335869,-0.00133154122158885,-0.0001331541279796511
1772574355656581600,4.66158154296875,0.011318100616335869,-0.0034620072692632675,-0.0033288532868027687
1772574355666513400,4.671513427734375,0.011318100616335869,-0.005592473316937685,-0.00226362026296556
1772574355676440000,4.681440185546875,0.011318100616335869,0.0007989247678779066,0.0009320789249613881
1772574355686371300,4.691371337890625,0.010252867825329304,0.008255556225776672,0.005193010903894901
1772574355696338000,4.701337890625,0.009187635034322739,0.010386021807789803,0.009453942999243736
1772574355706235400,4.7112353515625,0.00399462366476655,0.0061250897124409676,0.008388710208237171
1772574355716141600,4.7211416015625,-0.0002663082559593022,0.00719032296910882,0.005193010903894901
1772574355726104300,4.731104248046875,-0.00133154122158885,0.016777420416474342,0.001997311832383275
1772574355736039200,4.7410390625,-0.00452724052593112,0.023168819025158882,-0.004394086077809334
1772574355745974000,4.75097412109375,-0.005592473316937685,0.021038351580500603,-0.009720250964164734
1772574355765836300,4.770836181640625,-0.008788172155618668,0.015712186694145203,-0.010785484686493874
1772574355775784200,4.7807841796875,-0.010918638668954372,0.009320789016783237,-0.007589785382151604
1772574355785720000,4.790719970703125,-0.008788172155618668,0.0050598569214344025,-0.0001331541279796511
1772574355795642400,4.800642333984375,-0.006657706573605537,0.00719032296910882,0.011584409512579441
1772574355805577000,4.810576904296875,-0.006657706573605537,0.011451254598796368,0.023301972076296806
1772574355815481300,4.8204814453125,-0.006657706573605537,0.017842652276158333,0.035019535571336746
1772574355825416000,4.830416015625,-0.005592473316937685,0.017842652276158333,0.03288906812667847
1772574355835378200,4.840378173828125,-0.005592473316937685,0.014646953903138638,0.020106272771954536
1772574355845314800,4.850314697265625,-0.00452724052593112,0.0061250897124409676,0.004127778112888336
1772574355855237400,4.8602373046875,-0.006657706573605537,0.0050598569214344025,-0.011850717477500439
1772574355865172500,4.87017236328125,-0.005592473316937685,0.00399462366476655,-0.022503048181533813
1772574355875103500,4.880103515625,-0.00452724052593112,0.0007989247678779066,-0.027829213067889214
1772574355885038300,4.890038330078125,-0.0034620072692632675,-0.0034620072692632675,-0.026763979345560074
1772574355894967300,4.89996728515625,0.0007989247678779066,-0.008788172155618668,-0.019307348877191544
1772574355904901400,4.9099013671875,0.0050598569214344025,-0.011983871459960938,-0.011850717477500439
1772574355914833200,4.919833251953125,0.0050598569214344025,-0.010918638668954372,-0.0011983871227130294
1772574355924767200,4.929767333984375,0.005991935729980469,-0.0077229393646121025,0.005193010903894901
1772574355934697000,4.939697021484375,0.007057168986648321,-0.006657706573605537,0.008388710208237171
1772574355944630500,4.949630615234375,0.008122402243316174,-0.005592473316937685,0.010519175790250301
1772574355954559000,4.95955908203125,0.012383334338665009,-0.0034620072692632675,0.008388710208237171
1772574355964492000,4.969491943359375,0.014513799920678139,0.0007989247678779066,0.007323476951569319
1772574355974414600,4.97941455078125,0.015579032711684704,0.002929390873759985,0.005193010903894901
1772574355984346600,4.9893466796875,0.015579032711684704,0.0018641578499227762,-0.0033288532868027687
1772574355994280400,4.999280517578125,0.015579032711684704,0.0018641578499227762,-0.011850717477500439
1772574356004212500,5.00921240234375,0.014513799920678139,0.0018641578499227762,-0.019307348877191544
1772574356014145500,5.0191455078125,0.014513799920678139,-0.0002663082559593022,-0.024633513763546944
1772574356024077800,5.029077880859375,0.01664426550269127,-0.00452724052593112,-0.024633513763546944
1772574356034009300,5.03900927734375,0.01664426550269127,-0.0002663082559593022,-0.022503048181533813
1772574356043941600,5.048941650390625,0.01664426550269127,0.00719032296910882,-0.021437814459204674
1772574356053870800,5.058870849609375,0.01770949922502041,0.0061250897124409676,-0.026763979345560074
1772574356063803000,5.068802978515625,0.01983996480703354,0.00719032296910882,-0.03209014609456062
1772574356073737500,5.078737548828125,0.01877473294734955,0.009320789016783237,-0.034220609813928604
1772574356083669500,5.08866943359375,0.01664426550269127,0.009320789016783237,-0.03209014609456062
1772574356093601000,5.09860107421875,0.01664426550269127,0.0061250897124409676,-0.022503048181533813
1772574356103533000,5.108532958984375,0.01770949922502041,0.0061250897124409676,-0.010785484686493874
1772574356113501200,5.118501220703125,0.01877473294734955,0.010386021807789803,-0.0033288532868027687
1772574356123436800,5.128436767578125,0.01770949922502041,0.008255556225776672,-0.0033288532868027687
1772574356133372400,5.138372314453125,0.015579032711684704,0.0061250897124409676,-0.006524552125483751
1772574356143308000,5.14830810546875,0.015579032711684704,0.00399462366476655,-0.009720250964164734
1772574356153208800,5.158208740234375,0.01770949922502041,0.0007989247678779066,-0.012915950268507004
1772574356163140900,5.168140869140625,0.01664426550269127,0.00399462366476655,-0.016111649572849274
1772574356173067000,5.17806689453125,0.01770949922502041,-0.00133154122158885,-0.017176883295178413
1772574356182998500,5.18799853515625,0.01770949922502041,-0.00133154122158885,-0.018242115154862404
1772574356192923100,5.197923095703125,0.015579032711684704,0.0018641578499227762,-0.016111649572849274
1772574356202854000,5.20785400390625,0.01877473294734955,0.002929390873759985,-0.008655018173158169
1772574356212812300,5.217812255859375,0.01983996480703354,0.002929390873759985,-0.0001331541279796511
1772574356222745900,5.227745849609375,0.01664426550269127,-0.0023967742454260588,0.008388710208237171
1772574356232678100,5.23767822265625,0.015579032711684704,-0.005592473316937685,0.012649642303586006
1772574356242611500,5.247611572265625,0.015579032711684704,-0.00133154122158885,0.015845341607928276
1772574356252544300,5.257544189453125,0.014513799920678139,-0.00452724052593112,0.022236740216612816
1772574356262477800,5.267477783203125,0.014513799920678139,-0.008788172155618668,0.023301972076296806
1772574356272407300,5.2774072265625,0.01664426550269127,-0.008788172155618668,0.019041040912270546
1772574356282340000,5.287340087890625,0.015579032711684704,-0.006657706573605537,0.012649642303586006
1772574356292264200,5.29726416015625,0.012383334338665009,-0.0002663082559593022,0.004127778112888336
1772574356302196200,5.3071962890625,0.010252867825329304,0.0050598569214344025,-0.006524552125483751
1772574356312137700,5.3171376953125,0.005991935729980469,0.00719032296910882,-0.018242115154862404
1772574356322070800,5.32707080078125,0.005991935729980469,0.0050598569214344025,-0.029959678649902344
1772574356332003300,5.33700341796875,0.0018641578499227762,0.002929390873759985,-0.03848154470324516
1772574356341936400,5.346936279296875,0.0007989247678779066,0.00399462366476655,-0.044872939586639404
1772574356351874600,5.35687451171875,-0.00133154122158885,0.0061250897124409676,-0.04913387447595596
1772574356361808100,5.36680810546875,-0.00133154122158885,0.008255556225776672,-0.05232957378029823
1772574356371733500,5.3767333984375,-0.00133154122158885,0.010386021807789803,-0.053394805639982224
1772574356381666300,5.386666259765625,-0.00133154122158885,0.00399462366476655,-0.04274247586727142
1772574356391594000,5.396593994140625,0.0007989247678779066,0.0018641578499227762,-0.026763979345560074
1772574356401526000,5.406526123046875,0.00399462366476655,0.009320789016783237,-0.007589785382151604
1772574356411470300,5.41647021484375,0.002929390873759985,0.011451254598796368,0.008388710208237171
1772574356421404000,5.42640380859375,-0.0002663082559593022,0.008255556225776672,0.015845341607928276
1772574356431326700,5.43632666015625,0.0007989247678779066,0.010386021807789803,0.017975807189941406
1772574356441259000,5.446259033203125,0.002929390873759985,0.013581721112132072,0.016910573467612267
1772574356451192800,5.45619287109375,0.002929390873759985,0.017842652276158333,0.016910573467612267
1772574356461125000,5.466125,0.0018641578499227762,0.018907885998487473,0.014780107885599136
1772574356471067600,5.476067626953125,0.002929390873759985,0.019973119720816612,0.006258244160562754
1772574356481001000,5.4860009765625,0.002929390873759985,0.015712186694145203,-0.009720250964164734
1772574356490920000,5.495919921875,0.0018641578499227762,0.009320789016783237,-0.026763979345560074
1772574356500852000,5.50585205078125,0.0018641578499227762,0.0061250897124409676,-0.03848154470324516
1772574356510796800,5.515796875,0.0018641578499227762,0.002929390873759985,-0.043807707726955414
1772574356520730000,5.525730224609375,0.005991935729980469,0.00399462366476655,-0.041677240282297134
1772574356530650400,5.535650390625,0.009187635034322739,0.00719032296910882,-0.03954677656292915
1772574356540582400,5.54558251953125,0.008122402243316174,0.008255556225776672,-0.033155377954244614
1772574356550489900,5.55548974609375,0.009187635034322739,0.012516488321125507,-0.031024912372231483
1772574356560419300,5.56541943359375,0.011318100616335869,0.010386021807789803,-0.036351077258586884
1772574356570388500,5.575388427734375,0.009187635034322739,0.0061250897124409676,-0.041677240282297134
1772574356580322000,5.585322021484375,0.012383334338665009,0.002929390873759985,-0.03954677656292915
1772574356590247000,5.595246826171875,0.014513799920678139,-0.005592473316937685,-0.033155377954244614
1772574356600179700,5.6051796875,0.014513799920678139,-0.005592473316937685,-0.021437814459204674
1772574356610112500,5.615112548828125,0.014513799920678139,0.002929390873759985,-0.011850717477500439
1772574356620045000,5.625045166015625,0.012383334338665009,0.00399462366476655,-0.0011983871227130294
1772574356629974500,5.634974609375,0.011318100616335869,0.00399462366476655,0.008388710208237171
1772574356639906800,5.64490673828125,0.010252867825329304,0.0050598569214344025,0.012649642303586006
1772574356649827300,5.654827392578125,0.010252867825329304,-0.0002663082559593022,0.010519175790250301
1772574356659758300,5.66475830078125,0.007057168986648321,-0.00133154122158885,0.006258244160562754
1772574356669707300,5.674707275390625,0.002929390873759985,0.0061250897124409676,-0.0011983871227130294
1772574356679640300,5.684640380859375,-0.0002663082559593022,0.010386021807789803,-0.010785484686493874
1772574356689561900,5.694561767578125,-0.0023967742454260588,0.014646953903138638,-0.020372580736875534
1772574356699494000,5.704493896484375,-0.005592473316937685,0.018907885998487473,-0.022503048181533813
1772574356709434600,5.7144345703125,-0.008788172155618668,0.017842652276158333,-0.021437814459204674
1772574356719367400,5.724367431640625,-0.009853405877947807,0.011451254598796368,-0.016111649572849274
1772574356729307000,5.734306884765625,-0.010918638668954372,0.00719032296910882,-0.005459319334477186
1772574356739240200,5.744240234375,-0.008788172155618668,0.008255556225776672,0.007323476951569319
1772574356749171500,5.75417138671875,-0.008788172155618668,0.0050598569214344025,0.021171506494283676
1772574356759104500,5.7641044921875,-0.006657706573605537,-0.0002663082559593022,0.03288906812667847
1772574356769028000,5.774028076171875,-0.0034620072692632675,-0.0002663082559593022,0.043541401624679565
1772574356778960400,5.78396044921875,-0.0023967742454260588,-0.0002663082559593022,0.048867564648389816
1772574356788894500,5.79389453125,-0.0002663082559593022,-0.0023967742454260588,0.057389430701732635
1772574356798785000,5.803784912109375,0.0018641578499227762,-0.00452724052593112,0.060585130006074905
1772574356808717300,5.81371728515625,0.00399462366476655,-0.005592473316937685,0.059519894421100616
1772574356838513200,5.84351318359375,0.007057168986648321,0.0050598569214344025,0.06484606117010117
1772574356858422000,5.863422119140625,0.011318100616335869,0.022103585302829742,0.033954303711652756
1772574356868358700,5.873358642578125,0.013448567129671574,0.0370168462395668,0.014780107885599136
1772574356878294300,5.883294189453125,0.02410089783370495,0.04873441159725189,-0.005459319334477186
1772574356888230700,5.893230712890625,0.0347532257437706,0.04234301298856735,-0.027829213067889214
1772574356898147800,5.90314794921875,0.04220985993742943,0.024234050884842873,-0.041677240282297134
1772574356908082400,5.91308251953125,0.05392742156982422,0.0007989247678779066,-0.04593817517161369
1772574356918017000,5.92301708984375,0.07097115367650986,-0.017310036346316338,-0.036351077258586884
1772574356927951600,5.93295166015625,0.08162347972393036,-0.025831900537014008,-0.016111649572849274
1772574356937884200,5.94288427734375,0.08694964647293091,-0.03222329914569855,0.013714875094592571
1772574356947818500,5.952818603515625,0.09440627694129944,-0.04074516147375107,0.047802332788705826
1772574356957743900,5.962743896484375,0.09653674066066742,-0.04926702752709389,0.07869409024715424
1772574356967677400,5.972677490234375,0.09440627694129944,-0.0482017956674099,0.10106398165225983
1772574356977610500,5.982610595703125,0.08588441461324692,-0.03861469775438309,0.11597724258899689
1772574356987543800,5.992543701171875,0.08055824786424637,-0.03222329914569855,0.11810771375894547
1772574356997488400,6.00248828125,0.07203638553619385,-0.027962366119027138,0.1149120107293129
1772574357007423000,6.012423095703125,0.06244928762316704,-0.021570969372987747,0.10639014840126038
1772574357017344500,6.022344482421875,0.05179695412516594,-0.019440501928329468,0.09467258304357529
1772574357027277800,6.03227783203125,0.0454055592417717,-0.017310036346316338,0.08508548885583878
1772574357037218300,6.04221826171875,0.03794892504811287,-0.011983871459960938,0.0723026916384697
1772574357047152400,6.05215234375,0.02836182899773121,-0.010918638668954372,0.055258963257074356
1772574357057071000,6.062071044921875,0.01983996480703354,-0.013049104250967503,0.040345702320337296
1772574357067003400,6.07200341796875,0.01664426550269127,-0.016244804486632347,0.023301972076296806
1772574357076936400,6.0819365234375,0.015579032711684704,-0.019440501928329468,0.004127778112888336
1772574357086869000,6.091868896484375,0.011318100616335869,-0.024766668677330017,-0.013981183059513569
1772574357096798500,6.101798583984375,0.009187635034322739,-0.022636201232671738,-0.028894444927573204
1772574357106730800,6.111730712890625,0.008122402243316174,-0.010918638668954372,-0.03528584539890289
1772574357116666600,6.12166650390625,0.010252867825329304,-0.005592473316937685,-0.033155377954244614
1772574357126599200,6.13159912109375,0.008122402243316174,-0.0034620072692632675,-0.026763979345560074
1772574357136526300,6.1415263671875,0.0050598569214344025,0.002929390873759985,-0.015046416781842709
1772574357146458400,6.151458251953125,0.002929390873759985,0.0007989247678779066,-0.0001331541279796511
1772574357156397300,6.161397216796875,0.00399462366476655,-0.00133154122158885,0.021171506494283676
1772574357166330000,6.171330078125,0.008122402243316174,0.002929390873759985,0.037150003015995026
1772574357176269800,6.181269775390625,0.007057168986648321,0.0050598569214344025,0.048867564648389816
1772574357186203100,6.191203125,0.008122402243316174,0.0061250897124409676,0.054193731397390366
1772574357196128300,6.201128173828125,0.010252867825329304,0.00719032296910882,0.05312849581241608
1772574357206060800,6.211060791015625,0.009187635034322739,0.002929390873759985,0.048867564648389816
1772574357215972900,6.220972900390625,0.005991935729980469,-0.00452724052593112,0.040345702320337296
1772574357225903600,6.230903564453125,0.002929390873759985,-0.009853405877947807,0.030758604407310486
1772574357235835000,6.2408349609375,0.0050598569214344025,-0.006657706573605537,0.023301972076296806
1772574357245765400,6.250765380859375,0.0018641578499227762,-0.0002663082559593022,0.017975807189941406
1772574357255728600,6.260728759765625,-0.0002663082559593022,0.00719032296910882,0.011584409512579441
1772574357265662500,6.270662353515625,-0.0034620072692632675,0.011451254598796368,-0.0001331541279796511
1772574357275560200,6.280560302734375,-0.006657706573605537,0.012516488321125507,-0.007589785382151604
1772574357285490400,6.290490478515625,-0.008788172155618668,0.012516488321125507,-0.016111649572849274
1772574357295462100,6.300462158203125,-0.011983871459960938,0.010386021807789803,-0.026763979345560074
1772574357305396500,6.310396484375,-0.018375270068645477,0.008255556225776672,-0.031024912372231483
1772574357315291600,6.320291748046875,-0.019440501928329468,0.0061250897124409676,-0.029959678649902344
1772574357325222100,6.33022216796875,-0.020505735650658607,0.0050598569214344025,-0.023568280041217804
1772574357335160800,6.340160888671875,-0.020505735650658607,0.002929390873759985,-0.011850717477500439
1772574357345092000,6.350092041015625,-0.019440501928329468,0.0007989247678779066,0.0009320789249613881
1772574357355052500,6.360052490234375,-0.019440501928329468,0.0018641578499227762,0.012649642303586006
1772574357364987000,6.36998681640625,-0.017310036346316338,-0.0002663082559593022,0.021171506494283676
1772574357374885600,6.3798857421875,-0.014114337973296642,-0.0023967742454260588,0.030758604407310486
1772574357384816400,6.38981640625,-0.011983871459960938,-0.00133154122158885,0.038215234875679016
1772574357394776800,6.39977685546875,-0.008788172155618668,0.0018641578499227762,0.045671865344047546
1772574357404710400,6.40971044921875,-0.006657706573605537,0.002929390873759985,0.04993279650807381
1772574357414636000,6.419635986328125,-0.00452724052593112,0.002929390873759985,0.04993279650807381
1772574357424568800,6.42956884765625,-0.0023967742454260588,0.002929390873759985,0.047802332788705826
1772574357434516700,6.439516845703125,-0.0034620072692632675,-0.0002663082559593022,0.041410934180021286
1772574357444451000,6.449451171875,-0.00452724052593112,-0.005592473316937685,0.033954303711652756
1772574357454368000,6.459367919921875,-0.006657706573605537,-0.008788172155618668,0.028628136962652206
1772574357464300500,6.469300537109375,-0.005592473316937685,-0.006657706573605537,0.017975807189941406
1772574357474236000,6.47923583984375,-0.0077229393646121025,-0.0034620072692632675,0.010519175790250301
1772574357484168700,6.489168701171875,-0.009853405877947807,-0.0023967742454260588,0.006258244160562754
1772574357494118000,6.499117919921875,-0.013049104250967503,-0.0002663082559593022,-0.0001331541279796511
1772574357504052500,6.509052490234375,-0.015179570764303207,-0.0002663082559593022,-0.005459319334477186
1772574357513966000,6.518966064453125,-0.017310036346316338,-0.00133154122158885,-0.009720250964164734
1772574357523898400,6.5288984375,-0.020505735650658607,0.0018641578499227762,-0.011850717477500439
1772574357533829600,6.53882958984375,-0.021570969372987747,0.0050598569214344025,-0.008655018173158169
1772574357543762000,6.548761962890625,-0.020505735650658607,0.0061250897124409676,0.0009320789249613881
1772574357553698300,6.5586982421875,-0.019440501928329468,0.00399462366476655,0.013714875094592571
1772574357563631000,6.568631103515625,-0.017310036346316338,0.00399462366476655,0.028628136962652206
1772574357573562600,6.578562744140625,-0.016244804486632347,0.0050598569214344025,0.03928046673536301
1772574357583495200,6.5884951171875,-0.011983871459960938,0.0007989247678779066,0.047802332788705826
1772574357593425700,6.59842578125,-0.011983871459960938,0.0007989247678779066,0.057389430701732635
1772574357603358000,6.60835791015625,-0.013049104250967503,0.002929390873759985,0.060585130006074905
1772574357613289200,6.618289306640625,-0.015179570764303207,0.0018641578499227762,0.06271559745073318
1772574357623221500,6.628221435546875,-0.016244804486632347,0.0007989247678779066,0.061650361865758896
1772574357633165600,6.63816552734375,-0.017310036346316338,-0.0002663082559593022,0.057389430701732635
1772574357643099100,6.64809912109375,-0.019440501928329468,0.0007989247678779066,0.052063263952732086
1772574357653017600,6.658017578125,-0.022636201232671738,0.002929390873759985,0.041410934180021286
1772574357662949600,6.66794970703125,-0.023701434955000877,0.0007989247678779066,0.025432437658309937
1772574357672883000,6.677883056640625,-0.023701434955000877,-0.006657706573605537,0.015845341607928276
1772574357682815200,6.687815185546875,-0.022636201232671738,-0.00452724052593112,0.013714875094592571
1772574357692746800,6.697746826171875,-0.021570969372987747,0.0018641578499227762,0.010519175790250301
1772574357702678800,6.7076787109375,-0.020505735650658607,-0.00133154122158885,0.0030625448562204838
1772574357712627500,6.71762744140625,-0.021570969372987747,-0.0077229393646121025,-0.005459319334477186
1772574357722561000,6.72756103515625,-0.021570969372987747,-0.009853405877947807,-0.012915950268507004
1772574357732479700,6.737479736328125,-0.016244804486632347,-0.013049104250967503,-0.018242115154862404
1772574357742412000,6.747412109375,-0.011983871459960938,-0.014114337973296642,-0.013981183059513569
1772574357752345000,6.757344970703125,-0.008788172155618668,-0.016244804486632347,-0.006524552125483751
1772574357762277400,6.76727734375,-0.005592473316937685,-0.017310036346316338,0.004127778112888336
1772574357772211500,6.77721142578125,-0.006657706573605537,-0.014114337973296642,0.014780107885599136
1772574357782143700,6.787143798828125,-0.006657706573605537,-0.008788172155618668,0.023301972076296806
1772574357792050700,6.79705078125,-0.006657706573605537,-0.0034620072692632675,0.030758604407310486
1772574357801980700,6.806980712890625,-0.008788172155618668,-0.00133154122158885,0.03288906812667847
1772574357811915800,6.816915771484375,-0.006657706573605537,0.002929390873759985,0.03288906812667847
1772574357821846300,6.82684619140625,-0.005592473316937685,0.0061250897124409676,0.030758604407310486
1772574357831806700,6.836806640625,-0.0077229393646121025,0.0050598569214344025,0.024367205798625946
1772574357841740000,6.846739990234375,-0.008788172155618668,0.00399462366476655,0.019041040912270546
1772574357851669000,6.8566689453125,-0.010918638668954372,0.0007989247678779066,0.015845341607928276
1772574357861601800,6.866601806640625,-0.014114337973296642,0.0007989247678779066,0.017975807189941406
1772574357871540500,6.87654052734375,-0.014114337973296642,0.00399462366476655,0.022236740216612816
1772574357881473800,6.886473876953125,-0.013049104250967503,0.009320789016783237,0.020106272771954536
1772574357891397400,6.8963974609375,-0.010918638668954372,0.014646953903138638,0.016910573467612267
1772574357901330000,6.906329833984375,-0.010918638668954372,0.017842652276158333,0.012649642303586006
1772574357911266000,6.91626611328125,-0.014114337973296642,0.016777420416474342,0.005193010903894901
1772574357921198800,6.92619873046875,-0.014114337973296642,0.014646953903138638,-0.0001331541279796511
1772574357931129300,6.93612939453125,-0.013049104250967503,0.012516488321125507,-0.005459319334477186
1772574357941062100,6.946062255859375,-0.011983871459960938,0.010386021807789803,-0.011850717477500439
1772574357951001000,6.9560009765625,-0.010918638668954372,0.008255556225776672,-0.020372580736875534
1772574357960934400,6.965934326171875,-0.0077229393646121025,0.0050598569214344025,-0.025698747485876083
1772574357970857000,6.97585693359375,-0.005592473316937685,-0.00133154122158885,-0.027829213067889214
1772574357980789000,6.9857890625,-0.0034620072692632675,-0.0023967742454260588,-0.024633513763546944
1772574357990722800,6.995722900390625,-0.0002663082559593022,0.0018641578499227762,-0.018242115154862404
1772574358000655000,7.005655029296875,0.0018641578499227762,0.0007989247678779066,-0.016111649572849274
1772574358010565400,7.0155654296875,0.002929390873759985,-0.00452724052593112,-0.015046416781842709
1772574358020495400,7.025495361328125,0.0050598569214344025,-0.0077229393646121025,-0.013981183059513569
1772574358030450400,7.035450439453125,0.007057168986648321,-0.005592473316937685,-0.007589785382151604
1772574358040383000,7.045383056640625,0.005991935729980469,-0.00133154122158885,-0.004394086077809334
1772574358050335200,7.055335205078125,0.00399462366476655,-0.00452724052593112,-0.0001331541279796511
1772574358060269800,7.065269775390625,0.00399462366476655,-0.006657706573605537,0.001997311832383275
1772574358070181400,7.075181396484375,0.00399462366476655,-0.0023967742454260588,0.005193010903894901
1772574358080113700,7.08511376953125,0.0018641578499227762,-0.00133154122158885,0.007323476951569319
1772574358090054400,7.095054443359375,0.0007989247678779066,0.00399462366476655,0.006258244160562754
1772574358099987700,7.10498779296875,-0.0002663082559593022,0.010386021807789803,0.006258244160562754
1772574358109909500,7.114909423828125,0.0007989247678779066,0.013581721112132072,0.005193010903894901
1772574358119841500,7.124841552734375,0.0007989247678779066,0.018907885998487473,0.006258244160562754
1772574358129776600,7.134776611328125,0.0018641578499227762,0.028494983911514282,0.008388710208237171
1772574358139709000,7.144708984375,0.002929390873759985,0.03382114693522453,0.006258244160562754
1772574358149649400,7.1546494140625,0.0050598569214344025,0.03382114693522453,-0.004394086077809334
1772574358159582500,7.16458251953125,0.010252867825329304,0.018907885998487473,-0.025698747485876083
1772574358169503200,7.174503173828125,0.015579032711684704,0.002929390873759985,-0.047003407031297684
1772574358179435300,7.184435302734375,0.02197043038904667,-0.013049104250967503,-0.06298190355300903
1772574358189371100,7.19437109375,0.02942706272006035,-0.026897134259343147,-0.06830807030200958
1772574358199303400,7.204303466796875,0.0347532257437706,-0.03328853100538254,-0.05659050494432449
1772574358209245700,7.21424560546875,0.04007939249277115,-0.03541899845004082,-0.037416309118270874
1772574358219179000,7.224178955078125,0.04434032365679741,-0.030092833563685417,-0.012915950268507004
1772574358229099000,7.23409912109375,0.0454055592417717,-0.020505735650658607,0.009453942999243736
1772574358239031000,7.244031005859375,0.04434032365679741,-0.013049104250967503,0.026497671380639076
1772574358248964600,7.253964599609375,0.04220985993742943,-0.008788172155618668,0.037150003015995026
1772574358258896600,7.263896728515625,0.04114462435245514,-0.013049104250967503,0.042476166039705276
1772574358268830000,7.273829833984375,0.03688369318842888,-0.020505735650658607,0.03928046673536301
1772574358278762200,7.28376220703125,0.03368799388408661,-0.021570969372987747,0.035019535571336746
1772574358288694300,7.2936943359375,0.02942706272006035,-0.018375270068645477,0.027562905102968216
1772574358298626600,7.30362646484375,0.02516612969338894,-0.014114337973296642,0.021171506494283676
1772574358308573400,7.313573486328125,0.02303566411137581,-0.009853405877947807,0.011584409512579441
1772574358318507000,7.323507080078125,0.01770949922502041,-0.006657706573605537,0.005193010903894901
1772574358328426800,7.3334267578125,0.013448567129671574,-0.00133154122158885,-0.0011983871227130294
1772574358338359000,7.343359130859375,0.010252867825329304,-0.0002663082559593022,-0.005459319334477186
1772574358348295000,7.353294921875,0.011318100616335869,-0.00133154122158885,-0.005459319334477186
1772574358358227500,7.3632275390625,0.010252867825329304,-0.00133154122158885,-0.00226362026296556
1772574358368153600,7.373153564453125,0.011318100616335869,-0.0002663082559593022,0.0030625448562204838
1772574358378085400,7.38308544921875,0.009187635034322739,-0.005592473316937685,0.006258244160562754
1772574358388030200,7.3930302734375,0.010252867825329304,-0.006657706573605537,0.014780107885599136
1772574358397963500,7.402963623046875,0.011318100616335869,-0.0034620072692632675,0.03288906812667847
1772574358407863600,7.412863525390625,0.008122402243316174,-0.00133154122158885,0.04993279650807381
1772574358417793300,7.422793212890625,0.008122402243316174,0.00399462366476655,0.05632419511675835
1772574358427727000,7.43272705078125,0.010252867825329304,0.002929390873759985,0.055258963257074356
1772574358437657600,7.44265771484375,0.008122402243316174,-0.00452724052593112,0.04673709720373154
1772574358447594800,7.4525947265625,0.007057168986648321,-0.009853405877947807,0.03608476743102074
1772574358457525800,7.46252587890625,0.009187635034322739,-0.00452724052593112,0.029693370684981346
1772574358467459800,7.4724599609375,0.007057168986648321,0.0007989247678779066,0.027562905102968216
1772574358477391000,7.48239111328125,0.005991935729980469,0.0007989247678779066,0.024367205798625946
1772574358487340300,7.49234033203125,0.005991935729980469,-0.0002663082559593022,0.024367205798625946
1772574358497273300,7.5022734375,0.005991935729980469,-0.0002663082559593022,0.022236740216612816
1772574358507184400,7.512184326171875,0.005991935729980469,-0.00452724052593112,0.022236740216612816
1772574358517115100,7.522115234375,0.002929390873759985,-0.0002663082559593022,0.021171506494283676
1772574358527053600,7.532053466796875,0.0018641578499227762,-0.00133154122158885,0.015845341607928276
1772574358536985000,7.541985107421875,0.002929390873759985,-0.00452724052593112,0.011584409512579441
1772574358546917600,7.551917724609375,0.002929390873759985,0.00399462366476655,0.010519175790250301
1772574358556849400,7.561849365234375,0.0007989247678779066,0.008255556225776672,0.012649642303586006
1772574358566781200,7.57178125,0.0018641578499227762,0.0050598569214344025,0.012649642303586006
1772574358576713000,7.581712890625,0.0018641578499227762,0.00399462366476655,0.010519175790250301
1772574358586682400,7.591682373046875,0.0007989247678779066,0.002929390873759985,0.010519175790250301
1772574358596617700,7.60161767578125,0.0007989247678779066,0.002929390873759985,0.008388710208237171
1772574358606534000,7.611533935546875,0.0018641578499227762,0.0050598569214344025,0.0030625448562204838
1772574358616467500,7.621467529296875,0.00399462366476655,-0.0002663082559593022,-0.0001331541279796511
1772574358626397400,7.6313974609375,0.007057168986648321,0.002929390873759985,-0.00226362026296556
1772574358636330800,7.641330810546875,0.0050598569214344025,0.002929390873759985,-0.005459319334477186
1772574358646281500,7.651281494140625,0.0050598569214344025,-0.0023967742454260588,-0.009720250964164734
1772574358656216300,7.66121630859375,0.007057168986648321,-0.00133154122158885,-0.011850717477500439
1772574358666123500,7.67112353515625,0.008122402243316174,-0.00133154122158885,-0.010785484686493874
1772574358676055600,7.6810556640625,0.008122402243316174,-0.0002663082559593022,-0.009720250964164734
1772574358686003500,7.69100341796875,0.010252867825329304,-0.0002663082559593022,-0.0033288532868027687
1772574358695937300,7.700937255859375,0.012383334338665009,-0.0023967742454260588,-0.0001331541279796511
1772574358705834800,7.710834716796875,0.011318100616335869,-0.0023967742454260588,-0.0011983871227130294
1772574358715764700,7.7207646484375,0.010252867825329304,-0.00452724052593112,-0.0001331541279796511
1772574358725722600,7.73072265625,0.010252867825329304,-0.0023967742454260588,0.0009320789249613881
1772574358735655700,7.74065576171875,0.009187635034322739,-0.0023967742454260588,-0.0001331541279796511
1772574358745597200,7.75059716796875,0.008122402243316174,-0.0034620072692632675,-0.0011983871227130294
1772574358755530800,7.76053076171875,0.00399462366476655,-0.005592473316937685,-0.0011983871227130294
1772574358765450800,7.77045068359375,0.00399462366476655,-0.00452724052593112,0.004127778112888336
1772574358775383000,7.780383056640625,0.00399462366476655,-0.00133154122158885,0.008388710208237171
1772574358785320000,7.79031982421875,0.00399462366476655,0.0018641578499227762,0.011584409512579441
1772574358795253000,7.8002529296875,0.0007989247678779066,0.002929390873759985,0.010519175790250301
1772574358805181200,7.81018115234375,-0.00133154122158885,-0.0002663082559593022,0.005193010903894901
1772574358815113700,7.82011376953125,-0.0023967742454260588,0.0007989247678779066,-0.00226362026296556
1772574358825047800,7.8300478515625,-0.0023967742454260588,0.0018641578499227762,-0.007589785382151604
1772574358834980400,7.83998046875,-0.005592473316937685,0.00399462366476655,-0.015046416781842709
1772574358844907300,7.8499072265625,-0.0034620072692632675,0.002929390873759985,-0.019307348877191544
1772574358854839300,7.85983935546875,-0.0023967742454260588,0.0007989247678779066,-0.016111649572849274
1772574358864777200,7.869777099609375,-0.0023967742454260588,-0.0023967742454260588,-0.010785484686493874
1772574358874709800,7.879709716796875,-0.005592473316937685,-0.010918638668954372,-0.007589785382151604
1772574358884639500,7.889639404296875,-0.008788172155618668,-0.022636201232671738,-0.011850717477500439
1772574358894571800,7.89957177734375,-0.010918638668954372,-0.027962366119027138,-0.020372580736875534
1772574358904511200,7.90951123046875,-0.010918638668954372,-0.021570969372987747,-0.026763979345560074
1772574358914444300,7.9194443359375,-0.008788172155618668,-0.019440501928329468,-0.034220609813928604
1772574358924371200,7.92937109375,-0.005592473316937685,-0.021570969372987747,-0.043807707726955414
1772574358934303700,7.9393037109375,-0.006657706573605537,-0.017310036346316338,-0.04913387447595596
1772574358944237800,7.94923779296875,-0.0077229393646121025,-0.011983871459960938,-0.053394805639982224
1772574358954170400,7.95917041015625,-0.009853405877947807,-0.0034620072692632675,-0.0555252730846405
1772574358964103000,7.96910302734375,-0.008788172155618668,0.009320789016783237,-0.04913387447595596
1772574358974035500,7.979035400390625,-0.0077229393646121025,0.016777420416474342,-0.04274247586727142
1772574358983978000,7.98897802734375,-0.005592473316937685,0.019973119720816612,-0.033155377954244614
1772574358993911300,7.998911376953125,-0.00452724052593112,0.017842652276158333,-0.023568280041217804
1772574359003808300,8.008808349609374,-0.0023967742454260588,0.013581721112132072,-0.010785484686493874
1772574359013738200,8.01873828125,-0.0023967742454260588,0.009320789016783237,-0.0011983871227130294
1772574359023694300,8.0286943359375,0.0007989247678779066,0.0050598569214344025,0.007323476951569319
1772574359033626600,8.038626708984374,0.002929390873759985,-0.0023967742454260588,0.007323476951569319
1772574359043560000,8.048559814453125,0.00399462366476655,-0.017310036346316338,0.0009320789249613881
1772574359053492500,8.058492431640625,0.00399462366476655,0.0007989247678779066,-0.011850717477500439
1772574359063440100,8.068440185546875,0.002929390873759985,0.016777420416474342,-0.019307348877191544
1772574359073374200,8.078374267578125,0.0050598569214344025,0.009320789016783237,-0.017176883295178413
1772574359083301600,8.088301513671874,0.010252867825329304,0.008255556225776672,-0.011850717477500439
1772574359093235200,8.098235107421875,0.009187635034322739,0.0050598569214344025,-0.004394086077809334
1772574359103161600,8.10816162109375,0.010252867825329304,0.0018641578499227762,0.0009320789249613881
1772574359113094400,8.118094482421874,0.012383334338665009,-0.0002663082559593022,-0.0011983871227130294
1772574359123021600,8.128021484375,0.013448567129671574,-0.0023967742454260588,-0.007589785382151604
1772574359132953600,8.13795361328125,0.013448567129671574,-0.0023967742454260588,-0.015046416781842709
1772574359142885600,8.1478857421875,0.014513799920678139,-0.0034620072692632675,-0.024633513763546944
1772574359152818000,8.15781787109375,0.015579032711684704,-0.00133154122158885,-0.034220609813928604
1772574359162752000,8.167751953125,0.015579032711684704,0.00399462366476655,-0.03848154470324516
1772574359172684500,8.1776845703125,0.015579032711684704,0.00399462366476655,-0.034220609813928604
1772574359182597400,8.187597412109374,0.01664426550269127,0.0018641578499227762,-0.026763979345560074
1772574359192528000,8.19752783203125,0.01877473294734955,0.0007989247678779066,-0.019307348877191544
1772574359202491100,8.2074912109375,0.01877473294734955,-0.0034620072692632675,-0.013981183059513569
1772574359212425000,8.217425048828124,0.01664426550269127,-0.00452724052593112,-0.010785484686493874
1772574359222354400,8.2273544921875,0.01877473294734955,-0.0002663082559593022,-0.007589785382151604
1772574359232287700,8.237287841796874,0.01877473294734955,0.0018641578499227762,-0.0011983871227130294
1772574359242212000,8.247212158203125,0.01664426550269127,0.002929390873759985,0.006258244160562754
1772574359252144400,8.257144287109375,0.015579032711684704,0.002929390873759985,0.006258244160562754
1772574359262081800,8.267081787109374,0.013448567129671574,0.0007989247678779066,0.005193010903894901
1772574359272014600,8.2770146484375,0.009187635034322739,-0.00133154122158885,0.0030625448562204838
1772574359281951000,8.286950927734376,0.008122402243316174,0.0018641578499227762,0.005193010903894901
1772574359291884300,8.29688427734375,0.007057168986648321,0.0050598569214344025,0.010519175790250301
1772574359301785300,8.306785400390625,0.005991935729980469,0.010386021807789803,0.013714875094592571
1772574359311715300,8.31671533203125,0.0050598569214344025,0.014646953903138638,0.014780107885599136
1772574359321676800,8.3266767578125,0.00399462366476655,0.016777420416474342,0.009453942999243736
1772574359331609900,8.33660986328125,0.0018641578499227762,0.012516488321125507,-0.0001331541279796511
1772574359341538600,8.34653857421875,0.0007989247678779066,0.0061250897124409676,-0.009720250964164734
1772574359351471400,8.356471435546876,-0.0034620072692632675,0.00399462366476655,-0.019307348877191544
1772574359361413600,8.36641357421875,-0.006657706573605537,0.0018641578499227762,-0.023568280041217804
1772574359371347500,8.376347412109375,-0.0077229393646121025,-0.0034620072692632675,-0.020372580736875534
1772574359381266700,8.3862666015625,-0.006657706573605537,-0.00452724052593112,-0.006524552125483751
1772574359391199000,8.396198974609375,-0.006657706573605537,-0.0023967742454260588,0.011584409512579441
1772574359401141200,8.406141357421875,-0.006657706573605537,0.0018641578499227762,0.025432437658309937
1772574359411074600,8.416074462890625,-0.006657706573605537,0.002929390873759985,0.031823836266994476
1772574359421009000,8.4260087890625,-0.009853405877947807,0.00399462366476655,0.026497671380639076
1772574359430942200,8.435942138671875,-0.010918638668954372,0.008255556225776672,0.013714875094592571
1772574359440859400,8.445859375,-0.008788172155618668,0.009320789016783237,-0.00226362026296556
1772574359450791200,8.455791259765626,-0.008788172155618668,0.0050598569214344025,-0.015046416781842709
1772574359460728300,8.465728271484375,-0.0077229393646121025,0.0007989247678779066,-0.022503048181533813
1772574359470660900,8.475660888671875,-0.006657706573605537,-0.0002663082559593022,-0.026763979345560074
1772574359480603100,8.48560302734375,-0.005592473316937685,0.00399462366476655,-0.025698747485876083
1772574359490536400,8.495536376953124,-0.00452724052593112,0.00719032296910882,-0.025698747485876083
1772574359500453600,8.50545361328125,-0.0034620072692632675,0.009320789016783237,-0.022503048181533813
1772574359510385200,8.51538525390625,-0.0034620072692632675,0.013581721112132072,-0.021437814459204674
1772574359520324900,8.525324951171875,-0.0023967742454260588,0.014646953903138638,-0.022503048181533813
1772574359530257200,8.535257080078125,-0.0002663082559593022,0.017842652276158333,-0.025698747485876083
1772574359540191000,8.54519091796875,0.0007989247678779066,0.021038351580500603,-0.029959678649902344
1772574359550123500,8.55512353515625,0.0007989247678779066,0.022103585302829742,-0.034220609813928604
1772574359560047600,8.565047607421874,0.0018641578499227762,0.017842652276158333,-0.040612008422613144
1772574359569979100,8.574979248046875,0.0018641578499227762,0.016777420416474342,-0.04274247586727142
1772574359579916300,8.584916259765626,0.0018641578499227762,0.016777420416474342,-0.03848154470324516
1772574359589848300,8.594848388671876,0.0050598569214344025,0.021038351580500603,-0.024633513763546944
1772574359599780600,8.604780517578124,0.0050598569214344025,0.021038351580500603,-0.011850717477500439
1772574359609713000,8.614712890625,0.0050598569214344025,0.012516488321125507,-0.0001331541279796511
1772574359619611600,8.624611572265625,0.007057168986648321,0.009320789016783237,0.007323476951569319
1772574359629540600,8.63454052734375,0.005991935729980469,0.009320789016783237,0.009453942999243736
1772574359639489300,8.6444892578125,0.002929390873759985,0.010386021807789803,0.008388710208237171
1772574359649420300,8.654420166015624,0.0018641578499227762,0.013581721112132072,0.005193010903894901
1772574359659360300,8.6643603515625,0.00399462366476655,0.016777420416474342,-0.0011983871227130294
1772574359669292000,8.6742919921875,0.002929390873759985,0.018907885998487473,-0.006524552125483751
1772574359679221800,8.6842216796875,0.0007989247678779066,0.017842652276158333,-0.010785484686493874
1772574359689153300,8.6941533203125,0.0007989247678779066,0.015712186694145203,-0.016111649572849274
1772574359699082500,8.70408251953125,0.0018641578499227762,0.015712186694145203,-0.018242115154862404
1772574359709014000,8.714013916015626,0.0018641578499227762,0.017842652276158333,-0.022503048181533813
1772574359718945000,8.723945068359376,0.0018641578499227762,0.021038351580500603,-0.027829213067889214
1772574359728876500,8.73387646484375,0.0018641578499227762,0.018907885998487473,-0.031024912372231483
1772574359738819300,8.7438193359375,0.002929390873759985,0.013581721112132072,-0.031024912372231483
1772574359748752000,8.753751953125,0.005991935729980469,0.014646953903138638,-0.024633513763546944
1772574359758680600,8.7636806640625,0.008122402243316174,0.011451254598796368,-0.013981183059513569
1772574359768612600,8.773612548828124,0.008122402243316174,0.008255556225776672,-0.004394086077809334
1772574359778544400,8.78354443359375,0.008122402243316174,0.00719032296910882,0.001997311832383275
1772574359788476400,8.793476318359374,0.011318100616335869,0.008255556225776672,0.012649642303586006
1772574359798404400,8.803404296875,0.012383334338665009,0.00719032296910882,0.021171506494283676
1772574359808336100,8.813336181640626,0.012383334338665009,0.008255556225776672,0.024367205798625946
1772574359818301400,8.823301513671876,0.011318100616335869,0.010386021807789803,0.020106272771954536
1772574359828236500,8.833236572265625,0.011318100616335869,0.0061250897124409676,0.014780107885599136
1772574359838162700,8.84316259765625,0.008122402243316174,0.0050598569214344025,0.013714875094592571
1772574359848097000,8.853096923828126,0.008122402243316174,0.00719032296910882,0.019041040912270546
1772574359858024000,8.86302392578125,0.008122402243316174,0.010386021807789803,0.025432437658309937
1772574359867957200,8.872957275390625,0.008122402243316174,0.009320789016783237,0.026497671380639076
1772574359877889800,8.882889892578126,0.007057168986648321,0.00719032296910882,0.023301972076296806
1772574359887823000,8.892822998046874,0.008122402243316174,0.0061250897124409676,0.020106272771954536
1772574359897755600,8.902755615234375,0.008122402243316174,0.008255556225776672,0.012649642303586006
1772574359907689000,8.91268896484375,0.009187635034322739,0.008255556225776672,0.0030625448562204838
1772574359917617700,8.92261767578125,0.009187635034322739,0.0061250897124409676,-0.005459319334477186
1772574359927550500,8.932550537109375,0.005991935729980469,0.008255556225776672,-0.013981183059513569
1772574359937494800,8.942494873046876,0.00399462366476655,0.014646953903138638,-0.019307348877191544
1772574359947428900,8.952428955078124,0.00399462366476655,0.016777420416474342,-0.021437814459204674
1772574359957349400,8.962349365234376,0.00399462366476655,0.012516488321125507,-0.016111649572849274
1772574359967282000,8.972281982421874,0.008122402243316174,0.012516488321125507,-0.006524552125483751
1772574359977197800,8.98219775390625,0.009187635034322739,0.021038351580500603,0.0030625448562204838
1772574359987119400,8.992119384765624,0.009187635034322739,0.026364516466856003,0.015845341607928276
1772574359997054700,9.0020546875,0.010252867825329304,0.027429750189185143,0.022236740216612816
1772574360006987500,9.011987548828126,0.011318100616335869,0.021038351580500603,0.026497671380639076
1772574360036773000,9.041773193359376,0.009187635034322739,0.0050598569214344025,0.040345702320337296
1772574360046711000,9.0517109375,0.011318100616335869,0.0061250897124409676,0.03928046673536301
1772574360056643800,9.061643798828126,0.011318100616335869,0.0061250897124409676,0.031823836266994476
1772574360066595000,9.071594970703124,0.011318100616335869,0.009320789016783237,0.027562905102968216
1772574360076530000,9.081530029296875,0.010252867825329304,0.011451254598796368,0.029693370684981346
1772574360086427600,9.091427734375,0.007057168986648321,0.008255556225776672,0.033954303711652756
1772574360096362500,9.101362548828124,0.007057168986648321,-0.00133154122158885,0.042476166039705276
1772574360106333000,9.1113330078125,0.0007989247678779066,0.028494983911514282,0.047802332788705826
1772574360116270600,9.1212705078125,-0.005592473316937685,0.03808208182454109,0.03608476743102074
1772574360126169000,9.131169189453125,-0.008788172155618668,0.013581721112132072,0.020106272771954536
1772574360136103000,9.14110302734375,-0.008788172155618668,0.010386021807789803,0.008388710208237171
1772574360146028300,9.1510283203125,-0.015179570764303207,0.017842652276158333,0.006258244160562754
1772574360155961000,9.160961181640625,-0.021570969372987747,0.016777420416474342,-0.0001331541279796511
1772574360165927200,9.17092724609375,-0.025831900537014008,0.012516488321125507,-0.008655018173158169
1772574360175863600,9.180863525390626,-0.026897134259343147,0.011451254598796368,-0.013981183059513569
1772574360185756200,9.190756103515625,-0.025831900537014008,0.009320789016783237,-0.011850717477500439
1772574360195688200,9.200688232421875,-0.024766668677330017,0.0061250897124409676,-0.00226362026296556
1772574360205660400,9.210660400390625,-0.023701434955000877,0.0061250897124409676,0.0030625448562204838
1772574360215596300,9.22059619140625,-0.024766668677330017,0.009320789016783237,0.007323476951569319
1772574360225516300,9.230516357421875,-0.023701434955000877,0.010386021807789803,0.010519175790250301
1772574360235450600,9.24045068359375,-0.024766668677330017,0.017842652276158333,0.012649642303586006
1772574360245367600,9.250367431640624,-0.030092833563685417,0.05406057462096214,0.03608476743102074
1772574360255300000,9.260300048828125,-0.04074516147375107,0.06790860742330551,0.06697652488946915
1772574360265245000,9.270244873046876,-0.04074516147375107,0.0476691760122776,0.0712374597787857
1772574360275178800,9.2801787109375,-0.03222329914569855,0.0370168462395668,0.059519894421100616
1772574360285103400,9.290103271484375,-0.03435376659035683,0.016777420416474342,0.04993279650807381
1772574360295036200,9.3000361328125,-0.0375494658946991,0.0007989247678779066,0.038215234875679016
1772574360304974800,9.309974853515625,-0.03541899845004082,-0.0034620072692632675,0.022236740216612816
1772574360314908200,9.319908203125,-0.03222329914569855,-0.009853405877947807,0.0030625448562204838
1772574360324834800,9.329834716796874,-0.03222329914569855,-0.020505735650658607,-0.015046416781842709
1772574360334767900,9.339767822265625,-0.03328853100538254,-0.026897134259343147,-0.029959678649902344
1772574360344702700,9.34970263671875,-0.03541899845004082,-0.03541899845004082,-0.04274247586727142
1772574360354635500,9.359635498046876,-0.03967992961406708,-0.05139749497175217,-0.057655736804008484
1772574360364554200,9.36955419921875,-0.04394086077809334,-0.0588541254401207,-0.06830807030200958
1772574360374483700,9.379483642578125,-0.04394086077809334,-0.04394086077809334,-0.06404713541269302
