time,seconds_elapsed,z,y,x
1772574351137005000,0.142005126953125,-0.06497921794652939,-0.05858781561255455,0.08095771074295044
1772574351206861000,0.211861083984375,-0.07882724702358246,0.01704372838139534,0.23222079873085022
1772574351216796700,0.221796630859375,-0.12995843589305878,0.05006595328450203,0.2354165017604828
1772574351226743000,0.231742919921875,-0.10758853703737259,-0.0063913981430232525,0.22795987129211426
1772574351236650800,0.241650634765625,-0.06497921794652939,-0.04154408723115921,0.20772044360637665
1772574351246581500,0.25158154296875,-0.06284874677658081,-0.04154408723115921,0.16724158823490143
1772574351256520700,0.261520751953125,-0.07350108027458191,-0.03834838792681694,0.1171756312251091
1772574351266454800,0.271454833984375,-0.07563154399394989,-0.04154408723115921,0.0639139786362648
1772574351276383500,0.281383544921875,-0.06604444980621338,-0.06071828305721283,0.0031956990715116262
1772574351286315500,0.2913154296875,-0.05219641700387001,-0.07030537724494934,-0.04793548583984375
1772574351296247000,0.3012470703125,-0.04154408723115921,-0.07137060910463333,-0.09267527610063553
1772574351306178800,0.3111787109375,-0.0319569893181324,-0.06284874677658081,-0.12463226169347763
1772574351316113000,0.32111279296875,-0.02982652559876442,-0.05113118514418602,-0.15445879101753235
1772574351326045700,0.331045654296875,-0.03089175745844841,-0.03941362351179123,-0.1704372763633728
1772574351335986700,0.340986572265625,-0.02663082629442215,-0.03621792420744896,-0.16724158823490143
1772574351345922600,0.350922607421875,-0.01704372838139534,-0.02663082629442215,-0.15232832729816437
1772574351355840500,0.360840576171875,-0.0031956990715116262,-0.007456631399691105,-0.1267627328634262
1772574351365769000,0.37076904296875,0.0106523297727108,0.0159784946590662,-0.0958709716796875
1772574351375709400,0.38070947265625,0.02663082629442215,0.02556559257209301,-0.0639139786362648
1772574351385642800,0.390642822265625,0.03834838792681694,0.02023942768573761,-0.0319569893181324
1772574351395581400,0.40058154296875,0.05219641700387001,0.02023942768573761,-0.0063913981430232525
1772574351405517000,0.41051708984375,0.06284874677658081,0.03089175745844841,0.0106523297727108
1772574351415441000,0.42044091796875,0.07030537724494934,0.03834838792681694,0.02343512699007988
1772574351425371600,0.43037158203125,0.07563154399394989,0.0426093190908432,0.03621792420744896
1772574351435299300,0.44029931640625,0.07669677585363388,0.03941362351179123,0.04687025398015976
1772574351445228800,0.450228759765625,0.07563154399394989,0.03621792420744896,0.0532616525888443
1772574351455165400,0.46016552734375,0.07882724702358246,0.04687025398015976,0.06178351491689682
1772574351465098000,0.470097900390625,0.08095771074295044,0.06497921794652939,0.07350108027458191
1772574351475032800,0.48003271484375,0.08095771074295044,0.07563154399394989,0.08095771074295044
1772574351484966100,0.489966064453125,0.08095771074295044,0.08415340632200241,0.07882724702358246
1772574351494898200,0.499898193359375,0.08095771074295044,0.09161003679037094,0.06924014538526535
1772574351504831000,0.5098310546875,0.09161003679037094,0.10013190656900406,0.05965305119752884
1772574351514761500,0.519761474609375,0.10332760214805603,0.13208889961242676,0.0532616525888443
1772574351524693200,0.529693359375,0.10758853703737259,0.1704372763633728,0.05219641700387001
1772574351534626300,0.539626220703125,0.10439283400774002,0.17682868242263794,0.04793548583984375
1772574351544558300,0.549558349609375,0.09693620353937149,0.17576344311237335,0.04580501839518547
1772574351554494200,0.559494140625,0.06817491352558136,0.16511112451553345,0.03728315606713295
1772574351564426500,0.569426513671875,0.07243584841489792,0.18748101592063904,0.02236989326775074
1772574351574358800,0.57935888671875,0.10439283400774002,0.22582940757274628,0.0063913981430232525
1772574351584291000,0.589291015625,0.10971900075674057,0.21943800151348114,0.007456631399691105
1772574351594234600,0.599234619140625,0.1171756312251091,0.23754696547985077,0.0319569893181324
1772574351604168000,0.60916796875,0.10013190656900406,0.27056917548179626,0.0532616525888443
1772574351614097400,0.619097412109375,0.11824086308479309,0.28228676319122314,0.06497921794652939
1772574351624030500,0.629030517578125,0.20558997988700867,0.27056917548179626,0.07882724702358246
1772574351633964500,0.638964599609375,0.19387240707874298,0.18641577661037445,0.05219641700387001
1772574351643897600,0.648897705078125,0.1693720519542694,0.12995843589305878,0.02556559257209301
1772574351653817000,0.658817138671875,0.17789392173290253,0.16617634892463684,0.01384802907705307
1772574351663748900,0.668748779296875,0.2013290375471115,0.19813334941864014,0.004260932095348835
1772574351673680100,0.67868017578125,0.24180789291858673,0.2332860380411148,0.007456631399691105
1772574351683612000,0.68861181640625,0.19813334941864014,0.1800243854522705,-0.03515268862247467
1772574351693544000,0.6985439453125,0.16191542148590088,0.10332760214805603,-0.07350108027458191
1772574351703475700,0.708475830078125,0.1693720519542694,0.15658925473690033,-0.07882724702358246
1772574351713424400,0.71842431640625,0.17682868242263794,0.21730753779411316,-0.05752258375287056
1772574351723358000,0.72835791015625,0.17256775498390198,0.22582940757274628,-0.02663082629442215
1772574351733275100,0.738275146484375,0.13634982705116272,0.16830681264400482,0.01491326279938221
1772574351743207000,0.74820703125,0.11291470378637314,0.14593692123889923,0.0639139786362648
1772574351753134800,0.758134765625,0.1374150663614273,0.19493764638900757,0.10758853703737259
1772574351763066400,0.76806640625,0.15552401542663574,0.20772044360637665,0.14380645751953125
1772574351773003800,0.778003662109375,0.16404588520526886,0.22582940757274628,0.18322007358074188
1772574351782935800,0.787935791015625,0.2141118347644806,0.3173062801361084,0.24180789291858673
1772574351792863700,0.79786376953125,0.1693720519542694,0.25032976269721985,0.22902509570121765
1772574351802795300,0.807795166015625,0.10226237028837204,0.10758853703737259,0.19919857382774353
1772574351812743000,0.817742919921875,0.08628387749195099,0.09906667470932007,0.19600287079811096
1772574351822676200,0.82767626953125,0.09693620353937149,0.09161003679037094,0.19387240707874298
1772574351832611000,0.837611083984375,0.09267527610063553,0.04900071769952774,0.19387240707874298
1772574351842544400,0.84754443359375,0.08308817446231842,0.012782796286046505,0.19387240707874298
1772574351852463000,0.857463134765625,0.07989247888326645,-0.0031956990715116262,0.1704372763633728
1772574351862395100,0.86739501953125,0.07030537724494934,-0.01917419396340847,0.14487169682979584
1772574351872325400,0.877325439453125,0.06071828305721283,-0.01491326279938221,0.12250179797410965
1772574351882257200,0.887257080078125,0.05006595328450203,-0.0106523297727108,0.09161003679037094
1772574351892192000,0.89719189453125,0.03941362351179123,-0.0159784946590662,0.05858781561255455
1772574351902124000,0.9071240234375,0.03089175745844841,0.01491326279938221,0.0319569893181324
1772574351912056600,0.917056640625,0.01704372838139534,0.03515268862247467,-0.0021304660476744175
1772574351921988600,0.926988525390625,0.00852186419069767,0.009587096981704235,-0.03408745676279068
1772574351931922400,0.93692236328125,0.004260932095348835,-0.004260932095348835,-0.05645735189318657
1772574351941854700,0.946854736328125,0.0010652330238372087,-0.02769605815410614,-0.0745663121342659
1772574351951803000,0.956802978515625,0.0021304660476744175,-0.04580501839518547,-0.07669677585363388
1772574351961736700,0.96673681640625,0.004260932095348835,-0.05219641700387001,-0.07137060910463333
1772574351971629600,0.976629638671875,0.0053261648863554,-0.06071828305721283,-0.0639139786362648
1772574351981559300,0.986559326171875,0.0021304660476744175,-0.06924014538526535,-0.05219641700387001
1772574351991497500,0.99649755859375,0,-0.06710968166589737,-0.03621792420744896
1772574352001428000,1.006427978515625,-0.0010652330238372087,-0.05006595328450203,-0.02236989326775074
1772574352011363000,1.016363037109375,-0.0031956990715116262,-0.04047885537147522,-0.01491326279938221
1772574352021294000,1.026294189453125,-0.00852186419069767,-0.0639139786362648,-0.0159784946590662
1772574352031261200,1.03626123046875,-0.007456631399691105,-0.08734910935163498,-0.01810896210372448
1772574352041195800,1.04619580078125,-0.0063913981430232525,-0.0852186381816864,-0.01917419396340847
1772574352051094800,1.0560947265625,-0.00852186419069767,-0.07030537724494934,-0.02343512699007988
1772574352061025800,1.06602587890625,-0.01171756349503994,-0.05752258375287056,-0.03089175745844841
1772574352070954500,1.07595458984375,-0.01171756349503994,-0.05752258375287056,-0.03728315606713295
1772574352080885200,1.08588525390625,-0.01171756349503994,-0.0532616525888443,-0.04047885537147522
1772574352090852900,1.095852783203125,-0.0063913981430232525,-0.04367455467581749,-0.04154408723115921
1772574352100787500,1.105787353515625,-0.0053261648863554,-0.04793548583984375,-0.04687025398015976
1772574352110722300,1.115722412109375,-0.007456631399691105,-0.05645735189318657,-0.05006595328450203
1772574352120657000,1.125656982421875,-0.0053261648863554,-0.05965305119752884,-0.05539211630821228
1772574352130552300,1.13555224609375,-0.0010652330238372087,-0.05752258375287056,-0.05858781561255455
1772574352140483000,1.145483154296875,0.0021304660476744175,-0.04687025398015976,-0.06071828305721283
1772574352150414300,1.155414306640625,0.007456631399691105,-0.03408745676279068,-0.05645735189318657
1772574352160345000,1.165344970703125,0.012782796286046505,-0.02023942768573761,-0.03515268862247467
1772574352170301000,1.175301025390625,0.01491326279938221,-0.0159784946590662,-0.0106523297727108
1772574352180234000,1.18523388671875,0.01704372838139534,-0.01810896210372448,0.004260932095348835
1772574352190177800,1.195177734375,0.02023942768573761,-0.02023942768573761,0.0063913981430232525
1772574352200112000,1.205112060546875,0.02343512699007988,-0.02982652559876442,0.00852186419069767
1772574352219967000,1.224967041015625,0.02556559257209301,-0.03834838792681694,0.02982652559876442
1772574352229896000,1.23489599609375,0.02343512699007988,-0.0213046595454216,0.04047885537147522
1772574352239828500,1.244828369140625,0.02556559257209301,-0.0213046595454216,0.05113118514418602
1772574352249759700,1.254759765625,0.02876129187643528,-0.0213046595454216,0.0639139786362648
1772574352259692300,1.2646923828125,0.0319569893181324,-0.01171756349503994,0.07350108027458191
1772574352269642200,1.274642333984375,0.03089175745844841,0.0021304660476744175,0.0745663121342659
1772574352279576300,1.284576416015625,0.02556559257209301,0.012782796286046505,0.06604444980621338
1772574352289500700,1.294500732421875,0.02023942768573761,0.02023942768573761,0.04473978653550148
1772574352299434000,1.30443408203125,0.01384802907705307,0.02876129187643528,0.0213046595454216
1772574352309368300,1.314368408203125,0.00852186419069767,0.02450035884976387,-0.0010652330238372087
1772574352319301600,1.324301513671875,0.01171756349503994,0.01491326279938221,-0.01704372838139534
1772574352329223000,1.334222900390625,0.0106523297727108,0.012782796286046505,-0.02769605815410614
1772574352339155000,1.344155029296875,0.004260932095348835,0.004260932095348835,-0.03941362351179123
1772574352349096700,1.3540966796875,-0.0010652330238372087,-0.01704372838139534,-0.05219641700387001
1772574352359029800,1.36402978515625,-0.0021304660476744175,-0.04367455467581749,-0.06710968166589737
1772574352368950300,1.3739501953125,-0.0031956990715116262,-0.06710968166589737,-0.08308817446231842
1772574352378882000,1.383882080078125,-0.004260932095348835,-0.09374050796031952,-0.09800143539905548
1772574352388827100,1.3938271484375,-0.0031956990715116262,-0.11824086308479309,-0.10545806586742401
1772574352398760400,1.403760498046875,-0.0031956990715116262,-0.12250179797410965,-0.09906667470932007
1772574352408681500,1.413681396484375,-0.0031956990715116262,-0.06924014538526535,-0.06817491352558136
1772574352418613200,1.42361328125,-0.0010652330238372087,-0.01171756349503994,-0.02236989326775074
1772574352428546600,1.433546630859375,-0.004260932095348835,0.0159784946590662,0.02236989326775074
1772574352438478600,1.443478515625,-0.0106523297727108,0.03515268862247467,0.05645735189318657
1772574352448418000,1.45341796875,-0.01384802907705307,0.04367455467581749,0.06817491352558136
1772574352458350800,1.463350830078125,-0.01491326279938221,0.03834838792681694,0.06284874677658081
1772574352468277500,1.473277587890625,-0.0159784946590662,0.02663082629442215,0.0532616525888443
1772574352478209500,1.48320947265625,-0.02023942768573761,0.0159784946590662,0.04473978653550148
1772574352488119300,1.493119384765625,-0.02556559257209301,0.0063913981430232525,0.04047885537147522
1772574352498049300,1.50304931640625,-0.03089175745844841,-0.012782796286046505,0.03408745676279068
1772574352508002800,1.5130029296875,-0.03408745676279068,-0.04047885537147522,0.02023942768573761
1772574352517935000,1.52293505859375,-0.03728315606713295,-0.06604444980621338,0.00852186419069767
1772574352527869700,1.53286962890625,-0.03941362351179123,-0.05965305119752884,-0.0021304660476744175
1772574352537802200,1.54280224609375,-0.04047885537147522,-0.03302222490310669,-0.01171756349503994
1772574352547742200,1.5527421875,-0.04154408723115921,-0.01171756349503994,-0.02236989326775074
1772574352557675500,1.562675537109375,-0.04367455467581749,0.004260932095348835,-0.02982652559876442
1772574352567603000,1.57260302734375,-0.04793548583984375,0.01171756349503994,-0.0426093190908432
1772574352577535500,1.582535400390625,-0.05113118514418602,0.009587096981704235,-0.05539211630821228
1772574352587464400,1.59246435546875,-0.0532616525888443,0.004260932095348835,-0.0639139786362648
1772574352597397000,1.60239697265625,-0.0532616525888443,0,-0.07350108027458191
1772574352607330300,1.612330322265625,-0.05219641700387001,-0.0031956990715116262,-0.07563154399394989
1772574352617262800,1.622262939453125,-0.05219641700387001,-0.0063913981430232525,-0.07030537724494934
1772574352627176200,1.63217626953125,-0.05006595328450203,-0.00852186419069767,-0.06071828305721283
1772574352637106700,1.642106689453125,-0.04900071769952774,-0.004260932095348835,-0.04473978653550148
1772574352647066000,1.652066162109375,-0.05113118514418602,-0.007456631399691105,-0.03089175745844841
1772574352656999400,1.66199951171875,-0.04900071769952774,-0.01491326279938221,-0.01810896210372448
1772574352666923800,1.671923828125,-0.04473978653550148,-0.01917419396340847,-0.0021304660476744175
1772574352676856000,1.68185595703125,-0.04047885537147522,-0.01704372838139534,0.012782796286046505
1772574352686750500,1.69175048828125,-0.03834838792681694,-0.01704372838139534,0.02769605815410614
1772574352696679200,1.70167919921875,-0.03515268862247467,-0.0159784946590662,0.03408745676279068
1772574352706662400,1.711662353515625,-0.02876129187643528,-0.02556559257209301,0.03089175745844841
1772574352716596500,1.721596435546875,-0.02450035884976387,-0.03089175745844841,0.02556559257209301
1772574352726518300,1.731518310546875,-0.02023942768573761,-0.0319569893181324,0.02023942768573761
1772574352736451300,1.741451416015625,-0.02023942768573761,-0.03089175745844841,0.01810896210372448
1772574352746391300,1.751391357421875,-0.01810896210372448,-0.02663082629442215,0.012782796286046505
1772574352756325000,1.7613251953125,-0.01704372838139534,-0.02982652559876442,0.0031956990715116262
1772574352766301000,1.771301025390625,-0.01810896210372448,-0.03834838792681694,-0.0106523297727108
1772574352776238800,1.78123876953125,-0.01810896210372448,-0.0319569893181324,-0.02450035884976387
1772574352786113500,1.791113525390625,-0.0159784946590662,-0.012782796286046505,-0.03621792420744896
1772574352796045300,1.80104541015625,-0.0159784946590662,-0.0063913981430232525,-0.04900071769952774
1772574352805975600,1.8109755859375,-0.01704372838139534,-0.01171756349503994,-0.0639139786362648
1772574352815907000,1.820906982421875,-0.0159784946590662,-0.01704372838139534,-0.0745663121342659
1772574352825842400,1.830842529296875,-0.0159784946590662,-0.02450035884976387,-0.08202294260263443
1772574352835774200,1.840774169921875,-0.01810896210372448,-0.02982652559876442,-0.08202294260263443
1772574352845706800,1.850706787109375,-0.01917419396340847,-0.02982652559876442,-0.07669677585363388
1772574352855638500,1.860638427734375,-0.01917419396340847,-0.0213046595454216,-0.06924014538526535
1772574352865573600,1.87057373046875,-0.01917419396340847,-0.01491326279938221,-0.06924014538526535
1772574352875506000,1.880505859375,-0.02236989326775074,-0.01384802907705307,-0.07243584841489792
1772574352885438000,1.89043798828125,-0.02556559257209301,-0.02236989326775074,-0.0745663121342659
1772574352895370000,1.900369873046875,-0.02450035884976387,-0.02876129187643528,-0.07137060910463333
1772574352905306600,1.910306640625,-0.02556559257209301,-0.03302222490310669,-0.06497921794652939
1772574352915239400,1.920239501953125,-0.02769605815410614,-0.04473978653550148,-0.05219641700387001
1772574352925170000,1.930169921875,-0.02876129187643528,-0.05432688444852829,-0.04154408723115921
1772574352935102500,1.9401025390625,-0.02876129187643528,-0.06284874677658081,-0.02982652559876442
1772574352945043000,1.95004296875,-0.02663082629442215,-0.06817491352558136,-0.01491326279938221
1772574352954976300,1.959976318359375,-0.02450035884976387,-0.06071828305721283,0.0063913981430232525
1772574352964897500,1.9698974609375,-0.02450035884976387,-0.05219641700387001,0.02556559257209301
1772574352974829600,1.97982958984375,-0.02556559257209301,-0.05006595328450203,0.03941362351179123
1772574352984772600,1.989772705078125,-0.02982652559876442,-0.04367455467581749,0.04580501839518547
1772574352994705700,1.99970556640625,-0.03408745676279068,-0.04047885537147522,0.04580501839518547
1772574353004633300,2.00963330078125,-0.04047885537147522,-0.03941362351179123,0.04154408723115921
1772574353014566000,2.01956591796875,-0.04793548583984375,-0.03621792420744896,0.03515268862247467
1772574353024491500,2.029491455078125,-0.05219641700387001,-0.03089175745844841,0.02556559257209301
1772574353034423600,2.039423583984375,-0.05219641700387001,-0.02343512699007988,0.009587096981704235
1772574353044363800,2.04936376953125,-0.05539211630821228,-0.01810896210372448,-0.007456631399691105
1772574353054296600,2.059296630859375,-0.05858781561255455,-0.012782796286046505,-0.02450035884976387
1772574353064211700,2.069211669921875,-0.0639139786362648,-0.01171756349503994,-0.03728315606713295
1772574353074142700,2.079142822265625,-0.06817491352558136,-0.01171756349503994,-0.04473978653550148
1772574353084064000,2.08906396484375,-0.07030537724494934,-0.00852186419069767,-0.05113118514418602
1772574353093994000,2.098993896484375,-0.07030537724494934,-0.0031956990715116262,-0.05432688444852829
1772574353103950800,2.108950927734375,-0.07350108027458191,0.0021304660476744175,-0.05113118514418602
1772574353113883400,2.11888330078125,-0.07243584841489792,0.009587096981704235,-0.04367455467581749
1772574353123828000,2.128827880859375,-0.06924014538526535,0.012782796286046505,-0.03728315606713295
1772574353133762000,2.138761962890625,-0.06924014538526535,0.00852186419069767,-0.03621792420744896
1772574353143693600,2.148693603515625,-0.07030537724494934,0.0021304660476744175,-0.03621792420744896
1772574353153627100,2.158627197265625,-0.07350108027458191,0.0021304660476744175,-0.03302222490310669
1772574353163532000,2.168531982421875,-0.07669677585363388,0.0106523297727108,-0.02023942768573761
1772574353173462800,2.178462890625,-0.0745663121342659,0.0213046595454216,-0.0031956990715116262
1772574353183391700,2.188391845703125,-0.07030537724494934,0.03089175745844841,0.012782796286046505
1772574353193322500,2.198322509765625,-0.06924014538526535,0.03621792420744896,0.02663082629442215
1772574353203257600,2.208257568359375,-0.07243584841489792,0.03089175745844841,0.02876129187643528
1772574353213188600,2.218188720703125,-0.06710968166589737,0.02450035884976387,0.02876129187643528
1772574353223155500,2.228155517578125,-0.06178351491689682,0.03089175745844841,0.02450035884976387
1772574353233090000,2.238090087890625,-0.05539211630821228,0.03089175745844841,0.01491326279938221
1772574353242982100,2.247982177734375,-0.0532616525888443,0.02556559257209301,0.0010652330238372087
1772574353252912600,2.25791259765625,-0.04900071769952774,0.02236989326775074,-0.0106523297727108
1772574353262847000,2.267846923828125,-0.04473978653550148,0.02663082629442215,-0.012782796286046505
1772574353272777700,2.27777783203125,-0.04154408723115921,0.01810896210372448,-0.007456631399691105
1772574353282718200,2.28771826171875,-0.03515268862247467,-0.009587096981704235,0.004260932095348835
1772574353292650000,2.29764990234375,-0.02556559257209301,-0.0319569893181324,0.02450035884976387
1772574353302579000,2.307578857421875,-0.01491326279938221,-0.03515268862247467,0.0532616525888443
1772574353312510500,2.317510498046875,-0.00852186419069767,-0.02876129187643528,0.07989247888326645
1772574353322449000,2.327448974609375,-0.0021304660476744175,-0.02876129187643528,0.09480573982000351
1772574353332381000,2.337380859375,0.0021304660476744175,-0.0319569893181324,0.10332760214805603
1772574353342309000,2.34730908203125,0.0053261648863554,-0.02023942768573761,0.10119713842868805
1772574353352241000,2.357240966796875,0.009587096981704235,-0.009587096981704235,0.07882724702358246
1772574353362207700,2.367207763671875,0.0106523297727108,-0.01917419396340847,0.04793548583984375
1772574353372143000,2.37714306640625,0.009587096981704235,-0.03515268862247467,0.02556559257209301
1772574353382060300,2.387060302734375,0.01171756349503994,-0.03941362351179123,0.012782796286046505
1772574353391993900,2.396993896484375,0.01491326279938221,-0.04047885537147522,0.0021304660476744175
1772574353401936100,2.40693603515625,0.01810896210372448,-0.04580501839518547,-0.009587096981704235
1772574353411870500,2.416870361328125,0.02450035884976387,-0.05432688444852829,-0.0159784946590662
1772574353421793300,2.426793212890625,0.03089175745844841,-0.05006595328450203,-0.02450035884976387
1772574353431726600,2.4367265625,0.03408745676279068,-0.04473978653550148,-0.03302222490310669
1772574353441697000,2.446697021484375,0.03515268862247467,-0.04900071769952774,-0.03834838792681694
1772574353451634000,2.456634033203125,0.03621792420744896,-0.05858781561255455,-0.04047885537147522
1772574353461525800,2.46652587890625,0.03728315606713295,-0.06817491352558136,-0.03728315606713295
1772574353471458000,2.4764580078125,0.03834838792681694,-0.07243584841489792,-0.02343512699007988
1772574353481397500,2.4863974609375,0.03941362351179123,-0.07243584841489792,-0.0021304660476744175
1772574353491330800,2.496330810546875,0.04367455467581749,-0.05858781561255455,0.02236989326775074
1772574353501260500,2.506260498046875,0.04367455467581749,-0.04367455467581749,0.0426093190908432
1772574353511193300,2.516193359375,0.0426093190908432,-0.03515268862247467,0.05539211630821228
1772574353521114000,2.526114013671875,0.04367455467581749,-0.0213046595454216,0.0639139786362648
1772574353531045600,2.536045654296875,0.04367455467581749,-0.007456631399691105,0.06817491352558136
1772574353540980500,2.54598046875,0.04047885537147522,0.0063913981430232525,0.06604444980621338
1772574353550912500,2.55591259765625,0.03515268862247467,0.01384802907705307,0.0532616525888443
1772574353560847000,2.56584716796875,0.03089175745844841,0.004260932095348835,0.04047885537147522
1772574353570779400,2.575779296875,0.02982652559876442,-0.0063913981430232525,0.02450035884976387
1772574353580708400,2.585708251953125,0.0319569893181324,-0.007456631399691105,0.01491326279938221
1772574353590640000,2.59564013671875,0.03089175745844841,0.0010652330238372087,0.009587096981704235
1772574353600573200,2.6055732421875,0.03089175745844841,0.0106523297727108,0.0031956990715116262
1772574353610505200,2.615505126953125,0.03089175745844841,0.01171756349503994,-0.0031956990715116262
1772574353620441000,2.625441162109375,0.02982652559876442,0.009587096981704235,-0.007456631399691105
1772574353630373400,2.635373291015625,0.02556559257209301,0.01171756349503994,-0.01384802907705307
1772574353640308200,2.64530810546875,0.02236989326775074,0.01491326279938221,-0.02556559257209301
1772574353650241000,2.655240966796875,0.02023942768573761,0.012782796286046505,-0.03941362351179123
1772574353660182500,2.6651826171875,0.0213046595454216,0.0053261648863554,-0.0532616525888443
1772574353670116000,2.6751162109375,0.01917419396340847,-0.0010652330238372087,-0.06710968166589737
1772574353680047400,2.68504736328125,0.0159784946590662,-0.0010652330238372087,-0.0745663121342659
1772574353689980700,2.694980712890625,0.012782796286046505,0.0010652330238372087,-0.08202294260263443
1772574353699906000,2.704906005859375,0.0106523297727108,0.004260932095348835,-0.08628387749195099
1772574353709838600,2.714838623046875,0.00852186419069767,0.012782796286046505,-0.08308817446231842
1772574353719770000,2.72477001953125,0.00852186419069767,0.01917419396340847,-0.07563154399394989
1772574353729702400,2.734702392578125,0.00852186419069767,0.02023942768573761,-0.06924014538526535
1772574353739631600,2.744631591796875,0.0106523297727108,0.01491326279938221,-0.0639139786362648
1772574353749563600,2.754563720703125,0.01384802907705307,0.0106523297727108,-0.0532616525888443
1772574353759473000,2.764472900390625,0.01704372838139534,0.012782796286046505,-0.03621792420744896
1772574353769402600,2.774402587890625,0.01704372838139534,0.02023942768573761,-0.01917419396340847
1772574353779359200,2.784359130859375,0.012782796286046505,0.02343512699007988,0
1772574353789291500,2.79429150390625,0.012782796286046505,0.02236989326775074,0.02769605815410614
1772574353799225900,2.804225830078125,0.01384802907705307,0.02982652559876442,0.05858781561255455
1772574353809158400,2.814158447265625,0.01384802907705307,0.03302222490310669,0.08308817446231842
1772574353819089200,2.824089111328125,0.01384802907705307,0.02982652559876442,0.09693620353937149
1772574353829021700,2.834021728515625,0.01704372838139534,0.02556559257209301,0.09480573982000351
1772574353838952200,2.8439521484375,0.0213046595454216,0.01491326279938221,0.0852186381816864
1772574353848884700,2.853884765625,0.02343512699007988,0.0031956990715116262,0.07243584841489792
1772574353858821000,2.863821044921875,0.02450035884976387,0.0031956990715116262,0.0532616525888443
1772574353868754000,2.87375390625,0.02450035884976387,0.0021304660476744175,0.03089175745844841
1772574353878696000,2.883696044921875,0.02343512699007988,0.0021304660476744175,0
1772574353888629500,2.89362939453125,0.01917419396340847,0.0010652330238372087,-0.02982652559876442
1772574353898544400,2.90354443359375,0.0159784946590662,-0.0021304660476744175,-0.05113118514418602
1772574353908476200,2.91347607421875,0.01704372838139534,-0.0053261648863554,-0.05858781561255455
1772574353918414600,2.92341455078125,0.01704372838139534,-0.0063913981430232525,-0.04900071769952774
1772574353928347100,2.93334716796875,0.02343512699007988,-0.0021304660476744175,-0.02876129187643528
1772574353938277400,2.94327734375,0.02663082629442215,0.0053261648863554,-0.004260932095348835
1772574353948209700,2.953209716796875,0.02769605815410614,0.009587096981704235,0.01384802907705307
1772574353958161700,2.96316162109375,0.02556559257209301,0.0106523297727108,0.01810896210372448
1772574353968095700,2.973095703125,0.02450035884976387,0.0053261648863554,0.01704372838139534
1772574353978007000,2.983007080078125,0.02663082629442215,0.0010652330238372087,0.01384802907705307
1772574353987938800,2.992938720703125,0.02769605815410614,0,0.01171756349503994
1772574353997869600,3.00286962890625,0.02876129187643528,0.0010652330238372087,0.0063913981430232525
1772574354007801300,3.01280126953125,0.02876129187643528,-0.0053261648863554,-0.0053261648863554
1772574354017749000,3.0227490234375,0.02769605815410614,-0.0063913981430232525,-0.01491326279938221
1772574354027682300,3.032682373046875,0.03089175745844841,0.004260932095348835,-0.0213046595454216
1772574354037616600,3.04261669921875,0.03621792420744896,0.0053261648863554,-0.02450035884976387
1772574354047550000,3.052550048828125,0.03621792420744896,-0.0031956990715116262,-0.02556559257209301
1772574354057470000,3.062469970703125,0.03728315606713295,-0.007456631399691105,-0.02663082629442215
1772574354067402000,3.072402099609375,0.03515268862247467,-0.0106523297727108,-0.03621792420744896
1772574354077341200,3.082341064453125,0.02663082629442215,-0.0010652330238372087,-0.06071828305721283
1772574354087274000,3.09227392578125,0.01810896210372448,0.00852186419069767,-0.09480573982000351
1772574354097198600,3.102198486328125,0.01491326279938221,0.009587096981704235,-0.12463226169347763
1772574354107130600,3.112130615234375,0.01917419396340847,0.012782796286046505,-0.14593692123889923
1772574354117050400,3.12205029296875,0.02236989326775074,0.01491326279938221,-0.15339355170726776
1772574354126981000,3.131981201171875,0.02023942768573761,0.009587096981704235,-0.15126308798789978
1772574354136923600,3.141923583984375,0.01810896210372448,0.00852186419069767,-0.13102366030216217
1772574354146855700,3.151855712890625,0.0159784946590662,0.01384802907705307,-0.09906667470932007
1772574354156793900,3.1617939453125,0.01491326279938221,0.02663082629442215,-0.07030537724494934
1772574354166726400,3.171726318359375,0.0159784946590662,0.03515268862247467,-0.04367455467581749
1772574354176661800,3.181661865234375,0.0159784946590662,0.03408745676279068,-0.02343512699007988
1772574354186594800,3.1915947265625,0.01491326279938221,0.03302222490310669,-0.0063913981430232525
1772574354196526600,3.201526611328125,0.01491326279938221,0.03302222490310669,0.007456631399691105
1772574354206459400,3.21145947265625,0.01810896210372448,0.03621792420744896,0.01704372838139534
1772574354216398300,3.2213984375,0.01704372838139534,0.03408745676279068,0.0159784946590662
1772574354226332000,3.231331787109375,0.01384802907705307,0.02556559257209301,0.012782796286046505
1772574354236253700,3.241253662109375,0.01171756349503994,0.0159784946590662,0.00852186419069767
1772574354246186000,3.25118603515625,0.01704372838139534,0.012782796286046505,0.0053261648863554
1772574354256121000,3.26112109375,0.01810896210372448,0.009587096981704235,0.004260932095348835
1772574354266053600,3.2710537109375,0.01917419396340847,0.012782796286046505,0.007456631399691105
1772574354275980800,3.280980712890625,0.02236989326775074,0.01917419396340847,0.01491326279938221
1772574354285912600,3.29091259765625,0.02343512699007988,0.02023942768573761,0.01704372838139534
1772574354295847700,3.30084765625,0.02236989326775074,0.01171756349503994,0.009587096981704235
1772574354305780000,3.310780029296875,0.0213046595454216,0.0063913981430232525,0.0010652330238372087
1772574354315724000,3.32072412109375,0.02236989326775074,-0.0063913981430232525,-0.004260932095348835
1772574354325657300,3.3306572265625,0.02343512699007988,-0.01491326279938221,-0.0021304660476744175
1772574354335591000,3.3405908203125,0.02663082629442215,-0.01704372838139534,0.007456631399691105
1772574354345524500,3.3505244140625,0.02982652559876442,-0.01491326279938221,0.0159784946590662
1772574354355440400,3.3604404296875,0.0319569893181324,-0.012782796286046505,0.02236989326775074
1772574354365372000,3.370371826171875,0.03302222490310669,-0.0063913981430232525,0.02769605815410614
1772574354375285200,3.38028515625,0.0319569893181324,-0.0053261648863554,0.02663082629442215
1772574354385215000,3.390215087890625,0.03089175745844841,-0.01491326279938221,0.02343512699007988
1772574354395149600,3.400149658203125,0.02982652559876442,-0.02236989326775074,0.02450035884976387
1772574354405079800,3.410079833984375,0.02663082629442215,-0.0319569893181324,0.02556559257209301
1772574354415047200,3.420047119140625,0.0213046595454216,-0.03728315606713295,0.02663082629442215
1772574354424981000,3.42998095703125,0.01917419396340847,-0.03302222490310669,0.02769605815410614
1772574354434879500,3.43987939453125,0.01491326279938221,-0.02556559257209301,0.02982652559876442
1772574354444810000,3.44981005859375,0.01384802907705307,-0.0159784946590662,0.02982652559876442
1772574354454742000,3.459741943359375,0.01171756349503994,-0.00852186419069767,0.02876129187643528
1772574354464672500,3.469672607421875,0.009587096981704235,-0.01171756349503994,0.02450035884976387
1772574354474609400,3.479609375,0.01171756349503994,-0.0063913981430232525,0.0213046595454216
1772574354484540400,3.48954052734375,0.01384802907705307,0.007456631399691105,0.02450035884976387
1772574354494507800,3.4995078125,0.0159784946590662,0.02236989326775074,0.03621792420744896
1772574354504442600,3.509442626953125,0.01704372838139534,0.0319569893181324,0.05219641700387001
1772574354514340900,3.5193408203125,0.01491326279938221,0.03515268862247467,0.06284874677658081
1772574354524271900,3.52927197265625,0.0159784946590662,0.03302222490310669,0.06924014538526535
1772574354534201600,3.53920166015625,0.01491326279938221,0.02556559257209301,0.06604444980621338
1772574354544132600,3.549132568359375,0.01384802907705307,0.012782796286046505,0.05113118514418602
1772574354554068500,3.559068359375,0.0106523297727108,-0.0063913981430232525,0.02876129187643528
1772574354564000000,3.569,0.0106523297727108,-0.0213046595454216,0.0031956990715116262
1772574354573956900,3.578956787109375,0.009587096981704235,-0.0319569893181324,-0.01810896210372448
1772574354583891000,3.588890869140625,0.007456631399691105,-0.03621792420744896,-0.03621792420744896
1772574354593820200,3.598820068359375,0.0053261648863554,-0.03621792420744896,-0.05006595328450203
1772574354603753700,3.608753662109375,0.0053261648863554,-0.03728315606713295,-0.0639139786362648
1772574354613698000,3.618697998046875,0.0021304660476744175,-0.03515268862247467,-0.06817491352558136
1772574354623633000,3.6286328125,0,-0.0319569893181324,-0.06924014538526535
1772574354633524700,3.638524658203125,-0.0021304660476744175,-0.02982652559876442,-0.06604444980621338
1772574354643455200,3.648455322265625,-0.0031956990715116262,-0.03302222490310669,-0.05965305119752884
1772574354653434000,3.65843408203125,-0.0063913981430232525,-0.03302222490310669,-0.04580501839518547
1772574354663369200,3.668369140625,-0.0063913981430232525,-0.02876129187643528,-0.02982652559876442
1772574354673281800,3.67828173828125,-0.00852186419069767,-0.02663082629442215,-0.01704372838139534
1772574354683214600,3.688214599609375,-0.00852186419069767,-0.02450035884976387,-0.00852186419069767
1772574354693144300,3.698144287109375,-0.0106523297727108,-0.01917419396340847,0.0021304660476744175
1772574354703076900,3.708076904296875,-0.01171756349503994,-0.012782796286046505,0.012782796286046505
1772574354712988400,3.717988525390625,-0.007456631399691105,-0.0053261648863554,0.02343512699007988
1772574354722919000,3.7279189453125,-0.00852186419069767,0,0.0319569893181324
1772574354732873700,3.737873779296875,-0.009587096981704235,-0.0010652330238372087,0.03515268862247467
1772574354742806500,3.747806640625,-0.012782796286046505,-0.00852186419069767,0.03089175745844841
1772574354752756500,3.757756591796875,-0.01491326279938221,-0.01384802907705307,0.02556559257209301
1772574354762691300,3.76769140625,-0.01384802907705307,-0.01384802907705307,0.02023942768573761
1772574354772605000,3.77760498046875,-0.012782796286046505,-0.012782796286046505,0.01491326279938221
1772574354782537200,3.787537109375,-0.01384802907705307,-0.0106523297727108,0.00852186419069767
1772574354792508400,3.79750830078125,-0.0159784946590662,-0.01171756349503994,-0.0010652330238372087
1772574354802444800,3.80744482421875,-0.01704372838139534,-0.01384802907705307,-0.012782796286046505
1772574354812335600,3.817335693359375,-0.02023942768573761,-0.009587096981704235,-0.02450035884976387
1772574354822267600,3.827267578125,-0.0213046595454216,-0.00852186419069767,-0.03408745676279068
1772574354832200200,3.8372001953125,-0.0213046595454216,-0.007456631399691105,-0.03941362351179123
1772574354842132000,3.847132080078125,-0.02023942768573761,-0.0031956990715116262,-0.03728315606713295
1772574354852066000,3.857066162109375,-0.01917419396340847,-0.004260932095348835,-0.02876129187643528
1772574354861998300,3.866998291015625,-0.01917419396340847,-0.004260932095348835,-0.01810896210372448
1772574354871926300,3.87692626953125,-0.01704372838139534,-0.0021304660476744175,-0.004260932095348835
1772574354881858000,3.886858154296875,-0.01704372838139534,-0.004260932095348835,0.007456631399691105
1772574354891792400,3.89679248046875,-0.01810896210372448,-0.009587096981704235,0.01491326279938221
1772574354901724400,3.906724365234375,-0.01704372838139534,-0.012782796286046505,0.0213046595454216
1772574354911662000,3.916662109375,-0.01810896210372448,-0.01491326279938221,0.02343512699007988
1772574354921594600,3.9265947265625,-0.02023942768573761,-0.012782796286046505,0.02450035884976387
1772574354931524000,3.936524169921875,-0.02236989326775074,-0.01384802907705307,0.02343512699007988
1772574354941422000,3.946422119140625,-0.02343512699007988,-0.01171756349503994,0.02236989326775074
1772574354951354400,3.956354248046875,-0.02556559257209301,-0.007456631399691105,0.0213046595454216
1772574354961319700,3.966319580078125,-0.02982652559876442,-0.0063913981430232525,0.01917419396340847
1772574354971254800,3.9762548828125,-0.0319569893181324,-0.009587096981704235,0.01384802907705307
1772574354981194200,3.9861943359375,-0.03408745676279068,-0.00852186419069767,0.00852186419069767
1772574354991129900,3.9961298828125,-0.03302222490310669,-0.0063913981430232525,0.0053261648863554
1772574355001052400,4.006052490234375,-0.03408745676279068,-0.004260932095348835,0.004260932095348835
1772574355010986800,4.01598681640625,-0.03515268862247467,-0.0010652330238372087,0.004260932095348835
1772574355020907800,4.02590771484375,-0.03089175745844841,0,0.007456631399691105
1772574355030840800,4.0358408203125,-0.02982652559876442,-0.0021304660476744175,0.012782796286046505
1772574355040778500,4.045778564453125,-0.02982652559876442,-0.012782796286046505,0.01384802907705307
1772574355050712000,4.055712158203125,-0.02450035884976387,-0.012782796286046505,0.01171756349503994
1772574355060647200,4.065647216796875,-0.02023942768573761,-0.00852186419069767,0.012782796286046505
1772574355070580700,4.075580810546875,-0.01491326279938221,-0.0106523297727108,0.01704372838139534
1772574355080519400,4.08551953125,-0.0063913981430232525,-0.0021304660476744175,0.02450035884976387
1772574355090453800,4.095453857421875,-0.0010652330238372087,0.009587096981704235,0.02876129187643528
1772574355100374300,4.105374267578125,0,0.012782796286046505,0.02769605815410614
1772574355110307000,4.11530712890625,0.0010652330238372087,0.0159784946590662,0.01704372838139534
1772574355120237000,4.125237060546875,0.004260932095348835,0.0213046595454216,0.004260932095348835
1772574355130169300,4.13516943359375,0.0021304660476744175,0.02236989326775074,-0.009587096981704235
1772574355140108800,4.14510888671875,0.0021304660476744175,0.0213046595454216,-0.02023942768573761
1772574355150042000,4.1550419921875,0.0010652330238372087,0.012782796286046505,-0.02876129187643528
1772574355159979800,4.164979736328125,0.0021304660476744175,0.0106523297727108,-0.03408745676279068
1772574355169913600,4.17491357421875,0.004260932095348835,0.007456631399691105,-0.03728315606713295
1772574355179836000,4.1848359375,0.0063913981430232525,0.0053261648863554,-0.03728315606713295
1772574355189768400,4.1947685546875,0.0106523297727108,0.0063913981430232525,-0.03621792420744896
1772574355199702500,4.20470263671875,0.01491326279938221,0.0021304660476744175,-0.03515268862247467
1772574355209635000,4.214635009765625,0.01810896210372448,-0.0021304660476744175,-0.03515268862247467
1772574355219608800,4.22460888671875,0.02023942768573761,0.0010652330238372087,-0.03408745676279068
1772574355229545700,4.234545654296875,0.02450035884976387,0.0010652330238372087,-0.03408745676279068
1772574355239409700,4.24440966796875,0.02876129187643528,-0.0063913981430232525,-0.03515268862247467
1772574355249339400,4.25433935546875,0.03621792420744896,-0.009587096981704235,-0.03728315606713295
1772574355259307000,4.26430712890625,0.04154408723115921,0,-0.04367455467581749
1772574355269240300,4.274240234375,0.04473978653550148,0.007456631399691105,-0.04793548583984375
1772574355279171600,4.284171630859375,0.04367455467581749,0.012782796286046505,-0.05539211630821228
1772574355289104600,4.294104736328125,0.04900071769952774,0.02236989326775074,-0.05965305119752884
1772574355299025400,4.304025390625,0.04687025398015976,0.01704372838139534,-0.05752258375287056
1772574355308957400,4.31395751953125,0.04154408723115921,0.0010652330238372087,-0.04900071769952774
1772574355318888400,4.323888427734375,0.03834838792681694,-0.01491326279938221,-0.03728315606713295
1772574355328820200,4.3338203125,0.03408745676279068,-0.01810896210372448,-0.02663082629442215
1772574355338766000,4.34376611328125,0.02876129187643528,-0.012782796286046505,-0.0159784946590662
1772574355348700200,4.3537001953125,0.0213046595454216,-0.007456631399691105,-0.00852186419069767
1772574355358618400,4.363618408203125,0.0159784946590662,-0.0063913981430232525,0
1772574355368550000,4.3735498046875,0.009587096981704235,-0.0063913981430232525,0.0063913981430232525
1772574355378484000,4.38348388671875,0.007456631399691105,0.0021304660476744175,0.009587096981704235
1772574355388415700,4.393415771484375,0.0053261648863554,0.0106523297727108,0.01171756349503994
1772574355398347000,4.403346923828125,0.0031956990715116262,0.009587096981704235,0.007456631399691105
1772574355408278800,4.41327880859375,0.0021304660476744175,0.004260932095348835,0.004260932095348835
1772574355418217000,4.423217041015625,0.0010652330238372087,-0.0010652330238372087,-0.0010652330238372087
1772574355428149500,4.4331494140625,-0.0010652330238372087,-0.004260932095348835,-0.004260932095348835
1772574355438090000,4.443090087890625,-0.0010652330238372087,-0.0053261648863554,-0.0053261648863554
1772574355448023300,4.453023193359375,-0.0010652330238372087,-0.0021304660476744175,-0.0031956990715116262
1772574355457947000,4.46294677734375,0.0021304660476744175,-0.0031956990715116262,0.0010652330238372087
1772574355467879200,4.472879150390625,0.0053261648863554,-0.0063913981430232525,0.0063913981430232525
1772574355477807400,4.482807373046875,0.007456631399691105,-0.0053261648863554,0.01384802907705307
1772574355487739100,4.4927392578125,0.0063913981430232525,-0.0063913981430232525,0.0159784946590662
1772574355497673700,4.502673828125,0.007456631399691105,-0.00852186419069767,0.01704372838139534
1772574355507606000,4.51260595703125,0.00852186419069767,-0.004260932095348835,0.0159784946590662
1772574355517538300,4.522538330078125,0.009587096981704235,0,0.0159784946590662
1772574355527470600,4.532470703125,0.009587096981704235,0.0031956990715116262,0.01704372838139534
1772574355537412900,4.542412841796875,0.0106523297727108,0.007456631399691105,0.0106523297727108
1772574355547346200,4.55234619140625,0.009587096981704235,0.007456631399691105,0.0053261648863554
1772574355557268500,4.5622685546875,0.00852186419069767,0.004260932095348835,-0.004260932095348835
1772574355567200800,4.57220068359375,0.009587096981704235,0.0021304660476744175,-0.012782796286046505
1772574355577114400,4.5821142578125,0.0106523297727108,-0.0010652330238372087,-0.01491326279938221
1772574355587044600,4.592044677734375,0.01171756349503994,-0.0021304660476744175,-0.01810896210372448
1772574355596979500,4.6019794921875,0.01171756349503994,0.0021304660476744175,-0.0159784946590662
1772574355606910200,4.61191015625,0.012782796286046505,0.00852186419069767,-0.0106523297727108
1772574355616871200,4.62187109375,0.012782796286046505,0.01491326279938221,-0.004260932095348835
1772574355626805000,4.631804931640625,0.012782796286046505,0.0106523297727108,0
1772574355636710400,4.64171044921875,0.01171756349503994,0,0.0031956990715116262
1772574355646641400,4.651641357421875,0.012782796286046505,-0.0010652330238372087,0.0021304660476744175
1772574355656581600,4.66158154296875,0.012782796286046505,-0.0031956990715116262,-0.0010652330238372087
1772574355666513400,4.671513427734375,0.012782796286046505,-0.0053261648863554,0
1772574355676440000,4.681440185546875,0.012782796286046505,0.0010652330238372087,0.0031956990715116262
1772574355686371300,4.691371337890625,0.01171756349503994,0.00852186419069767,0.007456631399691105
1772574355696338000,4.701337890625,0.0106523297727108,0.0106523297727108,0.01171756349503994
1772574355706235400,4.7112353515625,0.0053261648863554,0.0063913981430232525,0.0106523297727108
1772574355716141600,4.7211416015625,0.0010652330238372087,0.007456631399691105,0.007456631399691105
1772574355726104300,4.731104248046875,0,0.01704372838139534,0.004260932095348835
1772574355736039200,4.7410390625,-0.0031956990715116262,0.02343512699007988,-0.0021304660476744175
1772574355745974000,4.75097412109375,-0.004260932095348835,0.0213046595454216,-0.007456631399691105
1772574355765836300,4.770836181640625,-0.007456631399691105,0.0159784946590662,-0.00852186419069767
1772574355775784200,4.7807841796875,-0.009587096981704235,0.009587096981704235,-0.0053261648863554
1772574355785720000,4.790719970703125,-0.007456631399691105,0.0053261648863554,0.0021304660476744175
1772574355795642400,4.800642333984375,-0.0053261648863554,0.007456631399691105,0.01384802907705307
1772574355805577000,4.810576904296875,-0.0053261648863554,0.01171756349503994,0.02556559257209301
1772574355815481300,4.8204814453125,-0.0053261648863554,0.01810896210372448,0.03728315606713295
1772574355825416000,4.830416015625,-0.004260932095348835,0.01810896210372448,0.03515268862247467
1772574355835378200,4.840378173828125,-0.004260932095348835,0.01491326279938221,0.02236989326775074
1772574355845314800,4.850314697265625,-0.0031956990715116262,0.0063913981430232525,0.0063913981430232525
1772574355855237400,4.8602373046875,-0.0053261648863554,0.0053261648863554,-0.009587096981704235
1772574355865172500,4.87017236328125,-0.004260932095348835,0.004260932095348835,-0.02023942768573761
1772574355875103500,4.880103515625,-0.0031956990715116262,0.0010652330238372087,-0.02556559257209301
1772574355885038300,4.890038330078125,-0.0021304660476744175,-0.0031956990715116262,-0.02450035884976387
1772574355894967300,4.89996728515625,0.0021304660476744175,-0.00852186419069767,-0.01704372838139534
1772574355904901400,4.9099013671875,0.0063913981430232525,-0.01171756349503994,-0.009587096981704235
1772574355914833200,4.919833251953125,0.0063913981430232525,-0.0106523297727108,0.0010652330238372087
1772574355924767200,4.929767333984375,0.007456631399691105,-0.007456631399691105,0.007456631399691105
1772574355934697000,4.939697021484375,0.00852186419069767,-0.0063913981430232525,0.0106523297727108
1772574355944630500,4.949630615234375,0.009587096981704235,-0.0053261648863554,0.012782796286046505
1772574355954559000,4.95955908203125,0.01384802907705307,-0.0031956990715116262,0.0106523297727108
1772574355964492000,4.969491943359375,0.0159784946590662,0.0010652330238372087,0.009587096981704235
1772574355974414600,4.97941455078125,0.01704372838139534,0.0031956990715116262,0.007456631399691105
1772574355984346600,4.9893466796875,0.01704372838139534,0.0021304660476744175,-0.0010652330238372087
1772574355994280400,4.999280517578125,0.01704372838139534,0.0021304660476744175,-0.009587096981704235
1772574356004212500,5.00921240234375,0.0159784946590662,0.0021304660476744175,-0.01704372838139534
1772574356014145500,5.0191455078125,0.0159784946590662,0,-0.02236989326775074
1772574356024077800,5.029077880859375,0.01810896210372448,-0.004260932095348835,-0.02236989326775074
1772574356034009300,5.03900927734375,0.01810896210372448,0,-0.02023942768573761
1772574356043941600,5.048941650390625,0.01810896210372448,0.007456631399691105,-0.01917419396340847
1772574356053870800,5.058870849609375,0.01917419396340847,0.0063913981430232525,-0.02450035884976387
1772574356063803000,5.068802978515625,0.0213046595454216,0.007456631399691105,-0.02982652559876442
1772574356073737500,5.078737548828125,0.02023942768573761,0.009587096981704235,-0.0319569893181324
1772574356083669500,5.08866943359375,0.01810896210372448,0.009587096981704235,-0.02982652559876442
1772574356093601000,5.09860107421875,0.01810896210372448,0.0063913981430232525,-0.02023942768573761
1772574356103533000,5.108532958984375,0.01917419396340847,0.0063913981430232525,-0.00852186419069767
1772574356113501200,5.118501220703125,0.02023942768573761,0.0106523297727108,-0.0010652330238372087
1772574356123436800,5.128436767578125,0.01917419396340847,0.00852186419069767,-0.0010652330238372087
1772574356133372400,5.138372314453125,0.01704372838139534,0.0063913981430232525,-0.004260932095348835
1772574356143308000,5.14830810546875,0.01704372838139534,0.004260932095348835,-0.007456631399691105
1772574356153208800,5.158208740234375,0.01917419396340847,0.0010652330238372087,-0.0106523297727108
1772574356163140900,5.168140869140625,0.01810896210372448,0.004260932095348835,-0.01384802907705307
1772574356173067000,5.17806689453125,0.01917419396340847,-0.0010652330238372087,-0.01491326279938221
1772574356182998500,5.18799853515625,0.01917419396340847,-0.0010652330238372087,-0.0159784946590662
1772574356192923100,5.197923095703125,0.01704372838139534,0.0021304660476744175,-0.01384802907705307
1772574356202854000,5.20785400390625,0.02023942768573761,0.0031956990715116262,-0.0063913981430232525
1772574356212812300,5.217812255859375,0.0213046595454216,0.0031956990715116262,0.0021304660476744175
1772574356222745900,5.227745849609375,0.01810896210372448,-0.0021304660476744175,0.0106523297727108
1772574356232678100,5.23767822265625,0.01704372838139534,-0.0053261648863554,0.01491326279938221
1772574356242611500,5.247611572265625,0.01704372838139534,-0.0010652330238372087,0.01810896210372448
1772574356252544300,5.257544189453125,0.0159784946590662,-0.004260932095348835,0.02450035884976387
1772574356262477800,5.267477783203125,0.0159784946590662,-0.00852186419069767,0.02556559257209301
1772574356272407300,5.2774072265625,0.01810896210372448,-0.00852186419069767,0.0213046595454216
1772574356282340000,5.287340087890625,0.01704372838139534,-0.0063913981430232525,0.01491326279938221
1772574356292264200,5.29726416015625,0.01384802907705307,0,0.0063913981430232525
1772574356302196200,5.3071962890625,0.01171756349503994,0.0053261648863554,-0.004260932095348835
1772574356312137700,5.3171376953125,0.007456631399691105,0.007456631399691105,-0.0159784946590662
1772574356322070800,5.32707080078125,0.007456631399691105,0.0053261648863554,-0.02769605815410614
1772574356332003300,5.33700341796875,0.0031956990715116262,0.0031956990715116262,-0.03621792420744896
1772574356341936400,5.346936279296875,0.0021304660476744175,0.004260932095348835,-0.0426093190908432
1772574356351874600,5.35687451171875,0,0.0063913981430232525,-0.04687025398015976
1772574356361808100,5.36680810546875,0,0.00852186419069767,-0.05006595328450203
1772574356371733500,5.3767333984375,0,0.0106523297727108,-0.05113118514418602
1772574356381666300,5.386666259765625,0,0.004260932095348835,-0.04047885537147522
1772574356391594000,5.396593994140625,0.0021304660476744175,0.0021304660476744175,-0.02450035884976387
1772574356401526000,5.406526123046875,0.0053261648863554,0.009587096981704235,-0.0053261648863554
1772574356411470300,5.41647021484375,0.004260932095348835,0.01171756349503994,0.0106523297727108
1772574356421404000,5.42640380859375,0.0010652330238372087,0.00852186419069767,0.01810896210372448
1772574356431326700,5.43632666015625,0.0021304660476744175,0.0106523297727108,0.02023942768573761
1772574356441259000,5.446259033203125,0.004260932095348835,0.01384802907705307,0.01917419396340847
1772574356451192800,5.45619287109375,0.004260932095348835,0.01810896210372448,0.01917419396340847
1772574356461125000,5.466125,0.0031956990715116262,0.01917419396340847,0.01704372838139534
1772574356471067600,5.476067626953125,0.004260932095348835,0.02023942768573761,0.00852186419069767
1772574356481001000,5.4860009765625,0.004260932095348835,0.0159784946590662,-0.007456631399691105
1772574356490920000,5.495919921875,0.0031956990715116262,0.009587096981704235,-0.02450035884976387
1772574356500852000,5.50585205078125,0.0031956990715116262,0.0063913981430232525,-0.03621792420744896
1772574356510796800,5.515796875,0.0031956990715116262,0.0031956990715116262,-0.04154408723115921
1772574356520730000,5.525730224609375,0.007456631399691105,0.004260932095348835,-0.03941362351179123
1772574356530650400,5.535650390625,0.0106523297727108,0.007456631399691105,-0.03728315606713295
1772574356540582400,5.54558251953125,0.009587096981704235,0.00852186419069767,-0.03089175745844841
1772574356550489900,5.55548974609375,0.0106523297727108,0.012782796286046505,-0.02876129187643528
1772574356560419300,5.56541943359375,0.012782796286046505,0.0106523297727108,-0.03408745676279068
1772574356570388500,5.575388427734375,0.0106523297727108,0.0063913981430232525,-0.03941362351179123
1772574356580322000,5.585322021484375,0.01384802907705307,0.0031956990715116262,-0.03728315606713295
1772574356590247000,5.595246826171875,0.0159784946590662,-0.0053261648863554,-0.03089175745844841
1772574356600179700,5.6051796875,0.0159784946590662,-0.0053261648863554,-0.01917419396340847
1772574356610112500,5.615112548828125,0.0159784946590662,0.0031956990715116262,-0.009587096981704235
1772574356620045000,5.625045166015625,0.01384802907705307,0.004260932095348835,0.0010652330238372087
1772574356629974500,5.634974609375,0.012782796286046505,0.004260932095348835,0.0106523297727108
1772574356639906800,5.64490673828125,0.01171756349503994,0.0053261648863554,0.01491326279938221
1772574356649827300,5.654827392578125,0.01171756349503994,0,0.012782796286046505
1772574356659758300,5.66475830078125,0.00852186419069767,-0.0010652330238372087,0.00852186419069767
1772574356669707300,5.674707275390625,0.004260932095348835,0.0063913981430232525,0.0010652330238372087
1772574356679640300,5.684640380859375,0.0010652330238372087,0.0106523297727108,-0.00852186419069767
1772574356689561900,5.694561767578125,-0.0010652330238372087,0.01491326279938221,-0.01810896210372448
1772574356699494000,5.704493896484375,-0.004260932095348835,0.01917419396340847,-0.02023942768573761
1772574356709434600,5.7144345703125,-0.007456631399691105,0.01810896210372448,-0.01917419396340847
1772574356719367400,5.724367431640625,-0.00852186419069767,0.01171756349503994,-0.01384802907705307
1772574356729307000,5.734306884765625,-0.009587096981704235,0.007456631399691105,-0.0031956990715116262
1772574356739240200,5.744240234375,-0.007456631399691105,0.00852186419069767,0.009587096981704235
1772574356749171500,5.75417138671875,-0.007456631399691105,0.0053261648863554,0.02343512699007988
1772574356759104500,5.7641044921875,-0.0053261648863554,0,0.03515268862247467
1772574356769028000,5.774028076171875,-0.0021304660476744175,0,0.04580501839518547
1772574356778960400,5.78396044921875,-0.0010652330238372087,0,0.05113118514418602
1772574356788894500,5.79389453125,0.0010652330238372087,-0.0021304660476744175,0.05965305119752884
1772574356798785000,5.803784912109375,0.0031956990715116262,-0.004260932095348835,0.06284874677658081
1772574356808717300,5.81371728515625,0.0053261648863554,-0.0053261648863554,0.06178351491689682
1772574356838513200,5.84351318359375,0.00852186419069767,0.0053261648863554,0.06710968166589737
1772574356858422000,5.863422119140625,0.012782796286046505,0.02236989326775074,0.03621792420744896
1772574356868358700,5.873358642578125,0.01491326279938221,0.03728315606713295,0.01704372838139534
1772574356878294300,5.883294189453125,0.02556559257209301,0.04900071769952774,-0.0031956990715116262
1772574356888230700,5.893230712890625,0.03621792420744896,0.0426093190908432,-0.02556559257209301
1772574356898147800,5.90314794921875,0.04367455467581749,0.02450035884976387,-0.03941362351179123
1772574356908082400,5.91308251953125,0.05539211630821228,0.0010652330238372087,-0.04367455467581749
1772574356918017000,5.92301708984375,0.07243584841489792,-0.01704372838139534,-0.03408745676279068
1772574356927951600,5.93295166015625,0.08308817446231842,-0.02556559257209301,-0.01384802907705307
1772574356937884200,5.94288427734375,0.08841434121131897,-0.0319569893181324,0.0159784946590662
1772574356947818500,5.952818603515625,0.0958709716796875,-0.04047885537147522,0.05006595328450203
1772574356957743900,5.962743896484375,0.09800143539905548,-0.04900071769952774,0.08095771074295044
1772574356967677400,5.972677490234375,0.0958709716796875,-0.04793548583984375,0.10332760214805603
1772574356977610500,5.982610595703125,0.08734910935163498,-0.03834838792681694,0.11824086308479309
1772574356987543800,5.992543701171875,0.08202294260263443,-0.0319569893181324,0.12037133425474167
1772574356997488400,6.00248828125,0.07350108027458191,-0.02769605815410614,0.1171756312251091
1772574357007423000,6.012423095703125,0.0639139786362648,-0.0213046595454216,0.10865376889705658
1772574357017344500,6.022344482421875,0.0532616525888443,-0.01917419396340847,0.09693620353937149
1772574357027277800,6.03227783203125,0.04687025398015976,-0.01704372838139534,0.08734910935163498
1772574357037218300,6.04221826171875,0.03941362351179123,-0.01171756349503994,0.0745663121342659
1772574357047152400,6.05215234375,0.02982652559876442,-0.0106523297727108,0.05752258375287056
1772574357057071000,6.062071044921875,0.0213046595454216,-0.012782796286046505,0.0426093190908432
1772574357067003400,6.07200341796875,0.01810896210372448,-0.0159784946590662,0.02556559257209301
1772574357076936400,6.0819365234375,0.01704372838139534,-0.01917419396340847,0.0063913981430232525
1772574357086869000,6.091868896484375,0.012782796286046505,-0.02450035884976387,-0.01171756349503994
1772574357096798500,6.101798583984375,0.0106523297727108,-0.02236989326775074,-0.02663082629442215
1772574357106730800,6.111730712890625,0.009587096981704235,-0.0106523297727108,-0.03302222490310669
1772574357116666600,6.12166650390625,0.01171756349503994,-0.0053261648863554,-0.03089175745844841
1772574357126599200,6.13159912109375,0.009587096981704235,-0.0031956990715116262,-0.02450035884976387
1772574357136526300,6.1415263671875,0.0063913981430232525,0.0031956990715116262,-0.012782796286046505
1772574357146458400,6.151458251953125,0.004260932095348835,0.0010652330238372087,0.0021304660476744175
1772574357156397300,6.161397216796875,0.0053261648863554,-0.0010652330238372087,0.02343512699007988
1772574357166330000,6.171330078125,0.009587096981704235,0.0031956990715116262,0.03941362351179123
1772574357176269800,6.181269775390625,0.00852186419069767,0.0053261648863554,0.05113118514418602
1772574357186203100,6.191203125,0.009587096981704235,0.0063913981430232525,0.05645735189318657
1772574357196128300,6.201128173828125,0.01171756349503994,0.007456631399691105,0.05539211630821228
1772574357206060800,6.211060791015625,0.0106523297727108,0.0031956990715116262,0.05113118514418602
1772574357215972900,6.220972900390625,0.007456631399691105,-0.004260932095348835,0.0426093190908432
1772574357225903600,6.230903564453125,0.004260932095348835,-0.009587096981704235,0.03302222490310669
1772574357235835000,6.2408349609375,0.0063913981430232525,-0.0063913981430232525,0.02556559257209301
1772574357245765400,6.250765380859375,0.0031956990715116262,0,0.02023942768573761
1772574357255728600,6.260728759765625,0.0010652330238372087,0.007456631399691105,0.01384802907705307
1772574357265662500,6.270662353515625,-0.0021304660476744175,0.01171756349503994,0.0021304660476744175
1772574357275560200,6.280560302734375,-0.0053261648863554,0.012782796286046505,-0.0053261648863554
1772574357285490400,6.290490478515625,-0.007456631399691105,0.012782796286046505,-0.01384802907705307
1772574357295462100,6.300462158203125,-0.0106523297727108,0.0106523297727108,-0.02450035884976387
1772574357305396500,6.310396484375,-0.01704372838139534,0.00852186419069767,-0.02876129187643528
1772574357315291600,6.320291748046875,-0.01810896210372448,0.0063913981430232525,-0.02769605815410614
1772574357325222100,6.33022216796875,-0.01917419396340847,0.0053261648863554,-0.0213046595454216
1772574357335160800,6.340160888671875,-0.01917419396340847,0.0031956990715116262,-0.009587096981704235
1772574357345092000,6.350092041015625,-0.01810896210372448,0.0010652330238372087,0.0031956990715116262
1772574357355052500,6.360052490234375,-0.01810896210372448,0.0021304660476744175,0.01491326279938221
1772574357364987000,6.36998681640625,-0.0159784946590662,0,0.02343512699007988
1772574357374885600,6.3798857421875,-0.012782796286046505,-0.0021304660476744175,0.03302222490310669
1772574357384816400,6.38981640625,-0.0106523297727108,-0.0010652330238372087,0.04047885537147522
1772574357394776800,6.39977685546875,-0.007456631399691105,0.0021304660476744175,0.04793548583984375
1772574357404710400,6.40971044921875,-0.0053261648863554,0.0031956990715116262,0.05219641700387001
1772574357414636000,6.419635986328125,-0.0031956990715116262,0.0031956990715116262,0.05219641700387001
1772574357424568800,6.42956884765625,-0.0010652330238372087,0.0031956990715116262,0.05006595328450203
1772574357434516700,6.439516845703125,-0.0021304660476744175,0,0.04367455467581749
1772574357444451000,6.449451171875,-0.0031956990715116262,-0.0053261648863554,0.03621792420744896
1772574357454368000,6.459367919921875,-0.0053261648863554,-0.00852186419069767,0.03089175745844841
1772574357464300500,6.469300537109375,-0.004260932095348835,-0.0063913981430232525,0.02023942768573761
1772574357474236000,6.47923583984375,-0.0063913981430232525,-0.0031956990715116262,0.012782796286046505
1772574357484168700,6.489168701171875,-0.00852186419069767,-0.0021304660476744175,0.00852186419069767
1772574357494118000,6.499117919921875,-0.01171756349503994,0,0.0021304660476744175
1772574357504052500,6.509052490234375,-0.01384802907705307,0,-0.0031956990715116262
1772574357513966000,6.518966064453125,-0.0159784946590662,-0.0010652330238372087,-0.007456631399691105
1772574357523898400,6.5288984375,-0.01917419396340847,0.0021304660476744175,-0.009587096981704235
1772574357533829600,6.53882958984375,-0.02023942768573761,0.0053261648863554,-0.0063913981430232525
1772574357543762000,6.548761962890625,-0.01917419396340847,0.0063913981430232525,0.0031956990715116262
1772574357553698300,6.5586982421875,-0.01810896210372448,0.004260932095348835,0.0159784946590662
1772574357563631000,6.568631103515625,-0.0159784946590662,0.004260932095348835,0.03089175745844841
1772574357573562600,6.578562744140625,-0.01491326279938221,0.0053261648863554,0.04154408723115921
1772574357583495200,6.5884951171875,-0.0106523297727108,0.0010652330238372087,0.05006595328450203
1772574357593425700,6.59842578125,-0.0106523297727108,0.0010652330238372087,0.05965305119752884
1772574357603358000,6.60835791015625,-0.01171756349503994,0.0031956990715116262,0.06284874677658081
1772574357613289200,6.618289306640625,-0.01384802907705307,0.0021304660476744175,0.06497921794652939
1772574357623221500,6.628221435546875,-0.01491326279938221,0.0010652330238372087,0.0639139786362648
1772574357633165600,6.63816552734375,-0.0159784946590662,0,0.05965305119752884
1772574357643099100,6.64809912109375,-0.01810896210372448,0.0010652330238372087,0.05432688444852829
1772574357653017600,6.658017578125,-0.0213046595454216,0.0031956990715116262,0.04367455467581749
1772574357662949600,6.66794970703125,-0.02236989326775074,0.0010652330238372087,0.02769605815410614
1772574357672883000,6.677883056640625,-0.02236989326775074,-0.0063913981430232525,0.01810896210372448
1772574357682815200,6.687815185546875,-0.0213046595454216,-0.004260932095348835,0.0159784946590662
1772574357692746800,6.697746826171875,-0.02023942768573761,0.0021304660476744175,0.012782796286046505
1772574357702678800,6.7076787109375,-0.01917419396340847,-0.0010652330238372087,0.0053261648863554
1772574357712627500,6.71762744140625,-0.02023942768573761,-0.007456631399691105,-0.0031956990715116262
1772574357722561000,6.72756103515625,-0.02023942768573761,-0.009587096981704235,-0.0106523297727108
1772574357732479700,6.737479736328125,-0.01491326279938221,-0.012782796286046505,-0.0159784946590662
1772574357742412000,6.747412109375,-0.0106523297727108,-0.01384802907705307,-0.01171756349503994
1772574357752345000,6.757344970703125,-0.007456631399691105,-0.0159784946590662,-0.004260932095348835
1772574357762277400,6.76727734375,-0.004260932095348835,-0.01704372838139534,0.0063913981430232525
1772574357772211500,6.77721142578125,-0.0053261648863554,-0.01384802907705307,0.01704372838139534
1772574357782143700,6.787143798828125,-0.0053261648863554,-0.00852186419069767,0.02556559257209301
1772574357792050700,6.79705078125,-0.0053261648863554,-0.0031956990715116262,0.03302222490310669
1772574357801980700,6.806980712890625,-0.007456631399691105,-0.0010652330238372087,0.03515268862247467
1772574357811915800,6.816915771484375,-0.0053261648863554,0.0031956990715116262,0.03515268862247467
1772574357821846300,6.82684619140625,-0.004260932095348835,0.0063913981430232525,0.03302222490310669
1772574357831806700,6.836806640625,-0.0063913981430232525,0.0053261648863554,0.02663082629442215
1772574357841740000,6.846739990234375,-0.007456631399691105,0.004260932095348835,0.0213046595454216
1772574357851669000,6.8566689453125,-0.009587096981704235,0.0010652330238372087,0.01810896210372448
1772574357861601800,6.866601806640625,-0.012782796286046505,0.0010652330238372087,0.02023942768573761
1772574357871540500,6.87654052734375,-0.012782796286046505,0.004260932095348835,0.02450035884976387
1772574357881473800,6.886473876953125,-0.01171756349503994,0.009587096981704235,0.02236989326775074
1772574357891397400,6.8963974609375,-0.009587096981704235,0.01491326279938221,0.01917419396340847
1772574357901330000,6.906329833984375,-0.009587096981704235,0.01810896210372448,0.01491326279938221
1772574357911266000,6.91626611328125,-0.012782796286046505,0.01704372838139534,0.007456631399691105
1772574357921198800,6.92619873046875,-0.012782796286046505,0.01491326279938221,0.0021304660476744175
1772574357931129300,6.93612939453125,-0.01171756349503994,0.012782796286046505,-0.0031956990715116262
1772574357941062100,6.946062255859375,-0.0106523297727108,0.0106523297727108,-0.009587096981704235
1772574357951001000,6.9560009765625,-0.009587096981704235,0.00852186419069767,-0.01810896210372448
1772574357960934400,6.965934326171875,-0.0063913981430232525,0.0053261648863554,-0.02343512699007988
1772574357970857000,6.97585693359375,-0.004260932095348835,-0.0010652330238372087,-0.02556559257209301
1772574357980789000,6.9857890625,-0.0021304660476744175,-0.0021304660476744175,-0.02236989326775074
1772574357990722800,6.995722900390625,0.0010652330238372087,0.0021304660476744175,-0.0159784946590662
1772574358000655000,7.005655029296875,0.0031956990715116262,0.0010652330238372087,-0.01384802907705307
1772574358010565400,7.0155654296875,0.004260932095348835,-0.004260932095348835,-0.012782796286046505
1772574358020495400,7.025495361328125,0.0063913981430232525,-0.007456631399691105,-0.01171756349503994
1772574358030450400,7.035450439453125,0.00852186419069767,-0.0053261648863554,-0.0053261648863554
1772574358040383000,7.045383056640625,0.007456631399691105,-0.0010652330238372087,-0.0021304660476744175
1772574358050335200,7.055335205078125,0.0053261648863554,-0.004260932095348835,0.0021304660476744175
1772574358060269800,7.065269775390625,0.0053261648863554,-0.0063913981430232525,0.004260932095348835
1772574358070181400,7.075181396484375,0.0053261648863554,-0.0021304660476744175,0.007456631399691105
1772574358080113700,7.08511376953125,0.0031956990715116262,-0.0010652330238372087,0.009587096981704235
1772574358090054400,7.095054443359375,0.0021304660476744175,0.004260932095348835,0.00852186419069767
1772574358099987700,7.10498779296875,0.0010652330238372087,0.0106523297727108,0.00852186419069767
1772574358109909500,7.114909423828125,0.0021304660476744175,0.01384802907705307,0.007456631399691105
1772574358119841500,7.124841552734375,0.0021304660476744175,0.01917419396340847,0.00852186419069767
1772574358129776600,7.134776611328125,0.0031956990715116262,0.02876129187643528,0.0106523297727108
1772574358139709000,7.144708984375,0.004260932095348835,0.03408745676279068,0.00852186419069767
1772574358149649400,7.1546494140625,0.0063913981430232525,0.03408745676279068,-0.0021304660476744175
1772574358159582500,7.16458251953125,0.01171756349503994,0.01917419396340847,-0.02343512699007988
1772574358169503200,7.174503173828125,0.01704372838139534,0.0031956990715116262,-0.04473978653550148
1772574358179435300,7.184435302734375,0.02343512699007988,-0.012782796286046505,-0.06071828305721283
1772574358189371100,7.19437109375,0.03089175745844841,-0.02663082629442215,-0.06604444980621338
1772574358199303400,7.204303466796875,0.03621792420744896,-0.03302222490310669,-0.05432688444852829
1772574358209245700,7.21424560546875,0.04154408723115921,-0.03515268862247467,-0.03515268862247467
1772574358219179000,7.224178955078125,0.04580501839518547,-0.02982652559876442,-0.0106523297727108
1772574358229099000,7.23409912109375,0.04687025398015976,-0.02023942768573761,0.01171756349503994
1772574358239031000,7.244031005859375,0.04580501839518547,-0.012782796286046505,0.02876129187643528
1772574358248964600,7.253964599609375,0.04367455467581749,-0.00852186419069767,0.03941362351179123
1772574358258896600,7.263896728515625,0.0426093190908432,-0.012782796286046505,0.04473978653550148
1772574358268830000,7.273829833984375,0.03834838792681694,-0.02023942768573761,0.04154408723115921
1772574358278762200,7.28376220703125,0.03515268862247467,-0.0213046595454216,0.03728315606713295
1772574358288694300,7.2936943359375,0.03089175745844841,-0.01810896210372448,0.02982652559876442
1772574358298626600,7.30362646484375,0.02663082629442215,-0.01384802907705307,0.02343512699007988
1772574358308573400,7.313573486328125,0.02450035884976387,-0.009587096981704235,0.01384802907705307
1772574358318507000,7.323507080078125,0.01917419396340847,-0.0063913981430232525,0.007456631399691105
1772574358328426800,7.3334267578125,0.01491326279938221,-0.0010652330238372087,0.0010652330238372087
1772574358338359000,7.343359130859375,0.01171756349503994,0,-0.0031956990715116262
1772574358348295000,7.353294921875,0.012782796286046505,-0.0010652330238372087,-0.0031956990715116262
1772574358358227500,7.3632275390625,0.01171756349503994,-0.0010652330238372087,0
1772574358368153600,7.373153564453125,0.012782796286046505,0,0.0053261648863554
1772574358378085400,7.38308544921875,0.0106523297727108,-0.0053261648863554,0.00852186419069767
1772574358388030200,7.3930302734375,0.01171756349503994,-0.0063913981430232525,0.01704372838139534
1772574358397963500,7.402963623046875,0.012782796286046505,-0.0031956990715116262,0.03515268862247467
1772574358407863600,7.412863525390625,0.009587096981704235,-0.0010652330238372087,0.05219641700387001
1772574358417793300,7.422793212890625,0.009587096981704235,0.004260932095348835,0.05858781561255455
1772574358427727000,7.43272705078125,0.01171756349503994,0.0031956990715116262,0.05752258375287056
1772574358437657600,7.44265771484375,0.009587096981704235,-0.004260932095348835,0.04900071769952774
1772574358447594800,7.4525947265625,0.00852186419069767,-0.009587096981704235,0.03834838792681694
1772574358457525800,7.46252587890625,0.0106523297727108,-0.004260932095348835,0.0319569893181324
1772574358467459800,7.4724599609375,0.00852186419069767,0.0010652330238372087,0.02982652559876442
1772574358477391000,7.48239111328125,0.007456631399691105,0.0010652330238372087,0.02663082629442215
1772574358487340300,7.49234033203125,0.007456631399691105,0,0.02663082629442215
1772574358497273300,7.5022734375,0.007456631399691105,0,0.02450035884976387
1772574358507184400,7.512184326171875,0.007456631399691105,-0.004260932095348835,0.02450035884976387
1772574358517115100,7.522115234375,0.004260932095348835,0,0.02343512699007988
1772574358527053600,7.532053466796875,0.0031956990715116262,-0.0010652330238372087,0.01810896210372448
1772574358536985000,7.541985107421875,0.004260932095348835,-0.004260932095348835,0.01384802907705307
1772574358546917600,7.551917724609375,0.004260932095348835,0.004260932095348835,0.012782796286046505
1772574358556849400,7.561849365234375,0.0021304660476744175,0.00852186419069767,0.01491326279938221
1772574358566781200,7.57178125,0.0031956990715116262,0.0053261648863554,0.01491326279938221
1772574358576713000,7.581712890625,0.0031956990715116262,0.004260932095348835,0.012782796286046505
1772574358586682400,7.591682373046875,0.0021304660476744175,0.0031956990715116262,0.012782796286046505
1772574358596617700,7.60161767578125,0.0021304660476744175,0.0031956990715116262,0.0106523297727108
1772574358606534000,7.611533935546875,0.0031956990715116262,0.0053261648863554,0.0053261648863554
1772574358616467500,7.621467529296875,0.0053261648863554,0,0.0021304660476744175
1772574358626397400,7.6313974609375,0.00852186419069767,0.0031956990715116262,0
1772574358636330800,7.641330810546875,0.0063913981430232525,0.0031956990715116262,-0.0031956990715116262
1772574358646281500,7.651281494140625,0.0063913981430232525,-0.0021304660476744175,-0.007456631399691105
1772574358656216300,7.66121630859375,0.00852186419069767,-0.0010652330238372087,-0.009587096981704235
1772574358666123500,7.67112353515625,0.009587096981704235,-0.0010652330238372087,-0.00852186419069767
1772574358676055600,7.6810556640625,0.009587096981704235,0,-0.007456631399691105
1772574358686003500,7.69100341796875,0.01171756349503994,0,-0.0010652330238372087
1772574358695937300,7.700937255859375,0.01384802907705307,-0.0021304660476744175,0.0021304660476744175
1772574358705834800,7.710834716796875,0.012782796286046505,-0.0021304660476744175,0.0010652330238372087
1772574358715764700,7.7207646484375,0.01171756349503994,-0.004260932095348835,0.0021304660476744175
1772574358725722600,7.73072265625,0.01171756349503994,-0.0021304660476744175,0.0031956990715116262
1772574358735655700,7.74065576171875,0.0106523297727108,-0.0021304660476744175,0.0021304660476744175
1772574358745597200,7.75059716796875,0.009587096981704235,-0.0031956990715116262,0.0010652330238372087
1772574358755530800,7.76053076171875,0.0053261648863554,-0.0053261648863554,0.0010652330238372087
1772574358765450800,7.77045068359375,0.0053261648863554,-0.004260932095348835,0.0063913981430232525
1772574358775383000,7.780383056640625,0.0053261648863554,-0.0010652330238372087,0.0106523297727108
1772574358785320000,7.79031982421875,0.0053261648863554,0.0021304660476744175,0.01384802907705307
1772574358795253000,7.8002529296875,0.0021304660476744175,0.0031956990715116262,0.012782796286046505
1772574358805181200,7.81018115234375,0,0,0.007456631399691105
1772574358815113700,7.82011376953125,-0.0010652330238372087,0.0010652330238372087,0
1772574358825047800,7.8300478515625,-0.0010652330238372087,0.0021304660476744175,-0.0053261648863554
1772574358834980400,7.83998046875,-0.004260932095348835,0.004260932095348835,-0.012782796286046505
1772574358844907300,7.8499072265625,-0.0021304660476744175,0.0031956990715116262,-0.01704372838139534
1772574358854839300,7.85983935546875,-0.0010652330238372087,0.0010652330238372087,-0.01384802907705307
1772574358864777200,7.869777099609375,-0.0010652330238372087,-0.0021304660476744175,-0.00852186419069767
1772574358874709800,7.879709716796875,-0.004260932095348835,-0.0106523297727108,-0.0053261648863554
1772574358884639500,7.889639404296875,-0.007456631399691105,-0.02236989326775074,-0.009587096981704235
1772574358894571800,7.89957177734375,-0.009587096981704235,-0.02769605815410614,-0.01810896210372448
1772574358904511200,7.90951123046875,-0.009587096981704235,-0.0213046595454216,-0.02450035884976387
1772574358914444300,7.9194443359375,-0.007456631399691105,-0.01917419396340847,-0.0319569893181324
1772574358924371200,7.92937109375,-0.004260932095348835,-0.0213046595454216,-0.04154408723115921
1772574358934303700,7.9393037109375,-0.0053261648863554,-0.01704372838139534,-0.04687025398015976
1772574358944237800,7.94923779296875,-0.0063913981430232525,-0.01171756349503994,-0.05113118514418602
1772574358954170400,7.95917041015625,-0.00852186419069767,-0.0031956990715116262,-0.0532616525888443
1772574358964103000,7.96910302734375,-0.007456631399691105,0.009587096981704235,-0.04687025398015976
1772574358974035500,7.979035400390625,-0.0063913981430232525,0.01704372838139534,-0.04047885537147522
1772574358983978000,7.98897802734375,-0.004260932095348835,0.02023942768573761,-0.03089175745844841
1772574358993911300,7.998911376953125,-0.0031956990715116262,0.01810896210372448,-0.0213046595454216
1772574359003808300,8.008808349609374,-0.0010652330238372087,0.01384802907705307,-0.00852186419069767
1772574359013738200,8.01873828125,-0.0010652330238372087,0.009587096981704235,0.0010652330238372087
1772574359023694300,8.0286943359375,0.0021304660476744175,0.0053261648863554,0.009587096981704235
1772574359033626600,8.038626708984374,0.004260932095348835,-0.0021304660476744175,0.009587096981704235
1772574359043560000,8.048559814453125,0.0053261648863554,-0.01704372838139534,0.0031956990715116262
1772574359053492500,8.058492431640625,0.0053261648863554,0.0010652330238372087,-0.009587096981704235
1772574359063440100,8.068440185546875,0.004260932095348835,0.01704372838139534,-0.01704372838139534
1772574359073374200,8.078374267578125,0.0063913981430232525,0.009587096981704235,-0.01491326279938221
1772574359083301600,8.088301513671874,0.01171756349503994,0.00852186419069767,-0.009587096981704235
1772574359093235200,8.098235107421875,0.0106523297727108,0.0053261648863554,-0.0021304660476744175
1772574359103161600,8.10816162109375,0.01171756349503994,0.0021304660476744175,0.0031956990715116262
1772574359113094400,8.118094482421874,0.01384802907705307,0,0.0010652330238372087
1772574359123021600,8.128021484375,0.01491326279938221,-0.0021304660476744175,-0.0053261648863554
1772574359132953600,8.13795361328125,0.01491326279938221,-0.0021304660476744175,-0.012782796286046505
1772574359142885600,8.1478857421875,0.0159784946590662,-0.0031956990715116262,-0.02236989326775074
1772574359152818000,8.15781787109375,0.01704372838139534,-0.0010652330238372087,-0.0319569893181324
1772574359162752000,8.167751953125,0.01704372838139534,0.004260932095348835,-0.03621792420744896
1772574359172684500,8.1776845703125,0.01704372838139534,0.004260932095348835,-0.0319569893181324
1772574359182597400,8.187597412109374,0.01810896210372448,0.0021304660476744175,-0.02450035884976387
1772574359192528000,8.19752783203125,0.02023942768573761,0.0010652330238372087,-0.01704372838139534
1772574359202491100,8.2074912109375,0.02023942768573761,-0.0031956990715116262,-0.01171756349503994
1772574359212425000,8.217425048828124,0.01810896210372448,-0.004260932095348835,-0.00852186419069767
1772574359222354400,8.2273544921875,0.02023942768573761,0,-0.0053261648863554
1772574359232287700,8.237287841796874,0.02023942768573761,0.0021304660476744175,0.0010652330238372087
1772574359242212000,8.247212158203125,0.01810896210372448,0.0031956990715116262,0.00852186419069767
1772574359252144400,8.257144287109375,0.01704372838139534,0.0031956990715116262,0.00852186419069767
1772574359262081800,8.267081787109374,0.01491326279938221,0.0010652330238372087,0.007456631399691105
1772574359272014600,8.2770146484375,0.0106523297727108,-0.0010652330238372087,0.0053261648863554
1772574359281951000,8.286950927734376,0.009587096981704235,0.0021304660476744175,0.007456631399691105
1772574359291884300,8.29688427734375,0.00852186419069767,0.0053261648863554,0.012782796286046505
1772574359301785300,8.306785400390625,0.007456631399691105,0.0106523297727108,0.0159784946590662
1772574359311715300,8.31671533203125,0.0063913981430232525,0.01491326279938221,0.01704372838139534
1772574359321676800,8.3266767578125,0.0053261648863554,0.01704372838139534,0.01171756349503994
1772574359331609900,8.33660986328125,0.0031956990715116262,0.012782796286046505,0.0021304660476744175
1772574359341538600,8.34653857421875,0.0021304660476744175,0.0063913981430232525,-0.007456631399691105
1772574359351471400,8.356471435546876,-0.0021304660476744175,0.004260932095348835,-0.01704372838139534
1772574359361413600,8.36641357421875,-0.0053261648863554,0.0021304660476744175,-0.0213046595454216
1772574359371347500,8.376347412109375,-0.0063913981430232525,-0.0031956990715116262,-0.01810896210372448
1772574359381266700,8.3862666015625,-0.0053261648863554,-0.004260932095348835,-0.004260932095348835
1772574359391199000,8.396198974609375,-0.0053261648863554,-0.0021304660476744175,0.01384802907705307
1772574359401141200,8.406141357421875,-0.0053261648863554,0.0021304660476744175,0.02769605815410614
1772574359411074600,8.416074462890625,-0.0053261648863554,0.0031956990715116262,0.03408745676279068
1772574359421009000,8.4260087890625,-0.00852186419069767,0.004260932095348835,0.02876129187643528
1772574359430942200,8.435942138671875,-0.009587096981704235,0.00852186419069767,0.0159784946590662
1772574359440859400,8.445859375,-0.007456631399691105,0.009587096981704235,0
1772574359450791200,8.455791259765626,-0.007456631399691105,0.0053261648863554,-0.012782796286046505
1772574359460728300,8.465728271484375,-0.0063913981430232525,0.0010652330238372087,-0.02023942768573761
1772574359470660900,8.475660888671875,-0.0053261648863554,0,-0.02450035884976387
1772574359480603100,8.48560302734375,-0.004260932095348835,0.004260932095348835,-0.02343512699007988
1772574359490536400,8.495536376953124,-0.0031956990715116262,0.007456631399691105,-0.02343512699007988
1772574359500453600,8.50545361328125,-0.0021304660476744175,0.009587096981704235,-0.02023942768573761
1772574359510385200,8.51538525390625,-0.0021304660476744175,0.01384802907705307,-0.01917419396340847
1772574359520324900,8.525324951171875,-0.0010652330238372087,0.01491326279938221,-0.02023942768573761
1772574359530257200,8.535257080078125,0.0010652330238372087,0.01810896210372448,-0.02343512699007988
1772574359540191000,8.54519091796875,0.0021304660476744175,0.0213046595454216,-0.02769605815410614
1772574359550123500,8.55512353515625,0.0021304660476744175,0.02236989326775074,-0.0319569893181324
1772574359560047600,8.565047607421874,0.0031956990715116262,0.01810896210372448,-0.03834838792681694
1772574359569979100,8.574979248046875,0.0031956990715116262,0.01704372838139534,-0.04047885537147522
1772574359579916300,8.584916259765626,0.0031956990715116262,0.01704372838139534,-0.03621792420744896
1772574359589848300,8.594848388671876,0.0063913981430232525,0.0213046595454216,-0.02236989326775074
1772574359599780600,8.604780517578124,0.0063913981430232525,0.0213046595454216,-0.009587096981704235
1772574359609713000,8.614712890625,0.0063913981430232525,0.012782796286046505,0.0021304660476744175
1772574359619611600,8.624611572265625,0.00852186419069767,0.009587096981704235,0.009587096981704235
1772574359629540600,8.63454052734375,0.007456631399691105,0.009587096981704235,0.01171756349503994
1772574359639489300,8.6444892578125,0.004260932095348835,0.0106523297727108,0.0106523297727108
1772574359649420300,8.654420166015624,0.0031956990715116262,0.01384802907705307,0.007456631399691105
1772574359659360300,8.6643603515625,0.0053261648863554,0.01704372838139534,0.0010652330238372087
1772574359669292000,8.6742919921875,0.004260932095348835,0.01917419396340847,-0.004260932095348835
1772574359679221800,8.6842216796875,0.0021304660476744175,0.01810896210372448,-0.00852186419069767
1772574359689153300,8.6941533203125,0.0021304660476744175,0.0159784946590662,-0.01384802907705307
1772574359699082500,8.70408251953125,0.0031956990715116262,0.0159784946590662,-0.0159784946590662
1772574359709014000,8.714013916015626,0.0031956990715116262,0.01810896210372448,-0.02023942768573761
1772574359718945000,8.723945068359376,0.0031956990715116262,0.0213046595454216,-0.02556559257209301
1772574359728876500,8.73387646484375,0.0031956990715116262,0.01917419396340847,-0.02876129187643528
1772574359738819300,8.7438193359375,0.004260932095348835,0.01384802907705307,-0.02876129187643528
1772574359748752000,8.753751953125,0.007456631399691105,0.01491326279938221,-0.02236989326775074
1772574359758680600,8.7636806640625,0.009587096981704235,0.01171756349503994,-0.01171756349503994
1772574359768612600,8.773612548828124,0.009587096981704235,0.00852186419069767,-0.0021304660476744175
1772574359778544400,8.78354443359375,0.009587096981704235,0.007456631399691105,0.004260932095348835
1772574359788476400,8.793476318359374,0.012782796286046505,0.00852186419069767,0.01491326279938221
1772574359798404400,8.803404296875,0.01384802907705307,0.007456631399691105,0.02343512699007988
1772574359808336100,8.813336181640626,0.01384802907705307,0.00852186419069767,0.02663082629442215
1772574359818301400,8.823301513671876,0.012782796286046505,0.0106523297727108,0.02236989326775074
1772574359828236500,8.833236572265625,0.012782796286046505,0.0063913981430232525,0.01704372838139534
1772574359838162700,8.84316259765625,0.009587096981704235,0.0053261648863554,0.0159784946590662
1772574359848097000,8.853096923828126,0.009587096981704235,0.007456631399691105,0.0213046595454216
1772574359858024000,8.86302392578125,0.009587096981704235,0.0106523297727108,0.02769605815410614
1772574359867957200,8.872957275390625,0.009587096981704235,0.009587096981704235,0.02876129187643528
1772574359877889800,8.882889892578126,0.00852186419069767,0.007456631399691105,0.02556559257209301
1772574359887823000,8.892822998046874,0.009587096981704235,0.0063913981430232525,0.02236989326775074
1772574359897755600,8.902755615234375,0.009587096981704235,0.00852186419069767,0.01491326279938221
1772574359907689000,8.91268896484375,0.0106523297727108,0.00852186419069767,0.0053261648863554
1772574359917617700,8.92261767578125,0.0106523297727108,0.0063913981430232525,-0.0031956990715116262
1772574359927550500,8.932550537109375,0.007456631399691105,0.00852186419069767,-0.01171756349503994
1772574359937494800,8.942494873046876,0.0053261648863554,0.01491326279938221,-0.01704372838139534
1772574359947428900,8.952428955078124,0.0053261648863554,0.01704372838139534,-0.01917419396340847
1772574359957349400,8.962349365234376,0.0053261648863554,0.012782796286046505,-0.01384802907705307
1772574359967282000,8.972281982421874,0.009587096981704235,0.012782796286046505,-0.004260932095348835
1772574359977197800,8.98219775390625,0.0106523297727108,0.0213046595454216,0.0053261648863554
1772574359987119400,8.992119384765624,0.0106523297727108,0.02663082629442215,0.01810896210372448
1772574359997054700,9.0020546875,0.01171756349503994,0.02769605815410614,0.02450035884976387
1772574360006987500,9.011987548828126,0.012782796286046505,0.0213046595454216,0.02876129187643528
1772574360036773000,9.041773193359376,0.0106523297727108,0.0053261648863554,0.0426093190908432
1772574360046711000,9.0517109375,0.012782796286046505,0.0063913981430232525,0.04154408723115921
1772574360056643800,9.061643798828126,0.012782796286046505,0.0063913981430232525,0.03408745676279068
1772574360066595000,9.071594970703124,0.012782796286046505,0.009587096981704235,0.02982652559876442
1772574360076530000,9.081530029296875,0.01171756349503994,0.01171756349503994,0.0319569893181324
1772574360086427600,9.091427734375,0.00852186419069767,0.00852186419069767,0.03621792420744896
1772574360096362500,9.101362548828124,0.00852186419069767,-0.0010652330238372087,0.04473978653550148
1772574360106333000,9.1113330078125,0.0021304660476744175,0.02876129187643528,0.05006595328450203
1772574360116270600,9.1212705078125,-0.004260932095348835,0.03834838792681694,0.03834838792681694
1772574360126169000,9.131169189453125,-0.007456631399691105,0.01384802907705307,0.02236989326775074
1772574360136103000,9.14110302734375,-0.007456631399691105,0.0106523297727108,0.0106523297727108
1772574360146028300,9.1510283203125,-0.01384802907705307,0.01810896210372448,0.00852186419069767
1772574360155961000,9.160961181640625,-0.02023942768573761,0.01704372838139534,0.0021304660476744175
1772574360165927200,9.17092724609375,-0.02450035884976387,0.012782796286046505,-0.0063913981430232525
1772574360175863600,9.180863525390626,-0.02556559257209301,0.01171756349503994,-0.01171756349503994
1772574360185756200,9.190756103515625,-0.02450035884976387,0.009587096981704235,-0.009587096981704235
1772574360195688200,9.200688232421875,-0.02343512699007988,0.0063913981430232525,0
1772574360205660400,9.210660400390625,-0.02236989326775074,0.0063913981430232525,0.0053261648863554
1772574360215596300,9.22059619140625,-0.02343512699007988,0.009587096981704235,0.009587096981704235
1772574360225516300,9.230516357421875,-0.02236989326775074,0.0106523297727108,0.012782796286046505
1772574360235450600,9.24045068359375,-0.02343512699007988,0.01810896210372448,0.01491326279938221
1772574360245367600,9.250367431640624,-0.02876129187643528,0.05432688444852829,0.03834838792681694
1772574360255300000,9.260300048828125,-0.03941362351179123,0.06817491352558136,0.06924014538526535
1772574360265245000,9.270244873046876,-0.03941362351179123,0.04793548583984375,0.07350108027458191
1772574360275178800,9.2801787109375,-0.03089175745844841,0.03728315606713295,0.06178351491689682
1772574360285103400,9.290103271484375,-0.03302222490310669,0.01704372838139534,0.05219641700387001
1772574360295036200,9.3000361328125,-0.03621792420744896,0.0010652330238372087,0.04047885537147522
1772574360304974800,9.309974853515625,-0.03408745676279068,-0.0031956990715116262,0.02450035884976387
1772574360314908200,9.319908203125,-0.03089175745844841,-0.009587096981704235,0.0053261648863554
1772574360324834800,9.329834716796874,-0.03089175745844841,-0.02023942768573761,-0.012782796286046505
1772574360334767900,9.339767822265625,-0.0319569893181324,-0.02663082629442215,-0.02769605815410614
1772574360344702700,9.34970263671875,-0.03408745676279068,-0.03515268862247467,-0.04047885537147522
1772574360354635500,9.359635498046876,-0.03834838792681694,-0.05113118514418602,-0.05539211630821228
1772574360364554200,9.36955419921875,-0.0426093190908432,-0.05858781561255455,-0.06604444980621338
1772574360374483700,9.379483642578125,-0.0426093190908432,-0.04367455467581749,-0.06178351491689682
