time,seconds_elapsed,z,y,x
1772534349726882300,0.04588232421875,0.015986690297722816,0.011153052560985088,-0.12702585756778717
1772534349736899000,0.055899169921875,0.023541811853647232,0.005627259146422148,-0.11020772904157639
1772534349746915000,0.0659150390625,0.030603716149926186,0.0011659319279715419,-0.08895090967416763
1772534349756931000,0.07593115234375,0.03261972963809967,-0.0008815063047222793,-0.06512467563152313
1772534349766947300,0.085947265625,0.02442598156630993,0.002151035238057375,-0.04015247896313667
1772534349776963300,0.09596337890625,0.0177606213837862,0.0073234266601502895,-0.02034575119614601
1772534349786979000,0.10597900390625,0.008922122418880463,-0.0011230550007894635,-0.010240919888019562
1772534349796996000,0.11599609375,0.003808053908869624,-0.008224373683333397,0.0019502328941598535
1772534349807012000,0.12601220703125,0.007774299941956997,-0.006665891967713833,0.003608849598094821
1772534349817028400,0.1360283203125,0.0027443873696029186,0.0006064017652533948,-0.007005711551755667
1772534349827044400,0.14604443359375,-0.0041188448667526245,0.008224373683333397,-0.018215222284197807
1772534349837060000,0.15606005859375,-0.006425142288208008,0.007711981888860464,-0.037280794233083725
1772534349847076000,0.166076171875,-0.007440339308232069,0.006381732877343893,-0.041599374264478683
1772534349857093000,0.176093017578125,-0.004495149478316307,0.008047539740800858,-0.04002890735864639
1772534349867109000,0.186109130859375,0.002685797866433859,0.00381391285918653,-0.034873295575380325
1772534349877125400,0.19612548828125,0.01130991242825985,0.004092213232070208,-0.04213280603289604
1772534349887141000,0.20614111328125,0.020264258608222008,0.009411345236003399,-0.04974997788667679
1772534349897157000,0.2161572265625,0.022299978882074356,0.01631319336593151,-0.061939798295497894
1772534349907173000,0.226173095703125,0.022480009123682976,0.02304380014538765,-0.08132894337177277
1772534349917190100,0.236190185546875,0.021406754851341248,0.028750687837600708,-0.08344296365976334
1772534349927206400,0.246206298828125,0.02269572578370571,0.01751374639570713,-0.07221347838640213
1772534349937222100,0.25622216796875,0.02425447292625904,0.012376775033771992,-0.053105294704437256
1772534349947238100,0.266238037109375,0.025487516075372696,0.007056311704218388,-0.03436995670199394
1772534349957254100,0.276254150390625,0.023872576653957367,0.005196892656385899,-0.03020157851278782
1772534349967270100,0.286270263671875,0.018385665491223335,0.012414325028657913,-0.04150243476033211
1772534349977287200,0.296287109375,0.014509966596961021,0.024926122277975082,-0.056355152279138565
1772534349987303200,0.30630322265625,0.015381619334220886,0.036742303520441055,-0.07175914198160172
1772534349997319200,0.316319091796875,0.016112124547362328,0.043480630964040756,-0.08279527723789215
1772534350007335200,0.326335205078125,0.013949370943009853,0.03972317650914192,-0.088595911860466
1772534350017351200,0.33635107421875,0.023682959377765656,0.027999676764011383,-0.07501459121704102
1772534350027367200,0.3463671875,0.03171398863196373,0.008578307926654816,-0.060026053339242935
1772534350037384200,0.35638427734375,0.03947550430893898,-0.0006460828590206802,-0.04850388690829277
1772534350047400200,0.366400146484375,0.04073517769575119,-0.010725081898272038,-0.031431958079338074
1772534350057416200,0.376416259765625,0.037637390196323395,-0.01390010304749012,-0.013555755838751793
1772534350067432200,0.38643212890625,0.030556311830878258,-0.013402357697486877,0.0014820491196587682
1772534350077448200,0.3964482421875,0.02262408658862114,-0.01665993593633175,0.005909820552915335
1772534350087464200,0.406464111328125,0.013972008600831032,-0.011054781265556812,0.00404640706256032
1772534350097481200,0.416481201171875,0.005531918257474899,0.00006178533658385277,0.005584648810327053
1772534350107497200,0.426497314453125,0.001761148450896144,0.0038535939529538155,0.0031851406674832106
1772534350117513200,0.43651318359375,0.004110322799533606,0.004064250271767378,0.0008098672842606902
1772534350127529200,0.446529296875,0.004550809506326914,0.007632086984813213,0.004219778813421726
1772534350137545200,0.456545166015625,0.012317120097577572,0.001597363967448473,0.015091600827872753
1772534350147561000,0.46656103515625,0.0145259452983737,-0.0062216767109930515,0.028270786628127098
1772534350157578200,0.476578125,0.017538513988256454,-0.010452108457684517,0.0396382212638855
1772534350167594200,0.48659423828125,0.015299860388040543,-0.009772202931344509,0.05242326110601425
1772534350177610200,0.4966103515625,0.013586648739874363,-0.0163041390478611,0.06139598414301872
1772534350187626200,0.506626220703125,0.013966149650514126,-0.02185123600065708,0.06520084291696548
1772534350197642000,0.51664208984375,0.01577337086200714,-0.014899320900440216,0.060204483568668365
1772534350207658000,0.526657958984375,0.014123542234301567,-0.009550361894071102,0.046969905495643616
1772534350217675300,0.53667529296875,0.010462228208780289,-0.005720736458897591,0.02599857747554779
1772534350227691300,0.546691162109375,0.008340488187968731,-0.00390312890522182,0.011756258085370064
1772534350237707300,0.556707275390625,0.00806085579097271,-0.0003456783015280962,0.0016961672808974981
1772534350247723000,0.566722900390625,0.010135458782315254,-0.0022418489679694176,-0.0025153555907309055
1772534350257739000,0.576739013671875,0.00812344066798687,-0.004601942375302315,-0.0010362359462305903
1772534350267755300,0.58675537109375,0.011095793917775154,-0.006604905705899,0.0024019049014896154
1772534350277772300,0.596772216796875,0.011040134355425835,-0.00811944529414177,0.010494452901184559
1772534350287788000,0.6067880859375,0.013547766953706741,-0.00646562222391367,0.01618456281721592
1772534350297804000,0.616803955078125,0.014373079873621464,-0.002141714096069336,0.020116720348596573
1772534350307820000,0.626820068359375,0.013343501836061478,0.0073231603018939495,0.02442651242017746
1772534350317836300,0.636836181640625,0.009974869899451733,0.010252371430397034,0.031124895438551903
1772534350327852300,0.646852294921875,0.009678459726274014,0.004346811678260565,0.043358124792575836
1772534350337869000,0.656869140625,0.007215834688395262,-0.0014658038271591067,0.05899327993392944
1772534350347885000,0.666885009765625,0.004956675227731466,-0.0006673881434835494,0.07533443719148636
1772534350357901000,0.676901123046875,0.0025747441686689854,0.001891909632831812,0.08195105940103531
1772534350367917000,0.6869169921875,-0.0001560612436151132,-0.00008149272616719827,0.08513912558555603
1772534350377933300,0.696933349609375,-0.007771370466798544,0.005184642039239407,0.07747907936573029
1772534350387950000,0.7069501953125,-0.011432950384914875,0.013492372818291187,0.06412758678197861
1772534350397966000,0.716966064453125,-0.019242670387029648,0.018867431208491325,0.05132310837507248
1772534350407982000,0.726982177734375,-0.020871726796030998,0.02004348300397396,0.04252215847373009
1772534350417998000,0.736998046875,-0.01926504075527191,0.021976938471198082,0.035242144018411636
1772534350428013800,0.747013916015625,-0.018394187092781067,0.019193135201931,0.03045644238591194
1772534350438029800,0.75702978515625,-0.01595206931233406,0.018255969509482384,0.025289110839366913
1772534350448046800,0.767046875,-0.01254269015043974,0.01739949733018875,0.01872175559401512
1772534350458062800,0.777062744140625,-0.016230368986725807,0.02190423384308815,0.017736120149493217
1772534350468078800,0.787078857421875,-0.022101840004324913,0.0264169592410326,0.01660161279141903
1772534350478094800,0.7970947265625,-0.024474982172250748,0.027340544387698174,0.014492123387753963
1772534350488110800,0.80711083984375,-0.02659512497484684,0.022723155096173286,0.013658287934958935
1772534350498126800,0.817126953125,-0.02642388455569744,0.01992390677332878,0.01907063089311123
1772534350508143900,0.827143798828125,-0.024595357477664948,0.018095379695296288,0.014711035415530205
1772534350518160000,0.837159912109375,-0.027231354266405106,0.00875194650143385,-0.005243231542408466
1772534350528175900,0.84717578125,-0.031674571335315704,0.03111717291176319,-0.013739780522882938
1772534350538192000,0.85719189453125,-0.038480546325445175,0.043780501931905746,-0.028204739093780518
1772534350548207900,0.867207763671875,-0.040351152420043945,0.04926048964262009,-0.03740809112787247
1772534350558223600,0.8772236328125,-0.04080308973789215,0.05028660595417023,-0.031242074444890022
1772534350568241000,0.887240966796875,-0.036490365862846375,0.041005756705999374,-0.011948006227612495
1772534350578257000,0.8972568359375,-0.0338253416121006,0.03302932158112526,0.009957559406757355
1772534350588273000,0.90727294921875,-0.02942553348839283,0.027960527688264847,0.027165841311216354
1772534350598289000,0.917288818359375,-0.04408969730138779,0.048416536301374435,0.03332173824310303
1772534350608304600,0.9273046875,-0.06658115983009338,0.08289967477321625,0.03765976056456566
1772534350618321000,0.93732080078125,-0.08290740102529526,0.07027363032102585,0.022476546466350555
1772534350628338000,0.947337890625,-0.09071658551692963,0.07855020463466644,0.02648034319281578
1772534350638354000,0.95735400390625,-0.10064271837472916,0.07495573163032532,0.038491200655698776
1772534350648369700,0.96736962890625,-0.09631561487913132,0.06686584651470184,0.059603940695524216
1772534350658385700,0.9773857421875,-0.08876289427280426,0.04524550959467888,0.06745201349258423
1772534350668401700,0.987401611328125,-0.07419220358133316,0.0341063030064106,0.06809809058904648
1772534350678418000,0.99741796875,-0.07084354758262634,0.031624503433704376,0.050879959017038345
1772534350688435000,1.00743505859375,-0.06548100709915161,0.04801652953028679,0.046670299023389816
1772534350698450700,1.01745068359375,-0.06304421275854111,0.03605414181947708,0.0308066476136446
1772534350708466700,1.027466796875,-0.06170011684298515,0.04350060597062111,0.006962302140891552
1772534350718482700,1.037482666015625,-0.06108412519097328,0.03151052072644234,-0.027515780180692673
1772534350728499000,1.0474990234375,-0.05746329203248024,0.03340456262230873,-0.05776822566986084
1772534350738515000,1.057514892578125,-0.05636633560061455,0.034872230142354965,-0.08549359440803528
1772534350748531700,1.06753173828125,-0.048881787806749344,0.02239079214632511,-0.1027602031826973
1772534350758547700,1.077547607421875,-0.03995993360877037,0.016630375757813454,-0.1105283722281456
1772534350768563700,1.087563720703125,-0.03302080184221268,0.011549863032996655,-0.11568158864974976
1772534350778580000,1.097580078125,-0.030244454741477966,0.012106464244425297,-0.11587120592594147
1772534350788596000,1.107595947265625,-0.029711289331316948,0.019777964800596237,-0.1152765229344368
1772534350798612000,1.117612060546875,-0.03533029183745384,0.022962307557463646,-0.11315158754587173
1772534350808628700,1.127628662109375,-0.035899411886930466,0.01684555970132351,-0.10562390089035034
1772534350818644700,1.137644775390625,-0.036791302263736725,0.0129323098808527,-0.09522505104541779
1772534350828660700,1.14766064453125,-0.033014409244060516,0.005845638457685709,-0.0882723405957222
1772534350838677000,1.157677001953125,-0.02797277830541134,0.004683701321482658,-0.08417665958404541
1772534350848693000,1.16769287109375,-0.01919473335146904,0.0054613444954156876,-0.08594153821468353
1772534350858708700,1.177708740234375,-0.009468070231378078,-0.0021654162555933,-0.09446578472852707
1772534350868725800,1.187725830078125,-0.0010373012628406286,-0.001531850197352469,-0.10700048506259918
1772534350878741800,1.19774169921875,0.005135640036314726,0.0006178533658385277,-0.11742516607046127
1772534350888758000,1.207758056640625,0.008956210687756538,0.006616090890020132,-0.12732599675655365
1772534350898774000,1.21777392578125,0.011345066130161285,0.011386345140635967,-0.13123658299446106
1772534350908789800,1.227789794921875,0.018498582765460014,0.009740778245031834,-0.1259765774011612
1772534350918805800,1.2378056640625,0.02647528238594532,0.0016652746126055717,-0.11768535524606705
1772534350928822800,1.24782275390625,0.029576001688838005,0.00034674355993047357,-0.10974247753620148
1772534350938838800,1.2578388671875,0.03177470713853836,-0.003020557342097163,-0.11245916783809662
1772534350948855000,1.26785498046875,0.03196246176958084,-0.0008167914929799736,-0.11624991148710251
1772534350958870800,1.277870849609375,0.02708514779806137,0.0025885924696922302,-0.1140674501657486
1772534350968886800,1.28788671875,0.01816808432340622,0.002995523624122143,-0.1023189127445221
1772534350978902800,1.29790283203125,0.01275680772960186,0.001654622028581798,-0.08660093694925308
1772534350988919800,1.307919921875,0.007988151162862778,-0.01085690874606371,-0.07307127863168716
1772534350998936000,1.31793603515625,0.0054488275200128555,-0.02039368823170662,-0.07034367322921753
1772534351008951800,1.327951904296875,0.005574262235313654,-0.015662049874663353,-0.0789739117026329
1772534351018967800,1.3379677734375,0.0019038938917219639,-0.007424626965075731,-0.09244018793106079
1772534351028983800,1.34798388671875,0.0021587584633380175,-0.004211256746202707,-0.10427100956439972
1772534351038999800,1.357999755859375,0.007725297473371029,-0.00227860058657825,-0.11960761994123459
1772534351049016800,1.368016845703125,0.011388209648430347,-0.0004857605672441423,-0.1301465481519699
1772534351059032800,1.37803271484375,0.013710752129554749,-0.0008857673965394497,-0.13977734744548798
1772534351069048800,1.388048828125,0.012449745088815689,0.0010892328573390841,-0.1399560421705246
1772534351079064800,1.39806494140625,0.01594381220638752,0.0007693872321397066,-0.1349029541015625
1772534351089080800,1.408080810546875,0.016752881929278374,-0.0001549959706608206,-0.12089020013809204
1772534351099096800,1.418096923828125,0.015809323638677597,-0.0011209244839847088,-0.10602203756570816
1772534351109113900,1.42811376953125,0.013551495037972927,-0.0011438276851549745,-0.08842360228300095
1772534351119129900,1.4381298828125,0.011328288353979588,0.0021438447292894125,-0.07188111543655396
1772534351129145900,1.448145751953125,0.00917645450681448,0.0049161952920258045,-0.05303578823804855
1772534351139161900,1.458161865234375,0.0021664814557880163,0.0012354403734207153,-0.037333790212869644
1772534351149177900,1.468177734375,-0.003442934714257717,-0.0004058657505083829,-0.025716016069054604
1772534351159193900,1.47819384765625,-0.006615824531763792,0.001418932224623859,-0.01302365679293871
1772534351169211000,1.4882109375,-0.011521900072693825,0.00791544746607542,-0.010129866190254688
1772534351179227000,1.498226806640625,-0.018695123493671417,0.012773585505783558,-0.011441472917795181
1772534351189243000,1.508242919921875,-0.021316207945346832,0.016578443348407745,-0.011917912401258945
1772534351199259000,1.5182587890625,-0.019165970385074615,0.014853248372673988,-0.012722453102469444
1772534351209275000,1.52827490234375,-0.012792227789759636,0.003802461316809058,-0.016337428241968155
1772534351219290600,1.53829052734375,-0.007457649800926447,0.0018865832826122642,-0.024404408410191536
1772534351229308000,1.548307861328125,-0.003882089862599969,0.006707970052957535,-0.03461842983961105
1772534351239324000,1.558323974609375,-0.004708468914031982,0.01281433179974556,-0.041680335998535156
1772534351249340000,1.56833984375,-0.004621915984898806,0.015284148044884205,-0.04627828299999237
1772534351259356000,1.57835595703125,-0.006069610361009836,0.017732124775648117,-0.04808789864182472
1772534351269371600,1.58837158203125,-0.0025939189363271,0.008129831403493881,-0.040461938828229904
1772534351279388000,1.598387939453125,0.0031372036319226027,-0.00018881811411119998,-0.03519020974636078
1772534351289405000,1.608405029296875,0.010722152888774872,-0.007426224648952484,-0.026670226827263832
1772534351299421000,1.6184208984375,0.016500147059559822,-0.0044133905321359634,-0.027209782972931862
1772534351309436700,1.628436767578125,0.0186634324491024,0.005678924731910229,-0.03243090957403183
1772534351319452700,1.63845263671875,0.022191587835550308,0.011187673546373844,-0.0386778861284256
1772534351329468700,1.64846875,0.02184111624956131,0.019568907096982002,-0.04276024550199509
1772534351339485000,1.65848486328125,0.022292522713541985,0.027404725551605225,-0.040764473378658295
1772534351349502000,1.668501953125,0.014342986978590488,0.033897511661052704,-0.035111647099256516
1772534351359517700,1.678517578125,0.013941648416221142,0.038427017629146576,-0.025257952511310577
1772534351369533700,1.68853369140625,0.010281399823725224,0.031156055629253387,-0.008186290971934795
1772534351379549700,1.6985498046875,0.013431120663881302,0.016289224848151207,0.008287224918603897
1772534351389566000,1.70856591796875,0.015198926441371441,0.008021441288292408,0.022493857890367508
1772534351399582000,1.71858203125,0.02003069967031479,0.007721835747361183,0.033304162323474884
1772534351409598700,1.7285986328125,0.016175508499145508,0.01073786523193121,0.039618249982595444
1772534351419614700,1.73861474609375,0.004173705819994211,0.014022075571119785,0.04056606814265251
1772534351429630700,1.748630615234375,-0.007258711848407984,0.021250959485769272,0.039030224084854126
1772534351439646700,1.758646728515625,-0.016141684725880623,0.02238733135163784,0.03373505920171738
1772534351449662700,1.768662841796875,-0.023358318954706192,0.020554278045892715,0.025598837062716484
1772534351459678700,1.7786787109375,-0.027269704267382622,0.018690863624215126,0.016877783462405205
1772534351469695700,1.78869580078125,-0.025538649410009384,0.019085010513663292,0.008184959180653095
1772534351479711700,1.798711669921875,-0.021530326455831528,0.01877768151462078,0.00033688987605273724
1772534351489727700,1.808727783203125,-0.01715688221156597,0.014189855195581913,-0.004829642828553915
1772534351499743700,1.81874365234375,-0.01239088922739029,0.008206530474126339,-0.001142496126703918
1772534351509759700,1.828759765625,-0.009938650764524937,-0.002710299100726843,0.004764395300298929
1772534351519775700,1.838775634765625,-0.005702893249690533,-0.008316786028444767,0.00498144282028079
1772534351529791500,1.84879150390625,-0.008831041865050793,-0.010130397975444794,-0.0022623552940785885
1772534351539808800,1.858808837890625,-0.013997840695083141,-0.010153833776712418,-0.011833223514258862
1772534351549824800,1.86882470703125,-0.017054617404937744,-0.0046269758604466915,-0.024516794830560684
1772534351559840800,1.8788408203125,-0.022183598950505257,0.0028043086640536785,-0.03833726793527603
1772534351569856800,1.888856689453125,-0.01829192228615284,0.006898652296513319,-0.05083388462662697
1772534351579872500,1.89887255859375,-0.010297112166881561,-0.0025960493367165327,-0.05525926128029823
1772534351589889800,1.908889892578125,0.002968891989439726,-0.009376989677548409,-0.050808850675821304
1772534351599905800,1.91890576171875,0.007586280815303326,-0.005715409759432077,-0.040583111345767975
1772534351609921800,1.928921875,0.0008996158139780164,-0.0007728493656031787,-0.03255075216293335
1772534351619937500,1.9389375,-0.01332645770162344,-0.0032264196779578924,-0.033959563821554184
1772534351629953500,1.94895361328125,-0.02937466651201248,-0.008201470598578453,-0.019508186727762222
1772534351639969800,1.9589697265625,-0.03462136164307594,-0.012939766980707645,-0.0022101574577391148
1772534351649986800,1.96898681640625,-0.0350826196372509,-0.016833309084177017,0.01116024237126112
1772534351660002800,1.9790029296875,-0.02810034342110157,-0.014623151160776615,0.013205017894506454
1772534351670018600,1.9890185546875,-0.015717709437012672,-0.014445251785218716,0.01443965919315815
1772534351680034600,1.99903466796875,-0.0049071405082941055,-0.01665966957807541,0.010235060937702656
1772534351690050600,2.009050537109375,0.002901514060795307,-0.022113025188446045,0.00968458503484726
1772534351700066800,2.01906689453125,0.003777960315346718,-0.009530121460556984,0.0001930791768245399
1772534351710083800,2.029083740234375,0.001910019083879888,-0.007078682072460651,-0.006677876226603985
1772534351720099600,2.039099609375,0.005858155433088541,-0.014333399012684822,-0.005776130128651857
1772534351730115600,2.049115478515625,0.010106164030730724,-0.015809323638677597,0.0028269453905522823
1772534351740131600,2.059131591796875,0.006154831498861313,-0.019762253388762474,0.011995675973594189
1772534351750147800,2.06914794921875,0.0032384039368480444,-0.015125157311558723,0.015689481049776077
1772534351760163800,2.079163818359375,-0.002376604825258255,-0.00968698225915432,0.014667891897261143
1772534351770180600,2.0891806640625,-0.006547914352267981,-0.007966313511133194,0.01666180044412613
1772534351780196600,2.099196533203125,-0.004500742070376873,-0.007415572181344032,0.022956181317567825
1772534351790212600,2.109212646484375,-0.0013219931861385703,-0.014754978008568287,0.03687199577689171
1772534351800228600,2.119228515625,0.0018719359068199992,-0.02340598963201046,0.04472779110074043
1772534351810244900,2.129244873046875,0.001680987305007875,-0.02328881062567234,0.0480082705616951
1772534351820260900,2.1392607421875,-0.0017771273851394653,-0.02153964713215828,0.04459782689809799
1772534351830277600,2.149277587890625,-0.00875194650143385,-0.014156565070152283,0.03632631525397301
1772534351840293600,2.159293701171875,-0.01677844673395157,-0.009007875807583332,0.02653813362121582
1772534351850309600,2.1693095703125,-0.02273860201239586,-0.003946005832403898,0.02154497243463993
1772534351860326000,2.179325927734375,-0.021938588470220566,-0.0017688715597614646,0.019464511424303055
1772534351870342000,2.189341796875,-0.023133547976613045,-0.002975017298012972,0.01798192970454693
1772534351880357600,2.199357666015625,-0.017551563680171967,-0.009249424561858177,0.02010713331401348
1772534351890373600,2.20937353515625,-0.007072290405631065,-0.01452647801488638,0.017228255048394203
1772534351900390700,2.219390625,-0.0007379619055427611,-0.018192851915955544,0.017346233129501343
1772534351910407000,2.229406982421875,0.004463990684598684,-0.01607697084546089,0.016536099836230278
1772534351920423000,2.2394228515625,0.006142847239971161,-0.01812174543738365,0.016345949843525887
1772534351930438700,2.249438720703125,0.0067545752972364426,-0.015980830416083336,0.0177539624273777
1772534351940454700,2.25945458984375,0.008866994641721249,-0.011569570749998093,0.01588149555027485
1772534351950470700,2.269470703125,0.008531969040632248,-0.0064387246966362,0.010781008750200272
1772534351960487700,2.27948779296875,0.005944442003965378,-0.00672288378700614,0.011800467036664486
1772534351970503700,2.289503662109375,0.0052472264505922794,-0.006326605565845966,0.012593289837241173
1772534351980519700,2.299519775390625,0.0043308325111866,-0.009126919321715832,0.015426626428961754
1772534351990535700,2.30953564453125,0.0026173547375947237,-0.01272964384406805,0.019448531791567802
1772534352000551700,2.3195517578125,0.004550543148070574,-0.018974490463733673,0.022696522995829582
1772534352010567700,2.329567626953125,0.0008743157959543169,-0.020239224657416344,0.02532799355685711
1772534352020584700,2.339584716796875,-0.003824033075943589,-0.011969311162829399,0.026611370965838432
1772534352030600700,2.3496005859375,-0.01062148530036211,-0.011422031559050083,0.024636371061205864
1772534352040616700,2.35961669921875,-0.016164589673280716,-0.005714078433811665,0.019627230241894722
1772534352050632700,2.3696328125,-0.01823919080197811,-0.004327903036028147,0.015171229839324951
1772534352060648700,2.379648681640625,-0.013732057064771652,-0.002628007438033819,0.003066629869863391
1772534352070665500,2.38966552734375,-0.0091732582077384,-0.0032107068691402674,-0.004234426189213991
1772534352080681700,2.399681640625,-0.006849650293588638,-0.006557235028594732,-0.00848323293030262
1772534352090697700,2.40969775390625,0.0004713795206043869,-0.004099403973668814,-0.005797701422125101
1772534352100713700,2.419713623046875,0.003579288488253951,-0.007564176339656115,-0.0016530241118744016
1772534352110729700,2.429729736328125,0.0065508438274264336,-0.0011110707418993115,-0.004544684197753668
1772534352120745700,2.439745849609375,0.01170512568205595,0.0057593523524701595,-0.012436696328222752
1772534352130761700,2.44976171875,0.01841229759156704,-0.007911453023552895,-0.003245594445616007
1772534352140778800,2.45977880859375,0.021617144346237183,-0.023358851671218872,0.01786128804087639
1772534352150794800,2.469794677734375,0.021444838494062424,-0.02851579710841179,0.039139680564403534
1772534352160810800,2.479810791015625,0.019102055579423904,-0.027827635407447815,0.041544780135154724
1772534352170826800,2.48982666015625,0.016332367435097694,-0.01906477101147175,0.018311629071831703
1772534352180842800,2.4998427734375,0.013628194108605385,-0.006193447392433882,-0.015037006698548794
1772534352190858500,2.5098583984375,0.011001784354448318,0.011321630328893661,-0.04520529508590698
1772534352200875800,2.519875732421875,0.007506918627768755,0.015161375515162945,-0.0696435272693634
1772534352210891800,2.529891845703125,0.004347610287368298,0.004834169987589121,-0.07313359528779984
1772534352220907800,2.53990771484375,0.0012269183062016964,0.0031427964568138123,-0.054661113768815994
1772534352230923800,2.549923828125,-0.0022117553744465113,-0.005923402961343527,-0.02684652805328369
1772534352240939500,2.559939453125,-0.004024036228656769,-0.011455054394900799,-0.005516205448657274
1772534352250955800,2.569955810546875,-0.005167864263057709,-0.014027401804924011,0.007412376347929239
1772534352260972800,2.579972900390625,-0.001478320686146617,-0.02201661840081215,0.019713783636689186
1772534352270988800,2.58998876953125,0.0035177695099264383,-0.026794862002134323,0.03315182775259018
1772534352281004500,2.600004638671875,0.007290403358638287,-0.024627847597002983,0.0394749715924263
1772534352291020500,2.6100205078125,0.00603365758433938,-0.017703896388411522,0.03304556757211685
1772534352301036500,2.62003662109375,0.0026988473255187273,-0.0087205208837986,0.015343003906309605
1772534352311052800,2.630052734375,-0.0027446537278592587,0.0002921487612184137,-0.009504822082817554
1772534352321069800,2.64006982421875,-0.004376106429845095,0.005339371506124735,-0.03206499293446541
1772534352331085600,2.65008544921875,0.0004873584839515388,0.0020671456586569548,-0.044192761182785034
1772534352341101600,2.6601015625,0.004710599314421415,0.0012783173006027937,-0.04795074835419655
1772534352351117600,2.67011767578125,0.012447881512343884,-0.0017172062071040273,-0.044489435851573944
1772534352361133800,2.6801337890625,0.019123893231153488,-0.00370126124471426,-0.042758647352457047
1772534352371149800,2.69014990234375,0.019288210198283195,-0.013743508607149124,-0.0412619523704052
1772534352381166600,2.70016650390625,0.025553297251462936,-0.013395167887210846,-0.029809027910232544
1772534352391182600,2.7101826171875,0.025288844481110573,-0.01685141772031784,-0.02839915081858635
1772534352401198600,2.720198486328125,0.02502758800983429,-0.007896272465586662,-0.024996429681777954
1772534352411214600,2.730214599609375,0.022007031366229057,-0.010941064916551113,-0.023081883788108826
1772534352421230800,2.74023095703125,0.019037872552871704,-0.01005210168659687,-0.020020047202706337
1772534352431247400,2.750247314453125,0.01745329238474369,-0.013440707698464394,-0.011175422929227352
1772534352441264400,2.760264404296875,0.013461746275424957,-0.020289292559027672,-0.003891677362844348
1772534352451280400,2.7702802734375,0.004780640359967947,-0.017671937122941017,-0.007098655682057142
1772534352461296400,2.78029638671875,-0.004186222795397043,-0.004827245604246855,-0.018084194511175156
1772534352471312400,2.7903125,-0.01447135116904974,0.0019718045368790627,-0.029865220189094543
1772534352481328000,2.800328125,-0.019704196602106094,0.00364693277515471,-0.03928215801715851
1772534352491344100,2.81034423828125,-0.01853160560131073,0.0065447185188531876,-0.038783613592386246
1772534352501361400,2.820361328125,-0.014359498396515846,0.0054701329208910465,-0.04018976539373398
1772534352511377400,2.83037744140625,-0.007503456436097622,0.000018109494703821838,-0.03407381474971771
1772534352521393400,2.840393310546875,0.0028570392169058323,-0.010672084987163544,-0.024631310254335403
1772534352531409200,2.8504091796875,0.010932276025414467,-0.01708178222179413,-0.021586785092949867
1772534352541425200,2.860425048828125,0.013331517577171326,-0.014653511345386505,-0.01751321367919445
1772534352551441200,2.870441162109375,0.009436910971999168,-0.00951041467487812,-0.019773704931139946
1772534352561458400,2.88045849609375,0.0052051483653485775,-0.007308779284358025,-0.02225790172815323
1772534352571474400,2.890474365234375,-0.0036336169578135014,-0.000520647969096899,-0.023980965837836266
1772534352581490200,2.900490234375,-0.009436378255486488,0.005702626891434193,-0.023906664922833443
1772534352591506200,2.910506103515625,-0.012972258031368256,0.003965979442000389,-0.02598845772445202
1772534352601522200,2.920522216796875,-0.014896657317876816,0.0021915151737630367,-0.026744795963168144
1772534352611538400,2.930538330078125,-0.019389409571886063,-0.00207673292607069,-0.023901071399450302
1772534352621555500,2.940555419921875,-0.023384151980280876,0.003394465195015073,-0.019878899678587914
1772534352631571200,2.9505712890625,-0.028597289696335793,0.00629065278917551,-0.014079865999519825
1772534352641587200,2.960587158203125,-0.03467515483498573,0.0034671693574637175,-0.004766792058944702
1772534352651603200,2.970603271484375,-0.038599058985710144,0.005189169198274612,0.0025124261155724525
1772534352661619200,2.980619140625,-0.03804831579327583,0.008658469654619694,0.009376724250614643
1772534352671635500,2.990635498046875,-0.037575338035821915,0.008321313187479973,0.016322780400514603
1772534352681652200,3.00065234375,-0.02875628136098385,0.007929561659693718,0.027771709486842155
1772534352691668200,3.010668212890625,-0.02107039839029312,0.004193413536995649,0.03405570611357689
1772534352701684200,3.020684326171875,-0.011712316423654556,0.008636098355054855,0.03453853726387024
1772534352711700200,3.0307001953125,-0.006476275157183409,0.0082483422011137,0.034453049302101135
1772534352721716500,3.040716552734375,-0.0015590144321322441,0.0062613580375909805,0.034140925854444504
1772534352731732500,3.050732421875,0.0035694348625838757,0.00373028963804245,0.02834482304751873
1772534352741749200,3.060749267578125,0.00980416126549244,0.0005858954391442239,0.01714303344488144
1772534352751765200,3.07076513671875,0.010415889322757721,0.0010575412306934595,0.007195328362286091
1772534352761781200,3.08078125,0.00865926779806614,-0.0024437166284769773,0.005843508057296276
1772534352771797200,3.09079736328125,0.003974501509219408,-0.0004295678809285164,0.005269596818834543
1772534352781813500,3.1008134765625,-0.0005406216951087117,-0.0029968551825731993,0.0017771273851394653
1772534352791829200,3.110829345703125,-0.007457916159182787,0.0012066783383488655,-0.011571435257792473
1772534352801846300,3.12084619140625,-0.0140143521130085,0.0008247809601016343,-0.029100360348820686
1772534352811862300,3.1308623046875,-0.020603278651833534,0.0037702370900660753,-0.028481975197792053
1772534352821878300,3.140878173828125,-0.025486717000603676,0.006139385048300028,-0.01962004043161869
1772534352831894300,3.150894287109375,-0.030594127252697945,0.004461061209440231,-0.002835201332345605
1772534352841910300,3.16091015625,-0.03417954221367836,0.002764361212030053,0.005056543741375208
1772534352851926300,3.17092626953125,-0.03767680376768112,-0.0006274407496675849,0.00914289802312851
1772534352861943300,3.180943359375,-0.03975993022322655,0.001139566651545465,0.006602242588996887
1772534352871959300,3.190959228515625,-0.039981238543987274,0.00600409647449851,-0.0008948221220634878
1772534352881975300,3.200975341796875,-0.036544959992170334,0.0097423754632473,-0.010587929747998714
1772534352891991300,3.2109912109375,-0.031189877539873123,0.012895292602479458,-0.02454475685954094
1772534352902007300,3.22100732421875,-0.02328455075621605,0.012340822257101536,-0.03831649571657181
1772534352912023300,3.231023193359375,-0.011603126302361488,0.0062826634384691715,-0.04211842641234398
1772534352922040300,3.241040283203125,0.0017808558186516166,0.0026232136879116297,-0.03651007264852524
1772534352932056000,3.25105615234375,0.010583136230707169,0.0015094797126948833,-0.02082352340221405
1772534352942072300,3.261072265625,0.019992616027593613,-0.004896488040685654,-0.00512871565297246
1772534352952088300,3.27108837890625,0.024236097931861877,-0.006597449071705341,0.003148389048874378
1772534352962104300,3.281104248046875,0.023794278502464294,-0.00015472965606022626,0.0008857673965394497
1772534352972120300,3.291120361328125,0.020191287621855736,0.005539374891668558,-0.003629355924203992
1772534352982137000,3.30113720703125,0.021085310727357864,0.004448277875781059,-0.009939183481037617
1772534352992153300,3.3111533203125,0.019088473170995712,0.0016101471846923232,-0.011602060869336128
1772534353002169300,3.32116943359375,0.014885205775499344,0.010936536826193333,-0.015142467804253101
1772534353012185300,3.331185302734375,0.010965566150844097,0.01822507567703724,-0.02166694588959217
1772534353022201300,3.341201416015625,0.007960454560816288,0.015397331677377224,-0.02376631647348404
1772534353032217300,3.35121728515625,0.007985222153365612,0.012289157137274742,-0.015088938176631927
1772534353042233300,3.3612333984375,0.008376174606382847,0.009195628575980663,-0.003976099658757448
1772534353052250400,3.37125048828125,0.0034208304714411497,0.009605756029486656,0.002814162289723754
1772534353062266400,3.381266357421875,-0.0033513219095766544,0.012211658991873264,0.0026354643050581217
1772534353072282400,3.391282470703125,-0.009132511913776398,0.01636512391269207,-0.0008937568636611104
1772534353082298400,3.40129833984375,-0.01170645747333765,0.021989988163113594,0.00027750138542614877
1772534353092314400,3.411314453125,-0.010097641497850418,0.014525679871439934,0.009705624543130398
1772534353102330000,3.421330078125,-0.00746137835085392,0.011195928789675236,0.01852335035800934
1772534353112347400,3.431347412109375,-0.0034964641090482473,0.00902545265853405,0.02863377518951893
1772534353122363400,3.44136328125,-0.00043835630640387535,0.012532303109765053,0.02557353675365448
1772534353132379400,3.45137939453125,-0.0038535939529538155,0.016199477016925812,0.017358750104904175
1772534353142395100,3.46139501953125,-0.008816661313176155,0.014607438817620277,0.011463843286037445
1772534353152411100,3.4714111328125,-0.009578058496117592,0.013421266339719296,0.010281399823725224
1772534353162427100,3.48142724609375,-0.01022840291261673,0.014229269698262215,0.009122658520936966
1772534353172444400,3.4914443359375,-0.009218531660735607,0.009722935035824776,0.006473345682024956
1772534353182460400,3.50146044921875,-0.0008391620358452201,0.0016021577175706625,-0.0012876383261755109
1772534353192476200,3.51147607421875,0.005742574110627174,-0.0031497206073254347,-0.007072823122143745
1772534353202492200,3.5214921875,0.00996075477451086,-0.007252053823322058,-0.01708977110683918
1772534353212508200,3.531508056640625,0.00897059217095375,-0.011968512088060379,-0.024871794506907463
1772534353222524400,3.5415244140625,0.011898471042513847,-0.01546471007168293,-0.03111717291176319
1772534353232541400,3.55154150390625,0.013001286424696445,-0.02594291791319847,-0.03485199064016342
1772534353242557200,3.56155712890625,0.011714446358382702,-0.03368952125310898,-0.038178011775016785
1772534353252573200,3.5715732421875,0.006672017276287079,-0.03585893288254738,-0.04611583054065704
1772534353262589200,3.581589111328125,0.0028810077346861362,-0.03791062906384468,-0.058880627155303955
1772534353272605200,3.591605224609375,0.005334045272320509,-0.0408204011619091,-0.07379806041717529
1772534353282621400,3.601621337890625,0.007889348082244396,-0.03833407163619995,-0.08610239624977112
1772534353292638200,3.61163818359375,0.011008176021277905,-0.043540552258491516,-0.0897514596581459
1772534353302654200,3.621654296875,0.01296373549848795,-0.04050428420305252,-0.09086066484451294
1772534353312670200,3.631670166015625,0.00926300697028637,-0.02834242582321167,-0.0869295746088028
1772534353322686200,3.641686279296875,0.0009137305896729231,-0.018669558688998222,-0.08191324025392532
1772534353332702500,3.651702392578125,-0.0060357884503901005,-0.008026234805583954,-0.07258818298578262
1772534353342718500,3.661718505859375,-0.012271313928067684,-0.0016109461430460215,-0.06539738178253174
1772534353352735200,3.6717353515625,-0.01272937748581171,-0.0008969526388682425,-0.04995530843734741
1772534353362751200,3.681751220703125,-0.012810337357223034,-0.0054389736615121365,-0.028010062873363495
1772534353372767200,3.691767333984375,-0.010851848870515823,-0.01131257601082325,-0.00953677948564291
1772534353382783200,3.701783203125,-0.010919226333498955,-0.010362093336880207,-0.0031462584156543016
1772534353392799500,3.711799560546875,-0.014071344397962093,-0.0068144965916872025,-0.010055030696094036
1772534353402815200,3.721815185546875,-0.018786471337080002,-0.002954510971903801,-0.025116005912423134
1772534353412832300,3.731832275390625,-0.020418189465999603,0.011573831550776958,-0.04264786094427109
1772534353422848300,3.74184814453125,-0.037037644535303116,0.03881530463695526,-0.062137406319379807
1772534353432863700,3.75186376953125,-0.04496268182992935,0.03236246854066849,-0.060376256704330444
1772534353442879700,3.761879638671875,-0.047747280448675156,0.03797135129570961,-0.0507689043879509
1772534353452896000,3.77189599609375,-0.04940563440322876,0.018699651584029198,-0.02965456433594227
1772534353462911700,3.781911865234375,-0.04291071370244026,0.007508249953389168,-0.0013435647124424577
1772534353472928800,3.7919287109375,-0.04539038613438606,0.00461685610935092,0.017581390216946602
1772534353482944800,3.80194482421875,-0.04228007793426514,-0.010904845781624317,0.030970964580774307
1772534353492960800,3.811960693359375,-0.034996334463357925,-0.009866212494671345,0.0303813423961401
1772534353502976800,3.821976806640625,-0.03906617686152458,-0.006266417913138866,0.01979341171681881
1772534353512992800,3.83199267578125,-0.03442934527993202,-0.004720453172922134,0.001758218975737691
1772534353523008800,3.8420087890625,-0.02726384438574314,-0.003215500619262457,-0.020667461678385735
1772534353533025800,3.85202587890625,-0.01865544356405735,-0.006350839976221323,-0.04366598650813103
1772534353543041800,3.862041748046875,-0.0024205471854656935,-0.01480531133711338,-0.05649683251976967
1772534353553057800,3.872057861328125,0.007541006896644831,-0.020422717556357384,-0.06569459289312363
1772534353563073800,3.88207373046875,0.019147595390677452,-0.027897145599126816,-0.06982169300317764
1772534353573089800,3.89208984375,0.026221217587590218,-0.02881886437535286,-0.07142437994480133
1772534353583105800,3.902105712890625,0.02821645699441433,-0.02720312587916851,-0.07733819633722305
1772534353593121800,3.912121826171875,0.031802669167518616,-0.019057847559452057,-0.0811220183968544
1772534353603138600,3.922138671875,0.03738465532660484,-0.004481833893805742,-0.0825185775756836
1772534353613154800,3.93215478515625,0.039867520332336426,0.00458676228299737,-0.07237406820058823
1772534353623170800,3.9421708984375,0.040643565356731415,0.00833569373935461,-0.04440687969326973
1772534353633186800,3.952186767578125,0.0356149859726429,0.0065527078695595264,-0.000005060006060375599
1772534353643202800,3.962202880859375,0.028773058205842972,-0.0001294296234846115,0.0443355068564415
1772534353653218800,3.97221875,0.016656475141644478,0.003123888047412038,0.07521885633468628
1772534353663235800,3.98223583984375,0.0006021407316438854,0.006295179948210716,0.08795835077762604
1772534353673251800,3.992251953125,-0.01398532371968031,0.02678181231021881,0.09251262247562408
1772534353683267800,4.002267822265625,-0.02605610154569149,0.03839985281229019,0.08752398937940598
1772534353693283800,4.012283935546875,-0.03376488760113716,0.04694726690649986,0.0827939510345459
1772534353703299800,4.0222998046875,-0.03955273702740669,0.05221713334321976,0.08425495773553848
1772534353713315800,4.03231591796875,-0.04432911425828934,0.04963492974638939,0.08727258443832397
1772534353723332900,4.042332763671875,-0.04753929004073143,0.034028008580207825,0.08857407420873642
1772534353733348900,4.052348876953125,-0.04512752965092659,0.017051421105861664,0.08593355119228363
1772534353743364900,4.06236474609375,-0.04416719451546669,0.01811029389500618,0.07202386111021042
1772534353753380900,4.072380859375,-0.04511075094342232,0.02051885798573494,0.054487209767103195
1772534353763396900,4.08239697265625,-0.0430675745010376,0.025974875316023827,0.03567437455058098
1772534353773412600,4.09241259765625,-0.03648237884044647,0.027642279863357544,0.02033776231110096
1772534353783430000,4.102429931640625,-0.030366428196430206,0.02358788438141346,0.008075503632426262
1772534353793446000,4.11244580078125,-0.023743413388729095,0.020241089165210724,0.006441654171794653
1772534353803462000,4.1224619140625,-0.014509167522192001,0.016528110951185226,0.006251237820833921
1772534353813477600,4.1324775390625,-0.0037023264449089766,0.013158945366740227,0.003251453395932913
1772534353823493600,4.14249365234375,0.006499710958451033,0.01410756353288889,-0.004852013196796179
1772534353833509600,4.152509521484375,0.014458035118877888,0.01751640997827053,-0.016319850459694862
1772534353843527000,4.16252685546875,0.01757153682410717,0.031981635838747025,-0.018859442323446274
1772534353853543000,4.17254296875,0.019841881468892097,0.031800806522369385,-0.0011824434623122215
1772534353863558700,4.18255859375,0.019145730882883072,0.027775172144174576,0.024630777537822723
1772534353873574700,4.19257470703125,0.02166960947215557,0.018746523186564445,0.05627312511205673
1772534353883590700,4.202590576171875,0.024158332496881485,0.01558455266058445,0.07675523310899734
1772534353893607000,4.21260693359375,0.028727252036333084,0.016034893691539764,0.07979123294353485
1772534353903624000,4.2226240234375,0.03067961521446705,0.019636020064353943,0.07982639223337173
1772534353913639700,4.2326396484375,0.03145592659711838,0.02851180173456669,0.07366064190864563
1772534353923655700,4.24265576171875,0.02953418903052807,0.029984263703227043,0.06860409677028656
1772534353933671700,4.252671630859375,0.028932848945260048,0.03075205348432064,0.07029174268245697
1772534353943687700,4.262687744140625,0.026440128684043884,0.029628464952111244,0.06930956244468689
1772534353953704000,4.272703857421875,0.02257135510444641,0.02347656339406967,0.0616934560239315
1772534353963720700,4.282720703125,0.01841309480369091,0.020370252430438995,0.05136518552899361
1772534353973736700,4.29273681640625,0.011504056863486767,0.02520788460969925,0.029746709391474724
1772534353983752700,4.302752685546875,0.0017675400013104081,0.02942926064133644,0.012911537662148476
1772534353993768700,4.312768798828125,-0.005851497408002615,0.026166357100009918,0.005233644042164087
1772534354003785000,4.322784912109375,-0.0062576294876635075,0.02237880788743496,0.008070443756878376
1772534354013801000,4.332801025390625,-0.004373176954686642,0.014860705472528934,0.012396481819450855
1772534354023817700,4.342817626953125,-0.0071069118566811085,0.013889450579881668,0.013496633619070053
1772534354033833700,4.352833740234375,-0.014489194378256798,0.01690068654716015,0.0067569720558822155
1772534354043849700,4.362849609375,-0.021685587242245674,0.019033079966902733,0.0004753742541652173
1772534354053866000,4.372865966796875,-0.027043867856264114,0.019060775637626648,-0.006767092272639275
1772534354063882000,4.382882080078125,-0.027237480506300926,0.014088388532400131,-0.011383149772882462
1772534354073897700,4.392897705078125,-0.022764967754483223,0.005940979812294245,-0.014784272760152817
1772534354083914800,4.402914794921875,-0.018150774762034416,0.006917827297002077,-0.017953434959053993
1772534354093930800,4.4129306640625,-0.01582876406610012,0.005825398489832878,-0.020197946578264236
1772534354103946800,4.42294677734375,-0.015214372426271439,0.0070797475054860115,-0.02262062393128872
1772534354113963000,4.432962890625,-0.012614861130714417,0.010293384082615376,-0.02280784398317337
1772534354123978800,4.442978759765625,-0.009149289689958096,0.012887835502624512,-0.020721256732940674
1772534354133994800,4.452994873046875,-0.0035582494456321,0.008854477666318417,-0.017172595486044884
1772534354144010800,4.4630107421875,0.006967628374695778,0.005222725216299295,-0.01449771597981453
1772534354154027800,4.47302783203125,0.014202105812728405,0.004291151650249958,-0.014693991281092167
1772534354164043800,4.483043701171875,0.019782226532697678,0.00595536082983017,-0.016323845833539963
1772534354174059800,4.493059814453125,0.02268959954380989,0.00253426400013268,-0.008478705771267414
1772534354184075800,4.50307568359375,0.02341211587190628,-0.0012274509062990546,0.006353503558784723
1772534354194091800,4.513091796875,0.026261432096362114,-0.0036887445021420717,0.01685887575149536
1772534354204107800,4.523107666015625,0.0271471980959177,-0.002232261700555682,0.018069814890623093
1772534354214124800,4.533124755859375,0.02971928007900715,-0.0023643544409424067,0.009462743997573853
1772534354224140800,4.543140869140625,0.032467663288116455,0.0022919164039194584,-0.0016048208344727755
1772534354234156800,4.55315673828125,0.035899944603443146,0.005823001731187105,-0.01455657184123993
1772534354244172800,4.5631728515625,0.034816302359104156,0.010788998566567898,-0.017305487766861916
1772534354254188800,4.573188720703125,0.03194461762905121,0.004120176658034325,-0.01667059026658535
1772534354264204800,4.583204833984375,0.02947666496038437,0.00336197461001575,-0.014346182346343994
1772534354274221800,4.593221923828125,0.024631576612591743,0.000645550258923322,-0.009753560647368431
1772534354284237800,4.60323779296875,0.02044881507754326,-0.0039116512052714825,-0.010057960636913776
1772534354294253800,4.61325390625,0.017348896712064743,-0.006115949247032404,-0.011141334660351276
1772534354304269800,4.623269775390625,0.01828659512102604,-0.015424230135977268,-0.007727428339421749
1772534354314285800,4.633285888671875,0.023027820512652397,-0.024336498230695724,-0.0039017973467707634
1772534354324301800,4.6433017578125,0.022374281659722328,-0.022659240290522575,-0.017122527584433556
1772534354334318800,4.65331884765625,0.012978382408618927,-0.01203988492488861,-0.027667047455906868
1772534354344334800,4.6633349609375,0.0012341088149696589,-0.00697987899184227,-0.030780283734202385
1772534354354350800,4.673350830078125,-0.00316037330776453,-0.011380486190319061,-0.019770508632063866
1772534354364366800,4.683366943359375,0.00035233621019870043,-0.019703930243849754,-0.000660463934764266
1772534354374382800,4.6933828125,0.008715194649994373,-0.033486586064100266,0.01461729221045971
1772534354384398600,4.703398681640625,0.014632471837103367,-0.035540949553251266,0.021704763174057007
1772534354394415900,4.713415771484375,0.015087606385350227,-0.028734974563121796,0.025918150320649147
1772534354404432000,4.723431884765625,0.015223427675664425,-0.029770145192742348,0.02406778559088707
1772534354414447900,4.73344775390625,0.00652687530964613,-0.023207584396004677,0.011668107472360134
1772534354424464000,4.7434638671875,-0.007861118763685226,-0.008084291592240334,0.008534898981451988
1772534354434479600,4.753479736328125,-0.019305521622300148,0.000290018244413659,0.00603365758433938
1772534354444495600,4.76349560546875,-0.024996429681777954,0.0036709012929350138,0.007072290405631065
1772534354454512600,4.7735126953125,-0.024959944188594818,0.008305068127810955,0.00697854720056057
1772534354464529000,4.78352880859375,-0.020681310445070267,0.011653726920485497,0.004766525700688362
1772534354474544600,4.793544677734375,-0.01344603393226862,0.014406636357307434,0.008508000522851944
1772534354484560600,4.803560546875,-0.006163886282593012,0.01823386549949646,0.01506763231009245
1772534354494576600,4.81357666015625,0.0016636766958981752,0.01732226461172104,0.031250063329935074
1772534354504592600,4.823592529296875,0.0019686087034642696,0.014196512289345264,0.05197558179497719
1772534354514610000,4.83360986328125,0.001418932224623859,0.015903066843748093,0.07193757593631744
1772534354524625700,4.843625732421875,-0.003239202778786421,0.014546718448400497,0.0914715901017189
1772534354534641700,4.8536416015625,-0.00762915750965476,0.015664979815483093,0.10077454894781113
1772534354544657700,4.86365771484375,-0.008697351440787315,0.010972223244607449,0.09933271259069443
1772534354554673700,4.873673583984375,-0.00811971165239811,0.012313125655055046,0.08723370730876923
1772534354564689700,4.883689697265625,-0.003817375050857663,0.018549449741840363,0.05925773084163666
1772534354574705700,4.89370556640625,0.0010367685463279486,0.018424812704324722,0.02630777098238468
1772534354584722700,4.90372265625,0.008806274272501469,0.017184313386678696,0.0002926813904196024
1772534354594738700,4.91373876953125,0.011690211482346058,0.00941906776279211,-0.01860217936336994
1772534354604754700,4.923754638671875,0.015996810048818588,0.005142830312252045,-0.022578014060854912
1772534354614770700,4.933770751953125,0.01817634142935276,0.001764344167895615,-0.027396736666560173
1772534354624786700,4.94378662109375,0.014524614438414574,-0.0004308994684834033,-0.03485332056879997
1772534354634803000,4.953802978515625,0.013232448138296604,-0.0008988168556243181,-0.041006289422512054
1772534354644819700,4.96381982421875,0.011473963037133217,0.00042104575550183654,-0.036253079771995544
1772534354654835700,4.973835693359375,0.01121989730745554,-0.0006141249323263764,-0.02454928494989872
1772534354664851700,4.983851806640625,0.002211222657933831,-0.0038008634001016617,-0.010145578533411026
1772534354674867700,4.99386767578125,-0.012897422537207603,-0.000014114753867033869,0.012884639203548431
1772534354684883700,5.0038837890625,-0.028232170268893242,-0.0007811051327735186,0.03345862403512001
1772534354694899700,5.013899658203125,-0.04326464980840683,0.0007155913626775146,0.046544067561626434
1772534354704916700,5.023916748046875,-0.059590358287096024,0.0018274611793458462,0.04983013868331909
1772534354714932700,5.0339326171875,-0.0671103298664093,0.009957026690244675,0.03788452968001366
1772534354724948700,5.04394873046875,-0.067936971783638,0.01949806697666645,0.026754915714263916
1772534354734964700,5.05396484375,-0.059300873428583145,0.01420689933001995,0.021382786333560944
1772534354744980700,5.063980712890625,-0.041372738778591156,0.015681758522987366,0.01948368549346924
1772534354754996700,5.073996826171875,-0.02936001867055893,0.01549240667372942,0.019759323447942734
1772534354765013800,5.084013671875,-0.02430880069732666,0.018755577504634857,0.021615812554955482
1772534354775029800,5.09402978515625,-0.015634620562195778,0.021997710689902306,0.02082511968910694
1772534354785045500,5.10404541015625,-0.009312274865806103,0.017834125086665154,0.02786918170750141
1772534354795061800,5.114061767578125,0.0006894923863001168,0.015059909783303738,0.03220454230904579
1772534354805077800,5.124077880859375,0.015357384458184242,0.017673535272479057,0.028149612247943878
1772534354815093800,5.13409375,0.02978958748281002,0.01623835787177086,0.01954573765397072
1772534354825110800,5.14411083984375,0.04372937232255936,0.018313759937882423,0.013996242545545101
1772534354835126500,5.15412646484375,0.056771405041217804,0.013225790113210678,0.00899589154869318
1772534354845142500,5.164142578125,0.0620572455227375,0.008762865327298641,0.010484065860509872
1772534354855158800,5.17415869140625,0.05997944623231888,0.00803182739764452,0.012689962051808834
1772534354865174800,5.1841748046875,0.053105030208826065,0.01193921733647585,0.007993478327989578
1772534354875190800,5.194190673828125,0.04363296553492546,0.01696114055812359,-0.0005430185701698065
1772534354885207600,5.20420751953125,0.03541950881481171,0.01386707928031683,-0.00464641721919179
1772534354895223600,5.2142236328125,0.03136218339204788,0.013248161412775517,-0.0054664043709635735
1772534354905239800,5.22423974609375,0.0253415759652853,0.014127803035080433,-0.007731955498456955
1772534354915255800,5.234255859375,0.021457355469465256,0.008859803900122643,-0.014968562871217728
1772534354925271800,5.244271728515625,0.015385347418487072,0.00301709515042603,-0.005827795248478651
1772534354935287800,5.254287841796875,-0.00013369068619795144,0.006341785658150911,0.004166515544056892
1772534354945304600,5.2643046875,-0.018637333065271378,0.010907242074608803,0.007107177749276161
1772534354955320600,5.274320556640625,-0.03189162164926529,0.015594139695167542,0.004555603489279747
1772534354965336800,5.2843369140625,-0.034749191254377365,0.015121428295969963,0.004573446698486805
1772534354975352800,5.294352783203125,-0.030911309644579887,0.016712401062250137,0.012514193542301655
1772534354985368800,5.304368896484375,-0.022766033187508583,0.0124822361394763,0.020077837631106377
1772534354995384600,5.314384521484375,-0.019787820056080818,0.009917345829308033,0.020596887916326523
1772534355005401600,5.324401611328125,-0.018319617956876755,0.006987868342548609,0.021258950233459473
1772534355015417900,5.33441796875,-0.017470337450504303,0.001261539408005774,0.021039770916104317
1772534355025433900,5.344433837890625,-0.019573701545596123,0.0003328951424919069,0.0184027086943388
1772534355035449900,5.354449951171875,-0.018788069486618042,0.004087686073035002,0.004550276789814234
1772534355045465600,5.364465576171875,-0.011756790801882744,0.00446905056014657,-0.005488774739205837
1772534355055481600,5.374481689453125,-0.003553189570084214,0.003876497270539403,-0.01823679357767105
1772534355065497600,5.38449755859375,0.004874117206782103,0.009484848007559776,-0.028810875490307808
1772534355075515000,5.394514892578125,0.012189820408821106,0.010236924514174461,-0.02924656867980957
1772534355085531000,5.40453076171875,0.018094582483172417,0.014992797747254372,-0.02917812578380108
1772534355095546600,5.414546630859375,0.021802499890327454,0.018863968551158905,-0.024591362103819847
1772534355105562600,5.424562744140625,0.028967736288905144,0.015181349590420723,-0.02047145366668701
1772534355115578600,5.43457861328125,0.035656265914440155,0.00478383619338274,-0.013112073764204979
1772534355125594600,5.4445947265625,0.03803073987364769,0.002487925114110112,-0.0027425233274698257
1772534355135611600,5.454611572265625,0.03837775066494942,-0.0017688715597614646,0.0041462755762040615
1772534355145627600,5.464627685546875,0.03524240851402283,0.00007297061529243365,0.009335710667073727
1772534355155643600,5.4746435546875,0.027650536969304085,0.003942809998989105,0.007480819243937731
1772534355165659600,5.48465966796875,0.020134296268224716,0.007024087477475405,-0.0006860303110443056
1772534355175675600,5.494675537109375,0.015621569938957691,0.006115949247032404,-0.008530370891094208
1772534355185691600,5.504691650390625,0.010976751334965229,0.004752677399665117,-0.005596899427473545
1772534355195708700,5.514708740234375,0.009763414971530437,0.0016341155860573053,-0.00029640982393175364
1772534355205724700,5.524724609375,0.00809361319988966,-0.0012479572324082255,0.0022514364682137966
1772534355215740700,5.53474072265625,0.007193730678409338,-0.0020154803059995174,0.003823500359430909
1772534355225756700,5.544756591796875,0.004614192992448807,-0.004203533288091421,0.005841377656906843
1772534355235772700,5.554772705078125,0.0018761969404295087,-0.005368133541196585,0.009952499531209469
1772534355245789000,5.564788818359375,0.0025009745731949806,-0.00290391081944108,0.014060425572097301
1772534355255805700,5.5748056640625,0.008041947148740292,-0.006910636555403471,0.017659686505794525
1772534355265821700,5.58482177734375,0.017247695475816727,-0.005862150341272354,0.02292129397392273
1772534355275837700,5.594837646484375,0.024215590208768845,-0.0038780951872467995,0.01961258426308632
1772534355285853700,5.604853759765625,0.0363638661801815,-0.004321245010942221,0.015311045572161674
1772534355295870000,5.614869873046875,0.04544338211417198,-0.001740375766530633,0.008502674289047718
1772534355305885700,5.6248857421875,0.056590043008327484,0.004214984830468893,0.00013022858183830976
1772534355315902700,5.63490283203125,0.06339601427316666,0.004467186518013477,-0.0018133464036509395
1772534355325918700,5.644918701171875,0.07247500121593475,0.007858987897634506,-0.0030128341168165207
1772534355336560600,5.655560546875,0.08374576270580292,0.00947845634073019,0.0024823325220495462
1772534355346576600,5.66557666015625,0.09429294615983963,0.0004820321628358215,0.01326786819845438
1772534355356592600,5.675592529296875,0.10532961785793304,-0.008833439089357853,0.02381904609501362
1772534355366608600,5.685608642578125,0.10769850015640259,-0.0186019130051136,0.031921979039907455
1772534355376625700,5.695625732421875,0.10459484905004501,-0.014885205775499344,0.023979634046554565
1772534355386641700,5.7056416015625,0.0923328623175621,0.0005036037764512002,0.007505853194743395
1772534355396657700,5.71565771484375,0.07691235840320587,0.009751164354383945,-0.0065436530858278275
1772534355406673700,5.725673583984375,0.06887387484312057,0.00293347192928195,-0.010898187756538391
1772534355416689700,5.735689697265625,0.06380161643028259,0.0035782232880592346,-0.01702159456908703
1772534355426705700,5.74570556640625,0.05506192147731781,-0.004809668753296137,-0.01630094274878502
1772534355436722700,5.75572265625,0.04300658777356148,-0.009891779161989689,-0.015239406377077103
1772534355446738700,5.76573876953125,0.03226419538259506,-0.010270747356116772,-0.016577910631895065
1772534355456754700,5.775754638671875,0.017178719863295555,-0.010728011839091778,-0.021190505474805832
1772534355466770700,5.785770751953125,0.0012351741315796971,-0.0054605454206466675,-0.031315580010414124
1772534355476786700,5.79578662109375,-0.013026319444179535,0.0006639260682277381,-0.04424229636788368
1772534355486802700,5.805802734375,-0.019882095977663994,0.005244829226285219,-0.05061044543981552
1772534355496819700,5.81581982421875,-0.02749607339501381,0.010034524835646152,-0.05523689091205597
1772534355506835700,5.825835693359375,-0.028806613758206367,0.009295230731368065,-0.05465099588036537
1772534355516851700,5.835851806640625,-0.02503691054880619,0.003058640519157052,-0.047564588487148285
1772534355526867700,5.84586767578125,-0.018620556220412254,0.00033422670094296336,-0.03867628797888756
1772534355536883700,5.8558837890625,-0.013001818209886551,-0.001442900625988841,-0.03237045556306839
1772534355546899500,5.8658994140625,-0.009128251112997532,-0.0027507790364325047,-0.02930995263159275
1772534355556915700,5.875915771484375,-0.003943875432014465,0.001446096459403634,-0.024143951013684273
1772534355566932700,5.8859326171875,0.0016072177095338702,0.006124471314251423,-0.018439993262290955
1772534355576948700,5.89594873046875,0.007637413218617439,0.015282549895346165,-0.013604491949081421
1772534355586964500,5.905964599609375,0.006376406643539667,0.015350992791354656,-0.005279184319078922
1772534355596980500,5.91598046875,0.00706856232136488,0.01465697307139635,0.009252088144421577
1772534355606996700,5.925996826171875,0.0034144388046115637,0.006253635045140982,0.027272367849946022
1772534355617012700,5.9360126953125,0.001392300589941442,-0.00008309062832267955,0.03692685812711716
1772534355627029800,5.94602978515625,-0.0007121292874217033,0.00424268189817667,0.03945659473538399
1772534355637045500,5.95604541015625,0.00034594463068060577,0.0063095614314079285,0.037881068885326385
1772534355647061500,5.9660615234375,0.002290851203724742,0.0019166769925504923,0.03268524259328842
1772534355657077500,5.976077392578125,0.007409979589283466,-0.00606428412720561,0.02918052300810814
1772534355667093800,5.98609375,0.009841445833444595,-0.00803315918892622,0.026685407385230064
1772534355677109800,5.99610986328125,0.006563093978911638,-0.00893730204552412,0.01763039268553257
1772534355687126500,6.00612646484375,0.00004953479583491571,-0.007381217088550329,0.010491256602108479
1772534355697142500,6.016142578125,-0.003061569994315505,-0.012255334295332432,-0.0016844493802636862
1772534355707158500,6.026158447265625,-0.003951598424464464,-0.012833240441977978,-0.0179318618029356
1772534355717174800,6.0361748046875,-0.005357747431844473,-0.014757640659809113,-0.037507958710193634
1772534355727190800,6.046190673828125,-0.005200354848057032,-0.010040383785963058,-0.056720804423093796
1772534355737206800,6.056206787109375,-0.005423527676612139,-0.004004595335572958,-0.06794789433479309
1772534355747223600,6.0662236328125,-0.010290187783539295,0.0006447513005696237,-0.06564611941576004
1772534355757239600,6.076239501953125,-0.00842837244272232,-0.0074017234146595,-0.047873251140117645
1772534355767255800,6.086255859375,-0.0031092404387891293,-0.015331552363932133,-0.025141838937997818
1772534355777271800,6.096271728515625,-0.003876497270539403,-0.018764900043606758,-0.004240551497787237
1772534355787287800,6.106287841796875,-0.00663340138271451,-0.016392022371292114,0.012559201568365097
1772534355797303600,6.116303466796875,-0.012675048783421516,-0.016159795224666595,0.02473650500178337
1772534355807320600,6.126320556640625,-0.01635979861021042,-0.013978133909404278,0.02995816431939602
1772534355817336600,6.136336669921875,-0.020974790677428246,-0.007251787465065718,0.027000192552804947
1772534355827352800,6.146352783203125,-0.023926638066768646,0.0002892192860599607,0.017527595162391663
1772534355837368800,6.156368896484375,-0.023931432515382767,0.004350806120783091,0.009856359101831913
1772534355847384600,6.166384521484375,-0.02110981196165085,0.010629208758473396,0.006887467112392187
1772534355857400600,6.176400634765625,-0.01308384444564581,0.010402306914329529,0.002787264296784997
1772534355867417600,6.18641748046875,-0.007867776788771152,0.005682653281837702,0.00872105360031128
1772534355877433900,6.196433837890625,-0.004890629090368748,-0.0012405004817992449,0.014688931405544281
1772534355887449900,6.206449951171875,0.0016753945965319872,-0.006463491823524237,0.021579060703516006
1772534355897465600,6.216465576171875,0.0017531589837744832,-0.007278152741491795,0.018255703151226044
1772534355907481600,6.226481689453125,-0.0023821976501494646,-0.0033246902748942375,0.013366937637329102
1772534355917497600,6.23649755859375,-0.002948119305074215,-0.0057465690188109875,0.007968710735440254
1772534355927514600,6.2465146484375,-0.002058357233181596,-0.007271495182067156,0.005823534447699785
1772534355937531000,6.25653076171875,-0.0025507756508886814,-0.004221909213811159,0.0029670277144759893
1772534355947546600,6.266546630859375,-0.003525758860632777,-0.0038666436448693275,-0.005286374595016241
1772534355957562600,6.276562744140625,-0.003564907470718026,-0.004230697639286518,-0.01050350721925497
1772534355967578600,6.28657861328125,-0.00063383235828951,-0.006168413441628218,-0.01739417016506195
1772534355977594600,6.2965947265625,0.0020029633305966854,0.0019507654942572117,-0.019997144117951393
1772534355987611600,6.306611572265625,0.007469367701560259,-0.006898385938256979,-0.022527413442730904
1772534355997627600,6.316627685546875,0.012555738911032677,-0.012781841680407524,-0.023450730368494987
1772534356007643600,6.3266435546875,0.012447082437574863,-0.0022865901701152325,-0.017361680045723915
1772534356017659600,6.33665966796875,0.016385897994041443,-0.0025041704066097736,-0.007270962465554476
1772534356027675600,6.346675537109375,0.01900405064225197,-0.0046698530204594135,0.0003510046226438135
1772534356037691600,6.356691650390625,0.015933692455291748,-0.004593420308083296,0.004779042676091194
1772534356047708700,6.366708740234375,0.013676131144165993,-0.0009038768475875258,0.011111240833997726
1772534356057724700,6.376724609375,0.012967463582754135,-0.004231763072311878,0.014188789762556553
1772534356067740700,6.38674072265625,0.01305295154452324,0.0033270870335400105,0.00999111495912075
1772534356077756700,6.396756591796875,0.01318397931754589,0.009121060371398926,0.0007451524725183845
1772534356087772700,6.406772705078125,0.012886237353086472,0.008947688154876232,-0.010604707524180412
1772534356097788700,6.41678857421875,0.01677924580872059,0.011404987424612045,-0.020123910158872604
1772534356107804700,6.4268046875,0.013725665397942066,0.012060657143592834,-0.02064722217619419
1772534356117821700,6.43682177734375,0.012266253121197224,0.012085691094398499,-0.012113122269511223
1772534356127837700,6.446837646484375,0.01588043011724949,0.0010183927370235324,-0.002552906284108758
1772534356137853700,6.456853759765625,0.019723903387784958,-0.005942311137914658,0.007030212786048651
1772534356147869700,6.46686962890625,0.019878100603818893,-0.0070613715797662735,0.009721869602799416
1772534356157885400,6.476885498046875,0.018763568252325058,-0.005404885392636061,0.0006431533838622272
1772534356167901700,6.486901611328125,0.018615761771798134,0.00019867181254085153,-0.012210593558847904
1772534356177918700,6.496918701171875,0.016924921423196793,0.00771810719743371,-0.029439914971590042
1772534356187934700,6.506934814453125,0.01317998394370079,0.0046781087294220924,-0.038898129016160965
1772534356197950700,6.51695068359375,0.010525078512728214,0.003975566942244768,-0.03160959109663963
1772534356207966500,6.526966552734375,0.005194761790335178,-0.00003062635369133204,-0.016572318971157074
1772534356217982700,6.536982666015625,-0.008461128920316696,0.00012650014832615852,-0.00042290997225791216
1772534356227998700,6.546998779296875,-0.019122561439871788,-0.007733819540590048,0.009187106974422932
1772534356238015700,6.557015625,-0.022298114374279976,-0.009032909758388996,0.008066448383033276
1772534356248031700,6.56703173828125,-0.017361147329211235,-0.012854811735451221,0.0010157296201214194
1772534356258047500,6.577047607421875,-0.005366003140807152,-0.012211925350129604,-0.0044349622912704945
1772534356268063700,6.587063720703125,0.005467736162245274,-0.0020181434229016304,0.0016029566759243608
1772534356278079700,6.597079833984375,0.007617173250764608,-0.0021406488958746195,0.008815063163638115
1772534356288095700,6.607095703125,0.0003579288604669273,-0.0034234935883432627,0.018695389851927757
1772534356298112500,6.617112548828125,-0.011513111181557178,-0.0016205335268750787,0.02269359491765499
1772534356308128500,6.62712841796875,-0.024342091754078865,0.006901049055159092,0.016224509105086327
1772534356318144500,6.63714453125,-0.025788454338908195,0.01173468679189682,0.004806739278137684
1772534356328160800,6.647160888671875,-0.016680710017681122,0.013225258328020573,-0.0025864620693027973
1772534356338176800,6.6571767578125,-0.001674595638178289,0.014859906397759914,0.00008974852971732616
1772534356348192800,6.66719287109375,0.008801747113466263,0.011854794807732105,0.009430785663425922
1772534356358209500,6.67720947265625,0.013124590739607811,0.0076062544248998165,0.017790181562304497
1772534356368225500,6.6872255859375,0.012297678738832474,0.00839854497462511,0.028321653604507446
1772534356378241800,6.69724169921875,0.008924785070121288,0.010174340568482876,0.032526250928640366
1772534356388257800,6.7072578125,0.008012652397155762,0.004108725115656853,0.029638320207595825
1772534356398273800,6.717273681640625,0.004930043593049049,0.0014527543680742383,0.029023129492998123
1772534356408289800,6.727289794921875,0.006060821935534477,0.0026674221735447645,0.02588273026049137
1772534356418306600,6.737306640625,0.003413107246160507,-0.000025832661776803434,0.019149992614984512
1772534356428322800,6.74732275390625,0.004997155629098415,-0.00008948221511673182,0.00996075477451086
1772534356438338800,6.7573388671875,0.00427144393324852,0.003543868428096175,0.0011954930378124118
1772534356448354800,6.767354736328125,0.0038477350026369095,0.006539658177644014,-0.010807906277477741
1772534356458370600,6.77737060546875,0.0016860472969710827,0.009689112193882465,-0.01678617112338543
1772534356468386800,6.78738671875,-0.0012207929976284504,0.011210576631128788,-0.022403042763471603
1772534356478403800,6.79740380859375,-0.009351956658065319,0.011774367652833462,-0.027100859209895134
1772534356488419800,6.807419921875,-0.014672153629362583,0.012850284576416016,-0.02918425016105175
1772534356498435800,6.817435791015625,-0.014282000251114368,0.012235094793140888,-0.027158915996551514
1772534356508451600,6.82745166015625,-0.013953632675111294,0.009150621481239796,-0.03239309415221214
1772534356518467800,6.8374677734375,-0.014210627414286137,0.012282499112188816,-0.03207910805940628
1772534356528483800,6.84748388671875,-0.00948005449026823,0.01607697084546089,-0.034025344997644424
1772534356538500900,6.8575009765625,-0.0043718451634049416,0.01429291907697916,-0.03223996236920357
1772534356548516900,6.867516845703125,-0.003878894029185176,0.013610084541141987,-0.02959704026579857
1772534356558532600,6.87753271484375,0.0016871124971657991,0.0169675312936306,-0.025662219151854515
1772534356568548600,6.887548583984375,0.006713296286761761,0.01654116064310074,-0.017904432490468025
1772534356578564900,6.89756494140625,0.01068220566958189,0.017420269548892975,-0.0019350528018549085
1772534356588580900,6.907580810546875,0.011922439560294151,0.013001020066440105,0.011322429403662682
1772534356598598000,6.917597900390625,0.009779926389455795,0.002770752878859639,0.0236483383923769
1772534356608613600,6.927613525390625,0.009918410331010818,-0.00296250032261014,0.02725558914244175
1772534356618629600,6.937629638671875,0.011949869804084301,0.0005408879951573908,0.02424168959259987
1772534356628646000,6.94764599609375,0.0046549392864108086,0.00857564527541399,0.008673116564750671
1772534356638662000,6.957661865234375,0.0015422365395352244,0.020784640684723854,-0.011599131859838963
1772534356648678000,6.967677978515625,-0.0025752766523510218,0.025483522564172745,-0.032769665122032166
1772534356658694000,6.97769384765625,-0.005771336145699024,0.026129338890314102,-0.04579385370016098
1772534356668710700,6.987710693359375,-0.0054581486620008945,0.018133196979761124,-0.05067383125424385
1772534356678727000,6.997726806640625,0.00452790642157197,0.011392470449209213,-0.04278314858675003
1772534356688743000,7.007742919921875,0.017233049497008324,0.0062485747039318085,-0.032760877162218094
1772534356698759000,7.017759033203125,0.02317722514271736,0.0067753479816019535,-0.016682041808962822
1772534356708775000,7.02777490234375,0.022424882277846336,0.012577577494084835,-0.003849865635856986
1772534356718790700,7.037790771484375,0.008359395898878574,0.010289921425282955,-0.0006953513366170228
1772534356728807700,7.0478076171875,-0.0062488410621881485,0.007111971732228994,-0.0014679343439638615
1772534356738824000,7.057823974609375,-0.01555472519248724,0.0065282066352665424,-0.004702077247202396
1772534356748840000,7.06783984375,-0.016213057562708855,0.005942843854427338,-0.0033047166652977467
1772534356758856000,7.07785595703125,-0.010516556911170483,0.005134574603289366,0.0035332157276570797
1772534356768871700,7.08787158203125,-0.0032144354190677404,0.0009289105655625463,0.00705711031332612
1772534356778887700,7.0978876953125,0.00507092522457242,-0.0020090886391699314,0.010982343927025795
1772534356788905000,7.107905029296875,0.005402754992246628,0.0007209177128970623,0.010559167712926865
1772534356798921000,7.1179208984375,0.006590258330106735,0.004969458561390638,0.006434729788452387
1772534356808937000,7.12793701171875,0.00532552320510149,0.010208162479102612,0.0007241134881041944
1772534356818952700,7.13795263671875,-0.00006391586794052273,0.009615609422326088,-0.008489358238875866
1772534356828968700,7.14796875,-0.005007541738450527,0.008779909461736679,-0.015505989082157612
1772534356838984700,7.157984619140625,-0.008217450231313705,0.0034109766129404306,-0.018581939861178398
1772534356849002000,7.168001953125,-0.01128008496016264,-0.0028969866689294577,-0.02713068760931492
1772534356859017700,7.178017822265625,-0.012258530594408512,-0.0020567593164741993,-0.03732313588261604
1772534356869033700,7.18803369140625,-0.007795604877173901,-0.005007275380194187,-0.04628893360495567
1772534356879049700,7.1980498046875,-0.004531102254986763,-0.005856557283550501,-0.055027831345796585
1772534356889065700,7.208065673828125,0.0013909690314903855,-0.0019446401856839657,-0.05680016428232193
1772534356899081700,7.218081787109375,0.0062552327290177345,0.0023760723415762186,-0.047142479568719864
1772534356909098800,7.2280986328125,0.007685350254178047,0.007594802882522345,-0.02345845475792885
1772534356919114800,7.23811474609375,0.0034021881874650717,0.004929244983941317,-0.000012250540748937055
1772534356929130800,7.248130859375,-0.0028122980147600174,-0.0005917543894611299,0.009660616517066956
1772534356939146800,7.258146728515625,-0.007111971732228994,-0.004735899157822132,0.011797537095844746
1772534356949162800,7.268162841796875,-0.009672068059444427,-0.008988700807094574,0.006324208807200193
1772534356959178800,7.2781787109375,-0.008357532322406769,-0.008211856707930565,0.003849599277600646
1772534356969195800,7.28819580078125,-0.005270129535347223,-0.002831472782418132,0.0021675468888133764
1772534356979211800,7.298211669921875,0.0000029294772048160667,0.0016413062112405896,-0.0023497070651501417
1772534356989227800,7.308227783203125,0.0012535499408841133,0.0033044503070414066,-0.010697118937969208
1772534356999243800,7.318243896484375,0.0036301547661423683,0.00026285400963388383,-0.015419969335198402
1772534357009259800,7.328259765625,0.0024708807468414307,0.0017164073651656508,-0.01992284134030342
1772534357019275800,7.33827587890625,0.0021726067643612623,0.0039009982720017433,-0.0298489760607481
1772534357029292800,7.348292724609375,0.002174204681068659,0.002603772561997175,-0.0403791144490242
1772534357039308800,7.358308837890625,0.005106344819068909,0.00566827179864049,-0.050341732800006866
1772534357049324800,7.36832470703125,0.0087205208837986,-0.0003992078418377787,-0.05215587839484215
1772534357059340800,7.3783408203125,0.011402590200304985,-0.0032530513126403093,-0.05445897951722145
1772534357069356800,7.388356689453125,0.006024336442351341,-0.005564675200730562,-0.04707243666052818
1772534357079372800,7.398372802734375,-0.004357730504125357,-0.0024586303625255823,-0.03286899998784065
1772534357089388800,7.408388916015625,-0.018436264246702194,-0.0020764668006449938,-0.018158763647079468
1772534357099405800,7.41840576171875,-0.030004771426320076,-0.0023403859231621027,-0.0036389431916177273
1772534357109421800,7.428421875,-0.03616306558251381,-0.008101069368422031,0.009081379510462284
1772534357119437600,7.4384375,-0.034320421516895294,-0.00959936436265707,0.012643090449273586
1772534357129453800,7.448453857421875,-0.03267805278301239,-0.00923317950218916,0.007144462317228317
1772534357139469800,7.4584697265625,-0.02533172257244587,-0.005702893249690533,-0.00010918960470007733
1772534357149485800,7.46848583984375,-0.016932643949985504,-0.003169161733239889,-0.005107942968606949
1772534357159502800,7.4785029296875,-0.01209980621933937,-0.0010636665392667055,-0.004481301177293062
1772534357169518600,7.4885185546875,-0.009438775479793549,-0.000070307454734575,-0.009606022387742996
1772534357179534600,7.49853466796875,-0.011115501634776592,0.00472657848149538,-0.014972025528550148
1772534357189550800,7.50855078125,-0.011512046679854393,0.00827657151967287,-0.015489744022488594
1772534357199566800,7.51856689453125,-0.012153602205216885,0.009402556344866753,-0.01534912921488285
1772534357209582800,7.528582763671875,-0.008837433531880379,0.0038802255876362324,-0.013343501836061478
1772534357219599600,7.538599609375,0.0003733751946128905,-0.001383245806209743,-0.01507189404219389
1772534357229615600,7.54861572265625,0.011984757147729397,-0.009148224256932735,-0.015136342495679855
1772534357239632000,7.5586318359375,0.022781744599342346,-0.008681106381118298,-0.02058330550789833
1772534357249647900,7.56864794921875,0.033069003373384476,-0.019535085186362267,-0.021758824586868286
1772534357259664000,7.578663818359375,0.03879693150520325,-0.015556855127215385,-0.03177870064973831
1772534357269679900,7.588679931640625,0.03573882207274437,-0.011183678172528744,-0.04147021099925041
1772534357279696600,7.598696533203125,0.024040354415774345,-0.0041428133845329285,-0.05020511522889137
1772534357289713000,7.608712890625,0.007015565410256386,0.000853809411637485,-0.05524354800581932
1772534357299729000,7.61872900390625,-0.005338838789612055,0.0044469465501606464,-0.059971459209918976
1772534357309745000,7.628744873046875,-0.013144563883543015,0.007306382525712252,-0.05349358543753624
1772534357319761000,7.638760986328125,-0.020985443145036697,0.010148507542908192,-0.046055641025304794
1772534357329776600,7.648776611328125,-0.023851536214351654,0.003382480936124921,-0.02147652953863144
1772534357339793700,7.658793701171875,-0.021351894363760948,-0.006337524391710758,-0.001071123406291008
1772534357349810000,7.668809814453125,-0.014192784205079079,-0.012589295394718647,0.013937919400632381
1772534357359826000,7.678825927734375,-0.00957033596932888,-0.013137106783688068,0.02129463665187359
1772534357369842000,7.688842041015625,-0.0036424053832888603,-0.010094179771840572,0.016234364360570908
1772534357379857700,7.698857666015625,0.005879993550479412,-0.004433630499988794,0.005904760677367449
1772534357389873700,7.708873779296875,0.011519502848386765,-0.0013294500531628728,-0.0007691209320910275
1772534357399889700,7.7188896484375,0.017962222918868065,-0.0065292720682919025,-0.003623763332143426
1772534357409907000,7.728906982421875,0.021217137575149536,-0.009374327026307583,-0.009372728876769543
1772534357419923000,7.7389228515625,0.018500979989767075,-0.007260309532284737,-0.023634755983948708
1772534357429939500,7.748939453125,0.01956304907798767,-0.005948170088231564,-0.030525417998433113
1772534357439955500,7.75895556640625,0.025858495384454727,-0.00971467886120081,-0.03013473190367222
1772534357449971500,7.768971435546875,0.029575468972325325,-0.01751747541129589,-0.024027038365602493
1772534357459987700,7.77898779296875,0.036674123257398605,-0.017290040850639343,-0.017243435606360435
1772534357470004500,7.78900439453125,0.03171185776591301,-0.017251957207918167,-0.005603823345154524
1772534357480020500,7.7990205078125,0.024894697591662407,-0.01630573719739914,0.003555053612217307
1772534357490036500,7.809036376953125,0.01230460312217474,-0.012929380871355534,0.012036156840622425
1772534357500052500,7.819052490234375,0.0017526262672618032,-0.005793440621346235,0.02333861216902733
1772534357510068700,7.82906884765625,-0.006047772243618965,-0.004668787587434053,0.032525453716516495
1772534357520084700,7.839084716796875,-0.0070698936469852924,-0.007901332341134548,0.038187067955732346
1772534357530101500,7.8491015625,-0.0070283482782542706,-0.004323375876992941,0.043654534965753555
1772534357540117500,7.859117431640625,-0.0012253203894942999,-0.003023753175511956,0.04490835219621658
1772534357550133500,7.869133544921875,0.00504029868170619,-0.004721784498542547,0.05230741202831268
1772534357560149500,7.8791494140625,0.008356466889381409,-0.012505938299000263,0.06365727633237839
1772534357570165800,7.889165771484375,0.007713313214480877,-0.008448345586657524,0.06943713128566742
1772534357580181500,7.899181396484375,0.0026783409994095564,-0.0014998923288658261,0.06908372789621353
1772534357590198500,7.909198486328125,-0.0006024070316925645,0.0023105584550648928,0.05995041877031326
1772534357600214500,7.919214599609375,-0.0020003002136945724,0.0030929953791201115,0.0513947494328022
1772534357610230500,7.92923046875,-0.0026165556628257036,0.0038370825350284576,0.03724803775548935
1772534357620246500,7.93924658203125,-0.007525560446083546,0.0065590995363891125,0.023572437465190887
1772534357630262500,7.949262451171875,-0.012358665466308594,0.0070091737434268,0.018968097865581512
1772534357640278500,7.959278564453125,-0.015143533237278461,-0.0051809134893119335,0.02058037556707859
1772534357650295600,7.969295654296875,-0.013157613575458527,-0.019530823454260826,0.02623453363776207
1772534357660311600,7.9793115234375,-0.013281184248626232,-0.028261465951800346,0.028781579807400703
1772534357670327600,7.98932763671875,-0.015044462867081165,-0.026513632386922836,0.023327426984906197
1772534357680343600,7.999343505859375,-0.02309919334948063,-0.019889285787940025,0.01008219551295042
1772534357690359600,8.009359619140625,-0.03296167775988579,-0.00984277669340372,-0.008931709453463554
1772534357700375600,8.01937548828125,-0.04441673308610916,-0.002026133006438613,-0.027993284165859222
1772534357710391600,8.0293916015625,-0.05113082751631737,0.0004543352697510272,-0.048353683203458786
1772534357720408300,8.039408203125,-0.05224962159991264,-0.00108257494866848,-0.06012751907110214
1772534357730424600,8.049424560546875,-0.04878458380699158,-0.008190019056200981,-0.060935523360967636
1772534357740440600,8.059440673828124,-0.043404996395111084,-0.014875618740916252,-0.0532056987285614
1772534357750456600,8.06945654296875,-0.03621179983019829,-0.020305005833506584,-0.04241430386900902
1772534357760472600,8.07947265625,-0.029577067121863365,-0.025126924738287926,-0.03688664361834526
1772534357770488600,8.089488525390625,-0.024503478780388832,-0.02257242053747177,-0.03099759668111801
1772534357780505600,8.099505615234374,-0.020022710785269737,-0.01973588764667511,-0.028242290019989014
1772534357790521600,8.109521484375,-0.013215936720371246,-0.015507587231695652,-0.0333973728120327
1772534357800537600,8.11953759765625,-0.009108809754252434,-0.009973005391657352,-0.042155444622039795
1772534357810553600,8.1295537109375,-0.005594768561422825,-0.007012635935097933,-0.05245761573314667
1772534357820569600,8.139569580078126,-0.0001573928166180849,-0.002609098795801401,-0.056952230632305145
1772534357830585600,8.149585693359375,0.0028935244772583246,-0.004163319710642099,-0.057744789868593216
1772534357840602600,8.1596025390625,0.00621182331815362,-0.006964698899537325,-0.0527537576854229
1772534357850618600,8.16961865234375,0.009270197711884975,-0.015862585976719856,-0.044447094202041626
1772534357860634600,8.179634521484376,0.011900335550308228,-0.022671224549412727,-0.03267858549952507
1772534357870650600,8.189650634765625,0.01435097586363554,-0.024417458102107048,-0.019389409571886063
1772534357880666400,8.199666259765625,0.012425243854522705,-0.02341238223016262,-0.017415475100278854
1772534357890682400,8.209682373046874,0.010699782520532608,-0.016957145184278488,-0.015933426097035408
1772534357900699600,8.21969970703125,0.009925601072609425,-0.01038446370512247,-0.013610350899398327
1772534357910715600,8.229715576171875,0.009571666829288006,-0.006661897525191307,-0.013128585182130337
1772534357920731600,8.239731689453125,0.01056183036416769,0.003364371368661523,-0.011064901947975159
1772534357930747400,8.249747314453124,0.010253436863422394,0.0016817862633615732,0.0001968075957847759
1772534357940763400,8.259763427734375,0.007648864760994911,-0.007506652269512415,0.017050888389348984
1772534357950779400,8.269779296875,0.006866960786283016,-0.00827657151967287,0.029474003240466118
1772534357960796700,8.279796630859375,0.004910869058221579,-0.009105880744755268,0.041317347437143326
1772534357970812700,8.289812744140624,0.002820287598297,-0.00766005041077733,0.044677454978227615
1772534357980828400,8.299828369140625,0.0033875408116728067,-0.0028003137558698654,0.03957270830869675
1772534357990844400,8.309844482421875,0.003995806910097599,0.0006234460161067545,0.027588218450546265
1772534358000860400,8.3198603515625,0.0028162929229438305,0.005109274294227362,0.01477415207773447
1772534358010876700,8.329876708984376,-0.0002996056282427162,0.0099623529240489,0.00726377172395587
1772534358020893700,8.339893798828125,-0.00529569573700428,0.010391920804977417,-0.0051897019147872925
1772534358030909400,8.349909423828125,-0.011960255913436413,0.006095709279179573,-0.015252722427248955
1772534358040925400,8.359925537109374,-0.01696939580142498,0.007363906595855951,-0.01782400533556938
1772534358050941400,8.36994140625,-0.02442278526723385,0.009280583821237087,-0.0065050371922552586
1772534358060957400,8.37995751953125,-0.02142220176756382,-0.010417221114039421,0.017604026943445206
1772534358070973700,8.3899736328125,-0.015180550515651703,-0.01492222398519516,0.029151760041713715
1772534358080989700,8.39998974609375,-0.015230085700750351,-0.01506976317614317,0.03894633427262306
1772534358091006500,8.41000634765625,-0.015143533237278461,-0.007754858583211899,0.04104543849825859
1772534358101022500,8.4200224609375,-0.021281586959958076,0.00044048685231246054,0.035000596195459366
1772534358111038500,8.43003857421875,-0.02593120001256466,0.007898403331637383,0.02232368104159832
1772534358121054700,8.4400546875,-0.02672535367310047,0.014479073695838451,0.008654474280774593
1772534358131070700,8.45007080078125,-0.021942317485809326,0.016037555411458015,-0.0017499631503596902
1772534358141086500,8.46008642578125,-0.015994412824511528,0.010727745480835438,-0.003242398612201214
1772534358151103500,8.470103515625,-0.006053897552192211,0.009094694629311562,0.0011491540353745222
1772534358161119500,8.480119384765626,0.00833675917237997,0.0009765811264514923,0.0024828650057315826
1772534358171135500,8.490135498046875,0.022650716826319695,-0.0035321505274623632,-0.001359543763101101
1772534358181151700,8.50015185546875,0.03280188888311386,-0.004581169690936804,0.00152306177187711
1772534358191167500,8.51016748046875,0.034501783549785614,-0.0017864484107121825,0.0020397149492055178
1772534358201183500,8.52018359375,0.02792990207672119,0.0023462448734790087,-0.0011646003695204854
1772534358211200500,8.530200439453125,0.01853107288479805,0.007077882997691631,-0.003983556292951107
1772534358221216500,8.540216552734375,0.011210842989385128,0.011062238365411758,-0.0052323127165436745
1772534358231232800,8.550232666015624,0.004772917367517948,0.00962546281516552,-0.004216582980006933
1772534358241248500,8.56024853515625,0.0018274611793458462,0.005921538453549147,0.0017536915838718414
1772534358251264500,8.570264404296875,-0.003677292726933956,0.002921487670391798,0.012192217633128166
1772534358261280500,8.580280517578124,-0.0057494984939694405,-0.0005834985640831292,0.022059496492147446
1772534358271297500,8.590297607421874,-0.009763414971530437,-0.0070975907146930695,0.020968930795788765
1772534358281313500,8.6003134765625,-0.011775965802371502,0.001586178783327341,0.013913419097661972
1772534358291329500,8.61032958984375,-0.012261193245649338,0.001725728390738368,0.008103466592729092
1772534358301345500,8.620345458984374,-0.010059557855129242,0.0034080471377819777,0.002376871183514595
1772534358311361500,8.630361572265626,-0.008084824308753014,0.010070743970572948,-0.005672266706824303
1772534358321377500,8.64037744140625,-0.0035137746017426252,0.004484763368964195,-0.005515939090400934
1772534358331394600,8.65039453125,-0.000949150591623038,-0.00019254654762335122,0.006481068674474955
1772534358341410600,8.66041064453125,-0.0008207862265408039,-0.0016223976854234934,0.021105019375681877
1772534358351426600,8.670426513671876,0.0005829659639857709,-0.0021614215802401304,0.02924949862062931
1772534358361442600,8.680442626953125,-0.003424026072025299,0.004180097486823797,0.030833279713988304
1772534358371458600,8.69045849609375,-0.0033358754590153694,0.007472563534975052,0.022533804178237915
1772534358381474600,8.700474609375,-0.0016724651213735342,0.015544338151812553,0.009823602624237537
1772534358391490600,8.710490478515625,0.0029198897536844015,0.018994729965925217,0.005695968866348267
1772534358401507600,8.720507568359375,0.008378038182854652,0.010655307210981846,-0.0014530207263305783
1772534358411523600,8.730523681640625,0.011443602852523327,0.00797110702842474,-0.000441818410763517
1772534358421539600,8.74053955078125,0.008712797425687313,0.006508499383926392,0.0038067223504185677
1772534358431555800,8.750555908203125,-0.0036767602432519197,0.005858155433088541,0.014523282647132874
1772534358441571800,8.76057177734375,-0.013740579597651958,0.001520398654974997,0.021646972745656967
1772534358451587600,8.770587646484374,-0.02412610873579979,0.0057383133098483086,0.022709039971232414
1772534358461604600,8.7806044921875,-0.02858823537826538,0.010184193961322308,0.017316939309239388
1772534358471620600,8.79062060546875,-0.03316274657845497,0.015279886312782764,0.012379970401525497
1772534358481636900,8.800636962890625,-0.039619848132133484,0.019755860790610313,0.007501858286559582
1772534358491652600,8.810652587890624,-0.04784182459115982,0.029468942433595657,0.01432567648589611
1772534358501668600,8.820668701171876,-0.04675685241818428,0.02226988598704338,0.018393654376268387
1772534358511684600,8.8306845703125,-0.04513152688741684,0.015136342495679855,0.02551840990781784
1772534358521701600,8.84070166015625,-0.040711741894483566,0.013066533021628857,0.03203490003943443
1772534358531718000,8.8507177734375,-0.03873168304562569,0.011461978778243065,0.03171372041106224
1772534358541733600,8.860733642578126,-0.03542616590857506,0.010073406621813774,0.033066608011722565
1772534358551749600,8.87074951171875,-0.023686153814196587,0.0007984156836755574,0.039564985781908035
1772534358561765600,8.880765625,-0.009230515919625759,-0.0006402239087037742,0.04529744014143944
1772534358571781600,8.89078173828125,-0.0027025758754462004,0.0073021212592720985,0.039156723767519
1772534358581797600,8.900797607421875,0.002222674200311303,0.019228022545576096,0.031744614243507385
1772534358591814700,8.910814697265625,0.0025475798174738884,0.027426565065979958,0.020624851807951927
1772534358601830700,8.92083056640625,0.003938282374292612,0.030907049775123596,0.013953366316854954
1772534358611846700,8.9308466796875,0.005859220866113901,0.0284713227301836,0.013085974380373955
1772534358621862700,8.940862548828125,0.010541058145463467,0.01944480463862419,0.011818842962384224
1772534358631878700,8.950878662109375,0.01926051266491413,0.011834821663796902,0.022400381043553352
1772534358641894700,8.960894775390624,0.02629205770790577,0.003245061729103327,0.030788805335760117
1772534358651911700,8.97091162109375,0.02973232977092266,0.0057226005010306835,0.04192907363176346
1772534358661927700,8.980927734375,0.022715166211128235,0.0062736086547374725,0.04225318133831024
1772534358671943700,8.990943603515625,0.009007875807583332,0.013448962941765785,0.03520432487130165
1772534358681959700,9.000959716796874,-0.0075689698569476604,0.02454422414302826,0.026561036705970764
1772534358691975700,9.0109755859375,-0.0182863287627697,0.027415379881858826,0.019452260807156563
1772534358701991700,9.02099169921875,-0.021332984790205956,0.02323741279542446,0.0107107013463974
1772534358712008700,9.0310087890625,-0.01697658747434616,0.01780589483678341,0.009468602947890759
1772534358722024700,9.041024658203124,-0.012630574405193329,0.016209330409765244,0.012564261443912983
1772534358732040700,9.051040771484375,-0.007429686840623617,0.008637430146336555,0.012862801551818848
1772534358742056700,9.061056640625,-0.005287440028041601,0.008188155479729176,0.009606022387742996
1772534358752072400,9.071072509765624,-0.0016698020044714212,0.009373261593282223,0.00586721021682024
1772534358762088700,9.081088623046876,-0.002487126039341092,0.013251889497041702,0.0062424493953585625
1772534358772105700,9.091105712890625,-0.002918558195233345,0.014613830484449863,0.009574064053595066
1772534358782121700,9.101121826171875,-0.007152185309678316,0.019533753395080566,0.011379687115550041
1772534358792137700,9.1111376953125,-0.008644620887935162,0.024639032781124115,0.013424462638795376
1772534358802153500,9.121153564453126,-0.00908590666949749,0.022785207256674767,0.012480371631681919
1772534358812169500,9.13116943359375,-0.008143680170178413,0.017522800713777542,0.01176531333476305
1772534358822185700,9.141185791015625,-0.005931125953793526,0.018578210845589638,0.013644439168274403
1772534358832202800,9.15120263671875,-0.010395116172730923,0.024514131247997284,0.018999524414539337
1772534358842218800,9.16121875,-0.016979781910777092,0.02912299707531929,0.027242273092269897
1772534358852234500,9.171234375,-0.020549217239022255,0.030796527862548828,0.038488004356622696
1772534358862250500,9.18125048828125,-0.025235315784811974,0.024896295741200447,0.04718482121825218
1772534358872266800,9.191266845703124,-0.031503863632678986,0.022228073328733444,0.04995797201991081
1772534358882282800,9.20128271484375,-0.0353100523352623,0.021389711648225784,0.04590970277786255
1772534358892299800,9.2112998046875,-0.03939081355929375,0.019875703379511833,0.03675029054284096
1772534358902315500,9.2213154296875,-0.0434313639998436,0.018870361149311066,0.028236964717507362
1772534358912331500,9.23133154296875,-0.0439717173576355,0.017288176342844963,0.019450129941105843
1772534358922347800,9.24134765625,-0.03555186837911606,0.0055060856975615025,0.02015000954270363
1772534358932363800,9.25136376953125,-0.026629213243722916,-0.01629588194191456,0.036441631615161896
1772534358942379800,9.2613798828125,-0.019148128107190132,0.013347230851650238,0.04094290733337402
1772534358952395800,9.271395751953126,-0.025858229026198387,0.00014034859486855567,0.043721117079257965
1772534358962412500,9.28141259765625,-0.03323385491967201,0.006302104331552982,0.04217435047030449
1772534358972428500,9.291428466796875,-0.04054156690835953,0.004069310147315264,0.04253654181957245
1772534358982444800,9.30144482421875,-0.048293229192495346,0.007266967557370663,0.042696066200733185
1772534358992460800,9.311460693359376,-0.050819505006074905,0.00663526589050889,0.04194292426109314
1772534359003102700,9.322102783203125,-0.051730573177337646,0.0012013519881293178,0.03954421356320381
1772534359013118700,9.33211865234375,-0.04771878570318222,-0.000630902883131057,0.031611453741788864
1772534359023135700,9.3421357421875,-0.04246623441576958,0.004019509069621563,0.02754880301654339
1772534359033151700,9.35215185546875,-0.037999048829078674,0.007351922336965799,0.01101536676287651
1772534359043167500,9.36216748046875,-0.028606077656149864,0.010059557855129242,0.00005219795639277436
1772534359053183500,9.37218359375,-0.019353192299604416,0.0062128882855176926,-0.008972722105681896
1772534359063199700,9.38219970703125,-0.012293417938053608,0.0007912251749075949,-0.006631270982325077
1772534359073215700,9.3922158203125,-0.012104333378374577,-0.008186823688447475,0.006607302464544773
1772534359083232800,9.402232666015625,-0.013745106756687164,-0.0093892402946949,0.016286827623844147
1772534359093248500,9.41224853515625,-0.020729780197143555,-0.009582586586475372,0.013979464769363403
1772534359103264500,9.422264404296875,-0.030761640518903732,-0.004516454879194498,0.004608866758644581
1772534359113280800,9.43228076171875,-0.030073480680584908,0.0023374564480036497,-0.008744755759835243
1772534359123296800,9.442296875,-0.030188262462615967,0.002713228575885296,-0.02219505049288273
1772534359133312800,9.452312744140626,-0.024635571986436844,0.0010239854454994202,-0.03255874291062355
1772534359143328800,9.462328857421875,-0.019237343221902847,0.001279382617212832,-0.03590553626418114
1772534359153345500,9.472345458984375,-0.01426229253411293,0.00007243797881528735,-0.03617105260491371
1772534359163361500,9.482361572265624,-0.011975702829658985,-0.02010287158191204,-0.037453897297382355
1772534359173377800,9.492377685546876,-0.0027116306591778994,-0.001103880233131349,-0.02508378215134144
1772534359183393800,9.502393798828125,-0.014181332662701607,-0.009305884130299091,-0.024459004402160645
1772534359193409800,9.512409912109375,-0.01721866801381111,0.0011803129455074668,-0.028018850833177567
1772534359203425500,9.522425537109376,-0.02050820365548134,-0.0018165421206504107,-0.02906680479645729
1772534359213442600,9.532442626953125,-0.017228255048394203,-0.003304982790723443,-0.029927005991339684
1772534359223458800,9.542458740234375,-0.015679627656936646,-0.005687979515641928,-0.02876107394695282
1772534359233474800,9.552474853515625,-0.01248250249773264,-0.014103834517300129,-0.020607274025678635
1772534359243490800,9.56249072265625,-0.0024644893128424883,-0.02395753003656864,-0.013561614789068699
1772534359253506600,9.572506591796875,0.0000655137628200464,-0.018156100064516068,-0.010148241184651852
1772534359263522600,9.5825224609375,-0.004474643152207136,-0.003227484878152609,-0.016344884410500526
1772534359273539800,9.592539794921874,-0.008987103588879108,-0.0004748416249640286,-0.027960527688264847
1772534359283555800,9.602555908203126,-0.008126902393996716,0.001282045734114945,-0.036735378205776215
1772534359293571600,9.612571533203125,-0.0062666842713952065,0.0049438923597335815,-0.04319221153855324
1772534359303587600,9.622587646484375,-0.001885784324258566,0.0030386666767299175,-0.04230218380689621
1772534359313603600,9.632603515625,0.0015837819082662463,0.00011824435205198824,-0.03315582126379013
1772534359323619600,9.64261962890625,0.006295712664723396,-0.010556504130363464,-0.023488014936447144
1772534359333636900,9.652636962890625,0.010942395776510239,-0.014612232334911823,-0.013639379292726517
1772534359343652600,9.662652587890625,0.008724781684577465,-0.00782516598701477,-0.010746920481324196
1772534359353668600,9.672668701171874,0.0033222935162484646,-0.005044559482485056,-0.026019349694252014
1772534359363684600,9.6826845703125,-0.0009169263648800552,0.00014088122406974435,-0.039374303072690964
1772534359373700600,9.69270068359375,-0.0036570527590811253,0.002855707658454776,-0.04146222025156021
1772534359383716600,9.702716552734374,0.00037683729897253215,0.0041731735691428185,-0.03638304024934769
1772534359393732900,9.71273291015625,0.004887699615210295,0.0005448827287182212,-0.03220214322209358
1772534359403749600,9.72274951171875,0.004984372295439243,0.0029675604309886694,-0.029193570837378502
1772534359413765600,9.732765625,0.004834169987589121,0.0004420847399160266,-0.027413781732320786
1772534359423781600,9.74278173828125,0.009489907883107662,-0.006643521599471569,-0.027965854853391647
1772534359433797000,9.752797119140626,0.014384797774255276,-0.006714628078043461,-0.026877420023083687
1772534359443813000,9.762813232421875,0.01612677238881588,-0.0019542276859283447,-0.02293141558766365
1772534359453829000,9.7728291015625,0.016025038436055183,0.004030694253742695,-0.027152791619300842
1772534359463846100,9.78284619140625,0.010702445171773434,0.007337541319429874,-0.03267166018486023
1772534359473862100,9.792862060546875,0.0062429821118712425,0.009506153874099255,-0.04177168011665344
1772534359483878100,9.802878173828125,0.0017595505341887474,0.006277336739003658,-0.04398982971906662
1772534359493894100,9.81289404296875,-0.0008567389450035989,-0.0008594020619057119,-0.03832634910941124
1772534359503910100,9.82291015625,-0.004047472029924393,-0.003686880227178335,-0.03116670809686184
1772534359513926100,9.832926025390625,-0.008825715631246567,-0.00410473020747304,-0.02654425986111164
1772534359523943200,9.842943115234375,-0.005764145869761705,-0.010261958464980125,-0.02678873762488365
1772534359533959200,9.852959228515624,-0.0008370315190404654,-0.012800750322639942,-0.0301994476467371
1772534359543975200,9.86297509765625,0.002225603675469756,-0.010448645800352097,-0.032648224383592606
1772534359553991200,9.8729912109375,0.003992344718426466,-0.008673382923007011,-0.037041373550891876
1772534359564007200,9.883007080078125,0.006475742440670729,-0.004315386060625315,-0.03819026052951813
1772534359574023200,9.893023193359374,0.006987069267779589,-0.004591555800288916,-0.03767307475209236
1772534359584040200,9.903040283203126,0.010026268661022186,-0.00529729388654232,-0.03557903319597244
1772534359594056200,9.91305615234375,0.011406052857637405,-0.003653058083727956,-0.028603149577975273
1772534359604072200,9.923072265625,0.010658769868314266,-0.009972206316888332,-0.018388329073786736
1772534359614088000,9.933087890625,0.016201339662075043,-0.012650014832615852,-0.007231813855469227
1772534359624104200,9.943104248046875,0.018669825047254562,-0.012163721956312656,0.004000067710876465
1772534359634120200,9.9531201171875,0.02076253667473793,-0.014209561981260777,0.006809703074395657
1772534359644137200,9.96313720703125,0.022649917751550674,-0.022418489679694176,0.010323744267225266
1772534359654153200,9.9731533203125,0.024943966418504715,-0.04495495930314064,0.023332485929131508
1772534359664169000,9.9831689453125,0.03227431699633598,-0.008651012554764748,0.010701113380491734
1772534359674185200,9.993185302734375,0.025685124099254608,-0.022478943690657616,-0.009120794013142586
1772534359684201200,10.003201171875,0.02496553771197796,0.0065742796286940575,-0.022914903238415718
1772534359694217200,10.01321728515625,0.021387580782175064,0.002520415699109435,-0.02286829799413681
1772534359704233200,10.023233154296875,0.020714066922664642,-0.006563360337167978,-0.0303358007222414
1772534359714250000,10.03325,0.017375795170664787,-0.004489556886255741,-0.03694496676325798
1772534359724266000,10.043265869140624,0.01113281212747097,0.0062523032538592815,-0.04429156333208084
1772534359734282200,10.0532822265625,0.00999084860086441,0.004320446401834488,-0.056712280958890915
1772534359744298200,10.06329833984375,0.009666741825640202,-0.028271585702896118,-0.06339362263679504
1772534359754314200,10.073314208984375,0.01581651344895363,-0.002972087822854519,-0.045765358954668045
1772534359764330200,10.083330322265626,0.007368167862296104,-0.015354455448687077,-0.03265328332781792
1772534359774347000,10.093346923828125,0.007210508454591036,-0.0019049590919166803,-0.03498168662190437
1772534359784363300,10.10336328125,0.005250421818345785,-0.009238239377737045,-0.0296148844063282
1772534359794379300,10.113379150390625,-0.0030562435276806355,-0.015977900475263596,-0.016812002286314964
1772534359804395300,10.123395263671876,-0.013872671872377396,-0.010174873284995556,0.0018679412314668298
1772534359814411300,10.133411376953125,-0.024450214579701424,-0.002660498023033142,0.017765413969755173
1772534359824427000,10.143427001953125,-0.030253775417804718,-0.0023281353060156107,0.0162359606474638
1772534359834444300,10.1534443359375,-0.034449853003025055,0.0037787591572850943,0.012985573150217533
1772534359844460300,10.163460205078126,-0.035169437527656555,0.002341717481613159,0.006929012481123209
1772534359854476300,10.173476318359375,-0.031866852194070816,0.0016783240716904402,0.00498064374551177
1772534359864492300,10.1834921875,-0.030735008418560028,0.008593488484621048,-0.006304234731942415
1772534359874508000,10.193508056640624,-0.03181545436382294,0.0075729647651314735,-0.020302342250943184
1772534359884524000,10.20352392578125,-0.031143005937337875,0.003355316584929824,-0.03295848146080971
1772534359894541300,10.213541259765625,-0.029399434104561806,0.003066629869863391,-0.03399844840168953
1772534359904557300,10.223557373046875,-0.02725053019821644,0.00025273399660363793,-0.035233620554208755
1772534359914573300,10.2335732421875,-0.020894097164273262,0.0016282566357403994,-0.04069123789668083
1772534359924589000,10.243589111328125,-0.0178743377327919,-0.00029880666988901794,-0.0439394935965538
1772534359934605000,10.25360498046875,-0.01531743723899126,-0.004972388036549091,-0.030311033129692078
1772534359944621000,10.26362109375,-0.018132664263248444,-0.013538978062570095,-0.012911537662148476
1772534359954637000,10.273636962890626,-0.025709092617034912,-0.013801832683384418,-0.001995772821828723
1772534359964654000,10.283654052734375,-0.035294875502586365,-0.013288374990224838,-0.0042733084410429
1772534359974670000,10.293670166015625,-0.04171761870384216,-0.01218822319060564,-0.012321913614869118
1772534359984686000,10.30368603515625,-0.04337676987051964,-0.01113547571003437,-0.022043516859412193
1772534359994702000,10.3137021484375,-0.03648078069090843,-0.0070645674131810665,-0.024326644837856293
1772534360004718000,10.323718017578125,-0.025552498176693916,-0.0033928672783076763,-0.027590082958340645
1772534360014734300,10.333734375,-0.013733921572566032,-0.007439274340867996,-0.04073384776711464
1772534360024751000,10.343751220703124,-0.0029438582714647055,-0.01056183036416769,-0.04635445028543472
1772534360034767000,10.35376708984375,0.0032919333316385746,-0.016833042725920677,-0.02973286248743534
1772534360044783000,10.363783203125,0.007166299968957901,-0.02064029686152935,-0.005877064075320959
1772534360054799000,10.373799072265625,0.004403536673635244,-0.024897625669836998,0.010329869575798512
1772534360064815400,10.3838154296875,-0.0016713999211788177,-0.019781161099672318,0.010040650144219398
1772534360074831400,10.393831298828125,-0.008853412233293056,-0.017885522916913033,-0.003477822057902813
1772534360084848000,10.40384814453125,-0.006982808467000723,-0.013756025582551956,-0.025309350341558456
1772534360094864100,10.413864013671875,-0.004716191906481981,-0.012600480578839779,-0.04186675697565079
1772534360104880000,10.423880126953126,-0.00304638990201056,-0.01128035131841898,-0.057003363966941833
1772534360114896100,10.433896240234375,0.0024684839881956577,-0.01477415207773447,-0.06586530059576035
1772534360124912400,10.443912353515625,0.005989182740449905,-0.015263907611370087,-0.0733834058046341
1772534360134928100,10.45392822265625,0.000922519015148282,-0.008917861618101597,-0.07483269274234772
1772534360144945200,10.463945068359376,-0.006746852304786444,-0.006938333623111248,-0.06022845208644867
1772534360154961200,10.473961181640625,-0.015430621802806854,-0.009883522987365723,-0.04183639585971832
1772534360164977200,10.48397705078125,-0.024171648547053337,-0.02008635923266411,-0.019881296902894974
1772534360174993200,10.4939931640625,-0.034985948354005814,-0.020857878029346466,-0.007213437929749489
1772534360185009200,10.504009033203126,-0.0451941080391407,-0.014622884802520275,-0.004199006129056215
1772534360195025200,10.514025146484375,-0.0508892796933651,-0.010548780672252178,-0.02136627584695816
1772534360205041200,10.524041259765625,-0.049785397946834564,-0.009602293372154236,-0.040398821234703064
1772534360215058200,10.53405810546875,-0.04743329435586929,0.0013070794520899653,-0.03940759226679802
1772534360225074200,10.54407421875,-0.04429928585886955,0.008578307926654816,-0.029926739633083344
1772534360235090200,10.554090087890625,-0.042875561863183975,0.0004034689045511186,-0.026138393208384514
1772534360245106200,10.564106201171874,-0.034572090953588486,-0.009163404814898968,-0.02027091756463051
1772534360255122200,10.5741220703125,-0.02654239535331726,-0.015018897131085396,-0.010875551030039787
1772534360265138200,10.58413818359375,-0.020687967538833618,-0.01353711448609829,0.001329716295003891
1772534360275155000,10.594155029296875,-0.016148343682289124,-0.012795424088835716,0.0015936355339363217
1772534360285171200,10.604171142578124,-0.011434814892709255,-0.014565893448889256,-0.009031311608850956
1772534360295187200,10.614187255859376,-0.011516840197145939,-0.009555155411362648,-0.016529707238078117
1772534360305203200,10.624203125,-0.011158112436532974,-0.0035153725184500217,-0.01853240467607975
1772534360315219200,10.63421923828125,-0.012838300317525864,0.0031079088803380728,-0.014608236961066723
1772534360325235200,10.644235107421874,-0.01312245987355709,-0.005572930909693241,-0.015003183856606483
1772534360335252200,10.654252197265626,-0.012868394143879414,-0.012544287368655205,-0.010047041811048985
1772534360345268200,10.664268310546875,-0.0024136228021234274,-0.020619524642825127,-0.0008215851848945022
1772534360355284200,10.6742841796875,0.00580702256411314,-0.03220773860812187,0.004007791168987751
1772534360365300200,10.68430029296875,0.00321843009442091,-0.026611370965838432,0.007435279432684183
1772534360375316200,10.694316162109375,-0.005178783088922501,-0.012872123159468174,0.007679224945604801
1772534360385332200,10.704332275390625,-0.009789247065782547,-0.024042485281825066,-0.003011502558365464
1772534360395348000,10.714347900390624,-0.010237190872430801,-0.007982558570802212,0.002478870330378413
1772534360405365200,10.724365234375,-0.014361095614731312,-0.0031241541728377342,0.0025513083674013615
1772534360415381200,10.73438134765625,-0.020667461678385735,-0.003481017891317606,0.002683401107788086
1772534360425397200,10.744397216796875,-0.021987857297062874,0.002840793924406171,0.005147357936948538
1772534360435413000,10.7544130859375,-0.026373550295829773,-0.000179230744834058,-0.006558034103363752
1772534360445428700,10.7644287109375,-0.020534036681056023,-0.0010021475609391928,-0.023559121415019035
1772534360455444700,10.77444482421875,-0.013701165094971657,0.009914149530231953,-0.04159032180905342
1772534360465461800,10.784461669921875,-0.002659166231751442,0.01727406121790409,-0.06516275554895401
1772534360475477800,10.794477783203124,0.009467803873121738,0.015659919008612633,-0.08483686298131943
1772534360485494000,10.804493896484376,0.020805146545171738,0.008838765323162079,-0.08260592818260193
1772534360495509800,10.814509765625,0.027411384508013725,-0.0004087952256668359,-0.06430042535066605
1772534360505525800,10.82452587890625,0.031088143587112427,-0.0023124227300286293,-0.04668894037604332
1772534360515541800,10.834541748046876,0.024522386491298676,-0.009273393079638481,-0.03430577740073204
1772534360525558800,10.844558837890625,0.02106373943388462,-0.008636098355054855,-0.020658141002058983
1772534360535574800,10.85457470703125,0.01871483214199543,-0.006989466026425362,-0.01805303618311882
1772534360545590800,10.8645908203125,0.014060425572097301,-0.003198190126568079,-0.00827790331095457
1772534360555606800,10.874606689453126,0.005904494319111109,-0.037279196083545685,-0.00045087316539138556
1772534360565622800,10.884622802734375,0.013226855546236038,-0.004962534178048372,0.019645873457193375
1772534360575638800,10.894638671875,-0.001139566651545465,0.01353604905307293,0.007292001508176327
1772534360585655800,10.90465576171875,-0.020363861694931984,0.025405757129192352,0.0036828855518251657
1772534360595671800,10.914671875,-0.032039690762758255,0.052852563560009,-0.007918642833828926
1772534360605687800,10.924687744140625,-0.05001522973179817,0.04972308129072189,-0.0059774648398160934
1772534360615703800,10.934703857421875,-0.05258810892701149,0.04978007450699806,0.012714196927845478
1772534360625719800,10.9447197265625,-0.054066430777311325,0.03804272413253784,0.029871612787246704
1772534360635735800,10.95473583984375,-0.04755526781082153,0.020661069080233574,0.034821365028619766
1772534360645751800,10.964751708984375,-0.03299416974186897,0.007663512136787176,0.03239096328616142
1772534360655768800,10.974768798828125,-0.0160098597407341,-0.005597698036581278,0.032587237656116486
1772534360665784800,10.984784912109374,-0.005222458858042955,-0.0018064221367239952,0.02804681472480297
1772534360675800800,10.99480078125,-0.0039047268219292164,0.016261527314782143,-0.00884755328297615
1772534360685816800,11.00481689453125,-0.01332992035895586,0.043111249804496765,-0.08835436403751373
