time,seconds_elapsed,z,y,x
1772534863842965000,0.048965087890625,-0.8061981201171875,-0.376190185546875,-0.0290374755859375
1772534863852982000,0.05898193359375,-0.799041748046875,-0.3891754150390625,-0.0384368896484375
1772534863862999000,0.0689990234375,-0.8072357177734375,-0.395965576171875,-0.06103515625
1772534863873015000,0.07901513671875,-0.8261260986328125,-0.37786865234375,-0.08349609375
1772534863883032000,0.089031982421875,-0.843170166015625,-0.3462066650390625,-0.0972442626953125
1772534863893049000,0.099049072265625,-0.862030029296875,-0.3286590576171875,-0.1046905517578125
1772534863903065300,0.1090654296875,-0.8983001708984375,-0.3275299072265625,-0.111724853515625
1772534863913082400,0.119082275390625,-0.9384002685546875,-0.32354736328125,-0.1283721923828125
1772534863923099400,0.129099365234375,-0.9798126220703125,-0.320526123046875,-0.1366424560546875
1772534863933115400,0.139115478515625,-1.0058135986328125,-0.308837890625,-0.1302337646484375
1772534863943132400,0.14913232421875,-0.995391845703125,-0.2926025390625,-0.116668701171875
1772534863953149400,0.1591494140625,-0.9538726806640625,-0.265380859375,-0.0943756103515625
1772534863963165200,0.169165283203125,-0.921478271484375,-0.27142333984375,-0.0800933837890625
1772534863973182500,0.179182373046875,-0.900726318359375,-0.339111328125,-0.0888519287109375
1772534863983199200,0.18919921875,-0.8741302490234375,-0.3646240234375,-0.1008148193359375
1772534863993215200,0.19921533203125,-0.8592529296875,-0.3743743896484375,-0.11407470703125
1772534864003232500,0.209232421875,-0.8420257568359375,-0.366546630859375,-0.15350341796875
1772534864013249300,0.219249267578125,-0.811248779296875,-0.3453369140625,-0.2086334228515625
1772534864023265300,0.229265380859375,-0.772674560546875,-0.3792724609375,-0.1964569091796875
1772534864033282300,0.2392822265625,-0.764129638671875,-0.380950927734375,-0.1815948486328125
1772534864043299300,0.24929931640625,-0.7618560791015625,-0.381683349609375,-0.20135498046875
1772534864053315300,0.2593154296875,-0.76629638671875,-0.400970458984375,-0.22357177734375
1772534864063332400,0.269332275390625,-0.78369140625,-0.4076385498046875,-0.2417144775390625
1772534864073349400,0.279349365234375,-0.81561279296875,-0.4308929443359375,-0.244140625
1772534864083365400,0.289365478515625,-0.8551025390625,-0.4574127197265625,-0.225921630859375
1772534864093382400,0.29938232421875,-0.880767822265625,-0.44586181640625,-0.2074127197265625
1772534864103399200,0.309399169921875,-0.878509521484375,-0.4300994873046875,-0.1885223388671875
1772534864113415400,0.31941552734375,-0.8593292236328125,-0.402984619140625,-0.1703643798828125
1772534864123432400,0.329432373046875,-0.836639404296875,-0.376312255859375,-0.1609344482421875
1772534864133449200,0.33944921875,-0.807861328125,-0.3674163818359375,-0.147308349609375
1772534864143465200,0.34946533203125,-0.78662109375,-0.3744964599609375,-0.1357269287109375
1772534864153482500,0.359482421875,-0.7952728271484375,-0.393524169921875,-0.1439971923828125
1772534864163498500,0.36949853515625,-0.836700439453125,-0.42816162109375,-0.1487579345703125
1772534864173515300,0.379515380859375,-0.899505615234375,-0.490753173828125,-0.1743621826171875
1772534864183532500,0.389532470703125,-0.9766998291015625,-0.54364013671875,-0.194305419921875
1772534864193548500,0.399548583984375,-1.025177001953125,-0.5662994384765625,-0.1703643798828125
1772534864203565300,0.4095654296875,-1.0323028564453125,-0.5634613037109375,-0.1343231201171875
1772534864213582300,0.419582275390625,-1.0165557861328125,-0.5201873779296875,-0.117279052734375
1772534864223598600,0.4295986328125,-0.969573974609375,-0.4301605224609375,-0.12225341796875
1772534864233615400,0.439615478515625,-0.88616943359375,-0.3625640869140625,-0.1289520263671875
1772534864243632400,0.44963232421875,-0.8270263671875,-0.350433349609375,-0.130401611328125
1772534864253648400,0.4596484375,-0.8050537109375,-0.3667755126953125,-0.1143341064453125
1772534864263665400,0.46966552734375,-0.8245086669921875,-0.3893890380859375,-0.09588623046875
1772534864273682400,0.479682373046875,-0.8511199951171875,-0.389404296875,-0.083160400390625
1772534864283698400,0.489698486328125,-0.8657073974609375,-0.360595703125,-0.092254638671875
1772534864293715500,0.499715576171875,-0.90380859375,-0.329010009765625,-0.1147003173828125
1772534864303732500,0.509732421875,-0.95037841796875,-0.309906005859375,-0.1221466064453125
1772534864313748500,0.51974853515625,-0.95623779296875,-0.30352783203125,-0.1297607421875
1772534864323765200,0.52976513671875,-0.934326171875,-0.3091583251953125,-0.147064208984375
1772534864333782500,0.539782470703125,-0.9060821533203125,-0.31280517578125,-0.168212890625
1772534864343798300,0.54979833984375,-0.87835693359375,-0.3184814453125,-0.1814117431640625
1772534864353815300,0.559815185546875,-0.844268798828125,-0.3211517333984375,-0.178436279296875
1772534864363832600,0.56983251953125,-0.8170013427734375,-0.303558349609375,-0.159088134765625
1772534864373848300,0.579848388671875,-0.813934326171875,-0.2823486328125,-0.1488800048828125
1772534864383865300,0.589865234375,-0.8276824951171875,-0.2574920654296875,-0.1593475341796875
1772534864393882400,0.59988232421875,-0.8459014892578125,-0.2169342041015625,-0.1724090576171875
1772534864403898400,0.6098984375,-0.869415283203125,-0.17962646484375,-0.179779052734375
1772534864413915400,0.619915283203125,-0.893310546875,-0.1562347412109375,-0.1925506591796875
1772534864423932400,0.629932373046875,-0.915313720703125,-0.142120361328125,-0.2139434814453125
1772534864433948200,0.6399482421875,-0.9502410888671875,-0.1419525146484375,-0.2492218017578125
1772534864443965400,0.64996533203125,-0.994903564453125,-0.1403656005859375,-0.278472900390625
1772534864453982500,0.659982421875,-0.9941864013671875,-0.1380462646484375,-0.2893218994140625
1772534864463998200,0.669998291015625,-0.9643096923828125,-0.13092041015625,-0.289398193359375
1772534864474015500,0.680015380859375,-0.93865966796875,-0.1185760498046875,-0.2635345458984375
1772534864484032500,0.690032470703125,-0.929779052734375,-0.1190643310546875,-0.231109619140625
1772534864494048300,0.70004833984375,-0.9366302490234375,-0.130340576171875,-0.21197509765625
1772534864504065300,0.710065185546875,-0.9562835693359375,-0.15789794921875,-0.2214813232421875
1772534864514082300,0.720082275390625,-0.9830474853515625,-0.183349609375,-0.263763427734375
1772534864524098300,0.730098388671875,-0.990631103515625,-0.190704345703125,-0.3064117431640625
1772534864534115300,0.740115234375,-0.9724884033203125,-0.17974853515625,-0.3231201171875
1772534864544132400,0.75013232421875,-0.9589996337890625,-0.1741180419921875,-0.3055572509765625
1772534864554148400,0.7601484375,-0.98077392578125,-0.173980712890625,-0.2777557373046875
1772534864564165400,0.770165283203125,-1.02044677734375,-0.1580963134765625,-0.2532196044921875
1772534864574182100,0.78018212890625,-1.0517578125,-0.13214111328125,-0.23223876953125
1772534864584198400,0.790198486328125,-1.0676116943359375,-0.113006591796875,-0.22576904296875
1772534864594215400,0.80021533203125,-1.0600128173828125,-0.1086273193359375,-0.2274932861328125
1772534864604231400,0.8102314453125,-1.0328369140625,-0.10833740234375,-0.24237060546875
1772534864614248200,0.820248291015625,-0.9999542236328125,-0.105316162109375,-0.262115478515625
1772534864624265500,0.830265380859375,-0.96942138671875,-0.1189727783203125,-0.2666473388671875
1772534864634281500,0.840281494140625,-0.933258056640625,-0.144989013671875,-0.26611328125
1772534864644298200,0.85029833984375,-0.890899658203125,-0.1596832275390625,-0.271881103515625
1772534864654315500,0.8603154296875,-0.8534088134765625,-0.1634521484375,-0.2767791748046875
1772534864664331500,0.87033154296875,-0.834686279296875,-0.17645263671875,-0.2837371826171875
1772534864674348300,0.880348388671875,-0.8250579833984375,-0.1888275146484375,-0.2792205810546875
1772534864684365300,0.890365234375,-0.8204345703125,-0.1851806640625,-0.257537841796875
1772534864694381600,0.900381591796875,-0.8363037109375,-0.1706085205078125,-0.221527099609375
1772534864704398300,0.9103984375,-0.8633575439453125,-0.1851654052734375,-0.182861328125
1772534864714415400,0.920415283203125,-0.9178924560546875,-0.202178955078125,-0.17529296875
1772534864724431400,0.930431396484375,-0.9427032470703125,-0.1761474609375,-0.1991119384765625
1772534864734448400,0.940448486328125,-0.9215240478515625,-0.14276123046875,-0.211944580078125
1772534864744465400,0.95046533203125,-0.916473388671875,-0.13848876953125,-0.2194366455078125
1772534864754481400,0.9604814453125,-0.9285888671875,-0.1337890625,-0.2384185791015625
1772534864764498400,0.97049853515625,-0.9214935302734375,-0.113311767578125,-0.243804931640625
1772534864774515500,0.980515380859375,-0.9076080322265625,-0.1029205322265625,-0.23126220703125
1772534864784531500,0.990531494140625,-0.884918212890625,-0.1107177734375,-0.2151947021484375
1772534864794548200,1.00054833984375,-0.8490753173828125,-0.1098480224609375,-0.211181640625
1772534864804565500,1.0105654296875,-0.81280517578125,-0.10162353515625,-0.2185821533203125
1772534864814581500,1.02058154296875,-0.7912750244140625,-0.0883941650390625,-0.23394775390625
1772534864824598300,1.030598388671875,-0.789398193359375,-0.08428955078125,-0.2472381591796875
1772534864834615600,1.040615478515625,-0.803314208984375,-0.0941009521484375,-0.271942138671875
1772534864844631600,1.050631591796875,-0.82427978515625,-0.0760650634765625,-0.3037872314453125
1772534864854648300,1.0606484375,-0.8354034423828125,-0.039306640625,-0.3732757568359375
1772534864864665300,1.070665283203125,-0.87872314453125,-0.039154052734375,-0.33642578125
1772534864874681600,1.080681640625,-0.91949462890625,-0.0423583984375,-0.3200225830078125
1772534864884698400,1.090698486328125,-0.895294189453125,0.0150299072265625,-0.367401123046875
1772534864894714400,1.10071435546875,-0.9292449951171875,0.0430450439453125,-0.31146240234375
1772534864904730600,1.110730712890625,-0.9739227294921875,-0.0275115966796875,-0.2340240478515625
1772534864914747600,1.12074755859375,-0.9525146484375,-0.0528564453125,-0.2638702392578125
1772534864924763600,1.130763671875,-0.990447998046875,-0.0174407958984375,-0.271514892578125
1772534864934780700,1.14078076171875,-1.0593109130859375,-0.0371551513671875,-0.27252197265625
1772534864944797400,1.15079736328125,-1.1355133056640625,-0.08135986328125,-0.31744384765625
1772534864954813700,1.160813720703125,-1.2379150390625,-0.0648193359375,-0.39410400390625
1772534864964830700,1.170830810546875,-1.3822174072265625,-0.031890869140625,-0.487152099609375
1772534864974847500,1.180847412109375,-1.58563232421875,-0.05670166015625,-0.59539794921875
1772534864984863500,1.190863525390625,-1.7599334716796875,-0.11767578125,-0.721923828125
1772534864994880800,1.200880859375,-1.817840576171875,-0.1262664794921875,-0.8327789306640625
1772534865004897500,1.2108974609375,-1.7985076904296875,-0.1359710693359375,-0.9044342041015625
1772534865014913500,1.22091357421875,-1.800262451171875,-0.1779022216796875,-0.947540283203125
1772534865024930800,1.230930908203125,-1.85284423828125,-0.177825927734375,-0.915802001953125
1772534865034947600,1.240947509765625,-1.90509033203125,-0.1910247802734375,-0.8193359375
1772534865044963600,1.250963623046875,-1.956207275390625,-0.22113037109375,-0.7262725830078125
1772534865063744500,1.26974462890625,-2.0187835693359375,-0.09088134765625,-0.5724639892578125
1772534865073761800,1.27976171875,-2.07855224609375,-0.0384674072265625,-0.473724365234375
1772534865083778600,1.289778564453125,-2.109710693359375,-0.0104522705078125,-0.400848388671875
1772534865093794600,1.299794677734375,-2.0440673828125,0.0358123779296875,-0.4049072265625
1772534865103811600,1.3098115234375,-1.89642333984375,0.0543975830078125,-0.467620849609375
1772534865113828600,1.31982861328125,-1.660858154296875,0.0483551025390625,-0.54437255859375
1772534865123844600,1.3298447265625,-1.3983917236328125,0.0240020751953125,-0.5636444091796875
1772534865133861600,1.339861572265625,-1.2011260986328125,-0.0748443603515625,-0.5564727783203125
1772534865143878700,1.349878662109375,-1.02630615234375,-0.1443023681640625,-0.53424072265625
1772534865153894700,1.359894775390625,-0.892333984375,-0.1582183837890625,-0.4665679931640625
1772534865163911700,1.36991162109375,-0.8350982666015625,-0.152740478515625,-0.3529205322265625
1772534865173928700,1.3799287109375,-0.887664794921875,-0.141815185546875,-0.2108154296875
1772534865183944700,1.38994482421875,-0.9718017578125,-0.1134796142578125,-0.1220550537109375
1772534865193961700,1.399961669921875,-1.0059661865234375,-0.0782623291015625,-0.0621185302734375
1772534865203978500,1.409978515625,-0.929901123046875,-0.026275634765625,-0.000640869140625
1772534865213994500,1.419994384765625,-0.7668609619140625,0.003173828125,0.0645904541015625
1772534865224011800,1.43001171875,-0.5702056884765625,0.021514892578125,0.1016998291015625
1772534865234027500,1.440027587890625,-0.3829345703125,0.0369873046875,0.08734130859375
1772534865244044500,1.45004443359375,-0.226318359375,0.0211639404296875,0.0663909912109375
1772534865254061800,1.460061767578125,-0.136474609375,-0.023773193359375,0.0672760009765625
1772534865264077600,1.47007763671875,-0.096588134765625,-0.0465545654296875,0.0793914794921875
1772534865274094600,1.480094482421875,-0.0682830810546875,-0.040069580078125,0.072265625
1772534865284111600,1.490111572265625,-0.0436859130859375,-0.0286407470703125,0.097991943359375
1772534865294127600,1.500127685546875,-0.0819549560546875,-0.05780029296875,0.160858154296875
1772534865304144600,1.51014453125,-0.11602783203125,-0.05615234375,0.10400390625
1772534865314161700,1.52016162109375,-0.06317138671875,-0.0098724365234375,0.035888671875
1772534865324177400,1.530177490234375,-0.0422821044921875,0.021026611328125,0.0228424072265625
1772534865334194700,1.540194580078125,-0.0420989990234375,-0.0040130615234375,-0.0190582275390625
1772534865344211500,1.55021142578125,-0.0093536376953125,-0.021759033203125,-0.0648651123046875
1772534865354227500,1.5602275390625,0.042327880859375,-0.024627685546875,-0.1106109619140625
1772534865364244700,1.57024462890625,0.0800323486328125,-0.0124664306640625,-0.1427001953125
1772534865374261500,1.580261474609375,0.100372314453125,-0.0137176513671875,-0.1209716796875
1772534865384277500,1.590277587890625,0.0646514892578125,-0.009002685546875,-0.0773468017578125
1772534865394294500,1.60029443359375,-0.0286712646484375,0.0058135986328125,-0.0522308349609375
1772534865404311600,1.6103115234375,-0.1297454833984375,0.0254974365234375,-0.0369873046875
1772534865414327600,1.62032763671875,-0.177886962890625,0.0283203125,-0.028533935546875
1772534865424344600,1.630344482421875,-0.1995849609375,0.0341644287109375,-0.04351806640625
1772534865434361600,1.640361572265625,-0.2344970703125,0.0341644287109375,-0.0619964599609375
1772534865444377600,1.650377685546875,-0.282562255859375,0.0157318115234375,-0.10675048828125
1772534865454394600,1.66039453125,-0.31640625,-0.0060577392578125,-0.1028900146484375
1772534865464411600,1.67041162109375,-0.389373779296875,0.0041351318359375,-0.0885009765625
1772534865474427600,1.680427734375,-0.5473480224609375,-0.0012359619140625,-0.1095428466796875
1772534865484444700,1.690444580078125,-0.78814697265625,-0.0522003173828125,-0.1398773193359375
1772534865494461400,1.70046142578125,-0.9329986572265625,-0.0763397216796875,-0.2317047119140625
1772534865504477400,1.7104775390625,-1.081878662109375,-0.093536376953125,-0.328094482421875
1772534865514494700,1.72049462890625,-1.4030914306640625,-0.181610107421875,-0.355743408203125
1772534865524511500,1.730511474609375,-1.642791748046875,-0.27740478515625,-0.3946990966796875
1772534865534527500,1.740527587890625,-1.8113250732421875,-0.288360595703125,-0.4171295166015625
1772534865544544800,1.750544677734375,-1.9373016357421875,-0.2252655029296875,-0.5439605712890625
1772534865554560800,1.760560791015625,-2.0318603515625,-0.19781494140625,-0.68316650390625
1772534865564577500,1.77057763671875,-2.1558685302734375,-0.207427978515625,-0.70526123046875
1772534865574594800,1.7805947265625,-2.240264892578125,-0.2570648193359375,-0.7809906005859375
1772534865584610800,1.79061083984375,-2.362701416015625,-0.35467529296875,-0.86614990234375
1772534865594627600,1.800627685546875,-2.51531982421875,-0.365203857421875,-0.897369384765625
1772534865604644600,1.81064453125,-2.5900115966796875,-0.3582611083984375,-0.837493896484375
1772534865614660600,1.82066064453125,-2.610809326171875,-0.34564208984375,-0.712371826171875
1772534865624677600,1.830677734375,-2.65093994140625,-0.2994537353515625,-0.5360107421875
1772534865634694700,1.840694580078125,-2.748687744140625,-0.24188232421875,-0.329498291015625
1772534865644710700,1.850710693359375,-2.7203216552734375,-0.1996612548828125,-0.194549560546875
1772534865654727700,1.860727783203125,-2.42510986328125,-0.177215576171875,-0.176116943359375
1772534865664744700,1.87074462890625,-2.058135986328125,-0.1646881103515625,-0.228057861328125
1772534865674760700,1.8807607421875,-1.805023193359375,-0.159423828125,-0.2831878662109375
1772534865684777700,1.89077783203125,-1.6871490478515625,-0.153228759765625,-0.29803466796875
1772534865694794800,1.900794677734375,-1.59454345703125,-0.142852783203125,-0.2928619384765625
1772534865704810500,1.910810546875,-1.4223175048828125,-0.1301727294921875,-0.406890869140625
1772534865714827500,1.92082763671875,-1.1850738525390625,-0.122711181640625,-0.4936065673828125
1772534865724844800,1.9308447265625,-0.93890380859375,-0.1504364013671875,-0.4738311767578125
1772534865734860500,1.940860595703125,-0.769378662109375,-0.19244384765625,-0.430572509765625
1772534865744877600,1.950877685546875,-0.627838134765625,-0.2071380615234375,-0.3353118896484375
1772534865754894800,1.960894775390625,-0.499176025390625,-0.192840576171875,-0.224884033203125
1772534865764910600,1.97091064453125,-0.3687896728515625,-0.1832275390625,-0.1198577880859375
1772534865774927600,1.980927734375,-0.195831298828125,-0.1667022705078125,-0.048004150390625
1772534865784944600,1.990944580078125,-0.0520172119140625,-0.1279754638671875,-0.004852294921875
1772534865794960600,2.000960693359375,0.0291290283203125,-0.0966644287109375,0.0366058349609375
1772534865804977700,2.010977783203125,0.0803680419921875,-0.0771636962890625,0.0760498046875
1772534865814994700,2.02099462890625,0.0636749267578125,-0.0485076904296875,0.1026763916015625
1772534865825010400,2.031010498046875,-0.0126953125,-0.045135498046875,0.195953369140625
1772534865835027700,2.04102783203125,-0.0615386962890625,-0.0316925048828125,0.182708740234375
1772534865845043700,2.051043701171875,-0.05377197265625,-0.042022705078125,0.14373779296875
1772534865855060500,2.061060546875,-0.017730712890625,-0.0846099853515625,0.1029510498046875
1772534865865077800,2.071077880859375,0.03143310546875,-0.1109619140625,0.0327301025390625
1772534865875093800,2.08109375,0.0526123046875,-0.1210174560546875,0.023468017578125
1772534865885110500,2.091110595703125,0.06494140625,-0.114715576171875,0.0166778564453125
1772534865895127600,2.10112744140625,0.055328369140625,-0.10552978515625,-0.012451171875
1772534865905143800,2.111143798828125,0.0063934326171875,-0.1045379638671875,-0.0183563232421875
1772534865915161000,2.1211611328125,-0.056915283203125,-0.102569580078125,-0.0115203857421875
1772534865925178000,2.13117822265625,-0.0891571044921875,-0.10223388671875,-0.016632080078125
1772534865935194000,2.141194091796875,-0.1022796630859375,-0.1040191650390625,-0.0098876953125
1772534865945211100,2.151211181640625,-0.139373779296875,-0.0836944580078125,0.04608154296875
1772534865955228200,2.161228271484375,-0.1837005615234375,-0.069000244140625,0.1089630126953125
1772534865965244200,2.171244140625,-0.2298736572265625,-0.0658721923828125,0.1286163330078125
1772534865975261200,2.18126123046875,-0.265045166015625,-0.0657196044921875,0.1360015869140625
1772534865985278200,2.1912783203125,-0.2671356201171875,-0.06396484375,0.1084747314453125
1772534865995294200,2.201294189453125,-0.272491455078125,-0.0711212158203125,0.0345458984375
1772534866005311000,2.21131103515625,-0.29937744140625,-0.1197967529296875,0.00048828125
1772534866015328300,2.221328369140625,-0.3366851806640625,-0.16748046875,-0.0294342041015625
1772534866025344300,2.23134423828125,-0.393798828125,-0.1847991943359375,-0.093170166015625
1772534866035361000,2.241361083984375,-0.514068603515625,-0.1755218505859375,-0.1458282470703125
1772534866045378300,2.25137841796875,-0.7354736328125,-0.166046142578125,-0.1210784912109375
1772534866055394000,2.26139404296875,-1.0450286865234375,-0.1802215576171875,-0.0620269775390625
1772534866065411000,2.2714111328125,-1.3825531005859375,-0.2689208984375,0.0260772705078125
1772534866075428000,2.281427978515625,-1.7180023193359375,-0.354888916015625,0.1092529296875
1772534866085444000,2.291444091796875,-1.9712982177734375,-0.3640899658203125,0.1077117919921875
1772534866095461000,2.301461181640625,-2.01483154296875,-0.3914794921875,0.0983428955078125
1772534866105478100,2.31147802734375,-2.0301971435546875,-0.4287567138671875,0.0987548828125
1772534866115494000,2.321493896484375,-2.204071044921875,-0.397247314453125,0.0258941650390625
1772534866125511200,2.33151123046875,-2.4813385009765625,-0.3330230712890625,-0.064605712890625
1772534866135528200,2.341528076171875,-2.678680419921875,-0.3388214111328125,-0.0394744873046875
1772534866145544000,2.3515439453125,-2.7949676513671875,-0.3592529296875,-0.0141754150390625
1772534866155561200,2.361561279296875,-2.8001251220703125,-0.377471923828125,-0.0095977783203125
1772534866165577200,2.3715771484375,-2.70196533203125,-0.3882293701171875,-0.0472259521484375
1772534866175594000,2.381593994140625,-2.6284027099609375,-0.3414459228515625,-0.0972900390625
1772534866185611000,2.391611083984375,-2.5930023193359375,-0.2588653564453125,-0.0801239013671875
1772534866195627300,2.401627197265625,-2.5077056884765625,-0.16375732421875,-0.027069091796875
1772534866205644000,2.41164404296875,-2.389251708984375,-0.0970458984375,0.046905517578125
1772534866215661000,2.4216611328125,-2.2500762939453125,-0.11236572265625,0.0937042236328125
1772534866225677000,2.431677001953125,-2.0155181884765625,-0.1558380126953125,0.097320556640625
1772534866235694000,2.441694091796875,-1.69903564453125,-0.1691131591796875,0.0772552490234375
1772534866245711000,2.451711181640625,-1.4333648681640625,-0.18365478515625,0.0692138671875
1772534866255727000,2.46172705078125,-1.268524169921875,-0.146881103515625,-0.069549560546875
1772534866265744100,2.471744140625,-1.076080322265625,-0.118743896484375,-0.2216949462890625
1772534866275761200,2.48176123046875,-0.89508056640625,-0.157379150390625,-0.2724761962890625
1772534866285777200,2.491777099609375,-0.748779296875,-0.1909942626953125,-0.3282318115234375
1772534866295794000,2.5017939453125,-0.602935791015625,-0.1991729736328125,-0.3548736572265625
1772534866305811200,2.511811279296875,-0.4662628173828125,-0.1737213134765625,-0.3025360107421875
1772534866315827200,2.5218271484375,-0.4021453857421875,-0.1637725830078125,-0.211456298828125
1772534866325844000,2.531843994140625,-0.392425537109375,-0.1427459716796875,-0.1442108154296875
1772534866335861200,2.541861328125,-0.348052978515625,-0.0941619873046875,-0.09783935546875
1772534866345877200,2.551877197265625,-0.248687744140625,-0.0701904296875,-0.0678253173828125
1772534866355894000,2.56189404296875,-0.144744873046875,-0.0547332763671875,-0.084320068359375
1772534866365911000,2.5719111328125,-0.035552978515625,-0.0383148193359375,-0.1287078857421875
1772534866375927300,2.58192724609375,0.0555877685546875,-0.0484619140625,-0.159515380859375
1772534866385944000,2.591944091796875,0.1103363037109375,-0.079681396484375,-0.1708831787109375
1772534866395961000,2.601961181640625,0.1343231201171875,-0.1022491455078125,-0.181732177734375
1772534866405977000,2.61197705078125,0.111572265625,-0.1160125732421875,-0.1829376220703125
1772534866415994000,2.621994140625,0.06536865234375,-0.14190673828125,-0.17034912109375
1772534866426011100,2.63201123046875,0.0308380126953125,-0.1493377685546875,-0.1719207763671875
1772534866436027100,2.642027099609375,0.023590087890625,-0.15203857421875,-0.162506103515625
1772534866446044200,2.652044189453125,0.00030517578125,-0.1492156982421875,-0.1718902587890625
1772534866456060200,2.66206005859375,-0.0384063720703125,-0.1562652587890625,-0.1869354248046875
1772534866466077200,2.6720771484375,-0.075836181640625,-0.172393798828125,-0.208984375
1772534866476094000,2.682093994140625,-0.0972747802734375,-0.1831207275390625,-0.203033447265625
1772534866486110200,2.692110107421875,-0.1165924072265625,-0.181182861328125,-0.1736602783203125
1772534866496127200,2.702127197265625,-0.136871337890625,-0.1883697509765625,-0.1381072998046875
1772534866506144000,2.71214404296875,-0.1561126708984375,-0.2080841064453125,-0.0970458984375
1772534866516160000,2.722159912109375,-0.1787567138671875,-0.21710205078125,-0.0658416748046875
1772534866526177300,2.73217724609375,-0.224761962890625,-0.221649169921875,-0.049041748046875
1772534866536194000,2.742194091796875,-0.2915802001953125,-0.2299652099609375,-0.0321807861328125
1772534866546210000,2.7522099609375,-0.39349365234375,-0.2165679931640625,-0.033538818359375
1772534866556227300,2.762227294921875,-0.500518798828125,-0.2052764892578125,-0.0257415771484375
1772534866566244000,2.772244140625,-0.5792083740234375,-0.2047271728515625,0.0015411376953125
1772534866576260000,2.782260009765625,-0.67242431640625,-0.209014892578125,0.035064697265625
1772534866586277000,2.792277099609375,-0.7960968017578125,-0.2077789306640625,0.02880859375
1772534866596294100,2.802294189453125,-0.9137725830078125,-0.1949920654296875,-0.016143798828125
1772534866606310100,2.81231005859375,-1.0444183349609375,-0.185821533203125,-0.123016357421875
1772534866616327200,2.8223271484375,-1.1690826416015625,-0.2129364013671875,-0.1774139404296875
1772534866626344200,2.83234423828125,-1.352447509765625,-0.2682952880859375,-0.160980224609375
1772534866636360200,2.842360107421875,-1.6314697265625,-0.33416748046875,-0.07989501953125
1772534866646377000,2.852376953125,-1.9521484375,-0.38909912109375,0.0168304443359375
1772534866656394000,2.86239404296875,-2.318572998046875,-0.309356689453125,-0.0544281005859375
1772534866666410200,2.87241015625,-2.6193389892578125,-0.1183624267578125,-0.1700592041015625
1772534866676427000,2.882427001953125,-2.78021240234375,-0.06390380859375,-0.1977996826171875
1772534866686444000,2.892444091796875,-2.8896026611328125,-0.1329345703125,-0.213043212890625
1772534866696460000,2.9024599609375,-2.91937255859375,-0.208221435546875,-0.2469482421875
1772534866706477000,2.91247705078125,-2.8104400634765625,-0.2532196044921875,-0.29302978515625
1772534866716494000,2.922494140625,-2.633087158203125,-0.238433837890625,-0.35040283203125
1772534866726510000,2.932510009765625,-2.475067138671875,-0.2063446044921875,-0.384063720703125
1772534866736527000,2.942527099609375,-2.3636932373046875,-0.1768341064453125,-0.30596923828125
1772534866746543000,2.952543212890625,-2.3603668212890625,-0.124114990234375,-0.1571044921875
1772534866756560100,2.96256005859375,-2.4344940185546875,-0.0753631591796875,-0.0268096923828125
1772534866766577000,2.972576904296875,-2.43524169921875,-0.0436248779296875,0.027557373046875
1772534866776593200,2.98259326171875,-2.293304443359375,-0.0535736083984375,0.007568359375
1772534866786610200,2.992610107421875,-2.015289306640625,-0.0865631103515625,-0.0645751953125
1772534866796627000,3.002626953125,-1.6655731201171875,-0.1072998046875,-0.17529296875
1772534866806643000,3.012642822265625,-1.3505859375,-0.1187286376953125,-0.2990875244140625
1772534866816660200,3.02266015625,-1.08477783203125,-0.1556243896484375,-0.4224700927734375
1772534866826677000,3.032677001953125,-0.8543853759765625,-0.1966094970703125,-0.5336151123046875
1772534866836693000,3.04269287109375,-0.6660308837890625,-0.2034759521484375,-0.56280517578125
1772534866846710300,3.052710205078125,-0.5108795166015625,-0.1644287109375,-0.495849609375
1772534866856727000,3.06272705078125,-0.4118499755859375,-0.10479736328125,-0.415435791015625
1772534866866743000,3.072742919921875,-0.37506103515625,-0.0711669921875,-0.33441162109375
1772534866876760000,3.082760009765625,-0.3409881591796875,-0.063079833984375,-0.2587432861328125
1772534866886777000,3.092777099609375,-0.26898193359375,-0.062255859375,-0.211944580078125
1772534866896793000,3.10279296875,-0.177978515625,-0.0623931884765625,-0.194366455078125
1772534866906810000,3.11281005859375,-0.0789794921875,-0.075347900390625,-0.1869049072265625
1772534866916827000,3.122826904296875,0.0340423583984375,-0.0953521728515625,-0.18280029296875
1772534866926843000,3.1328427734375,0.12664794921875,-0.1309967041015625,-0.18096923828125
1772534866936860000,3.14285986328125,0.1571197509765625,-0.170654296875,-0.1953582763671875
1772534866946877000,3.152876953125,0.147979736328125,-0.2153167724609375,-0.2122955322265625
1772534866956893000,3.162892822265625,0.1256561279296875,-0.2312164306640625,-0.225128173828125
1772534866966910000,3.172909912109375,0.0854034423828125,-0.220855712890625,-0.2282257080078125
1772534866976926700,3.1829267578125,0.01080322265625,-0.19232177734375,-0.199462890625
1772534866986943000,3.19294287109375,-0.06884765625,-0.1721038818359375,-0.1672210693359375
1772534866996960000,3.2029599609375,-0.1214141845703125,-0.1545257568359375,-0.1416473388671875
1772534867006976000,3.21297607421875,-0.12408447265625,-0.1399688720703125,-0.11749267578125
1772534867016992800,3.22299267578125,-0.1074371337890625,-0.1395111083984375,-0.10699462890625
1772534867027010000,3.233010009765625,-0.09014892578125,-0.1444244384765625,-0.114990234375
1772534867037026000,3.243026123046875,-0.074066162109375,-0.1565704345703125,-0.1035919189453125
1772534867047042800,3.253042724609375,-0.101318359375,-0.164825439453125,-0.072784423828125
1772534867057060000,3.26306005859375,-0.157379150390625,-0.1655731201171875,-0.0457305908203125
1772534867067075800,3.273075927734375,-0.1991729736328125,-0.1562652587890625,-0.013336181640625
1772534867077092900,3.2830927734375,-0.249542236328125,-0.140869140625,0.002410888671875
1772534867087110000,3.29310986328125,-0.314361572265625,-0.137176513671875,0.0067596435546875
1772534867097126000,3.3031259765625,-0.365081787109375,-0.1143646240234375,0.0001068115234375
1772534867107143000,3.313142822265625,-0.401031494140625,-0.0980987548828125,-0.0313262939453125
1772534867117160000,3.323159912109375,-0.5008697509765625,-0.1224212646484375,-0.04364013671875
1772534867127175700,3.33317578125,-0.6556549072265625,-0.175506591796875,-0.0383758544921875
1772534867137193000,3.34319287109375,-0.8278350830078125,-0.2242279052734375,-0.0554046630859375
1772534867147210000,3.3532099609375,-1.01348876953125,-0.2811737060546875,-0.0928955078125
1772534867157225700,3.363225830078125,-1.195037841796875,-0.3274688720703125,-0.1424560546875
1772534867167243000,3.373242919921875,-1.3540802001953125,-0.3244171142578125,-0.2235260009765625
1772534867177260000,3.383260009765625,-1.481109619140625,-0.34423828125,-0.267242431640625
1772534867187275800,3.39327587890625,-1.607269287109375,-0.4367218017578125,-0.254547119140625
1772534867197292800,3.403292724609375,-1.7999267578125,-0.55181884765625,-0.2263946533203125
1772534867207310000,3.41331005859375,-2.0735931396484375,-0.5551910400390625,-0.2573394775390625
1772534867217325800,3.423325927734375,-2.2902679443359375,-0.4625091552734375,-0.2901458740234375
1772534867227342800,3.4333427734375,-2.44818115234375,-0.4425811767578125,-0.23284912109375
1772534867237360000,3.443360107421875,-2.5995330810546875,-0.4192962646484375,-0.2137908935546875
1772534867247376000,3.4533759765625,-2.71484375,-0.3366241455078125,-0.2851715087890625
1772534867257393000,3.463392822265625,-2.7397003173828125,-0.24517822265625,-0.4146728515625
1772534867267410000,3.473409912109375,-2.6748504638671875,-0.20892333984375,-0.49688720703125
1772534867277426000,3.483426025390625,-2.64337158203125,-0.27911376953125,-0.4556121826171875
1772534867287443000,3.49344287109375,-2.7907257080078125,-0.391845703125,-0.266021728515625
1772534867297459000,3.503458984375,-2.9639434814453125,-0.3740692138671875,-0.0791778564453125
1772534867307475700,3.513475830078125,-2.90277099609375,-0.2968902587890625,-0.0179901123046875
1772534867317493000,3.523492919921875,-2.6024017333984375,-0.271514892578125,-0.047119140625
1772534867327509000,3.533509033203125,-2.181793212890625,-0.28631591796875,-0.168731689453125
1772534867337525800,3.54352587890625,-1.7610626220703125,-0.3058929443359375,-0.3334503173828125
1772534867347543000,3.55354296875,-1.3844451904296875,-0.274688720703125,-0.5001068115234375
1772534867357559000,3.56355908203125,-1.05218505859375,-0.2046356201171875,-0.650299072265625
1772534867367575800,3.573575927734375,-0.8020477294921875,-0.1587371826171875,-0.7338714599609375
1772534867377592800,3.5835927734375,-0.6049652099609375,-0.126739501953125,-0.7236480712890625
1772534867387609000,3.593609130859375,-0.4405059814453125,-0.104217529296875,-0.6197052001953125
1772534867397625900,3.6036259765625,-0.2872161865234375,-0.0882568359375,-0.5092315673828125
1772534867407643000,3.613642822265625,-0.1423187255859375,-0.0898590087890625,-0.4199981689453125
1772534867417659000,3.623658935546875,-0.0093841552734375,-0.070404052734375,-0.347747802734375
1772534867427676000,3.633676025390625,0.09832763671875,-0.06622314453125,-0.2708587646484375
1772534867437693000,3.64369287109375,0.184906005859375,-0.0680084228515625,-0.2254638671875
1772534867447709000,3.653708984375,0.25933837890625,-0.0554046630859375,-0.17791748046875
1772534867457726000,3.663725830078125,0.2791290283203125,-0.0525360107421875,-0.1125946044921875
1772534867467743000,3.673742919921875,0.2470245361328125,-0.0603790283203125,-0.0506439208984375
1772534867477759000,3.683759033203125,0.181671142578125,-0.0646820068359375,0.0017852783203125
1772534867487775700,3.693775634765625,0.1177215576171875,-0.07794189453125,0.005706787109375
1772534867497793000,3.70379296875,0.08447265625,-0.075592041015625,-0.0045623779296875
1772534867507809000,3.71380908203125,0.074859619140625,-0.0731048583984375,-0.011260986328125
1772534867517825800,3.72382568359375,0.0846405029296875,-0.0723876953125,-0.0429840087890625
1772534867527843000,3.733843017578125,0.09197998046875,-0.07440185546875,-0.0712890625
1772534867537859000,3.743859130859375,0.0873870849609375,-0.09228515625,-0.0810546875
1772534867547875800,3.753875732421875,0.0745086669921875,-0.093109130859375,-0.0849761962890625
1772534867557892900,3.763892822265625,0.062896728515625,-0.080169677734375,-0.07232666015625
1772534867567909000,3.7739091796875,0.01922607421875,-0.0731964111328125,-0.0470123291015625
1772534867577926000,3.78392578125,-0.0364227294921875,-0.0750579833984375,-0.034271240234375
1772534867587942000,3.79394189453125,-0.0823974609375,-0.0854644775390625,-0.0369873046875
1772534867597959000,3.803958984375,-0.1057891845703125,-0.11053466796875,-0.0555877685546875
1772534867607976000,3.813975830078125,-0.12054443359375,-0.1323089599609375,-0.098419189453125
1772534867617992000,3.823991943359375,-0.13037109375,-0.1462554931640625,-0.1173553466796875
1772534867628009000,3.834009033203125,-0.17535400390625,-0.1467742919921875,-0.1222381591796875
1772534867638026000,3.84402587890625,-0.23321533203125,-0.1439361572265625,-0.1205596923828125
1772534867648042000,3.8540419921875,-0.28326416015625,-0.1509552001953125,-0.10675048828125
1772534867658059000,3.86405908203125,-0.315673828125,-0.15283203125,-0.084747314453125
1772534867668075800,3.87407568359375,-0.3506011962890625,-0.130035400390625,-0.080047607421875
1772534867678092000,3.884092041015625,-0.4024810791015625,-0.1291656494140625,-0.102752685546875
1772534867688108800,3.89410888671875,-0.516082763671875,-0.1486663818359375,-0.1535186767578125
1772534867698125800,3.904125732421875,-0.6224517822265625,-0.1508026123046875,-0.189361572265625
1772534867708141800,3.914141845703125,-0.704376220703125,-0.14862060546875,-0.236083984375
1772534867718158800,3.924158935546875,-0.807098388671875,-0.171539306640625,-0.2934722900390625
1772534867728175900,3.93417578125,-0.9151458740234375,-0.19012451171875,-0.363433837890625
1772534867738192000,3.94419189453125,-1.0377960205078125,-0.243682861328125,-0.4740753173828125
1772534867748209000,3.954208984375,-1.236114501953125,-0.3708343505859375,-0.521514892578125
1772534867758226000,3.964225830078125,-1.5706939697265625,-0.526824951171875,-0.420135498046875
1772534867768242000,3.974241943359375,-2.1304168701171875,-0.5635223388671875,-0.3732452392578125
1772534867778258700,3.9842587890625,-2.9653167724609375,-0.474517822265625,-0.3793792724609375
1772534867788276000,3.99427587890625,-3.82623291015625,-0.3572540283203125,-0.3628082275390625
1772534867798292000,4.0042919921875,-4.4287567138671875,-0.1132965087890625,-0.492279052734375
1772534867808308700,4.014308837890625,-4.685394287109375,0.1438140869140625,-0.6965484619140625
1772534867818326000,4.024325927734375,-4.573760986328125,0.1915283203125,-0.900146484375
1772534867828342000,4.034342041015625,-4.24847412109375,0.0767822265625,-0.964752197265625
1772534867838358800,4.04435888671875,-3.777801513671875,-0.108245849609375,-0.9074554443359375
1772534867848374800,4.054374755859375,-3.297760009765625,-0.24676513671875,-0.7924652099609375
1772534867858392000,4.06439208984375,-2.8362274169921875,-0.2763214111328125,-0.7126007080078125
1772534867868408800,4.074408935546875,-2.3778228759765625,-0.2644500732421875,-0.651397705078125
1772534867878424800,4.0844248046875,-2.0229034423828125,-0.25335693359375,-0.50341796875
1772534867888441900,4.09444189453125,-1.730316162109375,-0.2014312744140625,-0.369659423828125
1772534867898459000,4.104458984375,-1.5101318359375,-0.124908447265625,-0.298553466796875
1772534867908475000,4.114474853515625,-1.258026123046875,-0.0453643798828125,-0.349639892578125
1772534867918492200,4.1244921875,-0.941680908203125,0.01123046875,-0.462249755859375
1772534867928509000,4.134509033203125,-0.593292236328125,0.0169677734375,-0.5559234619140625
1772534867938525000,4.14452490234375,-0.2355194091796875,-0.0204010009765625,-0.615570068359375
1772534867948542000,4.1545419921875,0.097503662109375,-0.0818023681640625,-0.6191253662109375
1772534867958559000,4.16455908203125,0.3437042236328125,-0.123779296875,-0.5690460205078125
1772534867968575000,4.174574951171875,0.5059051513671875,-0.125579833984375,-0.45916748046875
1772534867978592000,4.184592041015625,0.57940673828125,-0.0894317626953125,-0.32537841796875
1772534867988609000,4.194609130859375,0.559356689453125,-0.0421905517578125,-0.17633056640625
1772534867998625000,4.204625,0.4817962646484375,-0.0127410888671875,-0.0246124267578125
1772534868008642000,4.21464208984375,0.3378753662109375,0.0398712158203125,0.069305419921875
1772534868018658800,4.224658935546875,0.2289581298828125,0.0784149169921875,0.078216552734375
1772534868028675000,4.234675048828125,0.21112060546875,0.0618743896484375,0.0475616455078125
1772534868038692000,4.244692138671875,0.275543212890625,0.03936767578125,0.0053558349609375
1772534868048708900,4.254708984375,0.38568115234375,0.0018157958984375,-0.0708465576171875
1772534868058724900,4.264724853515625,0.4823150634765625,-0.085540771484375,-0.1518707275390625
1772534868068742100,4.2747421875,0.526275634765625,-0.17437744140625,-0.1865386962890625
1772534868078758000,4.2847578125,0.495361328125,-0.2085723876953125,-0.16986083984375
1772534868088775000,4.29477490234375,0.386993408203125,-0.2007293701171875,-0.134613037109375
1772534868098792200,4.304792236328125,0.2247314453125,-0.1734771728515625,-0.081634521484375
1772534868108808000,4.314807861328125,0.0652618408203125,-0.1297149658203125,-0.047607421875
1772534868118825000,4.324824951171875,-0.0635223388671875,-0.065216064453125,-0.0285186767578125
1772534868128842000,4.334842041015625,-0.186065673828125,-0.0386505126953125,-0.021331787109375
1772534868138858000,4.34485791015625,-0.2875213623046875,-0.089019775390625,-0.044769287109375
1772534868148875000,4.354875,-0.3483123779296875,-0.158294677734375,-0.0565948486328125
1772534868158892000,4.36489208984375,-0.3808135986328125,-0.211639404296875,-0.0806121826171875
1772534868168907800,4.37490771484375,-0.3930511474609375,-0.2817535400390625,-0.089141845703125
1772534868178925000,4.384925048828125,-0.4032745361328125,-0.339202880859375,-0.0896759033203125
1772534868188942000,4.394942138671875,-0.4399261474609375,-0.3508453369140625,-0.088775634765625
1772534868198957800,4.404957763671875,-0.52752685546875,-0.3237457275390625,-0.1087188720703125
1772534868208975000,4.41497509765625,-0.6264190673828125,-0.2862701416015625,-0.1462860107421875
1772534868218991900,4.424991943359375,-0.7017059326171875,-0.25421142578125,-0.1754608154296875
1772534868229008000,4.4350078125,-0.7803192138671875,-0.23895263671875,-0.2021484375
1772534868239025000,4.44502490234375,-0.8418121337890625,-0.250244140625,-0.16998291015625
1772534868249042000,4.4550419921875,-0.9227294921875,-0.24072265625,-0.1632537841796875
1772534868259058000,4.465057861328125,-1.108001708984375,-0.2598876953125,-0.189300537109375
1772534868269075000,4.475074951171875,-1.3581390380859375,-0.3593597412109375,-0.1915435791015625
1772534868279092000,4.485092041015625,-1.5773773193359375,-0.4639434814453125,-0.18310546875
1772534868289108000,4.49510791015625,-1.7190704345703125,-0.50811767578125,-0.1591949462890625
1772534868299125000,4.505125,-1.79022216796875,-0.5243682861328125,-0.1272125244140625
1772534868309142000,4.51514208984375,-1.8821563720703125,-0.5166015625,-0.1056365966796875
1772534868319158000,4.525157958984375,-2.17193603515625,-0.4433441162109375,-0.09375
1772534868329175000,4.535175048828125,-2.626983642578125,-0.3239898681640625,-0.14715576171875
1772534868339191800,4.54519189453125,-3.0565338134765625,-0.2769317626953125,-0.2972259521484375
1772534868349207800,4.555207763671875,-3.2808074951171875,-0.3001708984375,-0.5529327392578125
1772534868359225000,4.56522509765625,-3.2627716064453125,-0.34478759765625,-0.7801513671875
1772534868369241000,4.575240966796875,-3.1178436279296875,-0.3556671142578125,-0.9435577392578125
1772534868379257900,4.5852578125,-2.9762115478515625,-0.31024169921875,-0.9873199462890625
1772534868389275100,4.595275146484375,-2.98052978515625,-0.2468414306640625,-0.84844970703125
1772534868399291100,4.605291015625,-2.936920166015625,-0.1154937744140625,-0.60345458984375
1772534868409308000,4.615307861328125,-2.815155029296875,0.03009033203125,-0.3441162109375
1772534868419325200,4.6253251953125,-2.7153167724609375,0.091033935546875,-0.0964508056640625
1772534868429341200,4.635341064453125,-2.541839599609375,0.1099395751953125,0.08233642578125
1772534868439358000,4.64535791015625,-2.174072265625,0.1082305908203125,0.134307861328125
1772534868449375000,4.655375,-1.7270355224609375,0.0674896240234375,0.0609893798828125
1772534868459391000,4.665390869140625,-1.314239501953125,0.0136871337890625,-0.0705108642578125
1772534868469408000,4.675407958984375,-0.9687347412109375,-0.047454833984375,-0.20147705078125
1772534868479425000,4.685425048828125,-0.6798095703125,-0.1100616455078125,-0.3250274658203125
1772534868489441000,4.69544091796875,-0.436279296875,-0.1310882568359375,-0.41534423828125
1772534868499458000,4.7054580078125,-0.2390899658203125,-0.136383056640625,-0.432525634765625
1772534868509475000,4.71547509765625,-0.111724853515625,-0.1269378662109375,-0.419677734375
1772534868519491000,4.725490966796875,-0.0295867919921875,-0.099853515625,-0.37835693359375
1772534868529507800,4.7355078125,0.0404510498046875,-0.056182861328125,-0.30426025390625
1772534868539525000,4.745525146484375,0.1123046875,-0.0234832763671875,-0.2136383056640625
1772534868549541000,4.755541015625,0.1624908447265625,-0.010772705078125,-0.1324462890625
1772534868559558000,4.765557861328125,0.1849517822265625,-0.0140380859375,-0.0623016357421875
1772534868569575200,4.7755751953125,0.192596435546875,-0.0388946533203125,-0.0408477783203125
1772534868579591000,4.7855908203125,0.214874267578125,-0.072113037109375,-0.04705810546875
1772534868589608000,4.79560791015625,0.249664306640625,-0.099395751953125,-0.0647430419921875
1772534868599625200,4.805625244140625,0.260711669921875,-0.130157470703125,-0.0917816162109375
1772534868609641000,4.815640869140625,0.2527008056640625,-0.15576171875,-0.107421875
1772534868619658000,4.825657958984375,0.23004150390625,-0.1696319580078125,-0.0969085693359375
1772534868629675000,4.835675048828125,0.2059478759765625,-0.17376708984375,-0.0905609130859375
1772534868639690800,4.845690673828125,0.1888427734375,-0.165771484375,-0.09063720703125
1772534868649708000,4.8557080078125,0.1708221435546875,-0.156829833984375,-0.0826568603515625
1772534868659724000,4.86572412109375,0.1174774169921875,-0.1513519287109375,-0.0688323974609375
1772534868669740800,4.87574072265625,0.032867431640625,-0.145843505859375,-0.0791015625
1772534868679758000,4.885758056640625,-0.0312347412109375,-0.14959716796875,-0.072601318359375
1772534868689774000,4.895774169921875,-0.0878448486328125,-0.1510772705078125,-0.0604095458984375
1772534868699790800,4.905790771484375,-0.117034912109375,-0.171905517578125,-0.041961669921875
1772534868709808000,4.91580810546875,-0.11163330078125,-0.1944580078125,-0.0263671875
1772534868719824100,4.92582421875,-0.10089111328125,-0.2136688232421875,-0.0249176025390625
1772534868729841000,4.9358408203125,-0.1182708740234375,-0.235382080078125,-0.030548095703125
1772534868739858000,4.94585791015625,-0.166961669921875,-0.254974365234375,-0.0492401123046875
1772534868749874000,4.9558740234375,-0.2709197998046875,-0.26361083984375,-0.0606231689453125
1772534868759891000,4.965890869140625,-0.3876953125,-0.251678466796875,-0.0857696533203125
1772534868769908000,4.975907958984375,-0.484039306640625,-0.234649658203125,-0.1204681396484375
1772534868779924000,4.985924072265625,-0.5591278076171875,-0.2330322265625,-0.1516876220703125
1772534868789941000,4.99594091796875,-0.646942138671875,-0.239288330078125,-0.16192626953125
1772534868799958000,5.0059580078125,-0.7832489013671875,-0.2621307373046875,-0.14422607421875
1772534868809974000,5.01597412109375,-1.0008697509765625,-0.306243896484375,-0.1531219482421875
1772534868819991000,5.025990966796875,-1.32806396484375,-0.34979248046875,-0.1877288818359375
1772534868830008000,5.036008056640625,-1.686370849609375,-0.3757476806640625,-0.2320709228515625
1772534868840024000,5.046024169921875,-1.94683837890625,-0.3531341552734375,-0.2636871337890625
1772534868850040800,5.056040771484375,-2.0697021484375,-0.3959197998046875,-0.232421875
1772534868860058000,5.06605810546875,-2.157501220703125,-0.4503631591796875,-0.3946380615234375
1772534868870074000,5.07607421875,-2.1835174560546875,-0.351226806640625,-0.719146728515625
1772534868880091000,5.0860908203125,-2.165679931640625,-0.3144989013671875,-0.831512451171875
1772534868890108200,5.096108154296875,-2.31475830078125,-0.379302978515625,-0.8058929443359375
1772534868900124200,5.106124267578125,-2.5342254638671875,-0.3890838623046875,-0.7006378173828125
1772534868910141000,5.116140869140625,-2.5738525390625,-0.346343994140625,-0.5933837890625
1772534868920157200,5.1261572265625,-2.4157257080078125,-0.3726654052734375,-0.5229949951171875
1772534868930174200,5.13617431640625,-2.254119873046875,-0.3837738037109375,-0.4575653076171875
1772534868940191200,5.146191162109375,-2.2953643798828125,-0.35595703125,-0.3251190185546875
1772534868950207200,5.156207275390625,-2.4078369140625,-0.32415771484375,-0.25482177734375
1772534868960224300,5.166224365234375,-2.5562286376953125,-0.2423553466796875,-0.2931671142578125
1772534868970241000,5.176240966796875,-2.56707763671875,-0.1753997802734375,-0.4063873291015625
1772534868980257300,5.18625732421875,-2.376953125,-0.2070465087890625,-0.46337890625
1772534868990274300,5.1962744140625,-2.0198974609375,-0.2954864501953125,-0.5156097412109375
1772534869000291000,5.206291015625,-1.5962677001953125,-0.3668060302734375,-0.5811614990234375
1772534869010307000,5.21630712890625,-1.20745849609375,-0.38665771484375,-0.6512908935546875
1772534869020324400,5.226324462890625,-0.9474639892578125,-0.3525238037109375,-0.6753692626953125
1772534869030341000,5.236341064453125,-0.8454437255859375,-0.2675323486328125,-0.5650482177734375
1772534869040357000,5.246357177734375,-0.8218536376953125,-0.15118408203125,-0.339141845703125
1772534869050374100,5.2563740234375,-0.73919677734375,-0.0444793701171875,-0.10186767578125
1772534869060391200,5.26639111328125,-0.5636749267578125,0.0580902099609375,0.0661163330078125
1772534869070407200,5.2764072265625,-0.313262939453125,0.12127685546875,0.153350830078125
1772534869080424200,5.286424072265625,-0.066009521484375,0.1331329345703125,0.1460723876953125
1772534869090441200,5.296441162109375,0.1292266845703125,0.1040496826171875,0.0772247314453125
1772534869100457200,5.306457275390625,0.2299041748046875,0.0463104248046875,-0.03253173828125
1772534869110474000,5.316473876953125,0.24884033203125,-0.0350189208984375,-0.1249847412109375
1772534869121117200,5.3271171875,0.200592041015625,-0.10406494140625,-0.1525726318359375
1772534869131133200,5.33713330078125,0.1544189453125,-0.1325531005859375,-0.11895751953125
1772534869141150200,5.347150146484375,0.161376953125,-0.141876220703125,-0.0928802490234375
1772534869151167200,5.357167236328125,0.1390380859375,-0.14312744140625,-0.0771636962890625
1772534869161183200,5.367183349609375,0.10272216796875,-0.162384033203125,-0.0619354248046875
1772534869171200300,5.3772001953125,0.0667266845703125,-0.17236328125,-0.08270263671875
1772534869181216300,5.38721630859375,0.0323638916015625,-0.185333251953125,-0.100982666015625
1772534869191233300,5.3972333984375,-0.037567138671875,-0.214599609375,-0.1028289794921875
1772534869201250000,5.40725,-0.1224365234375,-0.245513916015625,-0.1020660400390625
1772534869211266300,5.417266357421875,-0.2194061279296875,-0.267974853515625,-0.0746307373046875
1772534869221283000,5.427282958984375,-0.2946319580078125,-0.28729248046875,-0.071868896484375
1772534869231300000,5.437300048828125,-0.34320068359375,-0.3040618896484375,-0.1121978759765625
1772534869241316000,5.447316162109375,-0.3911895751953125,-0.31756591796875,-0.143096923828125
1772534869251333000,5.4573330078125,-0.4379730224609375,-0.34161376953125,-0.1490020751953125
1772534869261350100,5.46735009765625,-0.4570465087890625,-0.355438232421875,-0.151763916015625
1772534869271366100,5.4773662109375,-0.4717864990234375,-0.352935791015625,-0.1442108154296875
1772534869281383200,5.487383056640625,-0.5214691162109375,-0.3504486083984375,-0.112030029296875
1772534869291400200,5.497400146484375,-0.5798797607421875,-0.3457183837890625,-0.086944580078125
1772534869301416200,5.507416259765625,-0.6410675048828125,-0.35711669921875,-0.074249267578125
1772534869311433000,5.517432861328125,-0.6953582763671875,-0.3695526123046875,-0.1131439208984375
1772534869321450200,5.5274501953125,-0.739501953125,-0.3936614990234375,-0.1469268798828125
1772534869331466200,5.53746630859375,-0.8116607666015625,-0.4328765869140625,-0.1826324462890625
1772534869341483000,5.54748291015625,-0.9579010009765625,-0.4598541259765625,-0.206451416015625
1772534869351500300,5.557500244140625,-1.1475677490234375,-0.44879150390625,-0.230926513671875
1772534869361516300,5.567516357421875,-1.3533172607421875,-0.4087982177734375,-0.299102783203125
1772534869371533000,5.577532958984375,-1.591796875,-0.3910064697265625,-0.4301910400390625
1772534869381550000,5.587550048828125,-1.77716064453125,-0.4146575927734375,-0.55938720703125
1772534869391566300,5.59756640625,-1.896087646484375,-0.428680419921875,-0.5979461669921875
1772534869401583000,5.6075830078125,-2.01507568359375,-0.4772491455078125,-0.501373291015625
1772534869412852000,5.61885205078125,-2.209991455078125,-0.5449066162109375,-0.3659210205078125
1772534869422868200,5.6288681640625,-2.389923095703125,-0.4056854248046875,-0.4044342041015625
1772534869432885200,5.63888525390625,-2.4595489501953125,-0.17486572265625,-0.48834228515625
1772534869442902000,5.648902099609375,-2.4818267822265625,-0.040863037109375,-0.536895751953125
1772534869452918000,5.65891796875,-2.5274658203125,0.04156494140625,-0.5972137451171875
1772534869471699200,5.67769921875,-2.66094970703125,0.0016937255859375,-0.6909332275390625
1772534869481716200,5.68771630859375,-2.674530029296875,-0.0426025390625,-0.6368560791015625
1772534869491733000,5.69773291015625,-2.5138092041015625,-0.0384063720703125,-0.50396728515625
1772534869501749200,5.707749267578125,-2.279266357421875,-0.0486297607421875,-0.317413330078125
1772534869511766300,5.717766357421875,-2.07733154296875,-0.0745849609375,-0.103729248046875
1772534869521783000,5.727782958984375,-1.926849365234375,-0.1193084716796875,0.0678253173828125
1772534869531799000,5.737799072265625,-1.820037841796875,-0.138427734375,0.1850128173828125
1772534869541816300,5.74781640625,-1.732513427734375,-0.12725830078125,0.20703125
1772534869551833000,5.7578330078125,-1.6005096435546875,-0.09521484375,0.1040802001953125
1772534869561849000,5.76784912109375,-1.418975830078125,-0.071014404296875,-0.03497314453125
1772534869571866400,5.777866455078125,-1.20562744140625,-0.1035614013671875,-0.1887054443359375
1772534869581883100,5.787883056640625,-0.9933319091796875,-0.1739959716796875,-0.3777923583984375
1772534869591899100,5.797899169921875,-0.800201416015625,-0.2109375,-0.564361572265625
1772534869601916200,5.807916259765625,-0.6416015625,-0.21942138671875,-0.6836700439453125
1772534869611933200,5.81793310546875,-0.5058746337890625,-0.191619873046875,-0.688446044921875
1772534869621949200,5.82794921875,-0.39959716796875,-0.146881103515625,-0.6144561767578125
1772534869631966200,5.83796630859375,-0.31915283203125,-0.099609375,-0.4980316162109375
1772534869641983200,5.847983154296875,-0.2557373046875,-0.05035400390625,-0.37017822265625
1772534869651999200,5.857999267578125,-0.185089111328125,-0.0110626220703125,-0.2672271728515625
1772534869662016300,5.868016357421875,-0.099334716796875,0.011260986328125,-0.18682861328125
1772534869672033000,5.878032958984375,-0.0060272216796875,0.0118255615234375,-0.120391845703125
1772534869682049300,5.88804931640625,0.091522216796875,-0.0095062255859375,-0.0545196533203125
1772534869692066300,5.89806640625,0.1761932373046875,-0.054046630859375,-0.00927734375
1772534869702083000,5.9080830078125,0.1916046142578125,-0.0963897705078125,0.0003662109375
1772534869712099000,5.91809912109375,0.1487579345703125,-0.1393585205078125,-0.0260162353515625
1772534869722116400,5.928116455078125,0.108154296875,-0.1910552978515625,-0.0503082275390625
1772534869732133000,5.938133056640625,0.088592529296875,-0.21783447265625,-0.0941162109375
1772534869742149000,5.948149169921875,0.0818634033203125,-0.205322265625,-0.1389617919921875
1772534869752166100,5.958166259765625,0.115386962890625,-0.2069854736328125,-0.1775360107421875
1772534869762182100,5.96818212890625,0.078277587890625,-0.203887939453125,-0.1792449951171875
1772534869772199200,5.97819921875,0.0579071044921875,-0.1922454833984375,-0.1471405029296875
1772534869782216200,5.98821630859375,0.051055908203125,-0.1796722412109375,-0.1310577392578125
1772534869792232200,5.998232177734375,0.055389404296875,-0.1604766845703125,-0.1295166015625
1772534869802249200,6.008249267578125,0.047943115234375,-0.1504058837890625,-0.1361846923828125
1772534869812266000,6.018265869140625,0.0335235595703125,-0.1784515380859375,-0.150146484375
1772534869822282000,6.028281982421875,0.019287109375,-0.201751708984375,-0.15765380859375
1772534869832299300,6.03829931640625,-0.02264404296875,-0.2061004638671875,-0.13427734375
1772534869842316000,6.04831591796875,-0.0965118408203125,-0.2086334228515625,-0.0896148681640625
1772534869852332000,6.05833203125,-0.193389892578125,-0.222320556640625,-0.039581298828125
1772534869862349300,6.068349365234375,-0.3313446044921875,-0.2405853271484375,-0.016998291015625
1772534869872366000,6.078365966796875,-0.464630126953125,-0.2558135986328125,-0.0292510986328125
1772534869882382000,6.088382080078125,-0.586151123046875,-0.281890869140625,-0.0530853271484375
1772534869892399000,6.098399169921875,-0.7076263427734375,-0.3056793212890625,-0.0654754638671875
1772534869902416100,6.108416015625,-0.8329010009765625,-0.3270721435546875,-0.029937744140625
1772534869912432000,6.11843212890625,-1.029815673828125,-0.36395263671875,0.0044708251953125
1772534869922449700,6.12844970703125,-1.3196563720703125,-0.3780670166015625,-0.046112060546875
1772534869932466400,6.138466552734375,-1.6133880615234375,-0.3826446533203125,-0.1437225341796875
1772534869942482700,6.148482666015625,-1.881683349609375,-0.3853302001953125,-0.2769927978515625
1772534869952499700,6.158499755859375,-2.1105194091796875,-0.41693115234375,-0.3400421142578125
1772534869962516500,6.1685166015625,-2.32830810546875,-0.4959716796875,-0.257293701171875
1772534869972532500,6.178532470703125,-2.4970703125,-0.3679351806640625,-0.218719482421875
1772534869982549800,6.1885498046875,-2.518096923828125,-0.143768310546875,-0.22137451171875
1772534869992566500,6.19856640625,-2.5479278564453125,-0.1262054443359375,-0.14556884765625
1772534870002582500,6.20858251953125,-2.59344482421875,-0.202728271484375,-0.07757568359375
1772534870012599800,6.218599853515625,-2.57177734375,-0.2267913818359375,-0.0566864013671875
1772534870022616600,6.228616455078125,-2.4689178466796875,-0.242095947265625,0.0023345947265625
1772534870032632600,6.238632568359375,-2.33819580078125,-0.3041229248046875,0.12847900390625
1772534870042649600,6.248649658203125,-2.1733551025390625,-0.3500518798828125,0.2136688232421875
1772534870052665600,6.25866552734375,-2.050537109375,-0.3695831298828125,0.287567138671875
1772534870062682600,6.2686826171875,-2.0759735107421875,-0.360809326171875,0.43084716796875
1772534870072699600,6.27869970703125,-2.1432952880859375,-0.2508087158203125,0.510101318359375
1772534870082715400,6.28871533203125,-2.122802734375,-0.1491546630859375,0.4783477783203125
1772534870092732700,6.298732666015625,-1.994659423828125,-0.1529693603515625,0.3644561767578125
1772534870102749700,6.308749755859375,-1.7794647216796875,-0.1933441162109375,0.1632843017578125
1772534870112765400,6.318765380859375,-1.540557861328125,-0.2459716796875,-0.0619964599609375
1772534870122782700,6.32878271484375,-1.3169403076171875,-0.3038330078125,-0.2733306884765625
1772534870132799700,6.3387998046875,-1.122283935546875,-0.3242340087890625,-0.4105987548828125
1772534870142815500,6.3488154296875,-0.9360198974609375,-0.314788818359375,-0.4682769775390625
1772534870152832500,6.35883251953125,-0.7789154052734375,-0.3077239990234375,-0.4639739990234375
1772534870162849800,6.368849853515625,-0.6445159912109375,-0.29241943359375,-0.4197540283203125
1772534870172865500,6.378865478515625,-0.4990081787109375,-0.2541046142578125,-0.370391845703125
1772534870182882600,6.388882568359375,-0.3404388427734375,-0.2074432373046875,-0.29156494140625
1772534870192899600,6.398899658203125,-0.1862335205078125,-0.169708251953125,-0.1926422119140625
1772534870202915600,6.40891552734375,-0.05645751953125,-0.1485595703125,-0.1255950927734375
1772534870212932600,6.4189326171875,0.0272979736328125,-0.1425323486328125,-0.111083984375
1772534870222949600,6.42894970703125,0.04840087890625,-0.125579833984375,-0.11663818359375
1772534870232965600,6.438965576171875,0.0354461669921875,-0.1397552490234375,-0.0975341796875
1772534870242982700,6.448982666015625,0.0279388427734375,-0.1790313720703125,-0.0634002685546875
1772534870252999400,6.45899951171875,0.0254669189453125,-0.1962890625,-0.03460693359375
1772534870263015400,6.469015380859375,0.0446624755859375,-0.1952362060546875,0.0061798095703125
1772534870273032700,6.47903271484375,0.0538482666015625,-0.19464111328125,0.062591552734375
1772534870283049500,6.489049560546875,0.0324859619140625,-0.203155517578125,0.10528564453125
1772534870293065500,6.4990654296875,-0.0027923583984375,-0.1909332275390625,0.113372802734375
1772534870303082800,6.509082763671875,-0.0412445068359375,-0.17352294921875,0.103790283203125
1772534870313099500,6.519099609375,-0.0993194580078125,-0.1617431640625,0.0851898193359375
1772534870323115500,6.529115478515625,-0.172271728515625,-0.1454620361328125,0.07147216796875
1772534870333132500,6.539132568359375,-0.2308197021484375,-0.145660400390625,0.0792999267578125
1772534870343149600,6.549149658203125,-0.26434326171875,-0.1685638427734375,0.07781982421875
1772534870353165600,6.55916552734375,-0.265777587890625,-0.175689697265625,0.0409393310546875
1772534870363182600,6.5691826171875,-0.247772216796875,-0.1726226806640625,-0.0069427490234375
1772534870373198600,6.579198486328125,-0.228363037109375,-0.1963348388671875,-0.019256591796875
1772534870383215600,6.589215576171875,-0.22796630859375,-0.2194366455078125,-0.0207672119140625
1772534870393232600,6.599232666015625,-0.2347869873046875,-0.205108642578125,-0.055908203125
1772534870403248600,6.60924853515625,-0.2672576904296875,-0.1969146728515625,-0.10614013671875
1772534870413265700,6.619265625,-0.31884765625,-0.209808349609375,-0.1687164306640625
1772534870423282700,6.62928271484375,-0.36322021484375,-0.21661376953125,-0.2114410400390625
1772534870433298700,6.639298583984375,-0.4385986328125,-0.2382354736328125,-0.2041168212890625
1772534870443315500,6.6493154296875,-0.5630035400390625,-0.2998504638671875,-0.1574554443359375
1772534870453332700,6.659332763671875,-0.70184326171875,-0.346435546875,-0.1182861328125
1772534870463348700,6.6693486328125,-0.865264892578125,-0.336822509765625,-0.1129302978515625
1772534870473365500,6.679365478515625,-1.08294677734375,-0.3050994873046875,-0.1286468505859375
1772534870483382800,6.6893828125,-1.3076171875,-0.2451934814453125,-0.188751220703125
1772534870493398800,6.699398681640625,-1.4921722412109375,-0.1845245361328125,-0.3057708740234375
1772534870503415600,6.70941552734375,-1.6394500732421875,-0.2033538818359375,-0.3686370849609375
1772534870513432600,6.7194326171875,-1.80877685546875,-0.3560791015625,-0.2964019775390625
1772534870523448800,6.72944873046875,-2.0229644775390625,-0.414093017578125,-0.260101318359375
1772534870533465600,6.739465576171875,-2.165374755859375,-0.2731781005859375,-0.34051513671875
1772534870543482600,6.749482666015625,-2.2928466796875,-0.279632568359375,-0.3327178955078125
1772534870553498600,6.75949853515625,-2.5367584228515625,-0.34674072265625,-0.304962158203125
1772534870563515600,6.769515625,-2.725982666015625,-0.253143310546875,-0.40673828125
1772534870573532700,6.77953271484375,-2.720489501953125,-0.1365814208984375,-0.533111572265625
1772534870583548700,6.789548583984375,-2.5919342041015625,-0.09564208984375,-0.58599853515625
1772534870593565700,6.799565673828125,-2.396453857421875,-0.0844879150390625,-0.56561279296875
1772534870603582700,6.809582763671875,-2.162353515625,-0.0529632568359375,-0.4999542236328125
1772534870613598500,6.819598388671875,-2.0258331298828125,-0.076263427734375,-0.338470458984375
1772534870623615500,6.829615478515625,-2.080596923828125,-0.1845703125,-0.0862884521484375
1772534870633632800,6.8396328125,-2.23175048828125,-0.188873291015625,0.0622711181640625
1772534870643648500,6.8496484375,-2.2845916748046875,-0.0776214599609375,0.044097900390625
1772534870653665500,6.85966552734375,-2.1814422607421875,-0.042572021484375,-0.015533447265625
1772534870663681500,6.869681640625,-1.9513397216796875,-0.0696563720703125,-0.1348419189453125
1772534870673698600,6.879698486328125,-1.6126251220703125,-0.1262054443359375,-0.261260986328125
1772534870683715600,6.889715576171875,-1.25958251953125,-0.202392578125,-0.34716796875
1772534870693731600,6.899731689453125,-0.9501190185546875,-0.238250732421875,-0.3859710693359375
1772534870703748600,6.90974853515625,-0.6941986083984375,-0.25628662109375,-0.3793487548828125
1772534870713765600,6.919765625,-0.546783447265625,-0.26483154296875,-0.3473968505859375
1772534870723781600,6.92978173828125,-0.46051025390625,-0.261474609375,-0.2824554443359375
1772534870733798400,6.93979833984375,-0.3578948974609375,-0.2490997314453125,-0.2001190185546875
1772534870743815700,6.949815673828125,-0.258758544921875,-0.225860595703125,-0.156768798828125
1772534870753831700,6.959831787109375,-0.17718505859375,-0.1979217529296875,-0.1736602783203125
1772534870763848400,6.969848388671875,-0.1189727783203125,-0.1712188720703125,-0.1944732666015625
1772534870773865700,6.97986572265625,-0.0639190673828125,-0.1784820556640625,-0.1949005126953125
1772534870783881700,6.9898818359375,-0.0007781982421875,-0.1889495849609375,-0.1929779052734375
1772534870793898500,6.9998984375,0.0532684326171875,-0.195465087890625,-0.19482421875
1772534870803915500,7.00991552734375,0.0985565185546875,-0.197296142578125,-0.1848907470703125
1772534870813931800,7.019931884765625,0.1280059814453125,-0.2067718505859375,-0.13482666015625
1772534870823948500,7.029948486328125,0.1464385986328125,-0.2203216552734375,-0.06732177734375
1772534870833965600,7.039965576171875,0.1458892822265625,-0.216339111328125,-0.0106353759765625
1772534870843981600,7.049981689453125,0.1119384765625,-0.2047271728515625,0.0199737548828125
1772534870853998600,7.05999853515625,0.0554962158203125,-0.2093658447265625,0.023223876953125
1772534870864015600,7.070015625,-0.01910400390625,-0.22039794921875,0.021209716796875
1772534870874031600,7.080031494140625,-0.0764007568359375,-0.20867919921875,0.0304718017578125
1772534870884048600,7.090048583984375,-0.126983642578125,-0.1921539306640625,0.0646820068359375
1772534870894065700,7.100065673828125,-0.192047119140625,-0.19830322265625,0.1301116943359375
1772534870904081700,7.11008154296875,-0.24932861328125,-0.2212677001953125,0.1664886474609375
1772534870914098400,7.120098388671875,-0.2986602783203125,-0.2283172607421875,0.1368560791015625
1772534870924115200,7.130115234375,-0.3371429443359375,-0.2306976318359375,0.0858306884765625
1772534870934131200,7.140131103515625,-0.3762664794921875,-0.266693115234375,0.056396484375
1772534870944148200,7.150148193359375,-0.420623779296875,-0.30767822265625,0.0144195556640625
1772534870954165200,7.160165283203125,-0.446258544921875,-0.329010009765625,-0.026123046875
1772534870964181200,7.17018115234375,-0.4744720458984375,-0.3404388427734375,-0.0266571044921875
1772534870974198300,7.1801982421875,-0.5286407470703125,-0.3461761474609375,-0.009033203125
1772534870984214300,7.19021435546875,-0.65472412109375,-0.324615478515625,-0.009735107421875
1772534870994231300,7.200231201171875,-0.8905181884765625,-0.3214111328125,-0.0132293701171875
1772534871004248000,7.210248046875,-1.1357879638671875,-0.34033203125,-0.03857421875
1772534871014264300,7.220264404296875,-1.3583984375,-0.3201904296875,-0.0964202880859375
1772534871024281300,7.23028125,-1.5832977294921875,-0.300933837890625,-0.125579833984375
1772534871034298000,7.240298095703125,-1.7999725341796875,-0.30145263671875,-0.1593475341796875
1772534871044314000,7.250314208984375,-1.9774322509765625,-0.2727508544921875,-0.2548828125
1772534871054331400,7.260331298828125,-2.137359619140625,-0.226104736328125,-0.39776611328125
1772534871064348200,7.27034814453125,-2.2558135986328125,-0.1912384033203125,-0.5133819580078125
1772534871074364200,7.2803642578125,-2.3410186767578125,-0.1298675537109375,-0.5716705322265625
1772534871084381400,7.29038134765625,-2.4394989013671875,0.0048980712890625,-0.65960693359375
1772534871094398200,7.300398193359375,-2.5312652587890625,0.068145751953125,-0.7247161865234375
1772534871104414200,7.310414306640625,-2.659576416015625,0.0239715576171875,-0.70526123046875
1772534871114431200,7.32043115234375,-2.7774505615234375,0.0094757080078125,-0.6507415771484375
1772534871124448300,7.3304482421875,-2.8225555419921875,0.0557403564453125,-0.579681396484375
1772534871134464300,7.34046435546875,-2.7238006591796875,0.1164398193359375,-0.45404052734375
1772534871144481300,7.350481201171875,-2.519317626953125,0.1153564453125,-0.3227691650390625
1772534871154498300,7.360498291015625,-2.29144287109375,0.032623291015625,-0.162384033203125
1772534871164514300,7.370514404296875,-2.1247406005859375,-0.1215972900390625,0.0596923828125
1772534871174531300,7.38053125,-2.0252227783203125,-0.22259521484375,0.204345703125
1772534871184548000,7.390548095703125,-1.8613739013671875,-0.21490478515625,0.2022705078125
1772534871194564400,7.400564453125,-1.623138427734375,-0.2064666748046875,0.170257568359375
1772534871204581400,7.410581298828125,-1.3953857421875,-0.235565185546875,0.1275482177734375
1772534871214597000,7.42059716796875,-1.180694580078125,-0.2334442138671875,-0.009063720703125
1772534871224614100,7.4306142578125,-0.9556121826171875,-0.183685302734375,-0.2235565185546875
1772534871234631400,7.44063134765625,-0.7615966796875,-0.139434814453125,-0.412139892578125
1772534871244647200,7.450647216796875,-0.5766754150390625,-0.160614013671875,-0.511627197265625
1772534871254664200,7.460664306640625,-0.4000091552734375,-0.1770477294921875,-0.537078857421875
1772534871264681200,7.47068115234375,-0.1892242431640625,-0.1717987060546875,-0.5261688232421875
1772534871274697200,7.480697265625,0.0355224609375,-0.1536865234375,-0.5101776123046875
1772534871284714200,7.49071435546875,0.22479248046875,-0.131378173828125,-0.4766845703125
1772534871294731300,7.500731201171875,0.34954833984375,-0.1170806884765625,-0.407379150390625
1772534871304747300,7.510747314453125,0.43463134765625,-0.11981201171875,-0.306671142578125
1772534871314764300,7.520764404296875,0.47430419921875,-0.1219635009765625,-0.1988525390625
1772534871324781000,7.530781005859375,0.442718505859375,-0.1247711181640625,-0.11541748046875
1772534871334797000,7.540797119140625,0.3549652099609375,-0.1263427734375,-0.0731048583984375
1772534871344814300,7.550814453125,0.237548828125,-0.13739013671875,-0.010040283203125
1772534871354831000,7.5608310546875,0.090057373046875,-0.1568450927734375,0.037841796875
1772534871364847000,7.57084716796875,-0.074249267578125,-0.1464385986328125,0.0365753173828125
1772534871374864400,7.580864501953125,-0.2246856689453125,-0.1323699951171875,0.034576416015625
1772534871384881200,7.590881103515625,-0.3072662353515625,-0.13494873046875,0.039031982421875
1772534871394897200,7.600897216796875,-0.3104705810546875,-0.13592529296875,0.03851318359375
1772534871404914200,7.6109140625,-0.27288818359375,-0.1454010009765625,0.0310211181640625
1772534871414931200,7.62093115234375,-0.2331390380859375,-0.17352294921875,0.03399658203125
1772534871424947200,7.630947265625,-0.2050323486328125,-0.208282470703125,0.042816162109375
1772534871434964200,7.640964111328125,-0.2088623046875,-0.2240447998046875,0.0507354736328125
1772534871444981200,7.650981201171875,-0.253143310546875,-0.229736328125,0.0840911865234375
1772534871454997200,7.660997314453125,-0.313751220703125,-0.2401123046875,0.1002655029296875
1772534871465014300,7.67101416015625,-0.386260986328125,-0.2271270751953125,0.0858001708984375
1772534871475030300,7.6810302734375,-0.447113037109375,-0.2252349853515625,0.0630340576171875
1772534871485047300,7.69104736328125,-0.4719696044921875,-0.24969482421875,0.0170135498046875
1772534871495064300,7.701064208984375,-0.466796875,-0.2634429931640625,-0.0469512939453125
1772534871505080300,7.711080322265625,-0.4398345947265625,-0.276275634765625,-0.1186981201171875
1772534871515097000,7.72109716796875,-0.4251708984375,-0.2765350341796875,-0.169525146484375
1772534871525114400,7.7311142578125,-0.4851837158203125,-0.28802490234375,-0.183074951171875
1772534871535130400,7.74113037109375,-0.6080169677734375,-0.32977294921875,-0.1567230224609375
1772534871545147100,7.751147216796875,-0.7373809814453125,-0.3566436767578125,-0.160675048828125
1772534871555164400,7.761164306640625,-0.909881591796875,-0.3625335693359375,-0.2075042724609375
1772534871565180400,7.771180419921875,-1.1129302978515625,-0.3489837646484375,-0.21527099609375
1772534871575197200,7.781197265625,-1.320159912109375,-0.3625640869140625,-0.1756744384765625
1772534871585214200,7.791214111328125,-1.569580078125,-0.4284515380859375,-0.11676025390625
1772534871595230500,7.80123046875,-1.837005615234375,-0.530120849609375,-0.054412841796875
1772534871605247200,7.811247314453125,-2.189483642578125,-0.674560546875,-0.0217132568359375
1772534871615264300,7.82126416015625,-2.649017333984375,-0.744537353515625,-0.0517120361328125
1772534871625280300,7.8312802734375,-3.0709075927734375,-0.544219970703125,-0.21136474609375
1772534871635297300,7.84129736328125,-3.39239501953125,-0.3067169189453125,-0.378662109375
1772534871645314300,7.851314208984375,-3.806365966796875,-0.189056396484375,-0.5671844482421875
1772534871655330300,7.861330322265625,-4.1742706298828125,0.006439208984375,-0.8956298828125
1772534871665347300,7.871347412109375,-4.175079345703125,0.138702392578125,-1.093505859375
1772534871675364400,7.8813642578125,-3.79498291015625,0.0869293212890625,-1.1138153076171875
1772534871685380000,7.891380126953125,-3.1873931884765625,0.026275634765625,-1.0349884033203125
1772534871695397000,7.901397216796875,-2.623291015625,-0.017242431640625,-0.8608551025390625
1772534871705413400,7.911413330078125,-2.2487335205078125,-0.0674896240234375,-0.6316986083984375
1772534871715430100,7.92143017578125,-1.9994659423828125,-0.089263916015625,-0.43548583984375
1772534871725447200,7.931447265625,-1.7895660400390625,-0.0697479248046875,-0.2751617431640625
1772534871735463200,7.941463134765625,-1.57049560546875,-0.0594024658203125,-0.1108856201171875
1772534871745480200,7.951480224609375,-1.3678741455078125,-0.0273895263671875,-0.016326904296875
1772534871755497200,7.961497314453125,-1.1329345703125,0.0481109619140625,-0.0590362548828125
1772534871765513200,7.97151318359375,-0.871917724609375,0.1094512939453125,-0.1755523681640625
1772534871775530200,7.9815302734375,-0.5980377197265625,0.137908935546875,-0.3169403076171875
1772534871785547300,7.99154736328125,-0.3280029296875,0.0995941162109375,-0.4481964111328125
1772534871795563300,8.001563232421875,-0.0532379150390625,0.0570068359375,-0.562286376953125
1772534871805580000,8.011580078125,0.2294158935546875,0.0564422607421875,-0.617218017578125
1772534871815597300,8.021597412109376,0.4882659912109375,0.054046630859375,-0.5748291015625
1772534871825613300,8.03161328125,0.6811370849609375,0.0542755126953125,-0.455841064453125
1772534871835630000,8.041630126953125,0.764434814453125,0.0420989990234375,-0.3522186279296875
1772534871845647400,8.0516474609375,0.780853271484375,0.0294952392578125,-0.277099609375
1772534871855663400,8.061663330078124,0.7017669677734375,0.04034423828125,-0.1967926025390625
1772534871865680100,8.07168017578125,0.546844482421875,0.00537109375,-0.130462646484375
1772534871875697200,8.081697265625,0.3767547607421875,-0.0265350341796875,-0.071319580078125
1772534871885713400,8.09171337890625,0.2396087646484375,-0.0172271728515625,-0.0543212890625
1772534871895730200,8.101730224609375,0.121826171875,0.00836181640625,-0.0762481689453125
1772534871905746200,8.11174609375,0.0377044677734375,0.02484130859375,-0.0753936767578125
1772534871915763200,8.12176318359375,0.022705078125,0.0034332275390625,-0.035369873046875
1772534871925779700,8.13177978515625,0.04119873046875,-0.018463134765625,0.0010528564453125
1772534871935796000,8.1417958984375,0.0540771484375,-0.0374755859375,0.0261383056640625
1772534871945813000,8.15181298828125,0.0777587890625,-0.0693206787109375,0.07086181640625
1772534871955829800,8.161829833984376,0.092498779296875,-0.07769775390625,0.10546875
1772534871965845800,8.171845703125,0.0924835205078125,-0.05303955078125,0.113983154296875
1772534871975863000,8.181863037109375,0.0492095947265625,-0.04901123046875,0.117767333984375
1772534871985879800,8.1918798828125,0.006195068359375,-0.0836029052734375,0.09857177734375
1772534871995895800,8.201895751953124,-0.047637939453125,-0.090972900390625,0.034576416015625
1772534872005913000,8.2119130859375,-0.1205902099609375,-0.0937957763671875,-0.0457611083984375
1772534872015929900,8.221929931640625,-0.1918487548828125,-0.1324615478515625,-0.0801849365234375
1772534872025945900,8.23194580078125,-0.2583160400390625,-0.1829071044921875,-0.0953216552734375
1772534872035963000,8.241962890625,-0.30706787109375,-0.2099761962890625,-0.103363037109375
1772534872045980000,8.25197998046875,-0.3750152587890625,-0.23095703125,-0.062469482421875
1772534872055996000,8.261995849609375,-0.445465087890625,-0.287689208984375,-0.009002685546875
1772534872066013000,8.272012939453125,-0.507720947265625,-0.31756591796875,-0.0228424072265625
1772534872076030000,8.282030029296875,-0.565643310546875,-0.3188018798828125,-0.071441650390625
1772534872086046000,8.2920458984375,-0.6574859619140625,-0.3696441650390625,-0.087799072265625
1772534872096063000,8.30206298828125,-0.8153228759765625,-0.4720611572265625,-0.0926361083984375
1772534872106079700,8.312079833984376,-1.0046844482421875,-0.5662384033203125,-0.082794189453125
1772534872116096000,8.322095947265625,-1.2420654296875,-0.6766815185546875,-0.0219879150390625
1772534872126113000,8.332113037109375,-1.52862548828125,-0.7999725341796875,0.02978515625
1772534872136129000,8.34212890625,-1.845611572265625,-0.8035430908203125,-0.0177154541015625
1772534872146145800,8.352145751953126,-2.279296875,-0.8019866943359375,-0.08477783203125
1772534872156163000,8.3621630859375,-2.72808837890625,-0.8729248046875,-0.0706939697265625
1772534872166178800,8.3721787109375,-3.011383056640625,-0.9161224365234375,-0.0719146728515625
1772534872176195800,8.38219580078125,-3.057891845703125,-0.8289794921875,-0.1981964111328125
1772534872186213000,8.392213134765624,-3.0477294921875,-0.6543426513671875,-0.40655517578125
1772534872196228900,8.402228759765626,-3.23492431640625,-0.537261962890625,-0.47235107421875
1772534872206246000,8.412245849609375,-3.4512939453125,-0.4421234130859375,-0.476837158203125
1772534872216263000,8.422262939453125,-3.4909820556640625,-0.2398529052734375,-0.4684295654296875
1772534872226279000,8.43227880859375,-3.318267822265625,-0.0478363037109375,-0.4123077392578125
1772534872236296000,8.4422958984375,-2.99847412109375,0.11248779296875,-0.289642333984375
1772534872246313000,8.45231298828125,-2.68951416015625,0.184814453125,-0.130340576171875
1772534872256328700,8.46232861328125,-2.4389801025390625,0.190643310546875,-0.0328521728515625
1772534872266346000,8.472345947265625,-2.207794189453125,0.16094970703125,-0.0402984619140625
1772534872276363000,8.482363037109375,-1.984222412109375,0.1490631103515625,-0.1115264892578125
1772534872286378800,8.492378662109376,-1.74981689453125,0.13385009765625,-0.1827850341796875
1772534872296396000,8.50239599609375,-1.51904296875,0.0779266357421875,-0.2580108642578125
1772534872306413000,8.5124130859375,-1.31561279296875,0.045745849609375,-0.366607666015625
1772534872316428800,8.5224287109375,-1.136383056640625,0.039794921875,-0.4537200927734375
1772534872326445800,8.53244580078125,-0.96783447265625,0.036773681640625,-0.4824371337890625
1772534872336462000,8.542462158203126,-0.7724609375,0.03985595703125,-0.44976806640625
1772534872346478800,8.552478759765625,-0.545166015625,0.0172119140625,-0.3459625244140625
1772534872356496000,8.562495849609375,-0.32769775390625,-0.0381011962890625,-0.3194732666015625
1772534872366511900,8.572511962890625,-0.149169921875,-0.02301025390625,-0.408172607421875
1772534872376529000,8.58252880859375,0.0129547119140625,-0.0028228759765625,-0.46173095703125
1772534872386546000,8.5925458984375,0.2011566162109375,-0.0592041015625,-0.39044189453125
1772534872396562000,8.60256201171875,0.34307861328125,-0.091400146484375,-0.2645721435546875
1772534872406579000,8.612578857421875,0.413604736328125,-0.0907745361328125,-0.152069091796875
1772534872416596000,8.622595947265625,0.40374755859375,-0.105377197265625,-0.0521240234375
1772534872426612000,8.632612060546874,0.3300323486328125,-0.1125946044921875,0.026397705078125
1772534872436628700,8.642628662109376,0.2417449951171875,-0.11810302734375,0.071136474609375
1772534872446646000,8.65264599609375,0.1470947265625,-0.14910888671875,0.0961456298828125
1772534872456662000,8.662662109375,0.0752105712890625,-0.1818084716796875,0.08245849609375
1772534872466678800,8.6726787109375,0.038970947265625,-0.1959991455078125,0.03924560546875
1772534872476696000,8.682696044921874,0.01910400390625,-0.20782470703125,0.012603759765625
1772534872486712000,8.692712158203125,0.00567626953125,-0.2266387939453125,0.020751953125
1772534872496728800,8.702728759765625,0.02679443359375,-0.24114990234375,0.0306549072265625
1772534872506745900,8.712745849609375,0.0514984130859375,-0.2337646484375,0.0400390625
1772534872516762000,8.72276220703125,0.055450439453125,-0.2080535888671875,0.035125732421875
1772534872526779000,8.73277880859375,0.0174102783203125,-0.1926116943359375,-0.0094146728515625
1772534872536796000,8.7427958984375,-0.0352630615234375,-0.184814453125,-0.0755157470703125
1772534872546812000,8.75281201171875,-0.0797882080078125,-0.185089111328125,-0.103118896484375
1772534872556829000,8.762828857421875,-0.1235504150390625,-0.2001190185546875,-0.051849365234375
1772534872566845000,8.772844970703124,-0.163055419921875,-0.1988372802734375,0.0165252685546875
1772534872576862000,8.782862060546876,-0.209136962890625,-0.2075958251953125,0.0552978515625
1772534872586879000,8.79287890625,-0.2824859619140625,-0.23480224609375,0.041961669921875
1772534872596895000,8.80289501953125,-0.3688201904296875,-0.2568817138671875,0.002532958984375
1772534872606912000,8.812912109375,-0.43255615234375,-0.2769927978515625,0.003631591796875
1772534872616928800,8.8229287109375,-0.527587890625,-0.293975830078125,0.025634765625
1772534872626945000,8.832945068359376,-0.71490478515625,-0.3356475830078125,0.03546142578125
1772534872636962000,8.842962158203125,-1.02093505859375,-0.3970489501953125,0.0671234130859375
1772534872646978800,8.852978759765625,-1.320159912109375,-0.4467010498046875,0.0797271728515625
1772534872656994800,8.862994873046874,-1.676422119140625,-0.4548187255859375,0.0843963623046875
1772534872667012000,8.87301220703125,-1.8654632568359375,-0.4696197509765625,0.0366973876953125
1772534872677028900,8.88302880859375,-1.8878326416015625,-0.517303466796875,-0.065338134765625
1772534872687044900,8.893044921875,-1.93377685546875,-0.5215606689453125,-0.11468505859375
1772534872697062000,8.903061767578125,-1.9609527587890625,-0.520751953125,-0.1468353271484375
1772534872707079000,8.913078857421874,-2.036285400390625,-0.510711669921875,-0.251220703125
1772534872717095000,8.923094970703126,-2.0230865478515625,-0.33856201171875,-0.3571624755859375
1772534872727112000,8.93311181640625,-2.0491180419921875,-0.2211151123046875,-0.3293304443359375
1772534872737128000,8.9431279296875,-2.2985076904296875,-0.1596832275390625,-0.287139892578125
1772534872747145000,8.95314501953125,-2.294036865234375,-0.2118988037109375,-0.252960205078125
1772534872757161700,8.96316162109375,-2.2999725341796875,-0.3236236572265625,-0.2026824951171875
1772534872767177700,8.973177734375,-2.3653717041015625,-0.3415985107421875,-0.20941162109375
1772534872777195000,8.983195068359375,-2.225189208984375,-0.3180084228515625,-0.2291107177734375
1772534872787211800,8.993211669921875,-2.0658416748046875,-0.2705230712890625,-0.2092132568359375
1772534872797227800,9.003227783203124,-2.0556488037109375,-0.1765594482421875,-0.273590087890625
1772534872807245000,9.0132451171875,-2.1044921875,-0.0778045654296875,-0.287933349609375
1772534872817261800,9.02326171875,-2.13323974609375,-0.0322265625,-0.2397308349609375
1772534872827277800,9.03327783203125,-2.0972442626953125,-0.0778045654296875,-0.1898651123046875
1772534872837294800,9.043294921875,-2.036285400390625,-0.1102447509765625,-0.161956787109375
1772534872847312000,9.053311767578125,-1.8679046630859375,-0.1139068603515625,-0.2200469970703125
1772534872857327900,9.063327880859376,-1.5601348876953125,-0.151336669921875,-0.3109893798828125
1772534872867345000,9.073344970703126,-1.2559814453125,-0.2228546142578125,-0.33038330078125
1772534872877362000,9.08336181640625,-0.8901824951171875,-0.2120361328125,-0.368988037109375
1772534872887378000,9.0933779296875,-0.5317840576171875,-0.2325439453125,-0.4984893798828125
1772534872897395000,9.10339501953125,-0.4488983154296875,-0.5284576416015625,-0.495513916015625
1772534872907411700,9.11341162109375,-0.3343048095703125,-0.5390625,-0.5161895751953125
1772534872917428000,9.123427978515625,-0.23260498046875,-0.3434906005859375,-0.505889892578125
1772534872927445200,9.1334453125,-0.277496337890625,-0.1697540283203125,-0.41461181640625
1772534872937461200,9.143461181640625,-0.3654327392578125,-0.13226318359375,-0.1838531494140625
1772534872947478300,9.153478271484374,-0.1589813232421875,0.0032501220703125,0.214508056640625
1772534872957495300,9.163495361328126,0.0948028564453125,-0.0855560302734375,0.574462890625
1772534872967511300,9.17351123046875,-0.396820068359375,-0.1926422119140625,0.4476165771484375
1772534872977528300,9.1835283203125,-0.551177978515625,-0.055267333984375,0.0866851806640625
1772534872987545300,9.19354541015625,-0.09649658203125,-0.0661773681640625,0.042236328125
1772534872997561300,9.203561279296874,0.134124755859375,-0.1293792724609375,0.045989990234375
1772534873007578000,9.213578125,0.2056427001953125,-0.109283447265625,-0.0656890869140625
1772534873017595400,9.223595458984375,0.244873046875,-0.102142333984375,-0.193084716796875
1772534873027611100,9.233611083984375,0.3287200927734375,-0.106781005859375,-0.22509765625
1772534873037628200,9.243628173828125,0.381378173828125,-0.0984039306640625,-0.2096099853515625
1772534873047645400,9.2536455078125,0.31658935546875,-0.0657501220703125,-0.179901123046875
1772534873057661200,9.2636611328125,0.1845703125,-0.063079833984375,-0.155914306640625
1772534873067678200,9.27367822265625,0.0082855224609375,-0.099884033203125,-0.1379241943359375
1772534873077695200,9.2836953125,-0.11578369140625,-0.1059417724609375,-0.109100341796875
1772534873087711200,9.293711181640624,-0.198699951171875,-0.03875732421875,-0.0966033935546875
1772534873097728300,9.303728271484376,-0.24609375,0.009185791015625,-0.0860748291015625
1772534873107745300,9.313745361328126,-0.2509765625,-0.0051727294921875,-0.06121826171875
1772534873117761000,9.323760986328125,-0.242584228515625,-0.041778564453125,-0.0227508544921875
1772534873127778300,9.3337783203125,-0.234954833984375,-0.087921142578125,0.0159149169921875
1772534873137794300,9.343794189453124,-0.2428131103515625,-0.130706787109375,0.0511016845703125
1772534873147811000,9.35381103515625,-0.275970458984375,-0.1690673828125,0.048065185546875
1772534873157828400,9.363828369140625,-0.35430908203125,-0.2186126708984375,0.0243072509765625
1772534873167844400,9.37384423828125,-0.5103607177734375,-0.2743988037109375,0.0493621826171875
1772534873177861000,9.383861083984375,-0.7050933837890625,-0.339752197265625,0.1049957275390625
1772534873187878100,9.393878173828124,-0.9203643798828125,-0.4251861572265625,0.0717620849609375
1772534873197894400,9.403894287109376,-1.0906219482421875,-0.48699951171875,-0.047821044921875
1772534873207911200,9.4139111328125,-1.208404541015625,-0.5006561279296875,-0.2169036865234375
1772534873217928200,9.42392822265625,-1.309661865234375,-0.5151824951171875,-0.4145965576171875
1772534873227944200,9.433944091796874,-1.4423675537109375,-0.58233642578125,-0.52984619140625
1772534873237961200,9.443961181640624,-1.6876373291015625,-0.648590087890625,-0.506439208984375
1772534873247978200,9.453978271484376,-1.9801025390625,-0.6630859375,-0.4337005615234375
1772534873257994200,9.463994140625,-2.2651519775390625,-0.5271148681640625,-0.3082427978515625
1772534873269263400,9.475263427734374,-2.50811767578125,-0.28143310546875,-0.1608428955078125
1772534873279280000,9.485280029296876,-2.672515869140625,-0.2017364501953125,-0.0734710693359375
1772534873289296100,9.495296142578125,-2.784454345703125,-0.24835205078125,-0.10009765625
1772534873299313400,9.5053134765625,-2.89117431640625,-0.2924957275390625,-0.0988616943359375
1772534873309330200,9.515330078125,-2.862091064453125,-0.249725341796875,-0.13433837890625
1772534873319346200,9.52534619140625,-2.768829345703125,-0.153564453125,-0.2165985107421875
1772534873329363500,9.535363525390625,-2.6396942138671875,-0.105804443359375,-0.35888671875
1772534873339379200,9.545379150390625,-2.4318695068359375,-0.1089324951171875,-0.482696533203125
1772534873349396200,9.555396240234375,-2.165985107421875,-0.230072021484375,-0.4731597900390625
1772534873359413200,9.565413330078124,-1.903717041015625,-0.357177734375,-0.3873138427734375
1772534873369429200,9.57542919921875,-1.6644439697265625,-0.3514556884765625,-0.3193206787109375
1772534873379446300,9.5854462890625,-1.4947509765625,-0.306304931640625,-0.297882080078125
1772534873389463300,9.59546337890625,-1.3226470947265625,-0.274200439453125,-0.3162994384765625
1772534873399479000,9.60547900390625,-1.0905914306640625,-0.3321533203125,-0.3281402587890625
1772534873409496300,9.615496337890624,-0.939422607421875,-0.36474609375,-0.3234100341796875
1772534873419513300,9.625513427734376,-1.014862060546875,-0.3480987548828125,-0.342987060546875
1772534873429529000,9.635529052734375,-0.97650146484375,-0.34112548828125,-0.35943603515625
1772534873439546400,9.64554638671875,-0.7819671630859375,-0.3197021484375,-0.348358154296875
1772534873449563400,9.6555634765625,-0.632720947265625,-0.2744140625,-0.3365478515625
1772534873459579100,9.6655791015625,-0.5651092529296875,-0.2131195068359375,-0.3310394287109375
1772534873469596200,9.67559619140625,-0.5186920166015625,-0.158721923828125,-0.3128814697265625
1772534873479613200,9.68561328125,-0.4865264892578125,-0.1203460693359375,-0.2740020751953125
1772534873489629200,9.695629150390625,-0.453125,-0.0887451171875,-0.2103271484375
1772534873499646200,9.705646240234374,-0.394378662109375,-0.09716796875,-0.1436614990234375
1772534873509663200,9.715663330078126,-0.3448333740234375,-0.1388397216796875,-0.0879669189453125
1772534873519679200,9.72567919921875,-0.2896575927734375,-0.176055908203125,-0.04595947265625
1772534873529696300,9.7356962890625,-0.2298126220703125,-0.194366455078125,-0.018310546875
1772534873539713000,9.745713134765625,-0.1781768798828125,-0.196502685546875,0.0028076171875
1772534873549729300,9.755729248046874,-0.132232666015625,-0.1805572509765625,0.016876220703125
1772534873559746300,9.765746337890626,-0.105377197265625,-0.153839111328125,0.017120361328125
1772534873569762300,9.77576220703125,-0.1173553466796875,-0.133819580078125,0.0127410888671875
1772534873579779000,9.785779052734375,-0.15704345703125,-0.1461029052734375,0.02935791015625
1772534873589796400,9.79579638671875,-0.19989013671875,-0.17425537109375,0.0434112548828125
1772534873599812400,9.805812255859376,-0.205963134765625,-0.1886749267578125,0.0467987060546875
1772534873609829000,9.8158291015625,-0.16302490234375,-0.20849609375,0.032196044921875
1772534873619846400,9.825846435546875,-0.1199798583984375,-0.258514404296875,-0.002532958984375
1772534873629862400,9.8358623046875,-0.1101226806640625,-0.281097412109375,-0.0234832763671875
1772534873639879200,9.845879150390624,-0.1023101806640625,-0.29364013671875,-0.0244598388671875
1772534873649896200,9.855896240234374,-0.083404541015625,-0.280670166015625,-0.02508544921875
1772534873659912400,9.865912353515625,-0.0731964111328125,-0.2313232421875,-0.026397705078125
1772534873669929200,9.87592919921875,-0.07305908203125,-0.184539794921875,-0.0134735107421875
1772534873679946200,9.8859462890625,-0.093597412109375,-0.1382904052734375,-0.0006256103515625
1772534873689962200,9.895962158203124,-0.1548919677734375,-0.099517822265625,-0.0077972412109375
1772534873699979300,9.905979248046876,-0.363067626953125,-0.03778076171875,-0.01837158203125
1772534873709995300,9.915995361328125,-0.68603515625,-0.0046539306640625,-0.007293701171875
1772534873720012300,9.92601220703125,-0.7946319580078125,-0.1051177978515625,0.0637664794921875
1772534873730029300,9.936029296875,-0.6967315673828125,-0.2543182373046875,0.1769866943359375
1772534873740045300,9.94604541015625,-0.6792144775390625,-0.3258056640625,0.264434814453125
1772534873750062300,9.956062255859376,-0.836151123046875,-0.3472900390625,0.261322021484375
1772534873760079000,9.9660791015625,-1.0308380126953125,-0.381256103515625,0.2019500732421875
1772534873770095400,9.976095458984375,-1.076080322265625,-0.4370269775390625,0.039093017578125
1772534873780112400,9.9861123046875,-1.42181396484375,-0.4175262451171875,-0.2014312744140625
1772534873790129200,9.996129150390624,-1.5911102294921875,-0.26416015625,-0.26568603515625
1772534873800145200,10.006145263671876,-1.7703857421875,-0.091583251953125,-0.217254638671875
1772534873810162400,10.016162353515625,-2.0779266357421875,-0.0271759033203125,-0.1396942138671875
1772534873826439200,10.032439208984375,-2.306854248046875,-0.1982421875,0.0103912353515625
1772534873836456200,10.042456298828125,-2.340606689453125,-0.2994384765625,0.114990234375
1772534873846472200,10.05247216796875,-2.321380615234375,-0.379669189453125,0.140869140625
1772534873856489200,10.0624892578125,-2.2716522216796875,-0.3796844482421875,0.102447509765625
1772534873866506200,10.07250634765625,-2.2452850341796875,-0.337890625,0.051055908203125
1772534873876522200,10.082522216796875,-2.20599365234375,-0.30609130859375,-0.0104217529296875
1772534873886539300,10.092539306640624,-2.1353607177734375,-0.3322906494140625,-0.0632476806640625
1772534873896555300,10.10255517578125,-2.1199951171875,-0.379638671875,-0.065673828125
1772534873906572300,10.112572265625,-2.1486358642578125,-0.41058349609375,-0.0020904541015625
1772534873916589300,10.12258935546875,-2.1859283447265625,-0.3702239990234375,0.029876708984375
1772534873926605800,10.132605712890625,-2.159210205078125,-0.2535552978515625,-0.051544189453125
1772534873936622600,10.14262255859375,-2.0310211181640625,-0.125396728515625,-0.1727752685546875
1772534873946639600,10.1526396484375,-1.80035400390625,-0.0412139892578125,-0.2090606689453125
1772534873956655600,10.162655517578125,-1.5676727294921875,0.0054931640625,-0.17584228515625
1772534873966672600,10.172672607421875,-1.3220062255859375,0.0576019287109375,-0.1312255859375
1772534873976689700,10.182689697265625,-1.012359619140625,0.0042877197265625,-0.14697265625
1772534873986705700,10.19270556640625,-0.734466552734375,-0.100250244140625,-0.1768951416015625
1772534873996722700,10.20272265625,-0.53582763671875,-0.1904296875,-0.1957550048828125
1772534874006739700,10.21273974609375,-0.4136199951171875,-0.2537689208984375,-0.20263671875
1772534874016755500,10.22275537109375,-0.3502197265625,-0.3017120361328125,-0.1891632080078125
1772534874026772700,10.232772705078125,-0.3085479736328125,-0.29888916015625,-0.1445159912109375
1772534874036789800,10.242789794921874,-0.2917022705078125,-0.2629241943359375,-0.0955047607421875
1772534874046805500,10.252805419921875,-0.2916107177734375,-0.234161376953125,-0.05059814453125
1772534874056822500,10.262822509765625,-0.282073974609375,-0.22161865234375,-0.0011749267578125
1772534874066838500,10.272838623046875,-0.253997802734375,-0.2223358154296875,0.042816162109375
1772534874076855600,10.28285546875,-0.2348175048828125,-0.2173309326171875,0.0669403076171875
1772534874086872600,10.29287255859375,-0.2378082275390625,-0.198333740234375,0.087066650390625
1772534874096888600,10.302888671875,-0.25811767578125,-0.1755523681640625,0.1039886474609375
1772534874106905600,10.312905517578125,-0.2908477783203125,-0.1617279052734375,0.096099853515625
1772534874116922600,10.322922607421875,-0.3263092041015625,-0.170074462890625,0.058868408203125
1772534874126938600,10.332938720703124,-0.31341552734375,-0.1907196044921875,-0.0027008056640625
1772534874136955600,10.34295556640625,-0.2510528564453125,-0.2109222412109375,-0.0772552490234375
1772534874146972700,10.35297265625,-0.1761474609375,-0.2356719970703125,-0.1544952392578125
1772534874156988700,10.36298876953125,-0.09979248046875,-0.2670440673828125,-0.1834716796875
1772534874167005400,10.37300537109375,-0.0509796142578125,-0.2926788330078125,-0.1831207275390625
1772534874177022700,10.383022705078124,-0.0652008056640625,-0.31402587890625,-0.2108917236328125
1772534874187038700,10.393038818359376,-0.063201904296875,-0.2865142822265625,-0.2035980224609375
1772534874197055500,10.403055419921875,-0.0628814697265625,-0.2110443115234375,-0.199371337890625
1772534874207072800,10.41307275390625,-0.0689544677734375,-0.1380767822265625,-0.1905517578125
1772534874217088800,10.4230888671875,-0.06890869140625,-0.0860443115234375,-0.1887969970703125
1772534874227105500,10.43310546875,-0.0636444091796875,-0.0575408935546875,-0.19268798828125
1772534874237121500,10.44312158203125,-0.0545806884765625,-0.04974365234375,-0.183135986328125
1772534874247138600,10.453138671875,-0.04815673828125,-0.0730438232421875,-0.164764404296875
1772534874257155600,10.463155517578125,-0.0723876953125,-0.1302032470703125,-0.16387939453125
1772534874267171600,10.473171630859374,-0.264312744140625,-0.2273406982421875,-0.1416778564453125
1772534874277188600,10.483188720703126,-0.537200927734375,-0.28997802734375,-0.077911376953125
1772534874287205600,10.49320556640625,-0.69769287109375,-0.3469085693359375,-0.04315185546875
1772534874297221600,10.5032216796875,-0.7389678955078125,-0.4122161865234375,-0.0557861328125
1772534874307238700,10.51323876953125,-0.8605499267578125,-0.4489593505859375,-0.1350250244140625
1772534874317255700,10.523255615234374,-1.2216949462890625,-0.467254638671875,-0.3187713623046875
1772534874327271700,10.533271728515626,-1.76739501953125,-0.4339752197265625,-0.43756103515625
1772534874337288700,10.543288818359375,-2.1122894287109375,-0.3206024169921875,-0.40203857421875
1772534874347305500,10.553305419921875,-2.1608734130859375,-0.2207794189453125,-0.3386077880859375
1772534874357321500,10.563321533203125,-2.1542205810546875,-0.166351318359375,-0.3070068359375
1772534874367338800,10.5733388671875,-2.1290283203125,-0.167022705078125,-0.28924560546875
1772534874377355500,10.58335546875,-2.0202789306640625,-0.250946044921875,-0.262847900390625
1772534874387371500,10.59337158203125,-1.92266845703125,-0.3787994384765625,-0.24224853515625
1772534874397388800,10.603388916015625,-1.9416656494140625,-0.45263671875,-0.23675537109375
1772534874407404500,10.613404541015624,-2.0838623046875,-0.425994873046875,-0.180328369140625
1772534874417421600,10.623421630859376,-2.2257843017578125,-0.3590850830078125,-0.1454620361328125
1772534874427438800,10.63343896484375,-2.3431549072265625,-0.2966461181640625,-0.2151641845703125
1772534874437454600,10.64345458984375,-2.493865966796875,-0.2830810546875,-0.3516082763671875
1772534874447471600,10.6534716796875,-2.629730224609375,-0.3289642333984375,-0.4908447265625
1772534874457488600,10.663488525390624,-2.663482666015625,-0.3068084716796875,-0.5765228271484375
1772534874467504400,10.67350439453125,-2.7401580810546875,-0.1907196044921875,-0.5827178955078125
1772534874477521700,10.683521728515625,-2.7327728271484375,-0.048614501953125,-0.4949493408203125
1772534874487538700,10.69353857421875,-2.5206298828125,0.0491180419921875,-0.3577880859375
1772534874497554400,10.703554443359375,-2.22174072265625,0.049163818359375,-0.2351531982421875
1772534874507571700,10.71357177734375,-1.8406982421875,-0.102294921875,-0.2418060302734375
1772534874517588700,10.723588623046876,-1.418609619140625,-0.303497314453125,-0.361053466796875
1772534874527604500,10.7336044921875,-1.021148681640625,-0.38134765625,-0.4509429931640625
1772534874537621800,10.743621826171875,-0.6986541748046875,-0.4205322265625,-0.469512939453125
1772534874547638500,10.753638427734375,-0.4793853759765625,-0.4656524658203125,-0.4014434814453125
1772534874557654500,10.763654541015624,-0.314483642578125,-0.4644012451171875,-0.27587890625
1772534874567671600,10.773671630859376,-0.19952392578125,-0.4051513671875,-0.1523284912109375
1772534874577687600,10.7836875,-0.18255615234375,-0.31793212890625,-0.0509490966796875
1772534874587704600,10.79370458984375,-0.2507476806640625,-0.2269744873046875,0.03515625
1772534874597721600,10.8037216796875,-0.3696136474609375,-0.1585540771484375,0.1003265380859375
1772534874607737600,10.813737548828126,-0.486114501953125,-0.1272430419921875,0.138092041015625
1772534874617754600,10.823754638671875,-0.5226287841796875,-0.1414947509765625,0.1311492919921875
1772534874627771600,10.833771728515625,-0.4449615478515625,-0.185760498046875,0.0905914306640625
1772534874637787600,10.84378759765625,-0.3419952392578125,-0.2363739013671875,0.0248870849609375
1772534874647804700,10.8538046875,-0.2683868408203125,-0.276580810546875,-0.04254150390625
1772534874657821700,10.86382177734375,-0.192840576171875,-0.3200531005859375,-0.0974578857421875
1772534874667837700,10.873837646484375,-0.1131134033203125,-0.34814453125,-0.1388397216796875
1772534874677854500,10.8838544921875,-0.062591552734375,-0.31097412109375,-0.1614532470703125
1772534874687871700,10.893871826171875,-0.062957763671875,-0.2278289794921875,-0.1449127197265625
1772534874697887700,10.9038876953125,-0.0852508544921875,-0.1318206787109375,-0.08123779296875
1772534874707904500,10.913904541015626,-0.1185760498046875,-0.08514404296875,-0.03521728515625
1772534874717921800,10.923921875,-0.1464080810546875,-0.12164306640625,-0.0002593994140625
1772534874727937800,10.933937744140625,-0.082427978515625,-0.1797943115234375,0.0264129638671875
1772534874737954600,10.94395458984375,-0.015228271484375,-0.225616455078125,0.015594482421875
1772534874747970600,10.953970458984376,-0.1048126220703125,-0.2902374267578125,-0.0312652587890625
1772534874757987800,10.96398779296875,-0.207763671875,-0.2960357666015625,-0.090850830078125
1772534874768004600,10.974004638671875,-0.2109527587890625,-0.221343994140625,-0.1265716552734375
1772534874778020600,10.9840205078125,-0.122528076171875,-0.14898681640625,-0.1307830810546875
1772534874788037600,10.99403759765625,-0.0416412353515625,-0.14825439453125,-0.0927276611328125
1772534874798054700,11.0040546875,-0.030853271484375,-0.14739990234375,-0.0595855712890625
1772534874808070700,11.014070556640625,-0.0822601318359375,-0.1109619140625,-0.0494537353515625
1772534874818087700,11.024087646484375,-0.2177581787109375,-0.0910491943359375,-0.0311279296875
