time,seconds_elapsed,z,y,x
1772534863854233900,0.06023388671875,1.0280126759171486,0.048130409179627895,0.4543566097684204
1772534863864251000,0.0702509765625,0.8368255026727914,0.19392974995076656,0.24801709477342665
1772534863874267100,0.08026708984375,0.6659510496169329,0.4854691025212407,0.1280610741805285
1772534863884284000,0.090283935546875,0.5081289703577757,0.671368690751493,0.06693586661033332
1772534863894301000,0.100301025390625,0.18572423166334628,0.6624331046238541,0.03299333806335926
1772534863904317400,0.1103173828125,-0.20742752942740916,0.6805591284230351,-0.1306228144273162
1772534863914334200,0.120334228515625,-0.6009422786116599,0.6885556801348924,-0.2224046607416123
1772534863924351500,0.1303515625,-0.5989134031325578,0.6837275293260813,-0.2220907724868506
1772534863934367500,0.140367431640625,-0.8326841650843619,0.9596201076924801,-0.03840871417559683
1772534863944384300,0.15038427734375,-0.8486252460598945,0.9932008902549743,-0.026991759561002252
1772534863954401300,0.1604013671875,-0.1493506035119295,1.337843471981585,0.3642684886947274
1772534863964417500,0.17041748046875,0.021701544198393822,0.7332695588693022,0.29932547640204427
1772534863974434300,0.180434326171875,-0.013591887500882149,0.8022963333442806,0.329060177995637
1772534863984451300,0.190451416015625,0.3597393208324909,0.4795590016946196,0.1322714584171772
1772534863994467300,0.20046728515625,0.3206792300760746,0.5450979340538382,0.18813479993641374
1772534864004484400,0.210484375,0.7234329322487115,0.884909734623134,-0.6507322915665805
1772534864014501400,0.22050146484375,1.0881699152380226,0.6177408531993627,-0.5160337521329522
1772534864024517400,0.230517333984375,1.1727554933726787,0.5814671782910823,-0.24443580222055314
1772534864034534400,0.240534423828125,1.1645125656843185,0.624917028439045,-0.32941257162988186
1772534864044551400,0.250551513671875,1.1422820291757583,0.6415630428135395,-0.25723975421413775
1772534864054567400,0.2605673828125,0.9411135601431131,0.39313013378083705,-0.5990403905130922
1772534864064584200,0.270584228515625,0.6353361311227083,0.19645926842838524,-0.6111423317171633
1772534864074601500,0.2806015625,0.6332575712829828,0.1876172058030963,-0.5798400154806673
1772534864084617500,0.290617431640625,-0.03390519221127033,-0.05147971960753202,-0.2068262025333941
1772534864094634200,0.30063427734375,-0.0237590612500906,0.0784811237797141,-0.029420740273594856
1772534864104651500,0.310651611328125,0.17511515936553476,0.29784955863058565,0.15121683577522635
1772534864114667500,0.32066748046875,0.4146954843789339,0.5212199225991964,0.24382673041149971
1772534864124684300,0.330684326171875,0.4453817145437002,0.4664239180505275,0.224317289429903
1772534864134701300,0.340701416015625,0.986422189900279,0.47626960476040836,0.4478795227088034
1772534864144717600,0.350717529296875,0.9912252062678336,0.215229143089056,0.36402372015342116
1772534864154734300,0.360734375,1.029282257461548,0.14650105929970741,0.3308791370511055
1772534864164750300,0.370750244140625,0.09787819042801857,-0.821764419402182,0.028502017993479966
1772534864174767400,0.380767333984375,0.1339355922371149,-0.8827882124245167,-0.020780483830720186
1772534864184784400,0.390784423828125,-1.1117138724327087,-1.7364385931700468,-0.12665493370965122
1772534864194800400,0.40080029296875,-1.2056781042873859,-1.7776821654453872,0.189636582801491
1772534864204817400,0.4108173828125,-1.0578180315941572,-1.4597560334697366,0.34711408640667796
1772534864214834400,0.42083447265625,-0.6374731431514025,-0.6171580848753452,0.29376477353498337
1772534864224850400,0.430850341796875,-0.6267547652602196,-0.635234132052958,0.27395883382484315
1772534864234867500,0.440867431640625,0.8232412139564752,0.24101678755730388,0.1473617677822709
1772534864244884200,0.45088427734375,1.1084393808066844,0.06479045207947493,0.24708354025036094
1772534864254900500,0.460900390625,0.9875853884607553,-0.22686200547665356,0.36758345846161244
1772534864264917200,0.470917236328125,0.738236533626914,-0.3274456554710865,0.4570945102997124
1772534864274934300,0.480934326171875,0.7748428014904261,-0.41008448345214127,0.42024727328717704
1772534864284950300,0.4909501953125,0.34447044003009797,0.08348667698204516,0.10534786872155964
1772534864294967300,0.50096728515625,-0.10949556298553943,0.19653028783798215,0.0005853256072849035
1772534864304984300,0.510984375,-0.19229425770342348,0.21001871496438979,-0.05345299244187772
1772534864315000300,0.521000244140625,0.005982581540942192,0.1274938687518239,-0.19025661439597605
1772534864325017300,0.531017333984375,0.00926525647342205,0.10088087937533854,-0.14774828288182615
1772534864335034400,0.541034423828125,0.5600561414718628,-0.012246902632713318,-0.44272696225121616
1772534864345050400,0.55105029296875,0.8842202910542487,-0.06604366701096295,-0.3587313128337264
1772534864355067100,0.561067138671875,1.1591454856932162,0.05732084685117006,-0.1061725560426712
1772534864365084400,0.57108447265625,1.1581366009116172,0.019151275193691253,-0.023793986432999372
1772534864375100400,0.581100341796875,1.2213263397961853,0.17918313945680855,0.1804997750133276
1772534864385117200,0.5911171875,0.9438888700753449,0.7266369889870286,0.025820085433125493
1772534864395134500,0.601134521484375,0.7296200964510441,1.0166954553499816,0.01472118379175663
1772534864405150500,0.611150390625,0.5036591314673423,1.1745496833130717,-0.046152971626818175
1772534864415167200,0.621167236328125,0.31121289807260033,1.2321855874627827,-0.1912519090436399
1772534864425184500,0.6311845703125,0.32097792076170445,1.1524462803155182,-0.12984350061789154
1772534864435200500,0.641200439453125,-0.4519868118971586,1.1017807997003197,-0.6916080534428357
1772534864445217300,0.65121728515625,-0.50778527148664,1.0781260756075381,-0.729145610807091
1772534864455234300,0.661234375,-0.2395014145582914,1.0708737663917243,-0.6683002430915832
1772534864465250300,0.671250244140625,0.023328268617391585,1.1410055794991552,-0.34723961248248814
1772534864475267300,0.681267333984375,0.11834931604862213,1.102102871261537,0.07013225149884819
1772534864485284400,0.691284423828125,0.06602350100576877,0.9492138644903898,0.3627446401283145
1772534864495300400,0.70130029296875,-0.1166951191008091,0.6193262226946652,0.40424627881795167
1772534864505317400,0.7113173828125,-0.38442075762450695,0.2781771821722388,0.09787292973101139
1772534864515334400,0.72133447265625,-0.5039852946817874,0.0964114788763225,-0.24779928730428216
1772534864525350400,0.731350341796875,-0.3479015835225582,0.11181845297515391,-0.3707163496598601
1772534864535367200,0.7413671875,-0.19735387918055056,0.09470540561079978,-0.148655899246037
1772534864545384400,0.751384521484375,-0.3687538174152374,-0.0020921499736607074,0.18138386437147855
1772534864555400400,0.761400390625,-0.7555354589521884,0.03034267742410302,0.48517304218411444
1772534864565417200,0.771417236328125,-1.0804174014151096,0.18736396169438957,0.7396563372969627
1772534864575434500,0.7814345703125,-1.2596031712204216,0.30410511189401146,0.8522510353416204
1772534864585450500,0.791450439453125,-1.2134148360192776,0.2816356520630419,0.8761845763757824
1772534864595467300,0.80146728515625,-0.9650076459497213,0.22364523538723588,0.7818529725134372
1772534864605483300,0.811483154296875,-0.6404863534927367,0.202837132897228,0.603762012207508
1772534864615500500,0.82150048828125,-0.35146775157153604,0.06283018485717475,0.563164628881216
1772534864625517300,0.831517333984375,-0.010095862078666687,-0.20726079455837607,0.595927080798149
1772534864635533300,0.841533203125,0.4071230032980442,-0.39707010357826944,0.549488570228219
1772534864645550300,0.85155029296875,0.7865268095433712,-0.45168139920979733,0.5062599616155028
1772534864655567400,0.8615673828125,1.0060738158315419,-0.6011867548920213,0.4290492961630225
1772534864665583400,0.871583251953125,1.0960352417856454,-0.7664880109254271,0.44446255387216804
1772534864675600400,0.881600341796875,1.1102069750010966,-0.8082074570842087,0.41732320253401994
1772534864685617400,0.891617431640625,1.0670470477104186,-0.701611561062932,0.911926336364448
1772534864695633400,0.90163330078125,0.8464251056671142,-0.8485802378743886,1.2510083613544702
1772534864705650400,0.911650390625,0.35185178245306015,-1.1109676571752876,1.3234744626283645
1772534864715667500,0.92166748046875,0.059313189712166786,-0.955162470696494,1.0494883024051784
1772534864725683500,0.931683349609375,0.2627110252320766,-0.6490341093465686,0.8574474349409341
1772534864735700500,0.941700439453125,0.3606926760345697,-0.6129571260541677,0.7499073899373412
1772534864745717200,0.95171728515625,0.2505558925360441,-0.6200409468352794,0.532897500911355
1772534864755733200,0.961733154296875,0.31172786185741425,-0.4228871933367103,0.4209820173025131
1772534864765750500,0.97175048828125,0.45092122849225996,-0.29945414428301154,0.5102656901255249
1772534864775767300,0.981767333984375,0.6600456249654293,-0.33898543274775145,0.6483090099424124
1772534864785783300,0.991783203125,1.003259342932701,-0.3234735369697213,0.6955769570738076
1772534864795800300,1.00180029296875,1.3645102373719216,-0.2170990286141634,0.6343161404252052
1772534864805817300,1.0118173828125,1.598781934583187,-0.06755772483572363,0.4966980602830648
1772534864815833300,1.021833251953125,1.6450047565758228,0.0269772195789963,0.37372400704324243
1772534864825850400,1.031850341796875,1.6425006648004055,0.0427101376965642,0.37734395110607144
1772534864835867400,1.041867431640625,1.3049457032471894,0.07672361258789896,-0.15266016645133496
1772534864845883400,1.05188330078125,1.1841484095245598,0.44975883364938196,-0.823817844800651
1772534864855900200,1.061900146484375,0.8508335697591304,0.5258275625251233,-0.7035144720748067
1772534864865917400,1.07191748046875,0.35860768645405766,0.4757542756494134,-0.3859218098372221
1772534864875933400,1.081933349609375,0.6069044018864631,0.9960430548783391,-0.9478811545819044
1772534864885950200,1.0919501953125,0.3921732714474201,1.4432184479057788,-0.6331392056003212
1772534864895966200,1.10196630859375,-0.12182196059525012,0.8535269004963338,0.1981453218191862
1772534864905982700,1.111982666015625,0.08997837708890438,0.5300307133033871,-0.1060226261779666
1772534864915999700,1.121999755859375,-0.1866770023435354,0.9092610626779496,-0.2709467925272882
1772534864926015500,1.132015380859375,-0.8425836278080939,0.8124331119552254,-0.30682693807333705
1772534864936032500,1.142032470703125,-1.5730664785683155,0.34819238316267725,-0.7205695056416094
1772534864946049800,1.1520498046875,-2.5235925947010514,0.4107788223918527,-1.4530872232303023
1772534864956065500,1.1620654296875,-3.863880829486251,0.7179587386213243,-2.355588874775916
1772534864966082600,1.17208251953125,-5.800193175703287,0.4984658006079495,-3.3948283164978026
1772534864976099800,1.182099853515625,-7.612724243950844,-0.17291677253842352,-4.6271524356484415
1772534864986115600,1.192115478515625,-8.320961360633373,-0.36659780842512846,-5.746074047502875
1772534864996132600,1.202132568359375,-8.183034652933477,-0.4390656632646918,-6.458789186382293
1772534865006149600,1.212149658203125,-8.143609235996008,-0.8824469977714121,-6.890822759053111
1772534865016165600,1.22216552734375,-8.630907015249132,-0.9765758456032723,-6.668028149145841
1772534865026182700,1.2321826171875,-8.63171423997879,-1.022303796751052,-6.650370327380299
1772534865036199700,1.24219970703125,-9.650386840620637,-1.4649293444544076,-4.790308861672878
1772534865046215400,1.25221533203125,-10.03557916713953,-1.1560246502589433,-4.016468222962319
1772534865056232700,1.262232666015625,-10.325485657811164,-0.344751521993801,-3.1335055307537316
1772534865066249700,1.272249755859375,-10.917809745681286,0.08247706154808401,-2.12429809307158
1772534865076265500,1.282265380859375,-11.238555611252783,0.27154063023459163,-1.3394719499662517
1772534865086282800,1.29228271484375,-10.620862104326486,0.6523624500516801,-1.276945058904588
1772534865096299800,1.3022998046875,-9.207830120369792,0.7801562515981495,-1.76755006300956
1772534865106315500,1.3123154296875,-6.936967839634418,0.6812111625909805,-2.3895845217496157
1772534865116332500,1.32233251953125,-4.399302880439162,0.40597785185091195,-2.463754796592891
1772534865126349600,1.332349609375,-2.4938380924284456,-0.6138986446879804,-2.3041508023530244
1772534865136365600,1.342365478515625,-0.8011369341760873,-1.3659187889955937,-2.0210756190061567
1772534865146382600,1.352382568359375,0.4977361711591482,-1.5913415554493664,-1.3146008358210324
1772534865156399600,1.362399658203125,0.48918753852248187,-1.69792459198907,-1.2934770915105938
1772534865166415600,1.37241552734375,0.5319733718037605,-1.6550027112379668,1.2156754744276403
1772534865176432600,1.3824326171875,-0.2926104889333248,-1.485623611306399,2.0741127971887585
1772534865186449400,1.392449462890625,-0.6254191327422857,-1.2119224055044353,2.646604057341814
1772534865196465700,1.402465576171875,0.12143909875750541,-0.7209950375773012,3.244260153889656
1772534865206482700,1.412482666015625,1.7178361840307712,-0.4031393039567396,3.8950045742854473
1772534865216498700,1.422498779296875,3.6420588640034195,-0.16354385443944483,4.278466716010868
1772534865226515500,1.432515380859375,5.47687015312016,0.062292662180680775,4.150013354577124
1772534865236532700,1.44253271484375,7.017137939414382,-0.015236074511334298,3.938421398946643
1772534865246548700,1.452548828125,7.90986360848546,-0.37991193843055515,3.9184666984155774
1772534865256565500,1.4625654296875,8.316763324421643,-0.5317835483200848,3.9947114414453506
1772534865266582800,1.472582763671875,8.610329506644606,-0.4027602415112778,3.8792783051043744
1772534865276598800,1.482598876953125,8.86568081676364,-0.23238789275866,4.08952907525897
1772534865286615600,1.492615478515625,8.501614280381798,-0.46910606980659064,4.67132738520056
1772534865296632600,1.502632568359375,8.178299441105127,-0.4064102519188076,4.079185960420966
1772534865306648800,1.51264892578125,8.710171690621971,0.09564502454847097,3.367006535853445
1772534865316665600,1.52266552734375,8.933276681652664,0.44732097551058975,3.1784274992808697
1772534865326682600,1.5326826171875,8.957347293069958,0.2506184546445496,2.6915926613643766
1772534865336698600,1.54269873046875,9.302167861711979,0.12801920780017972,2.158268751734495
1772534865346715600,1.552715576171875,9.832740719068049,0.15577837153710425,1.6209192398503423
1772534865356732700,1.562732666015625,10.224269847393035,0.33060959939472373,1.2202546189114452
1772534865366748700,1.572748779296875,10.442305864596367,0.36617991180662063,1.3565318058386444
1772534865376765700,1.582765625,10.10881859087348,0.4462697128919884,1.7138786785766482
1772534865386782700,1.59278271484375,9.209615834742785,0.6129590257503091,1.8932655239120124
1772534865396798700,1.602798828125,8.23251033924222,0.8239945165418088,1.9821122666224835
1772534865406815500,1.6128154296875,7.7723215161889785,0.8743650327984243,2.010371415770799
1772534865416832800,1.622832763671875,7.571594361183047,0.9598005057606845,1.8050474344938991
1772534865426848800,1.632848876953125,7.242917118090391,0.9914022433351725,1.5552043664023278
1772534865436865500,1.642865478515625,6.7856678556203835,0.843694073268026,1.0424886527761816
1772534865446882800,1.6528828125,6.466756804260611,0.6634260611839592,1.00838063146919
1772534865456898800,1.66289892578125,5.763247885143756,0.7929843151196837,1.080241168065369
1772534865466915600,1.67291552734375,4.224465953493118,0.7641231814902275,0.812318253403902
1772534865476932600,1.6829326171875,1.8721680830866096,0.2888185493044555,0.4572695746056735
1772534865486948600,1.692948486328125,0.4613812477082014,0.08989121026210486,-0.5125695831537247
1772534865496965600,1.702965576171875,-0.9911673386007547,-0.03825571557097137,-1.5194649445012212
1772534865506982700,1.712982666015625,-4.136895806589722,-0.8604371182762086,-1.8375808999605476
1772534865516998700,1.72299853515625,-6.488189468389749,-1.7427105130463838,-2.249011829585582
1772534865527015700,1.733015625,-6.496373359367251,-1.66170162435472,-2.2513392496198414
1772534865537031700,1.74303173828125,-9.400864967307449,-1.0497541867997497,-3.687349373582005
1772534865547048400,1.75304833984375,-10.351557672178744,-0.6752798728458583,-4.994847099399566
1772534865557065700,1.763065673828125,-11.594520089721678,-0.6690481388494371,-5.139916664591431
1772534865567081700,1.773081787109375,-12.452640309357642,-1.0747165594249963,-5.785853684705495
1772534865577098500,1.783098388671875,-12.487094367623328,-1.0216504474088548,-5.65725302375555
1772534865587115500,1.793115478515625,-15.22342721120715,-2.055144331216067,-6.640928545296192
1772534865597131800,1.8031318359375,-15.994798537194727,-1.9819008158288896,-5.893581653496622
1772534865607148500,1.8131484375,-16.225076780855655,-1.8762883778870105,-4.5509527008041735
1772534865617165600,1.82316552734375,-16.621443412339687,-1.4729339333422482,-2.780610084466636
1772534865627181600,1.833181640625,-17.55977873994112,-0.9889422098971903,-0.7860027856692672
1772534865637198600,1.843198486328125,-17.2509302329123,-0.6637650838799775,0.46698023675903677
1772534865647215600,1.853215576171875,-14.32546714861393,-0.5150447410956025,0.5631137754768133
1772534865657231600,1.863231689453125,-10.70224391798377,-0.44898178486227985,-0.018824819718301296
1772534865667248600,1.87324853515625,-8.20750157019198,-0.46094278322570026,-0.5807514312371611
1772534865677265700,1.883265625,-7.057118067625164,-0.47489590525440867,-0.6668716715931892
1772534865687281700,1.89328173828125,-6.176891814643144,-0.4414633720561862,-0.47329701869040725
1772534865697298400,1.90329833984375,-4.535028278702497,-0.36214579745233055,-1.39659113676548
1772534865707315700,1.913315673828125,-2.2605840478271246,-0.30844014542363585,-2.0584055249691007
1772534865717331700,1.923331787109375,0.11568448075354099,-0.5867820897035301,-1.738230445022881
1772534865727348500,1.933348388671875,1.765483485868573,-1.0063541671428828,-1.271398822954297
1772534865737365800,1.94336572265625,3.1627368859350677,-1.1575120392724871,-0.3643275254055857
1772534865747381800,1.9533818359375,4.446026053169369,-1.0153870761651544,0.6484352666705846
1772534865757398500,1.9633984375,5.748387585142255,-0.9026406216248869,1.5937027316227554
1772534865767415600,1.97341552734375,7.464158068814873,-0.7024474273651838,2.2181571109861133
1772534865777431800,1.983431884765625,8.889259845271706,-0.27245544352456924,2.570951434986293
1772534865787448600,1.993448486328125,9.69495663470924,0.08488112701512873,2.9219354946941136
1772534865797465600,2.003465576171875,10.202455490469932,0.32115050084963437,3.2715175786495205
1772534865807481600,2.013481689453125,10.040145452141761,0.6402738797858357,3.5107980439335105
1772534865817498600,2.02349853515625,9.288988062143325,0.7050639665391296,4.419536397911608
1772534865827514600,2.0335146484375,8.80527047946453,0.8740100088156759,4.290135526494682
1772534865837531600,2.04353173828125,8.875515982079506,0.8200085156455635,3.9073663354694843
1772534865847548700,2.053548583984375,9.222221049293875,0.4560008698441088,3.505715041580796
1772534865857564700,2.063564697265625,9.697635498529673,0.2534741180703044,2.8129391134023667
1772534865867581700,2.073581787109375,9.899427652418613,0.20629414148330688,2.7161244605526327
1772534865877598500,2.083598388671875,10.016210449802875,0.30807708426490427,2.642363058771193
1772534865887614700,2.09361474609375,9.92166520318985,0.42345133002549407,2.342947273737192
1772534865897631700,2.1036318359375,9.446600298044086,0.44516821792349215,2.2594275712683793
1772534865907649000,2.11364892578125,8.834917429709433,0.4679034890837967,2.288836621104181
1772534865917665000,2.1236650390625,8.530683138477801,0.47381826608553523,2.189836587039381
1772534865927682000,2.13368212890625,8.416251288133859,0.4627010981351137,2.1941179176203907
1772534865937699000,2.143698974609375,8.069754895234107,0.6705531365849078,2.665046892005205
1772534865947715000,2.153715087890625,7.65504772041738,0.8223284830257296,3.189260443462431
1772534865957732000,2.163732177734375,7.223632571905851,0.8622196177788078,3.2773981611207126
1772534865967749000,2.1737490234375,6.899158625721931,0.8820734882839023,3.236632143229246
1772534865977765000,2.18376513671875,6.896732859879732,0.9319726607017218,2.8460505248874424
1772534865987782000,2.193781982421875,6.859626825800538,0.9077741851210593,1.993270935627073
1772534865997799200,2.203799072265625,6.608258447837829,0.4839987377077341,1.5305650151863692
1772534866007815200,2.213815185546875,6.25211510567069,0.07204466099143028,1.1094123174920678
1772534866017832000,2.22383203125,5.701627587532997,-0.048725160202383995,0.351335357363522
1772534866027849200,2.23384912109375,5.715000863847136,-0.01783434737622738,0.19734649959169326
1772534866037865200,2.243865234375,2.3831617952257393,0.17487550539076327,-0.27010208533145486
1772534866047882000,2.253882080078125,-0.6324819107353687,0.028422815277427432,0.08662848213911056
1772534866057899300,2.263899169921875,-3.928324367824197,-0.8472596567951143,0.7370553610183298
1772534866067915300,2.273915283203125,-7.215679567074775,-1.6642574463173747,1.3777137100771069
1772534866077932000,2.28393212890625,-9.712397598853707,-1.6727848900355398,1.2448184206731616
1772534866087949000,2.293948974609375,-10.166208119046688,-1.8037886666044591,1.0696229626130311
1772534866097965000,2.303965087890625,-10.350648156118393,-2.0138558968856928,0.9878664704244583
1772534866107982000,2.313982177734375,-12.084976040744781,-1.5819398131147027,0.18905891077769918
1772534866117999000,2.3239990234375,-14.823426022613047,-0.8755271353803574,-0.7476810191247611
1772534866128015000,2.33401513671875,-16.770807459855078,-0.8842582849770784,-0.4917745958736166
1772534866138032000,2.3440322265625,-17.920765430486203,-1.045658514983952,-0.17238787155980242
1772534866148048100,2.354048095703125,-17.981042496794462,-1.1888625785648823,-0.003999481432326138
1772534866158065200,2.364065185546875,-17.98991904621124,-1.165040973472595,0.14261674694595858
1772534866168082200,2.374082275390625,-16.310699885344505,-0.8090367475152015,-0.5891285432318225
1772534866178098200,2.38409814453125,-15.961223599851131,-0.021270167043805122,-0.33747985049039125
1772534866188115200,2.394115234375,-15.115165573930739,0.8690537015825509,0.21508001694194973
1772534866198132000,2.404132080078125,-13.938368696212768,1.4655280409999192,0.9351819050718099
1772534866208148000,2.41414794921875,-12.55613107897043,1.2488896156348288,1.3792860739603638
1772534866218165200,2.424165283203125,-10.24076739320755,0.759083506822586,1.42162883964926
1772534866228182000,2.43418212890625,-7.125625202140212,0.570007334382832,1.2722922646626829
1772534866238198000,2.444197998046875,-4.510975202941895,0.36342999204397197,1.285610303658247
1772534866248215300,2.45421533203125,-2.88717865408957,0.6506003357499838,0.054284547895193096
1772534866258232000,2.464232177734375,-0.9947340911716223,0.8461188161969184,-1.295251261576265
1772534866268248000,2.474248046875,0.7853957596868276,0.3847093653075397,-1.672417225766927
1772534866278265300,2.484265380859375,2.226480118173361,-0.026840222261101006,-2.1294664356201887
1772534866288282000,2.4942822265625,3.663589143288135,-0.18442469337210057,-2.324744677570462
1772534866298298000,2.504298095703125,5.012026197737455,-0.009237491683661937,-1.7682184637904166
1772534866308315100,2.514315185546875,5.652098709732294,0.009760931035876273,-0.8570552938181907
1772534866318332200,2.524332275390625,5.761004490131139,0.13326207688972352,-0.19781557840816674
1772534866328348200,2.53434814453125,6.209645498731732,0.5326065551407635,0.2449241702593863
1772534866338365200,2.544365234375,7.195811083522439,0.7044592055790125,0.5201462289530784
1772534866348382200,2.55438232421875,8.224578377199173,0.8058679082207382,0.33939781294092536
1772534866358398200,2.564398193359375,9.30285409041047,0.9248745191343128,-0.11017229320332407
1772534866368415200,2.574415283203125,10.203264468765258,0.7863036683119833,-0.4244466977383941
1772534866378432000,2.584431884765625,10.746696807694434,0.4385615131348371,-0.5460712360654026
1772534866388448300,2.5944482421875,10.98820488590002,0.17078377909772097,-0.6569737432394176
1772534866398465300,2.60446533203125,10.770524258005619,-0.014513751586154103,-0.6641298255391419
1772534866408482000,2.61448193359375,10.32126073359251,-0.3197929487608373,-0.5238081855267286
1772534866418498000,2.624498046875,9.984451037448643,-0.4401107884034514,-0.5115555838055909
1772534866428515000,2.63451513671875,9.913806890904903,-0.5087022402010858,-0.38727329751141365
1772534866438531000,2.644531005859375,9.685832832533121,-0.5210274687670171,-0.4507175226137042
1772534866448548000,2.654548095703125,9.307117008551955,-0.629242636553198,-0.5764239234268665
1772534866458565000,2.664565185546875,8.94145706549883,-0.822718870582804,-0.7786458470351993
1772534866468581000,2.6745810546875,8.732775152096151,-0.9561230593569576,-0.7132328791432082
1772534866478598100,2.68459814453125,8.545042503219843,-0.9582709581058472,-0.4244121378816664
1772534866488615000,2.694614990234375,8.34804635143578,-1.0440956495814024,-0.08022124544531106
1772534866498631000,2.704630859375,8.161236078101396,-1.2464942449308931,0.3137880092576146
1772534866508648200,2.714648193359375,7.940442286622524,-1.3372349846944211,0.6114961135908961
1772534866518665000,2.7246650390625,7.489207754397392,-1.378390294164419,0.7746718288376927
1772534866528681000,2.734680908203125,7.487583952587842,-1.36878367690742,0.7810724896602332
1772534866538698200,2.7446982421875,5.829943586322665,-1.3020207557111978,0.9447731055639683
1772534866548715000,2.754715087890625,4.7764539393216365,-1.16379908365272,1.0330468706920743
1772534866558731000,2.76473095703125,4.001142351275682,-1.1180568847838788,1.3006506364017725
1772534866568748300,2.774748291015625,3.0852468190193174,-1.1102842780210078,1.6070201860964297
1772534866578765000,2.78476513671875,1.8716817608743905,-1.0417314046680928,1.5076263304084538
1772534866588781000,2.794781005859375,0.7145446923941373,-0.8506465227544308,1.0359885501671582
1772534866598798000,2.804798095703125,-0.5754027636855841,-0.6817472422290592,-0.014019465263187885
1772534866608815000,2.814815185546875,-1.814285218438506,-0.8525061791464685,-0.5104756796143949
1772534866618831000,2.8248310546875,-3.635204175803065,-1.2923970411889254,-0.2808862950004637
1772534866628848000,2.83484814453125,-6.397179994687438,-1.8423938532002269,0.5993626082047819
1772534866638865200,2.844865234375,-9.566317395314574,-2.2968942553535103,1.6247548724904655
1772534866648881200,2.854881103515625,-13.180082477247714,-1.4396164778910576,0.9782426828369498
1772534866658898200,2.864898193359375,-16.149508621913192,0.5001293499059974,-0.10268792879730462
1772534866668915000,2.8749150390625,-17.748358361035585,1.08862291970253,-0.30578853493630886
1772534866678931200,2.88493115234375,-18.840618175935745,0.45505540568754077,-0.3892486161723733
1772534866688948200,2.8949482421875,-19.151179332101343,-0.2434315936140716,-0.6605997517168521
1772534866698965000,2.904965087890625,-18.102766842234132,-0.6437440401144325,-1.0492413419067859
1772534866708981000,2.91498095703125,-16.38142937208414,-0.46353184987083074,-1.555867798747122
1772534866718998300,2.924998291015625,-14.841782348036766,-0.13264175303429365,-1.8523149432338772
1772534866729014300,2.93501416015625,-13.747096767294407,0.14614070155471562,-1.0882359662115573
1772534866739031000,2.945031005859375,-13.699469923722743,0.6171316352598368,0.3420081415697932
1772534866749048300,2.95504833984375,-14.404852235496044,1.0123895748496055,1.5901066068269312
1772534866759064300,2.965064208984375,-14.392987610179185,1.2235738264620304,2.1169304869130254
1772534866769081000,2.9750810546875,-12.991473630058765,1.0347478293910621,1.9507415613248944
1772534866779098000,2.98509814453125,-10.267885701757669,0.6445989033780992,1.310483755891025
1772534866789114000,2.995114013671875,-6.84990681129694,0.39539910162612796,0.3138198657006025
1772534866799131100,3.005131103515625,-3.773520759603381,0.24477087939381598,-0.8161750749625265
1772534866809148200,3.015148193359375,-1.1748743852227925,-0.1555121948815882,-1.9657946074195205
1772534866819164200,3.0251640625,1.08345691524148,-0.5936661501288414,-3.0288655911058187
1772534866829181200,3.03518115234375,2.9357389791190625,-0.6920049438059329,-3.3187142141103743
1772534866839198200,3.0451982421875,4.466808728957176,-0.3387527930356562,-2.685987388703227
1772534866849214000,3.0552138671875,5.454208239457011,0.20945231325328348,-1.9476988326281308
1772534866859231200,3.065231201171875,5.838699139708281,0.49409781465679403,-1.2349058062069118
1772534866869248300,3.075248291015625,6.200033620777726,0.5283370611280203,-0.5964592879787087
1772534866879264000,3.085263916015625,6.932115723428129,0.5032393716853112,-0.24914661026000975
1772534866889281000,3.095281005859375,7.845524115043878,0.48658590465672313,-0.1802589519947767
1772534866899298300,3.10529833984375,8.830519487011433,0.36204241014309224,-0.18930998119562864
1772534866909313800,3.115313720703125,9.946998381888866,0.1808172434646636,-0.2076120922140777
1772534866919330800,3.125330810546875,10.859273385560511,-0.14929156680107117,-0.22897169110700485
1772534866929348000,3.13534814453125,11.159231314647197,-0.5213113272096962,-0.3897485285185277
1772534866939363800,3.14536376953125,11.067667129671573,-0.9463431313596665,-0.5535084733940661
1772534866949380900,3.155380859375,10.844629943180083,-1.092699667622149,-0.6608874826170503
1772534866959398000,3.16539794921875,10.445270559620857,-0.9852366333775222,-0.6672399203836917
1772534866969414000,3.175413818359375,9.71020973342061,-0.7041634375028312,-0.36494741086959837
1772534866979431000,3.185430908203125,8.927384701004623,-0.5074334623742849,-0.03729965695515275
1772534866989448000,3.195447998046875,8.411802492031455,-0.33235571240969003,0.21198504660129547
1772534866999463700,3.205463623046875,8.38640793853402,-0.1769664863206446,0.43466260600015516
1772534867009481000,3.21548095703125,8.387103519582748,-0.15591631870307027,0.4143251897618174
1772534867019497000,3.2254970703125,8.72000510237217,-0.17519553112536668,0.41892420798987146
1772534867029513700,3.235513671875,8.878184324505925,-0.27013357644826175,0.5080876154340803
1772534867039531000,3.245531005859375,8.612692728644609,-0.330632907205075,0.7817186786092817
1772534867049547000,3.255547119140625,8.064892257633804,-0.32079642671495673,1.019263698402792
1772534867059563800,3.265563720703125,7.656067126592993,-0.2106647577829659,1.3131366084873675
1772534867069580800,3.275580810546875,7.162264787751436,-0.03681421152576804,1.4452707042604684
1772534867079597000,3.28559716796875,6.524844251570105,0.029442221453040835,1.470976807925105
1772534867089613800,3.29561376953125,6.022279345080256,0.2933861494809389,1.4011249808028339
1772534867099630800,3.305630859375,5.661639276015758,0.5008192318663001,1.0990981364876031
1772534867109646800,3.315646728515625,4.673372335031629,0.31294469030126926,0.9873736454062163
1772534867119663900,3.325663818359375,3.1453526204138993,-0.1527292861647904,1.047517879115045
1772534867129681000,3.335680908203125,1.443628197750449,-0.5650365602329374,0.895603854855895
1772534867139697000,3.34569677734375,-0.3956114292025566,-1.0437196558758617,0.5583122204139829
1772534867149714000,3.3557138671875,-2.200795057296753,-1.4043376592390238,0.12045856328755616
1772534867159731000,3.36573095703125,-2.2301000622361897,-1.3072389287509023,0.18393427950665353
1772534867169747000,3.375746826171875,-5.065125335240364,-1.3819529550820588,-0.9742831315562128
1772534867179763700,3.385763671875,-6.324935427209734,-2.212011886229366,-0.8153346786156296
1772534867189781000,3.395781005859375,-8.225058854192495,-3.27409239757359,-0.5622257405959069
1772534867199797000,3.405796875,-10.915586224412918,-3.2452243227466937,-0.908741714978963
1772534867209813800,3.415813720703125,-13.055994325286148,-2.2787150400623677,-1.2193383808493614
1772534867219831000,3.4258310546875,-14.631006092703341,-2.033829886639118,-0.576338144839555
1772534867229847000,3.435846923828125,-16.14843777781129,-1.768130200985074,-0.2630716752380132
1772534867239863800,3.44586376953125,-17.31659892913103,-0.9358252444766462,-0.8074092924438416
1772534867249881000,3.455881103515625,-17.597369342666862,-0.03487009172067046,-1.9160764906570313
1772534867259897000,3.46589697265625,-16.985158651065824,0.3014749095208943,-2.602367440730333
1772534867269913900,3.475913818359375,-16.673236727941035,-0.44617052683383224,-2.1505729365348816
1772534867279931000,3.485930908203125,-18.08843436549902,-1.667951332399249,-0.29865941370874644
1772534867289947000,3.49594677734375,-19.747721329927444,-1.650197210652381,1.517096461804211
1772534867299964000,3.5059638671875,-19.11604956653118,-1.0471715498954057,2.1180267577171326
1772534867309980000,3.51597998046875,-16.153462327975035,-0.920966990301758,1.8593617930054664
1772534867319997000,3.525996826171875,-12.028902855867146,-1.153151067584008,0.7303584937281906
1772534867330014000,3.536013916015625,-7.919491853052377,-1.4023961697824299,-0.7831859746828674
1772534867340030000,3.546030029296875,-4.255130556347966,-1.1319118802003563,-2.2894132519483565
1772534867350047000,3.556046875,-1.0291729518681765,-0.46616892037615176,-3.6373762591451406
1772534867360064000,3.56606396484375,1.3980524414896964,-0.028193244305253027,-4.364411015278101
1772534867370080000,3.576080078125,3.315699250203371,0.28400238119438287,-4.214476474398374
1772534867380097000,3.586096923828125,4.924924837389588,0.5144286550238728,-3.188783765861392
1772534867390113800,3.59611376953125,6.435405388185382,0.6864967017784714,-2.137013489998877
1772534867400129800,3.6061298828125,7.8719848364681,0.6872123027019202,-1.3221706865534186
1772534867410147000,3.61614697265625,9.196523713457584,0.8930746286392212,-0.6925707609951496
1772534867420163800,3.626163818359375,10.276515582937002,0.9461695283584296,-0.028206688308715817
1772534867430179800,3.636179931640625,11.150533628928661,0.9349304875940084,0.3228539437666535
1772534867440196900,3.64619677734375,11.905797869724035,1.0566574633821844,0.695091511644423
1772534867450214000,3.6562138671875,12.125053199589251,1.0721405714571475,1.2455503882095218
1772534867460230000,3.66622998046875,12.148204942595958,1.0479556860104202,1.1678665522873402
1772534867470247000,3.676246826171875,11.21131572214961,0.8957156446672976,2.2332664173126218
1772534867480264000,3.686263916015625,10.597435636031626,0.7277388127490878,2.240947911725938
1772534867490280000,3.696280029296875,10.279460404217243,0.7136389757260679,2.1303134078383446
1772534867500296700,3.706296630859375,10.284693044173716,0.681841423318535,2.1286071884423494
1772534867510314000,3.71631396484375,10.290830524015426,0.6861530029073357,1.7498560008868573
1772534867520330000,3.726330078125,10.36792428508997,0.6411300582237541,1.466064485964179
1772534867530346800,3.7363466796875,10.328190825116634,0.4418687379866838,1.362057729653269
1772534867540364000,3.746364013671875,10.205364071393012,0.41195860676094886,1.3218975687004626
1772534867550380000,3.756380126953125,10.092340918803215,0.5167481840126216,1.4556591195449233
1772534867560396800,3.766396728515625,9.664017891088127,0.5584292709223926,1.720016012287885
1772534867570412800,3.776412841796875,9.118373721328377,0.5097879896111787,1.8620991090148686
1772534867580429800,3.786429931640625,8.667804959535598,0.37911205675713716,1.8502030656464397
1772534867590446800,3.79644677734375,8.438192486307024,0.11026954303272068,1.6812138418152927
1772534867600462800,3.806462890625,8.292644197687506,-0.12014986266456544,1.2737519619517028
1772534867610479900,3.81647998046875,8.195506011971831,-0.2683176130674779,1.09726229936257
1772534867620497000,3.826496826171875,7.75441468809843,-0.2811758525315672,1.0532223743669689
1772534867630513000,3.836512939453125,7.1871800332993265,-0.2569606450118124,1.0707368421390653
1772534867640530000,3.846530029296875,6.69704907644689,-0.3225879132416099,1.2016466568142175
1772534867650547000,3.856546875,6.381687242001295,-0.3302257877089083,1.4013938608720897
1772534867660563000,3.86656298828125,6.043594520309567,-0.0919410554639995,1.420762724339217
1772534867670580000,3.876580078125,5.541489048025012,-0.06793525291122496,1.1607806856796146
1772534867680596700,3.8865966796875,4.4362621995240445,-0.2417831688199192,0.614071078645438
1772534867690612700,3.89661279296875,3.4009944379121064,-0.23481354900300502,0.2105142433963716
1772534867700630000,3.906630126953125,2.601914436265826,-0.1686136685170233,-0.29555706377923485
1772534867710646800,3.916646728515625,1.593863767403364,-0.33471944586634633,-0.8936853078834712
1772534867720662800,3.926662841796875,0.5275649077117442,-0.45394145309627054,-1.5914501303903759
1772534867730680000,3.93668017578125,-0.6857184108823537,-0.9230223153963685,-2.6669085942238566
1772534867740696800,3.94669677734375,-2.641212427431345,-2.129806481229514,-3.111364426094293
1772534867750712800,3.956712890625,-2.649294611600041,-2.118874022196233,-3.0816005714714527
1772534867760730000,3.966730224609375,-11.424557490813731,-4.045593195159733,-1.5768382521919906
1772534867770747000,3.976746826171875,-19.62476598138809,-3.2562603882849213,-1.524946298521757
1772534867780763000,3.986762939453125,-28.11002709286213,-2.2116443680912257,-1.127616374963522
1772534867790780000,3.99677978515625,-34.10721466678381,0.08569244339801371,-2.034717775389552
1772534867800797000,4.006796875,-36.74665365480185,2.537517659679055,-3.6316406381025907
1772534867810813000,4.01681298828125,-35.7668663728714,2.956013997645676,-5.29952679631114
1772534867820830000,4.026829833984375,-32.64736189494133,1.793462502901256,-5.746060603499412
1772534867830846000,4.036845947265625,-32.66902427617311,1.7569170253142714,-5.684014773952961
1772534867840863000,4.046863037109375,-23.327017740547657,-1.4602049462810158,-4.027655387409031
1772534867850880000,4.0568798828125,-18.754527453935147,-1.7984408758357167,-3.3457264319375155
1772534867860896000,4.06689599609375,-14.196858304357528,-1.7208051168389618,-2.894448352831602
1772534867870913000,4.0769130859375,-10.65405008817911,-1.6337297677151859,-1.6046934967145323
1772534867880930000,4.086929931640625,-7.739707532832026,-1.1301487429853527,-0.41833880931735035
1772534867890945800,4.09694580078125,-7.717851090332865,-1.11971458886303,-0.4847700143411755
1772534867900962800,4.106962890625,-3.0806495543569326,0.4408731510780751,-0.3134451871693134
1772534867910980000,4.11697998046875,-3.0750404823035,0.48903264022171494,-0.3443324928641319
1772534867920995800,4.126995849609375,3.4638808099359273,1.159934955570474,-2.4474033812507985
1772534867931013000,4.13701318359375,7.010618182256818,0.8589539670463651,-3.17637582744807
1772534867941030100,4.147030029296875,7.0619222530364985,0.9246985049802809,-3.376078315581381
1772534867951046000,4.1570458984375,12.798721691715716,-0.0303256532240659,-3.155581168961525
1772534867961063000,4.16706298828125,12.852600581419468,0.013153203822672366,-3.3995530069321394
1772534867971080200,4.177080078125,15.211536866927146,0.37054566926807164,-1.2408432334318755
1772534867981096000,4.187095947265625,15.055177261435984,0.8282413603313267,0.016500906815379857
1772534867991113000,4.197113037109375,14.327952535688876,1.08933136023283,1.3320074593044817
1772534868001130000,4.2071298828125,14.354695581185817,1.048419357999414,1.1935014904119075
1772534868011146000,4.21714599609375,12.963455157798528,1.523623087093979,2.007995042028278
1772534868021163000,4.2271630859375,11.735379343742132,1.713832209086418,1.7044545782797038
1772534868031180000,4.237179931640625,12.379212669575214,1.4883929298892615,1.1970068681843578
1772534868041196000,4.247196044921875,13.470232129025458,1.1280490672923624,0.34472784885726865
1772534868051213000,4.257213134765625,14.428092825829982,0.2784642554853111,-0.5582702079031616
1772534868061229800,4.267229736328125,14.437449852240086,0.2766532605405897,-0.6590463117297738
1772534868071245800,4.277245849609375,14.573334824979304,-0.9443930202051997,-0.9126041625607758
1772534868081263000,4.28726318359375,13.51696348506212,-0.8994831074420362,-0.6037365855053067
1772534868091279000,4.297279052734375,13.521090209603308,-0.9480873446784913,-0.5890398055024445
1772534868101295900,4.3072958984375,10.367029966598748,-0.30680779498144983,0.32278219370469446
1772534868111313200,4.317313232421875,10.36534888164401,-0.35952502049468454,0.402177363589406
1772534868121329200,4.3273291015625,7.897866881221533,0.4853003218255937,0.7370507579084485
1772534868131346000,4.337345947265625,6.900078663176298,-0.0470152144793421,0.5687268661182373
1772534868141363000,4.347363037109375,6.897454159891605,-0.06974792835637926,0.6115038585059345
1772534868151379200,4.357379150390625,5.979741933602094,-1.2780046509601175,0.2901247365321964
1772534868161396000,4.36739599609375,5.975819791722297,-1.267740008185804,0.31740437312386927
1772534868171413000,4.3774130859375,5.750084452188014,-2.4947838488459584,0.25833098351694644
1772534868181429000,4.387428955078125,5.383514993074536,-2.5783213792324067,0.30461992954835293
1772534868191446000,4.397446044921875,5.375383124545216,-2.5474235521435737,0.34782574180737136
1772534868201463000,4.407463134765625,3.5389994715452193,-1.8817317379847167,-0.18114231070056558
1772534868211479000,4.41747900390625,3.5338270373433827,-1.8413405447550117,-0.17171280357614158
1772534868221496000,4.42749609375,2.0213433300316335,-1.3215234746910631,-0.7387750244177878
1772534868231513000,4.43751318359375,1.4141665409445763,-1.3585697414070368,-0.45427499589957293
1772534868241529000,4.447529052734375,0.6144447342634201,-1.1784583081241697,-0.4208099486712366
1772534868251545900,4.4575458984375,0.6061246496856212,-1.0874122287385164,-0.4477377030853182
1772534868261563100,4.467563232421875,-3.675320497614145,-2.1541657003298402,-0.7395251851979643
1772534868271579100,4.4775791015625,-5.841621164634823,-3.068845134794712,-0.6576541267190128
1772534868281596000,4.487595947265625,-7.252428458279371,-3.374959832945466,-0.41591158217042684
1772534868291613200,4.49761328125,-7.973696321448683,-3.4008541526585816,-0.10051248445436357
1772534868301629200,4.507629150390625,-8.89744256720543,-3.1983634951114652,0.09732296769805251
1772534868311646000,4.51764599609375,-11.76082124351263,-2.3784949724584816,0.22418387230858206
1772534868321663000,4.5276630859375,-16.250774701213835,-1.1413298430174588,-0.19261326052471994
1772534868331679200,4.53767919921875,-20.50669728472233,-0.6317850145123899,-1.4346549099609256
1772534868341696000,4.547696044921875,-22.77276707048416,-0.8089933467648923,-3.6236958165779707
1772534868351713000,4.557713134765625,-22.68003617981672,-1.1906152674511075,-5.513272422844171
1772534868361729000,4.56772900390625,-21.33776115512848,-1.2576385931491851,-6.832678613120317
1772534868371746000,4.57774609375,-19.995228940808772,-0.8136902724094689,-7.089890456414222
1772534868381762000,4.587761962890625,-20.038993263733385,-0.24311463661938904,-5.679974558651447
1772534868391779000,4.597779052734375,-19.578186601042745,0.9544954581551254,-3.3202374781548976
1772534868401796000,4.607796142578125,-18.331313732057808,2.266309878128022,-0.8762573493510484
1772534868411812000,4.61781201171875,-17.296467995250225,2.737705300980806,1.438672182778269
1772534868421828900,4.627828857421875,-15.553379296541213,2.8137632892668245,3.1084272035986182
1772534868431846000,4.637845947265625,-11.92600596049428,2.7282448141962288,3.583815349349379
1772534868441862100,4.647862060546875,-7.5385525078028435,2.3012645793922246,2.870223719896376
1772534868451879000,4.65787890625,-3.496095564842224,1.7725952175699173,1.6047982722632586
1772534868461896000,4.66789599609375,-0.11446750617921352,1.182525484497845,0.3406036815993488
1772534868471912000,4.677911865234375,2.715967516425252,0.5804945338666438,-0.8675691621132194
1772534868481929000,4.687928955078125,5.105874109736084,0.3874233004413545,-1.7696023193642496
1772534868491946000,4.697946044921875,7.047256598824262,0.34783860128894445,-1.9784793169476091
1772534868501962000,4.7079619140625,7.061926344689726,0.3540251809693873,-2.0449993692986665
1772534868511979000,4.71797900390625,9.136844613042474,0.711644440907985,-1.6025331038102506
1772534868521996000,4.72799609375,9.847167888349293,1.136242895141989,-0.9807342073917389
1772534868532012000,4.738011962890625,10.576729532611369,1.450878461139649,-0.20803966997638343
1772534868542028800,4.74802880859375,11.093362711942195,1.5662869014307856,0.4696073703922331
1772534868552046000,4.758046142578125,11.334643995654583,1.5240532952047883,1.0508929085060954
1772534868562062000,4.76806201171875,11.42422548238039,1.2736208829179405,1.1822777933470905
1772534868572078800,4.778078857421875,11.650426101338862,0.9462344102881848,1.0758343114085496
1772534868582096100,4.78809619140625,11.994604280424117,0.6804559603095054,0.881703924319148
1772534868592112000,4.798112060546875,12.10441256262064,0.3793903622418642,0.6065938746325671
1772534868602129000,4.80812890625,12.027881111603975,0.12383549237474799,0.4452462515957653
1772534868612146000,4.81814599609375,11.809088723075389,-0.0224419873021543,0.5377858574748039
1772534868622162200,4.828162109375,11.57737723174095,-0.07825023763328791,0.5873972989924252
1772534868632179000,4.838178955078125,11.41463932338953,-0.019091946221888065,0.5752678852595389
1772534868642195000,4.84819482421875,11.242860030448437,0.04664002449139952,0.6451357867337763
1772534868652212000,4.8582119140625,10.72376484491825,0.07760814033746719,0.7787507687143981
1772534868662229000,4.86822900390625,9.895228447163104,0.11101824250817298,0.6920479061648249
1772534868672245000,4.878244873046875,9.264209594717622,0.06062675652876496,0.7852845543973147
1772534868682262000,4.888261962890625,8.704577231615781,0.04161430528387427,0.9376771559536456
1772534868692279000,4.898279052734375,8.41322697187662,-0.15790581201985476,1.1454666505612432
1772534868702295000,4.908294921875,8.461482761001587,-0.3669945526577532,1.315359691364318
1772534868712312000,4.91831201171875,8.563349144282936,-0.540377919794619,1.335918349137902
1772534868722328800,4.928328857421875,8.39036222911775,-0.7393409877374768,1.2823035171978174
1772534868732345000,4.938344970703125,7.910102093416452,-0.9184136525571346,1.1026862241074442
1772534868742362000,4.948362060546875,6.886466901931167,-0.9888048472531139,1.001692824268341
1772534868752379000,4.95837890625,6.879265592250228,-0.9677473000466823,1.023384723855555
1772534868762395000,4.968394775390625,4.7785780918687575,-0.6478520599551498,0.4630461121805012
1772534868772412200,4.978412109375,4.030160355967283,-0.5790123324848712,0.17245953029021618
1772534868782429000,4.988428955078125,3.1584125929951665,-0.5763412135794759,0.06561550472676754
1772534868792445000,4.99844482421875,1.8137901283979414,-0.7356003399044275,0.21385274016931652
1772534868802462200,5.008462158203125,-0.326756504163146,-1.1067993585146962,0.09331102864295243
1772534868812479000,5.01847900390625,-3.5457927849471567,-1.4708872299455105,-0.2606782042302191
1772534868822495000,5.028494873046875,-7.083366023081541,-1.6470736718043684,-0.6527275570370257
1772534868832512000,5.038511962890625,-7.128682251623273,-1.538279242825508,-0.5339782818853854
1772534868842529000,5.048529052734375,-10.953474933302402,-1.5953662809208033,-0.37135581660717726
1772534868852545000,5.058544921875,-11.888961301213502,-1.969311091107875,-1.8039425419919193
1772534868862562000,5.06856201171875,-12.21679507921934,-0.8443713880077004,-4.852322542515397
1772534868872579000,5.0785791015625,-12.098583710336685,-0.37581367279887196,-5.851089250203967
1772534868882595000,5.088594970703125,-13.587977049440145,-0.9640344170033931,-5.547834033137559
1772534868892612000,5.098612060546875,-15.748752231037615,-1.0606868650287389,-4.481996945738792
1772534868902627800,5.1086279296875,-16.144875701415536,-0.6672030955046415,-3.3728181447416543
1772534868912645000,5.11864501953125,-14.604120423865318,-0.961714449623227,-2.606462893350422
1772534868922662100,5.128662109375,-13.025366547310352,-1.1227800408482551,-1.8890230640366672
1772534868932678100,5.13867822265625,-13.43093121525049,-0.937092634063959,-0.5008130943864584
1772534868942695200,5.148695068359375,-14.538182847577332,-0.7549100205302238,0.3198684982150793
1772534868952712000,5.1587119140625,-16.006400127661227,-0.11322978107780217,0.11396218700557946
1772534868962728200,5.168728271484375,-16.139443154972792,0.38020620866939425,-0.8028226953059434
1772534868972745200,5.1787451171875,-14.311747250819206,-0.06421484414860607,-1.177184415730834
1772534868982762000,5.188761962890625,-10.846308690047264,-1.0305464321784674,-1.5400941832929849
1772534868992778000,5.198778076171875,-6.712677438211441,-1.8105001469418405,-2.089487476453185
1772534869002795300,5.208795166015625,-6.70656041663587,-1.8921116777017712,-2.0652549524724484
1772534869012812000,5.21881201171875,-0.30581425389945505,-1.843778439426422,-3.0417633588626978
1772534869022828000,5.228828125,0.7572849329680204,-1.1074683438174426,-2.0770120257616043
1772534869032845300,5.23884521484375,1.0587281321763993,-0.05386456891745329,-0.011543430538475513
1772534869042862000,5.248862060546875,1.9322090025514362,0.9298490926764905,2.1647043377399444
1772534869052878000,5.258878173828125,3.7034032672822472,1.9016519517242907,3.6785254311352964
1772534869062895000,5.26889501953125,6.1973161785125725,2.5080881515771147,4.421031897166371
1772534869072912100,5.278912109375,8.65355139325559,2.6156962933808563,4.251624009531736
1772534869082928000,5.28892822265625,10.59612396891117,2.3083606751330197,3.4930358850106593
1772534869092945200,5.298945068359375,11.608345201456546,1.6964311385609208,2.351996549372375
1772534869102962200,5.308962158203125,11.816449022710323,0.8317663926523179,1.396717685754597
1772534869112978200,5.318978271484375,11.362577127718925,0.07676138731501995,1.0906681617945433
1772534869123621000,5.32962109375,11.378062281620501,-0.008870850328356028,1.0691995495691895
1772534869133637000,5.33963720703125,10.937232239031792,-0.36995574055090547,1.3857880032002925
1772534869143654100,5.349654052734375,11.018611714601516,-0.5465916797429323,1.622508847129345
1772534869153671200,5.359671142578125,10.812814416724443,-0.6456487777572125,1.7545199010446666
1772534869163687200,5.369687255859375,10.467430953502655,-0.9188912069410086,1.8873685748279094
1772534869173704200,5.3797041015625,10.121122776651381,-1.0965708099670708,1.6786141807109116
1772534869183721000,5.389720947265625,9.786026314166188,-1.2986818205468356,1.5088929893434047
1772534869193737200,5.3997373046875,9.09733034877777,-1.6551672541499136,1.5151391902565956
1772534869203754200,5.409754150390625,8.258453758794069,-2.0212287637412545,1.5575135201275347
1772534869213771000,5.41977099609375,7.298692781326174,-2.298951041752845,1.8668492261514067
1772534869223787000,5.429787109375,6.55318304182589,-2.540175772972405,1.9280881232291458
1772534869233804300,5.43980419921875,6.073648882311582,-2.748127034012973,1.5483794888183473
1772534869243821000,5.449821044921875,5.604295925071836,-2.913272003506124,1.2435665209159255
1772534869253837000,5.459837158203125,5.1486581894516945,-3.1688696896016597,1.1758254023373127
1772534869263854300,5.469854248046875,4.965526312369108,-3.3103345082998272,1.1350789659291505
1772534869273871000,5.47987109375,4.825881694835424,-3.2798709809750317,1.1910159572064876
1772534869283887000,5.48988720703125,4.345207133114338,-3.237045692466199,1.4813731142550706
1772534869293904100,5.499904052734375,3.780993871963024,-3.157130151969194,1.6927911746233701
1772534869303921200,5.509921142578125,3.1904052295833822,-3.220423058967292,1.77686588062644
1772534869313937200,5.519937255859375,2.667969501453638,-3.2777596879094837,1.3491554318517445
1772534869323954200,5.5299541015625,2.2448229995936155,-3.43638548476696,0.9674930330246686
1772534869333970200,5.53997021484375,1.5445891566246748,-3.7357515854403376,0.5711864611648023
1772534869343987200,5.5499873046875,0.11499299135804175,-3.905464301240444,0.29665917980223894
1772534869354004200,5.560004150390625,-1.7427303867906332,-3.688203944584727,0.016118775629997254
1772534869364020200,5.570020263671875,-3.762663265502453,-3.171225605078041,-0.6858696559213101
1772534869374037200,5.580037353515625,-6.1111804483264685,-2.849941102585196,-1.9894203976787626
1772534869384054300,5.59005419921875,-7.942578129607439,-2.910712674412131,-3.280789849385619
1772534869394070300,5.6000703125,-9.120741034981608,-2.862370083786547,-3.7137498892515897
1772534869404087000,5.610087158203125,-10.29809730014801,-3.1477462375521656,-2.849735058619082
1772534869414104300,5.620104248046875,-12.226692203855514,-3.6170667538270354,-1.5975621835298834
1772534869424120000,5.6301201171875,-14.02516084448099,-2.0504107268229124,-1.9994633605264127
1772534869434137000,5.64013720703125,-14.761667777836323,0.4215193390496075,-2.781727398058772
1772534869444154400,5.650154296875,-15.049837069451808,1.9455083368465302,-3.1703847703397274
1772534869454170000,5.660170166015625,-15.576284371310471,2.9576471518054603,-3.6545413289576767
1772534869464187100,5.670187255859375,-16.964440857207773,2.7566546238616105,-4.474567672520876
1772534869474204200,5.6802041015625,-17.16978924227357,2.4978049502328035,-3.875771758288145
1772534869484220200,5.69022021484375,-15.65172744256854,2.6945786914378402,-2.5480156728178263
1772534869494237200,5.7002373046875,-13.385095346748829,2.715937413547933,-0.7523736339204012
1772534869504254200,5.710254150390625,-13.389570446336268,2.7898028602257368,-0.8380066752813756
1772534869514270000,5.72027001953125,-9.914764337760209,2.117607947783172,2.8331904587924477
1772534869524287200,5.730287353515625,-8.83772138121426,1.9046280449256299,3.8964603260517117
1772534869534304300,5.74030419921875,-7.95156398461759,1.9566677365034817,4.080781120657921
1772534869544320000,5.750320068359375,-6.6380421762049195,2.197531379325688,3.10046017024219
1772534869554337300,5.760337158203125,-4.848742345941067,2.357412436941266,1.8111568572849035
1772534869564354300,5.770354248046875,-2.7552053018361327,1.9618474772289394,0.4027247683390975
1772534869574370000,5.7803701171875,-0.6766331871509551,1.1985773323714732,-1.3459487447649239
1772534869584387000,5.790386962890625,1.213022037309408,0.7702358922168612,-3.0805005012750626
1772534869594404000,5.800404052734375,2.7679291743308303,0.6302402692884206,-4.1847766249224545
1772534869604420000,5.810420166015625,4.1084278369963165,0.8556821788340806,-4.214080753079056
1772534869614437000,5.82043701171875,5.175229385513067,1.2506161471664905,-3.529953995302319
1772534869624454100,5.8304541015625,6.003686872813105,1.67071875128597,-2.4882132382839917
1772534869634470100,5.84047021484375,6.674741967570782,2.1153689366847277,-1.384943515200168
1772534869644487200,5.850487060546875,7.418130477133393,2.4728949653819203,-0.558022882078588
1772534869654504000,5.86050390625,8.302733045503496,2.6798335422486064,0.04085077356547117
1772534869664520200,5.870520263671875,8.333920210927724,2.685734875246882,-0.12975026937648654
1772534869674537200,5.880537109375,10.223271484005451,2.500404026815295,1.038223834938556
1772534869684554000,5.890553955078125,11.061458338159323,2.083078778454661,1.4010529384799302
1772534869694570000,5.900570068359375,11.217148081564902,1.6761843232154845,1.4518318163417279
1772534869704587300,5.910587158203125,10.802595805048941,1.2470417958110571,1.1706455154813826
1772534869714603300,5.920603271484375,10.411730693590641,0.7207192893758416,0.919720351241529
1772534869724620000,5.9306201171875,10.228885232234001,0.4326867758825421,0.4769615325473249
1772534869734637300,5.94063720703125,10.174585486769676,0.5269698644280434,0.010574877767264842
1772534869744653300,5.9506533203125,10.517957025647164,0.4822554011717438,-0.416136915358901
1772534869754670000,5.960670166015625,10.535831705033779,0.451797719065845,-0.48741336845681066
1772534869764687000,5.97068701171875,9.990680871748923,0.5653573166199028,-0.2701549845624715
1772534869774703400,5.980703369140625,9.94008816410899,0.6619578883275389,-0.19317104053795336
1772534869784720100,5.99072021484375,9.996219801175593,0.8293592584453523,-0.25247122463807464
1772534869794737200,6.000737060546875,9.933699339854718,0.9135945618376136,-0.3833875421192497
1772534869804753200,6.010753173828125,9.79959774340093,0.6300152283608913,-0.5730022053498774
1772534869814770200,6.020770263671875,9.66531786777079,0.39560996789783237,-0.6881298559382557
1772534869824787200,6.030787109375,9.260460471317172,0.3419195865035057,-0.4994797268908471
1772534869834803200,6.04080322265625,8.54631617641747,0.2928706011742353,-0.11244659481085836
1772534869844820200,6.0508203125,7.610915733224153,0.12032368486151099,0.3095517599273473
1772534869854837200,6.060837158203125,6.274964066338539,-0.10431216899827123,0.44331919252332297
1772534869864853200,6.070853271484375,4.983571672147512,-0.2966362373180687,0.2279005182115361
1772534869874870000,6.0808701171875,3.8029099356949327,-0.581040769572556,-0.09631598261259496
1772534869884887300,6.09088720703125,2.6165041026324034,-0.822794785363227,-0.2898491709938273
1772534869894903300,6.1009033203125,1.387766025274992,-1.0252706837326289,0.01669664858318865
1772534869904920000,6.110920166015625,-0.5460989277899265,-1.3735000379048288,0.34510588838942347
1772534869914937900,6.120937744140625,-3.3914988798141477,-1.5023299775660037,-0.12581873861383647
1772534869924953600,6.13095361328125,-6.274007204005122,-1.5475589662156999,-1.0274398444652557
1772534869934970600,6.140970703125,-8.906438943609595,-1.578581004206091,-2.277719014762342
1772534869944987600,6.150987548828125,-11.152432156026363,-1.8834791661739347,-2.8805472532510756
1772534869955003600,6.161003662109375,-13.292822721242905,-2.630133984056115,-2.1134357766650615
1772534869965020700,6.171020751953125,-14.958753361469507,-1.318744657627493,-1.7924965804785489
1772534869975037700,6.18103759765625,-15.180129336750506,0.9447320429012179,-1.8383286495879292
1772534869985053400,6.191053466796875,-15.48691681959629,1.1740675988845526,-1.0969030375961213
1772534869995070700,6.20107080078125,-15.944273634094,0.4673819494277239,-0.4366589309165254
1772534870005087500,6.21108740234375,-15.73915671969652,0.2600818457722664,-0.23471176912896333
1772534870015103500,6.221103515625,-14.734354238975047,0.12368541637957095,0.3530012812817469
1772534870025120800,6.231120849609375,-13.451594064050912,-0.4894555418089032,1.603179585020244
1772534870035137500,6.241137451171875,-11.826682831954955,-0.9738274967432021,2.4519389788538217
1772534870045153500,6.251153564453125,-10.602566569179295,-1.2441655097223818,3.1869922062695024
1772534870055170600,6.261170654296875,-10.819525897061824,-1.2944172949701547,4.607491749627888
1772534870065186600,6.2711865234375,-11.439842738229036,-0.4012719391822815,5.429153293177485
1772534870075203600,6.28120361328125,-11.201064377248287,0.39017683693319555,5.200673623371124
1772534870085220600,6.291220703125,-9.915983650422096,0.1577890537723899,4.204020254574716
1772534870095236600,6.301236572265625,-7.789741437545418,-0.404171898407489,2.3840296641014516
1772534870105253600,6.311253662109375,-5.442767392510175,-1.0539299381144345,0.3482918249491602
1772534870115270700,6.321270751953125,-3.254475842955708,-1.7276133355490861,-1.5483718900337815
1772534870125286700,6.33128662109375,-1.3547563205987214,-2.012407159382105,-2.7364827734485266
1772534870135303700,6.3413037109375,0.4615244555711746,-1.9845979459583758,-3.174096484339237
1772534870145320700,6.35132080078125,1.9919845490783452,-1.9573473893307147,-3.0338696830034255
1772534870155336700,6.361336669921875,3.2979689477235077,-1.819870909616351,-2.517391986495256
1772534870165353500,6.371353515625,4.707674417605996,-1.4245057102598249,-1.945121091094613
1772534870175370800,6.381370849609375,6.238512112253904,-0.9203878021743148,-1.0678677164435386
1772534870185386800,6.39138671875,7.721346531233191,-0.4912346803106367,0.01773585543781519
1772534870195403500,6.401403564453125,8.965039601138233,-0.23167868504337966,0.7841862377665937
1772534870205420800,6.4114208984375,9.765427178251743,-0.14407923898026345,1.0063169769376517
1772534870215436800,6.421436767578125,9.964172804051637,0.021692922500520944,0.9889645678594707
1772534870225453600,6.43145361328125,9.839958395361899,-0.13961597596108913,1.1767094916954637
1772534870235470600,6.441470703125,9.77500047776103,-0.5573899910025298,1.4913519258253276
1772534870245486800,6.45148681640625,9.760271695184707,-0.7595945981498807,1.7492210639841854
1772534870255503600,6.461503662109375,9.955726462745666,-0.779351657216996,2.132860900364071
1772534870265520600,6.471520751953125,10.051012883114813,-0.8037035697937012,2.6784628384172913
1772534870275536600,6.48153662109375,9.846308641171454,-0.9234973855622112,3.094166623055935
1772534870285553700,6.4915537109375,9.505871986702084,-0.851119327897951,3.1719974662333725
1772534870295570700,6.50157080078125,9.13494842403233,-0.7373492293983698,3.076948361751437
1772534870305586700,6.511586669921875,8.572316879114508,-0.68397456288971,2.890773463711142
1772534870315603700,6.521603759765625,7.864303634315728,-0.5854293599203229,2.7477485560894013
1772534870325620700,6.531620849609375,7.297194067201018,-0.6397085740532725,2.812393462218344
1772534870335636700,6.54163671875,6.974107775983214,-0.9010405660171061,2.7851041810154915
1772534870345653500,6.551653564453125,6.9638137609839434,-0.9881034940507263,2.411867519097775
1772534870355670800,6.5616708984375,7.142673367574811,-0.9554786239735782,1.930447253575921
1772534870365686500,6.5716865234375,7.334112469753623,-1.1683705562867224,1.7970351006910203
1772534870375703600,6.58170361328125,7.337830613493919,-1.363116152665019,1.7706395534574983
1772534870385719600,6.591719482421875,7.269950670966505,-1.184725844086334,1.4153054818466304
1772534870395736600,6.601736572265625,6.951144833546876,-1.0634637093309312,0.906822729615122
1772534870405753600,6.611753662109375,6.446496691042184,-1.143597495688498,0.2655095699094236
1772534870415769600,6.62176953125,6.015123043584823,-1.156111817085743,-0.19941300366744397
1772534870425786600,6.63178662109375,5.282193968716263,-1.302836017616838,-0.19581497917547822
1772534870435803600,6.6418037109375,4.067860264286399,-1.8281772579297422,0.18314166782423852
1772534870445819600,6.651819580078125,2.7073668613404034,-2.1967812916107476,0.5010277600504458
1772534870455836400,6.66183642578125,1.0991899064242838,-2.0128985961608588,0.5180655502215028
1772534870465853700,6.671853759765625,-1.0472294175624848,-1.6161474954038857,0.3625789281725883
1772534870475869700,6.68186962890625,-3.2672306951105594,-0.9475925468988716,-0.19922303405329583
1772534870485886500,6.691886474609375,-5.096304901880026,-0.2706485402330756,-1.3105324173383415
1772534870495903700,6.70190380859375,-6.557687367507815,-0.36368367454409595,-1.9166662732437252
1772534870505919700,6.711919677734375,-8.23086958629787,-1.7483324445813893,-1.2502416147656739
1772534870515936500,6.7219365234375,-10.346228001588582,-2.1823063376650214,-0.9575859715163707
1772534870525953500,6.73195361328125,-10.370904177683592,-2.050966461009532,-0.9710891578204929
1772534870535969800,6.7419697265625,-13.047706973934172,-0.6333486105673015,-1.6326146460801363
1772534870545986600,6.751986572265625,-15.46951560294032,-1.2260144976124168,-1.2760419725850223
1772534870556003600,6.762003662109375,-17.356854951673746,-0.2584476686991751,-2.1676212480999526
1772534870566019600,6.77201953125,-17.336342909520862,0.9362911084227263,-3.302308145971596
1772534870576036600,6.78203662109375,-16.102551640427112,1.4025585207372904,-3.7689679186046123
1772534870586053600,6.7920537109375,-14.199419679278135,1.5868870602585374,-3.5940111646711825
1772534870596069600,6.802069580078125,-11.903559150886535,1.9557447764396667,-3.026971447922289
1772534870606086700,6.812086669921875,-10.548645593899488,1.7373749972373247,-1.539121100477129
1772534870616103700,6.822103759765625,-11.053360371899604,0.6113038058891892,0.8505611825585365
1772534870626119700,6.83211962890625,-12.495811927086114,0.43919498873278495,2.267255780676007
1772534870636136400,6.842136474609375,-12.97905838512182,1.3701216475129128,2.1041886403702197
1772534870646153700,6.85215380859375,-11.94435877878666,1.5622947630546986,1.574171517200768
1772534870656169700,6.862169677734375,-9.677087216019629,1.1801935344189405,0.47362318190485236
1772534870666186500,6.8721865234375,-9.675399701324105,1.1056580795250832,0.5393142360858619
1772534870676202500,6.882202392578125,-2.8925580090403553,-0.23891806171238422,-1.4977587241277097
1772534870686219800,6.8922197265625,0.14376608137786387,-0.6193490190483629,-1.8598012073360382
1772534870696236500,6.902236572265625,2.6596289586097,-0.8228612747281789,-1.801482143227756
1772534870706252500,6.91225244140625,4.115046378353238,-0.9329704395674169,-1.5135313166685402
1772534870716269800,6.922269775390625,4.969510413569211,-0.9226436913423239,-0.8992175153084099
1772534870726286600,6.93228662109375,5.978564121994376,-0.817763220936805,-0.0912881445132196
1772534870736302600,6.942302490234375,6.948757646149397,-0.6023534605838358,0.35467180830985306
1772534870746319600,6.952319580078125,7.745997572886943,-0.3412177218444645,0.2134239933632314
1772534870756336600,6.962336669921875,8.316206859582662,-0.09293795754685998,0.02381166822016239
1772534870766352600,6.9723525390625,8.857629612255096,-0.1753840394347906,0.02128945626616478
1772534870776369700,6.98236962890625,9.48006592979431,-0.2849199344307184,0.029831659162044524
1772534870786386700,6.99238671875,10.014601845562458,-0.35186829519644375,-0.008200111459940672
1772534870796402700,7.002402587890625,10.465020385229588,-0.37315482885316015,0.06031213762164116
1772534870806419700,7.012419677734375,10.763085632437466,-0.4758113395988941,0.5119537893429398
1772534870816436500,7.0224365234375,10.956861653131245,-0.6309992709621787,1.1245185550786554
1772534870826452700,7.03245263671875,10.96802485218048,-0.63066565509364,1.6239304043650626
1772534870836469800,7.0424697265625,10.653820955598354,-0.5726831294633448,1.8669497639164327
1772534870846486500,7.052486572265625,10.11823640756011,-0.6849843975193798,1.8515952506572007
1772534870856502500,7.06250244140625,9.401144953292608,-0.8616291045397519,1.8023315996639429
1772534870866519800,7.072519775390625,8.84909676170945,-0.8108433585457503,1.8849186974577605
1772534870876536600,7.08253662109375,8.359110181763768,-0.7074693471804261,2.228322823430598
1772534870886552600,7.092552490234375,7.725043632185459,-0.8228445427890867,2.885567419500649
1772534870896569900,7.10256982421875,7.166233106860518,-1.099715026276931,3.259899329309165
1772534870906586600,7.112586669921875,6.685404231360554,-1.215969635068625,2.9821383267223833
1772534870916602000,7.12260205078125,6.311938582992553,-1.2800801420599222,2.4836852394655344
1772534870926619400,7.132619384765625,5.9331251438558095,-1.6641268056750296,2.184827088314295
1772534870936636200,7.14263623046875,5.503038613599538,-2.0824501251623033,1.7535663997121154
1772534870946652200,7.152652099609375,5.254827238363028,-2.290959896868467,1.3364699916712939
1772534870956669400,7.16266943359375,4.979028183498978,-2.3893013208940626,1.3177205752767622
1772534870966686200,7.172686279296875,4.448054344126582,-2.4276848275631666,1.4781927306532858
1772534870976702200,7.1827021484375,3.2136276997387405,-2.2016597113020717,1.4496129712484775
1772534870986719200,7.19271923828125,0.9049421765655279,-2.156928296910971,1.3836561057381331
1772534870996735200,7.2027353515625,0.9071171825170516,-2.1334721641302106,1.353904672205448
1772534871006752300,7.212752197265625,-3.6832863619267937,-2.0756518433243034,0.5191979152522981
1772534871016769300,7.222769287109375,-5.897664538896083,-1.8134442375697195,0.23642566037476062
1772534871026785000,7.232784912109375,-5.915303655961155,-1.7133838807970285,0.2706665142811835
1772534871036802300,7.24280224609375,-9.80732103112936,-1.311277390486747,-0.9357532021537422
1772534871046819300,7.2528193359375,-11.409243017303943,-0.7044179967857896,-2.270393932571262
1772534871056835000,7.2628349609375,-12.6066594892025,-0.19438684606850146,-3.360237187848985
1772534871066852400,7.272852294921875,-13.477404212611912,0.5837476904436946,-3.9186920316040514
1772534871076869400,7.282869384765625,-14.47828221336603,2.069102129419893,-4.772334521304071
1772534871086885000,7.292885009765625,-15.412338840734957,2.8196193218186494,-5.381578472054004
1772534871096902100,7.302902099609375,-16.70090331802368,2.4778835674494504,-5.143129196897148
1772534871106919200,7.312919189453125,-17.883346677196023,2.3974017713718117,-4.548599707937241
1772534871116935200,7.32293505859375,-18.34759032859802,2.897176901012659,-3.7992905761539935
1772534871126952200,7.3329521484375,-17.393685675942898,3.5333909840136766,-2.5468250017285348
1772534871136969200,7.34296923828125,-15.38993645479083,3.555537057109177,-1.2936562474697828
1772534871146985200,7.352985107421875,-13.139717733633518,2.7547435295432803,0.18580621085837482
1772534871157002200,7.363002197265625,-11.474869627946614,1.21805842404142,2.2340243960730732
1772534871167019000,7.37301904296875,-10.464058262199163,0.17046981777772308,3.5323522886157033
1772534871177035300,7.38303515625,-8.82880859144032,0.17402794865071772,3.4443384895980356
1772534871187052300,7.39305224609375,-6.475863655301928,0.1868538202151656,3.130397920127213
1772534871197068300,7.403068359375,-4.238122138401866,-0.16038666905015705,2.7750778770416975
1772534871207085000,7.4130849609375,-2.139674525901675,-0.19424539177119732,1.5502284776858986
1772534871217102300,7.423102294921875,0.05402443565428257,0.2440283904634416,-0.41777080017104745
1772534871227118300,7.433118408203125,1.9431302095383405,0.635602234712988,-2.1507745965868232
1772534871237135000,7.443135009765625,3.7476527433753013,0.39880072676315903,-3.052785980397463
1772534871247152400,7.45315234375,5.475352734294534,0.22790713061541318,-3.2699066363215445
1772534871257168400,7.46316845703125,7.5383450025320045,0.28999767608642574,-3.154105543451011
1772534871267185200,7.47318505859375,9.738430450254679,0.4929829852826893,-3.004042700016498
1772534871277202200,7.4832021484375,11.592967599582671,0.7398601893059908,-2.696652867363393
1772534871287218400,7.493218505859375,12.819077082002162,0.8986302169397473,-2.049065449693799
1772534871297235200,7.503235107421875,13.661251544487476,0.8694264804176985,-1.0968756381325424
1772534871307252200,7.513252197265625,14.064452405905723,0.815372234147042,-0.07450184488520026
1772534871317268200,7.523268310546875,13.776096067285536,0.7185448679462075,0.7089312364265322
1772534871327285200,7.53328515625,12.94336514045,0.5970844341397286,1.0895156307585536
1772534871337302300,7.54330224609375,11.823096205639839,0.35124928651526566,1.6785944530971346
1772534871347318300,7.553318359375,10.407376005512475,0.004077186311036348,2.1264747064583003
1772534871357335300,7.563335205078125,8.822545439392329,-0.053867345396429296,2.10349349771291
1772534871367352300,7.573352294921875,7.366244807073474,-0.06259148073047399,2.089943841918558
1772534871377368300,7.583368408203125,6.566444674459099,-0.20880385928191245,2.1597022916689514
1772534871387385000,7.593385009765625,6.537559356236457,-0.3107281832955777,2.1959715826630593
1772534871397402400,7.60340234375,6.904945392429828,-0.4727940376043319,2.1657136609129606
1772534871407418400,7.61341845703125,7.293657709768414,-0.8036262667737901,2.2276078070290386
1772534871417435100,7.62343505859375,7.570689521297812,-1.1947707066301256,2.330117456649989
1772534871427452400,7.633452392578125,7.537745283073186,-1.4010805571392178,2.40688768485859
1772534871437468400,7.643468505859375,7.1103352785497895,-1.512149506921321,2.721849560201168
1772534871447485200,7.653485107421875,6.523386453977227,-1.6693056696176527,2.863725882309675
1772534871457502200,7.663502197265625,5.818379989778995,-1.5897057709410787,2.707604469488561
1772534871467518200,7.673518310546875,5.2239744194597,-1.6002957001470028,2.481979896852374
1772534871477535200,7.68353515625,4.9775265467643734,-1.8422675964720545,2.0451567518174647
1772534871487551200,7.69355126953125,5.020980488565564,-1.9517831793323157,1.446500538316369
1772534871497568300,7.703568359375,5.27604538295865,-2.033579419009387,0.7745556551121174
1772534871507585300,7.713585205078125,5.413536037328839,-1.9866661305345594,0.28940409410744905
1772534871517601300,7.723601318359375,4.825877603182196,-2.0509683607056735,0.13356266727149485
1772534871527618000,7.7336181640625,4.832130233836174,-2.000379744718969,0.08081482742428779
1772534871537635300,7.74363525390625,2.3650930545717475,-2.6122686570197344,0.24014614220261574
1772534871547651300,7.7536513671875,0.6749532712399959,-2.5919588594406844,-0.26747254054546354
1772534871557668000,7.763668212890625,-1.3222493047475814,-2.364575168177485,-0.36537118923962114
1772534871567685000,7.77368505859375,-3.3670746326535936,-2.3946312837451695,0.026577041280269623
1772534871577701400,7.783701416015625,-3.3833132352709767,-2.2946596281692386,0.04611044765934348
1772534871587718100,7.79371826171875,-8.46800134911537,-3.8452556239932774,1.2540794393628836
1772534871597735200,7.803735107421875,-11.938386134117842,-5.168200509789585,1.5749088915646074
1772534871607751200,7.813751220703125,-16.46183035801053,-5.751721698001027,1.2849762435384093
1772534871617768200,7.823768310546875,-20.630290931165217,-3.6900077791363,-0.2040396405547857
1772534871627785200,7.83378515625,-23.83050385353565,-1.3038038397356868,-1.6641024018861352
1772534871637801200,7.84380126953125,-27.94378906743526,-0.14660685776174068,-3.282397284582257
1772534871647818200,7.853818359375,-31.605140660929678,1.7512904176041484,-6.280558525344729
1772534871657835300,7.863835205078125,-31.664955954945086,3.0567192281931637,-8.040331232351065
1772534871667851300,7.873851318359375,-31.707116349804398,3.125293582725525,-7.940951989710331
1772534871677868000,7.883867919921875,-22.042147441601752,2.138296807807684,-7.373410460919142
1772534871687884300,7.89388427734375,-16.502513081532715,1.8323830390565097,-5.778015246164799
1772534871697901300,7.9039013671875,-12.798439952164888,1.436087426982075,-3.7188343529090284
1772534871707918000,7.91391796875,-10.316198774027823,1.2885020795769988,-2.001455557256937
1772534871717934000,7.92393408203125,-8.22717365438938,1.5283778804056345,-0.608610182891041
1772534871727951400,7.933951416015625,-6.060938453820348,1.6735932838089762,0.8716348041169345
1772534871737968000,7.943968017578125,-4.068599684476852,2.0353109189771112,1.7163110202901064
1772534871747984100,7.953984130859375,-1.7691677273392676,2.8354835381656884,1.2450069289825856
1772534871758001400,7.96400146484375,0.7802356004446744,3.5152982779622075,0.05125146380960941
1772534871768018200,7.97401806640625,3.451937858685851,3.8950180182889103,-1.403717335383594
1772534871778034200,7.9840341796875,6.08115005172193,3.643331368157267,-2.7794343186855315
1772534871788051200,7.99405126953125,8.748864117109775,3.3732211725845933,-3.9974733073741193
1772534871798068200,8.004068115234375,11.484515408170223,3.5336180707678198,-4.635307100531459
1772534871808084200,8.014084228515625,13.980367763030529,3.6797935513749715,-4.312632897245884
1772534871818101200,8.024101318359374,15.830847161400317,3.833379308238625,-3.2337387598752976
1772534871828118300,8.0341181640625,16.618128004181383,3.8250878652334213,-2.303549037067592
1772534871838134300,8.04413427734375,16.767796003079415,3.7578073499038815,-1.6483081820353864
1772534871848151300,8.0541513671875,16.003304499733446,3.8580961086049674,-0.9382616047780961
1772534871858168000,8.06416796875,14.516706344306469,3.4491724856257435,-0.3636662850178778
1772534871868184300,8.074184326171874,12.896444399321078,3.0246383287996053,0.14203991517238318
1772534871878201300,8.084201416015626,11.605846954900025,2.9790348077490925,0.23245354187339543
1772534871888218000,8.094218017578125,10.504632264649867,3.0869565455466508,-0.06516169654466211
1772534871898234000,8.104234130859375,9.727687522444128,3.115475076283514,-0.1461756267376244
1772534871908251400,8.11425146484375,9.620218496850132,2.791624522694945,0.15311357277464122
1772534871918267100,8.12426708984375,9.832806185519695,2.483803605148196,0.41884390929527576
1772534871928284000,8.134283935546875,9.856875627893208,2.408514847669005,0.3389971597181633
1772534871938301000,8.144301025390625,10.234017334425449,1.847417088189721,0.9686356271885335
1772534871948317000,8.15431689453125,10.393605838835239,1.7105515799805522,1.2860440189003943
1772534871958334000,8.164333984375,10.407485895627737,1.8969332526393234,1.378614166048169
1772534871968351000,8.17435107421875,9.998403574955463,1.8722031543999909,1.4441419924914836
1772534871978367000,8.184366943359375,9.594009119838475,1.4559791452795265,1.2952142905667423
1772534871988384000,8.194384033203125,9.084729225879908,1.2974836968034504,0.7094618361718952
1772534871998401000,8.204401123046875,9.102761726176738,1.2100586574591696,0.7484463774740695
1772534872008416800,8.214416748046874,7.704403579738735,0.7220616438955069,-0.34117461335510013
1772534872018433800,8.224433837890626,7.064988070347905,0.15889613823145626,-0.45288354154117405
1772534872028451000,8.234451171875,7.07385468289256,0.10420768571048974,-0.4127446425721049
1772534872038466800,8.244466796875,5.935480182549357,-0.40906507727652786,-0.052208581871353084
1772534872048483800,8.25448388671875,5.248161935254931,-0.9954800872333347,0.5086345817923545
1772534872058501000,8.264501220703124,4.639055054888129,-1.308570031224191,0.41010421106591816
1772534872068516900,8.274516845703126,4.0717607788562775,-1.3356440622411667,-0.035901918986439706
1772534872078534000,8.284533935546875,3.1728105361819265,-1.8460240263961254,-0.18956439434811473
1772534872088551000,8.294551025390625,1.6270096656799315,-2.8555414068102833,-0.25295214002281424
1772534872098567000,8.30456689453125,-0.22974749778509138,-3.77420318890959,-0.17354001900330185
1772534872108584000,8.314583984375,-2.5610218693852422,-4.842168228247761,0.4310955611683428
1772534872118601000,8.32460107421875,-5.37961038685143,-6.028401627352833,0.9972299265753477
1772534872128616700,8.33461669921875,-8.502035136142373,-6.03480506465435,0.6377765100121497
1772534872138634000,8.344634033203125,-12.773490219825506,-5.9751633736401795,0.08876834371201693
1772534872148650000,8.35464990234375,-17.198087115997076,-6.591345891481637,0.3011090718831867
1772534872158666800,8.364666748046876,-20.009061066806314,-6.890126008960604,0.34705673019625244
1772534872168684000,8.37468408203125,-20.50796452817917,-5.889807980176806,-0.8082064341709018
1772534872178700000,8.384699951171875,-20.449479605984685,-4.065643757280707,-2.7395523901522156
1772534872188716800,8.394716796875,-22.31073524991274,-2.8741730420440432,-3.2789608803927894
1772534872198733800,8.40473388671875,-24.440952796161174,-1.9492663742057978,-3.252417741382122
1772534872208750000,8.41475,-24.829203925728798,0.008809183268994093,-3.1341803612753747
1772534872218766800,8.424766845703125,-23.131733653378486,1.8763205265909433,-2.5827678372472525
1772534872228783900,8.434783935546875,-19.989180308294294,3.450419855338335,-1.425072404231876
1772534872238800000,8.4447998046875,-16.948601483041045,4.169503944727778,0.046623365617543454
1772534872248817000,8.45481689453125,-14.479845224899053,4.231803164513409,0.9055329820655286
1772534872258834000,8.464833984375,-12.203560334593057,3.938198111584782,0.7651026209816336
1772534872268850000,8.474849853515625,-10.00685809956789,3.816385503339767,0.042705753782391546
1772534872278867000,8.484866943359375,-7.709646156567334,3.661480188310146,-0.6318851138859987
1772534872288884000,8.494884033203125,-5.453402768293023,3.1059207737356425,-1.3012255136802793
1772534872298900000,8.50489990234375,-3.467690139091015,2.779910704025626,-2.2784255555965003
1772534872308916700,8.514916748046875,-1.7170803972274065,2.709102306830883,-3.062237114831805
1772534872318934000,8.52493408203125,-0.06669511665701866,2.6703409067600963,-3.311916224533319
1772534872328950000,8.534949951171875,-0.06480009669065476,2.6686814491152764,-3.3218373145669697
1772534872338966800,8.544966796875,4.08527609398961,2.485017657113075,-2.0319393967173993
1772534872348982800,8.554982666015626,6.223652981296182,1.9635959283314643,-1.8501425676308572
1772534872359000000,8.565,7.976877874094248,2.14710189942345,-2.80621828071475
1772534872369016800,8.575016845703125,9.56289209704101,2.3982480129376054,-3.4100086422339078
1772534872379032800,8.58503271484375,11.398853725236654,1.914167442165315,-2.783146617206931
1772534872389050000,8.595050048828124,12.779757463526725,1.6673218023240566,-1.6198283758737146
1772534872399067000,8.60506689453125,13.464641761672496,1.7230469044163823,-0.5856031821172684
1772534872409083000,8.615082763671875,13.369869720566271,1.595984705080092,0.3255014626007527
1772534872419100000,8.625099853515625,12.658921591359377,1.5027970105558632,1.0284680184692143
1772534872429117000,8.635116943359375,11.812656644690037,1.3945286512777209,1.407266552297771
1772534872439133000,8.6451328125,10.907945354270934,1.016705976743996,1.5990473075211047
1772534872449150000,8.65514990234375,10.226334378707408,0.6183132462598383,1.4149727427609264
1772534872459167000,8.6651669921875,9.890662162160872,0.41161154688894747,0.9442178097687661
1772534872469183000,8.675182861328125,9.71084277062714,0.24391046317219733,0.6393443438507617
1772534872479200000,8.685199951171874,9.721709617078304,0.20638445011526346,0.6018776232330129
1772534872489216800,8.695216796875,9.805279880690573,-0.14934636572822926,0.7503055954746901
1772534872499233000,8.70523291015625,10.054511831146478,-0.10245938073843718,0.818887841052562
1772534872509250000,8.71525,10.100330163991451,0.12216112942174076,0.7525460678778588
1772534872519266800,8.725266845703125,9.734964819970726,0.24139058930575846,0.30502518588099625
1772534872529282800,8.73528271484375,9.742877492791413,0.2062713451296091,0.301196859764494
1772534872539299800,8.7452998046875,8.79660026627481,0.2487944358214736,-0.6208575239151716
1772534872549316900,8.75531689453125,8.372410977363586,0.07890913993343711,-0.12183387022875249
1772534872559332900,8.765332763671875,7.987737706282735,0.07745952564701437,0.5545056312052533
1772534872569350000,8.775349853515625,7.536723538810015,-0.017808628413081166,0.9604583120822906
1772534872579366000,8.785365966796874,6.817288736286759,-0.29456513013243674,0.8777215766847133
1772534872589383000,8.7953828125,5.970719838234782,-0.5274820517338812,0.5552850911451503
1772534872599399700,8.805399658203125,5.347556959986687,-0.753822517554462,0.6361071885604411
1772534872609416000,8.815416015625,4.4199318269699805,-0.9629758478611707,0.9171073922641575
1772534872619433000,8.825432861328125,2.5889216837018725,-1.42587641409114,1.0788404344219713
1772534872629449700,8.83544970703125,-0.4070563678026199,-2.0881676260262725,1.4683981896087526
1772534872639465700,8.8454658203125,-3.340802127277851,-2.628121475189924,1.6943153154507278
1772534872649483000,8.85548291015625,-6.842248405498266,-2.7374989647537467,1.8688263714432716
1772534872659499800,8.865499755859375,-8.714978798642754,-2.8741671968251463,1.5500991522178054
1772534872669515800,8.875515869140624,-8.742090677452087,-2.8188509677946567,1.6792388884805143
1772534872679533000,8.885532958984374,-9.440823468208313,-3.2322575814068317,0.26747926254719495
1772534872689549800,8.8955498046875,-9.734245858046412,-3.1023113510668274,-0.03433978423625231
1772534872699565800,8.90556591796875,-10.49822824282646,-2.870653051224351,-1.084356348299235
1772534872709582800,8.915582763671875,-10.394615892660617,-1.0494435864806175,-2.159214215891063
1772534872719599900,8.925599853515624,-10.672736083948612,0.22071736524179578,-1.9320213710248468
1772534872729616000,8.935615966796876,-13.136437396788596,0.9136892543837427,-1.5579682781577109
1772534872739633000,8.9456328125,-13.107464984804391,0.45436756955385205,-1.216772914275527
1772534872749649000,8.95564892578125,-13.173552198696136,-0.6259627380996942,-0.6962975264333188
1772534872759666000,8.965666015625,-13.813216714411974,-0.8178712113559246,-0.7438885680392384
1772534872769683000,8.975682861328124,-12.427388963723182,-0.6237877321481704,-0.9452167576782404
1772534872779699000,8.985698974609376,-10.842874039423466,-0.21004341101422905,-0.8108975729510187
1772534872789716000,8.995716064453125,-10.711147355407476,0.6466583201259374,-1.563853390673548
1772534872799733000,9.00573291015625,-11.156495752203464,1.5372368941657244,-1.8337036201357841
1772534872809749000,9.0157490234375,-11.410213323640823,1.8953880690239369,-1.4316189032658935
1772534872819765800,9.025765869140624,-11.038165140855313,1.3610906381867824,-0.9340141034014523
1772534872829783000,9.035782958984376,-10.432142197978497,0.9765418702684342,-0.5972605944242328
1772534872839799000,9.045799072265625,-8.784528135687113,0.9128529496900737,-1.0785877748351544
1772534872849815800,9.05581591796875,-5.779568905347586,0.563581539119035,-1.8902284943036733
1772534872859833000,9.0658330078125,-2.8123978461325168,-0.09058759502843022,-2.0378695174187422
1772534872869849000,9.07584912109375,0.762819186219573,0.06661562168002128,-2.4114427178144453
1772534872879865900,9.085865966796876,4.273498572209477,-0.1070063765183091,-3.699214583420753
1772534872889883000,9.0958828125,5.093992533284426,-3.019711978313327,-3.7122874154835936
1772534872899899000,9.10589892578125,6.233180103576183,-3.1631554036080836,-3.9703561678677795
1772534872909916000,9.115916015625,7.251096917414665,-1.3078107372894883,-3.930710678438842
1772534872919932200,9.12593212890625,6.8369193194299935,0.30904563703611493,-3.1094489478617904
1772534872929949200,9.13594921875,6.003464169973134,0.5627858586966991,-0.9095595341678708
1772534872939966200,9.14596630859375,8.055916339495777,1.7692757177583873,2.9425217711269855
1772534872949982200,9.155982177734375,10.567603976869583,0.8182621103696525,6.364717402499914
1772534872959999200,9.165999267578124,5.756510101321339,-0.2151730289876461,4.922979548540711
1772534872970016300,9.176016357421876,4.231366818922758,1.232559973733127,1.2472878795266151
1772534872980032300,9.1860322265625,8.663875218871235,1.2612420244686304,0.8214030387438833
1772534872990049300,9.19604931640625,10.89116957603693,0.7854032123409211,0.9547372310217469
1772534873000066300,9.20606640625,10.8521328661561,0.9278837839528917,1.078819537764415
1772534873010082300,9.216082275390624,11.899217322289942,1.3194903614282607,-1.1360442307647316
1772534873020099000,9.22609912109375,12.689497931408882,1.3614771532863377,-1.3319916772134601
1772534873030116400,9.236116455078125,13.18967565050125,1.4787982953310013,-1.1055112914655356
1772534873040132400,9.24613232421875,12.559056026506424,1.7747763610012828,-0.7994102565139531
1772534873050149000,9.256149169921875,11.28711067558527,1.7231009726911781,-0.5954513530451804
1772534873060166400,9.26616650390625,9.590544658598303,1.249242812986672,-0.4714719221550971
1772534873070182400,9.276182373046876,8.40571352750659,1.0710735267475247,-0.24259265857189893
1772534873080199200,9.28619921875,7.618429177594185,1.62800583711043,-0.16613894896656273
1772534873090216200,9.29621630859375,7.171379237577319,2.024705646071583,-0.09544957504160702
1772534873100232400,9.306232421875,7.132588611412048,1.8438677251450717,0.1340693746846169
1772534873110249200,9.316249267578126,7.215853170076012,1.4805590213932096,0.5098627353478222
1772534873127778300,9.3337783203125,7.277730657318234,1.082033896701038,0.9166209969867021
1772534873137794300,9.343794189453124,7.189290741842985,0.701875326565653,1.3020477898485958
1772534873147811000,9.35381103515625,6.853849411442876,0.35657150445133445,1.3167125672779976
1772534873157828400,9.363828369140625,6.078975630292296,-0.11327040534913539,1.1196090826619416
1772534873167844400,9.37384423828125,4.5461587445259095,-0.6617876463271677,1.3949457076460123
1772534873177861000,9.383861083984375,2.6370430327922105,-1.3199854514688252,1.9724743774443865
1772534873187878100,9.393878173828124,0.527761307066679,-2.1880529184930024,1.6912626498818397
1772534873197894400,9.403894287109376,-1.1405600276887415,-2.8324054458945986,0.579611175160855
1772534873207911200,9.4139111328125,-2.2962118260473012,-3.0035210142299533,-1.0072243010409176
1772534873217928200,9.42392822265625,-3.292117883607745,-3.1721985417634246,-2.8787811203613876
1772534873227944200,9.433944091796874,-4.5981642415732145,-3.837801216334104,-3.961414736521244
1772534873237961200,9.443961181640624,-7.008873384416103,-4.4689217755883925,-3.7183027302503584
1772534873247978200,9.453978271484376,-9.882157368665933,-4.5654052967876195,-3.0358257855072615
1772534873257994200,9.463994140625,-12.684487409770488,-3.1713267273649572,-1.8499416382312774
1772534873268011300,9.47401123046875,-15.077281541216372,-0.7083619121059775,-0.414960638121143
1772534873278028300,9.4840283203125,-16.701789453208445,0.10388196088746189,0.4871683807197958
1772534873288044300,9.494044189453126,-17.81412876406312,-0.3512506016895175,0.3327060602173209
1772534873298061000,9.50406103515625,-18.87820410248637,-0.8044950124323368,0.4947179923817515
1772534873308077300,9.514077392578125,-18.614742551147938,-0.4136072507508099,0.3173983087092638
1772534873318094300,9.52409423828125,-17.724052771818638,0.5045899825766682,-0.3285007174819708
1772534873328111000,9.534111083984374,-16.480580651187896,0.9634544251583516,-1.5975402639590204
1772534873338127000,9.544127197265626,-14.46125392167568,0.9429588957488536,-2.7323598482996223
1772534873348144400,9.554144287109375,-11.867743156617879,-0.21559607670530676,-2.6036586495846508
1772534873358161200,9.5641611328125,-9.308843101692199,-1.4184787050552665,-1.7458939653880894
1772534873368177200,9.57417724609375,-6.979362043249607,-1.3101190142318606,-1.0555646997094155
1772534873378194400,9.5841943359375,-5.342188710951805,-0.8095427973411977,-0.785372671072185
1772534873388211200,9.594211181640626,-3.6947365612238645,-0.43252778592854735,-0.858050077009201
1772534873398227200,9.604227294921875,-1.467532220429182,-0.9316425519645214,-0.8484431674912571
1772534873408244200,9.614244140625,-0.03293020969927311,-1.1748099416844546,-0.6948705623701215
1772534873418261200,9.62426123046875,-0.8217500986158848,-0.9435621223390102,-0.775085378074646
1772534873428277200,9.63427734375,-0.49887540432214733,-0.8355763793945312,-0.7910524702742695
1772534873438294300,9.644294189453126,1.3567343426734209,-0.6108689216032623,-0.5276911644399166
1772534873448311300,9.654311279296875,2.777065251466632,-0.16227759736329317,-0.28373364725559946
1772534873458327300,9.664327392578125,2.746195481428504,-0.15754238553494215,-0.19719284339994192
1772534873468344300,9.67434423828125,3.8461885209292173,0.9874377966836094,0.07863923695087432
1772534873478361000,9.684361083984374,4.1534383605897425,1.3798255876645444,0.470110205347836
1772534873488377300,9.69437744140625,4.479542538323998,1.7057836349263786,1.0855798987448215
1772534873498394400,9.704394287109375,5.059934780859947,1.6319316322520374,1.7199603365778922
1772534873508411100,9.7144111328125,5.552267047148943,1.2291130481496453,2.2427824336767195
1772534873518427100,9.72442724609375,6.098086573475599,0.8816443030864,2.6263497893422842
1772534873528444400,9.7344443359375,6.6883654192537065,0.7363616796657443,2.8581109650373455
1772534873538461200,9.744461181640625,7.19981856559813,0.7610963079497217,3.0096617089420556
1772534873548477200,9.754477294921875,7.660242366451024,0.971186919106543,3.0680443398058412
1772534873558494200,9.764494140625,7.940091573488711,1.2934867361217737,2.959833263672888
1772534873568510200,9.77451025390625,7.845116118764877,1.55234722340554,2.7775726164668795
1772534873578527200,9.78452734375,7.483138663616776,1.4878873184546828,2.782255221325159
1772534873588544300,9.794544189453125,7.093760575845837,1.25177350050807,2.7559271863698958
1772534873598560300,9.804560302734375,7.0677125268757335,1.1295458817213773,2.628742237436771
1772534873608577300,9.814577392578125,7.526195715054869,0.9323813876330852,2.3265672168225047
1772534873618594000,9.824593994140624,7.993094849401712,0.4111804619953036,1.8207364404045043
1772534873628610000,9.834610107421875,8.1405434186846,0.1328399059548974,1.4442752634823322
1772534873638627300,9.84462744140625,8.269394255003332,-0.06542845772206783,1.265935442981869
1772534873648644000,9.85464404296875,8.505360481172799,-0.022002865232527254,1.0924988843530417
1772534873658660000,9.86466015625,8.652765795835853,0.3799865745693445,0.9022263417355716
1772534873668677400,9.874677490234374,8.697382351675628,0.7662722492828965,0.8239774192765354
1772534873678694100,9.884694091796876,8.534614632707834,1.1587222918450832,0.6982281291697174
1772534873688710100,9.894710205078125,7.963716779226064,1.4915779896661638,0.3240234624700621
1772534873698727200,9.90472705078125,5.938621987706423,2.065058406987041,-0.10571933238245546
1772534873708743400,9.914743408203124,2.7763328455388545,2.3640642960458993,-0.2637405692092143
1772534873718760200,9.92476025390625,1.7134253818511962,1.3533729034163058,0.2791208927631378
1772534873728777200,9.934777099609375,2.6747254054546357,-0.12540800238847732,1.3223425359889864
1772534873738793200,9.944793212890625,2.845444960209727,-0.8250942944772541,2.1635784024499354
1772534873748810200,9.954810302734375,1.3051543775618075,-1.0223464668489992,2.182132734663784
1772534873758827300,9.9648271484375,-0.6025713411182165,-1.3421046365574,1.7512256818048655
1772534873768843300,9.97484326171875,-1.0411568196505308,-1.8991043130680918,0.3206515018189326
1772534873778860300,9.9848603515625,-4.421448661273717,-1.7489602210909128,-1.9096730533555148
1772534873788877300,9.994877197265625,-6.071981241360306,-0.2909649136833846,-2.422999738486856
1772534873798893300,10.004893310546874,-7.825494887971877,1.3782593612611294,-1.9023811427816748
1772534873808910000,10.01491015625,-10.843414137649535,2.018304400727153,-1.1435647624626755
1772534873818927400,10.02492724609375,-13.097007888197899,0.37723610681742425,0.31775939710661766
1772534873828943400,10.034943359375,-13.443362826800346,-0.5533262486949563,1.3468205591633915
1772534873838960000,10.044960205078125,-13.275638946729897,-1.2615984366908668,1.6327350575894117
1772534873848977400,10.054977294921875,-12.811242150592804,-1.1805270041570066,1.3173733692742884
1772534873858993400,10.064993408203126,-12.57547407734394,-0.6978212288692593,0.8921708116672933
1772534873869010200,10.07501025390625,-12.210462369066477,-0.32817513878941534,0.3779922954795882
1772534873879027200,10.085027099609375,-11.532277860820292,-0.5526224843397736,-0.04694985762555152
1772534873889043500,10.09504345703125,-11.386133359873295,-1.0244052990749477,0.030060061090439558
1772534873899060200,10.105060302734374,-11.658257525616884,-1.3920438487246631,0.7745349045850336
1772534873909076200,10.115076171875,-12.003000352847575,-1.124995963332057,1.2409274045839904
1772534873919093500,10.125093505859375,-11.714386824595927,-0.1610775739237666,0.6199925045836716
1772534873929110500,10.135110595703125,-10.431530788081885,0.8948933684989809,-0.4010845999166369
1772534873939126800,10.145126708984375,-8.145760861071944,1.5281044702917337,-0.6350276496954261
1772534873949143600,10.1551435546875,-5.840852518349886,1.8210254864789543,-0.24999665121808648
1772534873959160600,10.16516064453125,-3.4106513240516185,2.201139194559306,0.20239245786964893
1772534873969176600,10.175176513671875,-0.35475627172291274,1.56528064699769,0.04391863670349121
1772534873979193600,10.185193603515625,2.3870780918866394,0.4422399093866348,-0.2597100898504257
1772534873989210600,10.195210693359375,4.347853263708949,-0.5211285910539328,-0.4536857247695327
1772534873999226600,10.2052265625,4.355113610100746,-0.5755740285992622,-0.4522681130565703
1772534874009243600,10.21524365234375,6.174585291266441,-1.6889666478991507,-0.36382469044998283
1772534874019260700,10.2252607421875,6.573113484698534,-1.6527242449119686,0.1308693365342915
1772534874029276700,10.235276611328125,6.554326366642117,-1.623668538558483,0.22039032524451613
1772534874039293400,10.24529345703125,6.693878045195341,-0.9468433359667658,1.258203825816512
1772534874049310700,10.255310791015624,6.754661891981959,-0.7766556961312889,1.8786752730235456
1772534874059326700,10.26532666015625,6.994366135635971,-0.737473732560873,2.449360360537469
1772534874069343500,10.275343505859375,7.148505726990103,-0.6457406207591295,2.8097984772890805
1772534874079359500,10.285359375,7.089906238505244,-0.4188732084549963,3.1048592819839715
1772534874089376800,10.295376708984374,6.865463276869058,-0.1522163682065904,3.345483270831406
1772534874099393500,10.3053935546875,6.520291995093226,0.03216302471905946,3.331456206783652
1772534874109409500,10.315409423828125,6.146161745336651,0.004029986168444156,3.0317730029851195
1772534874119426800,10.3254267578125,6.24185908459425,-0.14167173944711683,2.504361824530363
1772534874129443600,10.335443603515625,6.819533884865045,-0.2844244059987366,1.8579229923740028
1772534874139459600,10.34545947265625,7.521203898116946,-0.4764310789324343,1.1806956387221812
1772534874149476600,10.3554765625,8.242267178624868,-0.7428582020781934,0.9623249827370047
1772534874159493600,10.36549365234375,8.703009543907642,-0.9679257253535092,1.007319431978464
1772534874169509600,10.375509521484375,8.556013394567369,-1.1654855023697017,0.7516331908166408
1772534874179526700,10.385526611328125,8.574749074697493,-0.8894748505815863,0.8217597432270646
1772534874189543700,10.395543701171874,8.584289056459069,-0.13671440930068493,0.833525292083621
1772534874199559700,10.4055595703125,8.539670162531733,0.6049180503748357,0.8516670979738235
1772534874209576700,10.41557666015625,8.563615101742744,1.1561321292214095,0.7570812270894646
1772534874219593500,10.425593505859375,8.646889597278832,1.4885367222741246,0.5607552296519279
1772534874229609700,10.435609619140624,8.77429140383303,1.6239445790208875,0.4497594912365079
1772534874239626800,10.445626708984374,8.879729215860367,1.453219179046899,0.3851809283420443
1772534874249642500,10.455642578125,8.686051979365944,0.9410578844331204,0.11559110338166355
1772534874259659500,10.465659423828125,6.84733257689476,0.01641322853192687,0.03365983914807439
1772534874269676800,10.4756767578125,4.209679887771606,-0.6031748599693179,0.3854210207082331
1772534874279692500,10.485692626953124,4.2420308362782,-0.6516616813711822,0.19611630020961165
1772534874289709600,10.49570947265625,2.292737427935004,-1.942178023380041,0.3226593710426241
1772534874299726800,10.505726806640626,1.1283294916689395,-2.4207388078175485,-0.48394108923636375
1772534874309742600,10.51574267578125,-2.3879355854988096,-2.7203935161739587,-2.3000863293930887
1772534874319759600,10.525759521484375,-7.719717468726635,-2.4938418918207286,-3.475258236257732
1772534874329776600,10.535776611328124,-7.710497804960608,-2.5574203377619384,-3.449507416668534
1772534874339792600,10.545792724609376,-11.571424460816383,-0.47896352001950143,-2.4304162983536717
1772534874349809700,10.5558095703125,-11.518657331746816,0.11311433800458907,-2.0984569648504254
1772534874359826700,10.56582666015625,-11.295448295819758,0.2380518002718687,-1.9345337922371924
1772534874369842400,10.575842529296875,-10.265436555039882,-0.4063805143676698,-1.6781756431631742
1772534874379859700,10.585859619140624,-9.353113620573282,-1.4798974887445568,-1.4316322011388838
1772534874389876500,10.59587646484375,-9.585742811274528,-2.061107769665122,-1.2680264239117502
1772534874399892500,10.605892578125,-11.02375083105564,-1.7122519541576504,-0.5405713965401053
1772534874409909800,10.61590966796875,-12.457219453841446,-1.0232605129539967,0.0321538184992969
1772534874419925800,10.62592578125,-13.647974714285134,-0.42616760324686764,-0.393444460427016
1772534874429942500,10.635942626953126,-15.15953195440173,-0.3538701365381479,-1.480809050631523
1772534874439959600,10.64595947265625,-16.514486427921057,-0.9099225953266024,-2.624412099277973
1772534874449975800,10.655975830078125,-16.854030517464874,-0.832722305137664,-3.2915625878125425
1772534874459992600,10.66599267578125,-17.600704624569413,0.15280118235722184,-3.2396994218453763
1772534874470009600,10.676009521484374,-17.520821525037288,1.4118467196948825,-2.301821482622623
1772534874480025600,10.686025634765626,-15.442709429079294,2.287559294644743,-0.8893824961230158
1772534874490042600,10.696042724609375,-12.52994800544381,2.278042109236866,0.38403818804770706
1772534874500059600,10.7060595703125,-8.831388671061395,0.8560862295903265,0.4055228746250272
1772534874510075600,10.71607568359375,-4.747753330016136,-0.9983943672448397,-0.6635033642038702
1772534874520092700,10.7260927734375,-0.9103174398630857,-1.6252289197430014,-1.4521712774291633
1772534874530109700,10.736109619140626,2.206483624327183,-1.898762367762625,-1.5757579096093772
1772534874540125700,10.746125732421875,4.3367426716297865,-2.2792295654557644,-0.8946043224245309
1772534874550142500,10.756142578125,5.9629065341353416,-2.2574008877463636,0.30252924087941646
1772534874560159700,10.76615966796875,7.1269994131028644,-1.708745553471893,1.426757142448425
1772534874570175700,10.77617578125,7.349997436627746,-0.909293795903772,2.2839336514934896
1772534874580192500,10.786192626953126,6.743221629557013,-0.07701879614219069,2.9662308557555077
1772534874590208500,10.79620849609375,5.62985589826405,0.5455315031655132,3.4561849947363137
1772534874600225800,10.806225830078125,4.519249694812298,0.8251986316345632,3.7281700442701577
1772534874610242600,10.81624267578125,4.168108690977096,0.6828069073498249,3.6350831797719
1772534874620258600,10.826258544921876,4.9139112759441135,0.2720002471029758,3.2789982897937295
1772534874630275800,10.83627587890625,5.89629032793343,-0.1805215484537184,2.7010373660579323
1772534874640292600,10.846292724609375,6.592904226839542,-0.5253215126991272,2.0905901769980786
1772534874650308600,10.85630859375,7.318997902730107,-0.9138172646775841,1.572949574190378
1772534874660325600,10.86632568359375,8.102225670728087,-1.1756607132948935,1.1500400959566235
1772534874670342700,10.8763427734375,8.617436708301305,-0.8196827908225357,0.8624582488402723
1772534874680358700,10.886358642578125,8.648920810845494,-0.020496698453277347,0.90374449121356
1772534874690375700,10.896375732421875,8.474207218018174,0.9089394295081495,1.3580121075242757
1772534874700392700,10.906392822265625,8.191060723000763,1.3672875931307673,1.6104137740574775
1772534874710408700,10.91640869140625,7.953600458881258,1.025460653346777,1.7549768510319292
1772534874720425700,10.92642578125,8.604196702978015,0.48940439614355563,1.8402746690891683
1772534874730441500,10.93644140625,9.274351634025573,0.10177446721419692,1.570108651676029
1772534874740458800,10.946458740234375,8.39903419587314,-0.4498306567765772,0.9428637648113072
1772534874750475500,10.9564755859375,7.386454066887498,-0.4240510494843125,0.2110313260730356
1772534874760491500,10.966491455078126,7.3464634172827,0.3794648887827992,-0.23065796369351446
1772534874770508500,10.976508544921876,8.203681719642876,1.1389353490963579,-0.3072107497591525
1772534874780525600,10.986525634765625,8.991982553121447,1.1691522081837058,0.05170855992734432
1772534874790541600,10.99654150390625,9.101232032391428,1.1771969829514621,0.34324652425833047
1772534874800558600,11.00655859375,8.609066354840994,1.5175491740077733,0.3659432900391519
1772534874810575600,11.01657568359375,7.297897247034311,1.6854399350777267,0.4255221449501812
