time,seconds_elapsed,z,y,x
1772534863841713000,0.047712890625,0.5626732110977173,-0.2831858992576599,0.314333975315094
1772534863851730200,0.057730224609375,0.627112627029419,-0.16025198996067047,0.15560103952884674
1772534863861746200,0.06774609375,0.6613566279411316,-0.05500679463148117,0.015664180740714073
1772534863871763000,0.077762939453125,0.6621870398521423,0.018608039245009422,-0.08496922254562378
1772534863881780000,0.087780029296875,0.6348930597305298,0.08454550802707672,-0.1515548974275589
1772534863891796200,0.097796142578125,0.5910257697105408,0.14589914679527283,-0.18399274349212646
1772534863901813000,0.10781298828125,0.5403311252593994,0.19836901128292084,-0.18384332954883575
1772534863911830500,0.11783056640625,0.5107250213623047,0.2240818291902542,-0.11159976571798325
1772534863921846300,0.12784619140625,0.48833638429641724,0.2033134400844574,0.04435494914650917
1772534863931863300,0.13786328125,0.4529443085193634,0.12549906969070435,0.2500303387641907
1772534863941880600,0.147880615234375,0.4294685423374176,0.04470355436205864,0.4861201047897339
1772534863951896300,0.157896240234375,0.4952550232410431,0.06345966458320618,0.6489572525024414
1772534863961913300,0.167913330078125,0.6381695866584778,0.03129507228732109,0.7806718349456787
1772534863971930400,0.177930419921875,0.7619228959083557,-0.009455020539462566,0.9004510045051575
1772534863981946400,0.1879462890625,0.827491283416748,-0.09009899944067001,0.9178462028503418
1772534863991963400,0.19796337890625,0.8599815964698792,-0.2759937644004822,0.8412249088287354
1772534864001980400,0.20798046875,0.8058022260665894,-0.49526673555374146,0.7091819643974304
1772534864011996200,0.21799609375,0.6754937767982483,-0.6549863815307617,0.5701318979263306
1772534864022013400,0.228013427734375,0.5478700399398804,-0.7245153784751892,0.4456099569797516
1772534864032030500,0.238030517578125,0.399697870016098,-0.7326545119285583,0.32168376445770264
1772534864042046200,0.248046142578125,0.26390355825424194,-0.6624232530593872,0.22156354784965515
1772534864052063500,0.2580634765625,0.17820942401885986,-0.5439186692237854,0.12561358511447906
1772534864062080300,0.268080322265625,0.14107829332351685,-0.3972208499908447,0.015796806663274765
1772534864072096300,0.27809619140625,0.1347208023071289,-0.2576392590999603,-0.10871423035860062
1772534864082113300,0.28811328125,0.14440831542015076,-0.11436998844146729,-0.23360423743724823
1772534864092130300,0.29813037109375,0.1518196165561676,0.03766535222530365,-0.3441336750984192
1772534864102146300,0.308146240234375,0.16222752630710602,0.19242005050182343,-0.4370100796222687
1772534864112163300,0.318163330078125,0.17090250551700592,0.29940056800842285,-0.5326079726219177
1772534864122180400,0.328180419921875,0.17984779179096222,0.3145432770252228,-0.6196107864379883
1772534864132196400,0.3381962890625,0.18515734374523163,0.32311227917671204,-0.6974256634712219
1772534864142213400,0.34821337890625,0.18600448966026306,0.4010581970214844,-0.7429103255271912
1772534864152229400,0.3582294921875,0.16482730209827423,0.4761561453342438,-0.7526415586471558
1772534864162246400,0.368246337890625,0.15419143438339233,0.550822377204895,-0.7169413566589355
1772534864172263400,0.378263427734375,0.15297169983386993,0.6490483283996582,-0.6427837610244751
1772534864182279400,0.388279541015625,0.17378351092338562,0.6673985719680786,-0.5338698029518127
1772534864192296200,0.398296142578125,0.221741184592247,0.5910084247589111,-0.40361538529396057
1772534864202313500,0.4083134765625,0.3255900740623474,0.477294921875,-0.2614521086215973
1772534864212329500,0.41832958984375,0.4366582930088043,0.40107259154319763,-0.14564907550811768
1772534864222346200,0.42834619140625,0.48730921745300293,0.43537330627441406,-0.12505218386650085
1772534864232363500,0.438363525390625,0.503524124622345,0.59676593542099,-0.21624654531478882
1772534864242379500,0.448379638671875,0.5436787605285645,0.7718173861503601,-0.37509477138519287
1772534864252396300,0.458396240234375,0.6048923134803772,0.8686749339103699,-0.5689305663108826
1772534864262413300,0.468413330078125,0.6781172156333923,0.7882096767425537,-0.7349770665168762
1772534864272429600,0.4784296875,0.7298467755317688,0.646379292011261,-0.8348509073257446
1772534864282446300,0.4884462890625,0.7487730383872986,0.5474314093589783,-0.8509846329689026
1772534864292463400,0.49846337890625,0.710186243057251,0.38991713523864746,-0.7648944854736328
1772534864302479400,0.508479248046875,0.6348278522491455,0.1443403959274292,-0.5871489644050598
1772534864312496400,0.518496337890625,0.553511917591095,-0.10912755131721497,-0.36731889843940735
1772534864322513400,0.528513427734375,0.4796994924545288,-0.3484746217727661,-0.1803322285413742
1772534864332529400,0.538529296875,0.40669533610343933,-0.5433714389801025,-0.09091658890247345
1772534864342546400,0.54854638671875,0.3609142601490021,-0.699139416217804,-0.10826681554317474
1772534864352563500,0.5585634765625,0.358648419380188,-0.7736940979957581,-0.22314412891864777
1772534864362579500,0.568579345703125,0.39097467064857483,-0.7564136385917664,-0.39922595024108887
1772534864372596200,0.57859619140625,0.45251792669296265,-0.6692547798156738,-0.5738286375999451
1772534864382613500,0.588613525390625,0.5474671125411987,-0.5434656739234924,-0.715652346611023
1772534864392629500,0.59862939453125,0.6493542790412903,-0.41115373373031616,-0.8040746450424194
1772534864402646300,0.608646240234375,0.7290499210357666,-0.3310799300670624,-0.8210248351097107
1772534864412663600,0.61866357421875,0.7781194448471069,-0.3578313887119293,-0.7686511278152466
1772534864422679600,0.628679443359375,0.7935903072357178,-0.4652145504951477,-0.6771150827407837
1772534864432696300,0.6386962890625,0.7603223919868469,-0.6089845299720764,-0.5769352316856384
1772534864442713300,0.64871337890625,0.6824672222137451,-0.7643845081329346,-0.4869568645954132
1772534864452729300,0.658729248046875,0.5898611545562744,-0.8633148074150085,-0.43793314695358276
1772534864462746400,0.668746337890625,0.5291147232055664,-0.8767240643501282,-0.4483831226825714
1772534864472763400,0.678763427734375,0.5084611177444458,-0.8235628604888916,-0.5079641342163086
1772534864482779400,0.688779296875,0.537510871887207,-0.7902573347091675,-0.5710030198097229
1772534864492796400,0.69879638671875,0.599681556224823,-0.7777431607246399,-0.6338840126991272
1772534864502813400,0.7088134765625,0.6167614459991455,-0.7774667143821716,-0.6863741278648376
1772534864512829200,0.7188291015625,0.5452643632888794,-0.8000695109367371,-0.7293967008590698
1772534864522846500,0.728846435546875,0.42121994495391846,-0.8177318572998047,-0.7817115187644958
1772534864532863500,0.738863525390625,0.30404722690582275,-0.7687512636184692,-0.8616529703140259
1772534864542879200,0.748879150390625,0.2316119223833084,-0.6256236433982849,-0.9451417326927185
1772534864552896300,0.758896240234375,0.21124327182769775,-0.4924946427345276,-0.991353452205658
1772534864562913500,0.76891357421875,0.23306387662887573,-0.40632086992263794,-0.961542546749115
1772534864572929300,0.77892919921875,0.2799461781978607,-0.33632102608680725,-0.8495976328849792
1772534864582946300,0.7889462890625,0.3442378044128418,-0.2829054594039917,-0.6835581064224243
1772534864592962300,0.79896240234375,0.4038561284542084,-0.23963043093681335,-0.4952411651611328
1772534864602979300,0.808979248046875,0.4487231969833374,-0.19383125007152557,-0.31695157289505005
1772534864612996400,0.818996337890625,0.46473172307014465,-0.14468900859355927,-0.17868079245090485
1772534864623012400,0.829012451171875,0.462421178817749,-0.11299659311771393,-0.09070540219545364
1772534864633029400,0.839029296875,0.44082266092300415,-0.07671155780553818,-0.06611377000808716
1772534864643046400,0.84904638671875,0.39685627818107605,-0.004487426485866308,-0.11220403760671616
1772534864653062400,0.8590625,0.33804330229759216,0.10829105228185654,-0.1959490031003952
1772534864663079200,0.8690791015625,0.25984302163124084,0.22933758795261383,-0.30055397748947144
1772534864673096400,0.879096435546875,0.17279388010501862,0.3479286730289459,-0.41839271783828735
1772534864683112400,0.889112548828125,0.08837726712226868,0.4583958089351654,-0.5350234508514404
1772534864693129200,0.899129150390625,0.018673818558454514,0.5431599617004395,-0.6213207840919495
1772534864703146500,0.909146484375,0.06822352856397629,0.6260457634925842,-0.6172704100608826
1772534864713162500,0.91916259765625,0.11976475268602371,0.5886222720146179,-0.5330902934074402
1772534864723179300,0.92917919921875,0.1382412314414978,0.47813594341278076,-0.4202691912651062
1772534864733196300,0.9391962890625,0.16553756594657898,0.4225059747695923,-0.28977563977241516
1772534864743212500,0.949212646484375,0.1960347592830658,0.3929464817047119,-0.13896720111370087
1772534864753229300,0.959229248046875,0.21646332740783691,0.3499481678009033,0.014596519060432911
1772534864763246300,0.969246337890625,0.2294584959745407,0.29461219906806946,0.16680017113685608
1772534864773262300,0.979262451171875,0.26412779092788696,0.2089361697435379,0.3007414638996124
1772534864783279400,0.989279296875,0.3212187588214874,0.11054541915655136,0.3997460603713989
1772534864793296400,0.99929638671875,0.3892572224140167,0.01810603402554989,0.4464033246040344
1772534864803312400,1.0093125,0.46454477310180664,-0.041905373334884644,0.4316105246543884
1772534864813329400,1.019329345703125,0.5358714461326599,-0.03737293928861618,0.37698429822921753
1772534864823346400,1.029346435546875,0.5886997580528259,0.037268541753292084,0.32221347093582153
1772534864833362400,1.039362548828125,0.5916454792022705,0.15091414749622345,0.2828865647315979
1772534864843379200,1.049379150390625,0.5395974516868591,0.28450655937194824,0.26492807269096375
1772534864853396500,1.059396484375,0.39944326877593994,0.3901080787181854,0.25698918104171753
1772534864863412500,1.06941259765625,0.3286591172218323,0.5914459824562073,0.36586427688598633
1772534864873429200,1.07942919921875,0.2933136224746704,0.6072071194648743,0.4216548204421997
1772534864883445200,1.0894453125,0.2094496339559555,0.6016576290130615,0.4639439582824707
1772534864893462500,1.099462646484375,0.17060822248458862,0.6863626837730408,0.5223950147628784
1772534864903479300,1.109479248046875,0.23311154544353485,0.6663979887962341,0.5021994709968567
1772534864913494500,1.11949462890625,0.2897615134716034,0.6216313242912292,0.39085617661476135
1772534864923511600,1.129511474609375,0.3276662826538086,0.4806755483150482,0.208478644490242
1772534864933528600,1.139528564453125,0.4072868227958679,0.3099954128265381,0.007472297176718712
1772534864943544600,1.149544677734375,0.534980297088623,0.1664973646402359,-0.2110254168510437
1772534864953561600,1.1595615234375,0.6175729632377625,0.10643110424280167,-0.4064308702945709
1772534864963578600,1.16957861328125,0.5927008986473083,0.09994231164455414,-0.5131567716598511
1772534864973594600,1.1795947265625,0.4250793755054474,0.02159504033625126,-0.46849769353866577
1772534864983611600,1.189611572265625,0.13361771404743195,-0.15564551949501038,-0.3559032380580902
1772534864993628400,1.19962841796875,-0.19102241098880768,-0.36846989393234253,-0.35147228837013245
1772534865003644700,1.209644775390625,-0.5308540463447571,-0.44189324975013733,-0.4771292805671692
1772534865013661700,1.21966162109375,-0.9172539114952087,-0.34549587965011597,-0.6563381552696228
1772534865023678500,1.229678466796875,-1.3326129913330078,-0.265585333108902,-0.8460074663162231
1772534865033694500,1.239694580078125,-1.6853457689285278,-0.27325257658958435,-1.0174697637557983
1772534865043711700,1.249711669921875,-1.901631236076355,-0.33942386507987976,-1.2050819396972656
1772534865053728500,1.259728515625,-1.9685189723968506,-0.4104762077331543,-1.3725532293319702
1772534865063744500,1.26974462890625,-1.8843950033187866,-0.5770361423492432,-1.4342597723007202
1772534865073761800,1.27976171875,-1.6594420671463013,-0.8992586731910706,-1.3445110321044922
1772534865083778600,1.289778564453125,-1.3338240385055542,-1.2056812047958374,-1.1065438985824585
1772534865093794600,1.299794677734375,-1.021302580833435,-1.3917338848114014,-0.8350799679756165
1772534865103811600,1.3098115234375,-0.8263698220252991,-1.4076169729232788,-0.6508174538612366
1772534865113828600,1.31982861328125,-0.7481930255889893,-1.1746844053268433,-0.6441845893859863
1772534865123844600,1.3298447265625,-0.733417809009552,-0.9016368985176086,-0.8491837978363037
1772534865133861600,1.339861572265625,-0.8521950244903564,-0.6383602619171143,-1.113283395767212
1772534865143878700,1.349878662109375,-1.0795445442199707,-0.4044620096683502,-1.3899831771850586
1772534865153894700,1.359894775390625,-1.2931410074234009,-0.14698758721351624,-1.6622346639633179
1772534865163911700,1.36991162109375,-1.4059852361679077,0.07432322949171066,-1.7961716651916504
1772534865173928700,1.3799287109375,-1.4117847681045532,0.21369311213493347,-1.621957540512085
1772534865183944700,1.38994482421875,-1.3648189306259155,0.22670717537403107,-1.133589744567871
1772534865193961700,1.399961669921875,-1.2743535041809082,0.08457879722118378,-0.505537211894989
1772534865203978500,1.409978515625,-1.0812768936157227,-0.1121627539396286,0.04318741708993912
1772534865213994500,1.419994384765625,-0.793644368648529,-0.17982622981071472,0.42424502968788147
1772534865224011800,1.43001171875,-0.5123562216758728,-0.07948603481054306,0.638317346572876
1772534865234027500,1.440027587890625,-0.3393844664096832,0.13695864379405975,0.7163639664649963
1772534865244044500,1.45004443359375,-0.27055051922798157,0.3765459358692169,0.713852047920227
1772534865254061800,1.460061767578125,-0.22966594994068146,0.4862796366214752,0.6737781763076782
1772534865264077600,1.47007763671875,-0.1893206536769867,0.4950622022151947,0.6198419332504272
1772534865274094600,1.480094482421875,-0.14434759318828583,0.43245500326156616,0.5503856539726257
1772534865284111600,1.490111572265625,-0.04489663615822792,0.35649287700653076,0.4852798879146576
1772534865294127600,1.500127685546875,0.12735874950885773,0.3865932524204254,0.542452335357666
1772534865304144600,1.51014453125,0.30338171124458313,0.51845383644104,0.613657534122467
1772534865314161700,1.52016162109375,0.4191810190677643,0.7091635465621948,0.6499423384666443
1772534865324177400,1.530177490234375,0.5087077021598816,0.8595647811889648,0.6761875152587891
1772534865334194700,1.540194580078125,0.5392882227897644,0.9320323467254639,0.7149498462677002
1772534865344211500,1.55021142578125,0.4916245937347412,0.9732152223587036,0.7406261563301086
1772534865354227500,1.5602275390625,0.36780545115470886,0.9090383648872375,0.680220365524292
1772534865364244700,1.57024462890625,0.21859173476696014,0.7994614839553833,0.5316412448883057
1772534865374261500,1.580261474609375,0.10796748101711273,0.7408831715583801,0.3407978117465973
1772534865384277500,1.590277587890625,0.04652462527155876,0.6998196244239807,0.2063712775707245
1772534865394294500,1.60029443359375,0.021865617483854294,0.6204158663749695,0.19437479972839355
1772534865404311600,1.6103115234375,0.048337969928979874,0.5675960779190063,0.2628430724143982
1772534865414327600,1.62032763671875,0.09227293729782104,0.6418609619140625,0.32599276304244995
1772534865424344600,1.630344482421875,0.10981012135744095,0.7578730583190918,0.3582071363925934
1772534865434361600,1.640361572265625,0.08794423937797546,0.783630907535553,0.36427435278892517
1772534865444377600,1.650377685546875,0.04110376164317131,0.7493237853050232,0.35354501008987427
1772534865454394600,1.66039453125,0.06211130693554878,0.7220761775970459,0.3006668984889984
1772534865464411600,1.67041162109375,0.17753803730010986,0.6293156147003174,0.2660963833332062
1772534865474427600,1.680427734375,0.3496975600719452,0.6421858668327332,0.33257076144218445
1772534865484444700,1.690444580078125,0.5654594302177429,0.7945746183395386,0.5367087125778198
1772534865494461400,1.70046142578125,0.6955103278160095,0.6645849347114563,0.527880847454071
1772534865504477400,1.7104775390625,0.7347078323364258,0.5250208973884583,0.5698349475860596
1772534865514494700,1.72049462890625,0.7210002541542053,0.32443639636039734,0.7672492265701294
1772534865524511500,1.730511474609375,0.6913257241249084,0.024383902549743652,1.0200825929641724
1772534865534527500,1.740527587890625,0.7259369492530823,-0.2765226662158966,1.2062079906463623
1772534865544544800,1.750544677734375,0.6824712157249451,-0.5694474577903748,1.2116674184799194
1772534865554560800,1.760560791015625,0.5730419754981995,-0.7006422281265259,1.130690336227417
1772534865564577500,1.77057763671875,0.47508662939071655,-1.0203731060028076,0.8702491521835327
1772534865574594800,1.7805947265625,0.21883247792720795,-1.4042630195617676,0.5239359140396118
1772534865584610800,1.79061083984375,-0.2233918160200119,-1.7638592720031738,0.16814586520195007
1772534865594627600,1.800627685546875,-0.7687965631484985,-1.784848928451538,-0.18847617506980896
1772534865604644600,1.81064453125,-1.2243329286575317,-1.259070873260498,-0.5793605446815491
1772534865614660600,1.82066064453125,-1.508033275604248,-0.4522252678871155,-1.0237326622009277
1772534865624677600,1.830677734375,-1.6711748838424683,0.2440693974494934,-1.371964454650879
1772534865634694700,1.840694580078125,-1.6529090404510498,0.5885956287384033,-1.3533684015274048
1772534865644710700,1.850710693359375,-1.4800043106079102,0.7241028547286987,-1.0541545152664185
1772534865654727700,1.860727783203125,-1.269760012626648,0.5426267981529236,-0.8815995454788208
1772534865664744700,1.87074462890625,-1.1111645698547363,-0.07989510148763657,-0.9699235558509827
1772534865674760700,1.8807607421875,-1.0465283393859863,-0.9692806601524353,-1.0556813478469849
1772534865684777700,1.89077783203125,-0.990147590637207,-1.817274808883667,-0.9295523762702942
1772534865694794800,1.900794677734375,-0.8870241045951843,-2.239227533340454,-0.6471018195152283
1772534865704810500,1.910810546875,-0.8631038665771484,-2.0044100284576416,-0.39978787302970886
1772534865714827500,1.92082763671875,-0.8811299800872803,-1.2173162698745728,-0.3309675455093384
1772534865724844800,1.9308447265625,-0.9665258526802063,-0.3202698826789856,-0.40333279967308044
1772534865734860500,1.940860595703125,-1.083490014076233,0.3545551598072052,-0.4109515845775604
1772534865744877600,1.950877685546875,-1.1665798425674438,0.7298622131347656,-0.30858898162841797
1772534865754894800,1.960894775390625,-1.1974765062332153,0.8007089495658875,-0.11155609041452408
1772534865764910600,1.97091064453125,-1.1703453063964844,0.7193613648414612,0.11715777963399887
1772534865774927600,1.980927734375,-1.0748363733291626,0.610593855381012,0.24811846017837524
1772534865784944600,1.990944580078125,-0.9547477960586548,0.44119471311569214,0.25825443863868713
1772534865794960600,2.000960693359375,-0.835046112537384,0.25457262992858887,0.2351991981267929
1772534865804977700,2.010977783203125,-0.6565608382225037,0.1280791461467743,0.20410066843032837
1772534865814994700,2.02099462890625,-0.4440019428730011,-0.028911542147397995,0.20277655124664307
1772534865825010400,2.031010498046875,-0.12252351641654968,-0.01828606240451336,0.38892218470573425
1772534865835027700,2.04102783203125,0.1650046706199646,0.03266633301973343,0.5653867125511169
1772534865845043700,2.051043701171875,0.3794455826282501,0.07485026866197586,0.6800488233566284
1772534865855060500,2.061060546875,0.4601585566997528,0.11987260729074478,0.7132357954978943
1772534865865077800,2.071077880859375,0.4530881345272064,0.13514690101146698,0.6416820287704468
1772534865875093800,2.08109375,0.4111100435256958,0.14604748785495758,0.49319693446159363
1772534865885110500,2.091110595703125,0.3493446707725525,0.22977779805660248,0.31698086857795715
1772534865895127600,2.10112744140625,0.24997708201408386,0.34903043508529663,0.1568351536989212
1772534865905143800,2.111143798828125,0.1354033648967743,0.4534631073474884,0.05192604660987854
1772534865915161000,2.1211611328125,0.003989947959780693,0.5534602403640747,0.031808264553546906
1772534865925178000,2.13117822265625,-0.14440058171749115,0.6727597713470459,0.03924700617790222
1772534865935194000,2.141194091796875,-0.26081880927085876,0.8297565579414368,0.02606062963604927
1772534865945211100,2.151211181640625,-0.27639564871788025,0.9709986448287964,0.011511247605085373
1772534865955228200,2.161228271484375,-0.1778874397277832,1.105298399925232,0.06422851979732513
1772534865965244200,2.171244140625,-0.03305382281541824,1.2064942121505737,0.21617092192173004
1772534865975261200,2.18126123046875,0.12512542307376862,1.3102123737335205,0.4039727747440338
1772534865985278200,2.1912783203125,0.24012018740177155,1.396992802619934,0.5516487956047058
1772534865995294200,2.201294189453125,0.22291883826255798,1.3794503211975098,0.6066025495529175
1772534866005311000,2.21131103515625,0.1633572280406952,1.3701468706130981,0.602597713470459
1772534866015328300,2.221328369140625,0.11491061002016068,1.4334664344787598,0.49470481276512146
1772534866025344300,2.23134423828125,0.04039749130606651,1.6954402923583984,0.2660441994667053
1772534866035361000,2.241361083984375,0.034397922456264496,2.140746831893921,0.03519447147846222
1772534866045378300,2.25137841796875,0.1705285906791687,2.389082908630371,-0.10160624980926514
1772534866055394000,2.26139404296875,0.3900716006755829,2.226440906524658,-0.01287531852722168
1772534866065411000,2.2714111328125,0.7058774828910828,1.8270502090454102,0.4065946638584137
1772534866075428000,2.281427978515625,1.012871265411377,1.2587732076644897,1.0275591611862183
1772534866085444000,2.291444091796875,1.1703733205795288,1.0767953395843506,1.5735361576080322
1772534866095461000,2.301461181640625,1.2156691551208496,1.198403000831604,1.6156843900680542
1772534866105478100,2.31147802734375,1.1745009422302246,1.1386982202529907,1.148120403289795
1772534866115494000,2.321493896484375,0.9875214099884033,0.6290716528892517,0.6751816272735596
1772534866125511200,2.33151123046875,0.7701025605201721,-0.060744307935237885,0.44232654571533203
1772534866135528200,2.341528076171875,0.6219924688339233,-0.7483314871788025,0.39413344860076904
1772534866145544000,2.3515439453125,0.46913978457450867,-1.2993749380111694,0.359428733587265
1772534866155561200,2.361561279296875,0.2940841019153595,-1.4823780059814453,0.21222330629825592
1772534866165577200,2.3715771484375,0.06322290748357773,-1.2445766925811768,-0.04103957861661911
1772534866175594000,2.381593994140625,-0.18489421904087067,-0.789995014667511,-0.3084787428379059
1772534866185611000,2.391611083984375,-0.3152543604373932,-0.28599393367767334,-0.5146129727363586
1772534866195627300,2.401627197265625,-0.28378909826278687,0.06263674795627594,-0.6631990075111389
1772534866205644000,2.41164404296875,-0.09812230616807938,0.12548628449440002,-0.7185035347938538
1772534866215661000,2.4216611328125,0.16248424351215363,-0.11356571316719055,-0.6397791504859924
1772534866225677000,2.431677001953125,0.40984129905700684,-0.5168428421020508,-0.5948226451873779
1772534866235694000,2.441694091796875,0.6332594752311707,-0.9318405985832214,-0.6582750678062439
1772534866245711000,2.451711181640625,0.8548595309257507,-1.2478406429290771,-0.7329959273338318
1772534866255727000,2.46172705078125,0.884435772895813,-1.2909995317459106,-0.7791929841041565
1772534866265744100,2.471744140625,0.8156580328941345,-1.0094515085220337,-0.7845720648765564
1772534866275761200,2.48176123046875,0.7118855714797974,-0.7178835868835449,-0.7738927602767944
1772534866285777200,2.491777099609375,0.524154543876648,-0.5344053506851196,-0.7316159009933472
1772534866295794000,2.5017939453125,0.31702908873558044,-0.3261839747428894,-0.737683892250061
1772534866305811200,2.511811279296875,0.19675567746162415,-0.08667044341564178,-0.8137605786323547
1772534866315827200,2.5218271484375,0.17085696756839752,0.07090958952903748,-0.8465698957443237
1772534866325844000,2.531843994140625,0.22299818694591522,0.18711262941360474,-0.749708354473114
1772534866335861200,2.541861328125,0.328938752412796,0.2631533443927765,-0.5772910118103027
1772534866345877200,2.551877197265625,0.47326982021331787,0.25451749563217163,-0.43562203645706177
1772534866355894000,2.56189404296875,0.5826482176780701,0.21996085345745087,-0.35160011053085327
1772534866365911000,2.5719111328125,0.6481223106384277,0.2098006308078766,-0.3295014798641205
1772534866375927300,2.58192724609375,0.6823101043701172,0.18786710500717163,-0.3659113943576813
1772534866385944000,2.591944091796875,0.6851879358291626,0.11540248990058899,-0.4154115915298462
1772534866395961000,2.601961181640625,0.6494978666305542,0.0029462550301104784,-0.4568098783493042
1772534866405977000,2.61197705078125,0.591684103012085,-0.13613785803318024,-0.46119850873947144
1772534866415994000,2.621994140625,0.5267767310142517,-0.25286102294921875,-0.4134533703327179
1772534866426011100,2.63201123046875,0.46312370896339417,-0.2801365852355957,-0.36699050664901733
1772534866436027100,2.642027099609375,0.4017500877380371,-0.23678883910179138,-0.3642045855522156
1772534866446044200,2.652044189453125,0.31378480792045593,-0.1739395707845688,-0.3626849949359894
1772534866456060200,2.66206005859375,0.19687658548355103,-0.10170905292034149,-0.3280545771121979
1772534866466077200,2.6720771484375,0.05065332353115082,-0.048706553876399994,-0.26708361506462097
1772534866476094000,2.682093994140625,-0.08504671603441238,0.003132410114631057,-0.2165762484073639
1772534866486110200,2.692110107421875,-0.19695141911506653,0.04609585553407669,-0.17298083007335663
1772534866496127200,2.702127197265625,-0.2615474462509155,0.07870413362979889,-0.11432897299528122
1772534866506144000,2.71214404296875,-0.3004802167415619,0.05692480131983757,-0.051297008991241455
1772534866516160000,2.722159912109375,-0.32983437180519104,-0.03153688833117485,0.0029856697656214237
1772534866526177300,2.73217724609375,-0.34554168581962585,-0.11169403791427612,0.06773137301206589
1772534866536194000,2.742194091796875,-0.35154658555984497,-0.15722744166851044,0.14369751513004303
1772534866546210000,2.7522099609375,-0.35369735956192017,-0.14420431852340698,0.26333361864089966
1772534866556227300,2.762227294921875,-0.302304744720459,0.019118035212159157,0.40675684809684753
1772534866566244000,2.772244140625,-0.1733773797750473,0.28245219588279724,0.5062003135681152
1772534866576260000,2.782260009765625,0.0032892702147364616,0.4152483344078064,0.5956103801727295
1772534866586277000,2.792277099609375,0.18941625952720642,0.3018999397754669,0.7263864874839783
1772534866596294100,2.802294189453125,0.35282036662101746,-0.035471707582473755,0.8927611112594604
1772534866606310100,2.81231005859375,0.39241865277290344,-0.42660537362098694,1.075035810470581
1772534866616327200,2.8223271484375,0.38137373328208923,-0.7290225028991699,1.1166759729385376
1772534866626344200,2.83234423828125,0.3385378420352936,-0.8567703366279602,1.012641191482544
1772534866636360200,2.842360107421875,0.3067476749420166,-0.6963220834732056,0.8907179236412048
1772534866646377000,2.852376953125,0.37152987718582153,-0.41752880811691284,0.82016521692276
1772534866656394000,2.86239404296875,0.3770950734615326,-0.533339262008667,0.732460081577301
1772534866666410200,2.87241015625,0.36799052357673645,-0.6847794055938721,0.5900997519493103
1772534866676427000,2.882427001953125,0.3700222671031952,-0.5902017951011658,0.4947111904621124
1772534866686444000,2.892444091796875,0.2967405915260315,-0.587215006351471,0.46886762976646423
1772534866696460000,2.9024599609375,0.09157945215702057,-0.651316225528717,0.4498121738433838
1772534866706477000,2.91247705078125,-0.18920321762561798,-0.5938984751701355,0.3035212755203247
1772534866716494000,2.922494140625,-0.505095899105072,-0.37745487689971924,0.003930026665329933
1772534866726510000,2.932510009765625,-0.8550866842269897,-0.0491558276116848,-0.3666331171989441
1772534866736527000,2.942527099609375,-1.0719596147537231,0.15901069343090057,-0.8107642531394958
1772534866746543000,2.952543212890625,-1.0476548671722412,0.08613807708024979,-1.1726492643356323
1772534866756560100,2.96256005859375,-0.7825070023536682,-0.14732207357883453,-1.2270770072937012
1772534866766577000,2.972576904296875,-0.39929306507110596,-0.4822119176387787,-0.9938752055168152
1772534866776593200,2.98259326171875,-0.05572531372308731,-0.8071631193161011,-0.6419371366500854
1772534866786610200,2.992610107421875,0.19709229469299316,-0.9358038902282715,-0.40326330065727234
1772534866796627000,3.002626953125,0.33260378241539,-0.7941349148750305,-0.330172598361969
1772534866806643000,3.012642822265625,0.3251120448112488,-0.5099005103111267,-0.33728110790252686
1772534866816660200,3.02266015625,0.1569315642118454,-0.1661365032196045,-0.33809229731559753
1772534866826677000,3.032677001953125,-0.16122138500213623,0.09048116207122803,-0.3536960184574127
1772534866836693000,3.04269287109375,-0.4726857841014862,0.23363779485225677,-0.4298376441001892
1772534866846710300,3.052710205078125,-0.6209141612052917,0.537211537361145,-0.5550184845924377
1772534866856727000,3.06272705078125,-0.6091187596321106,0.8632569909095764,-0.6293310523033142
1772534866866743000,3.072742919921875,-0.4923393726348877,1.0712778568267822,-0.5641576647758484
1772534866876760000,3.082760009765625,-0.3111099302768707,1.1383432149887085,-0.36918550729751587
1772534866886777000,3.092777099609375,-0.11523764580488205,1.0286033153533936,-0.13452984392642975
1772534866896793000,3.10279296875,0.046552322804927826,0.7992085218429565,0.0745844915509224
1772534866906810000,3.11281005859375,0.163648322224617,0.5720725655555725,0.2051246613264084
1772534866916827000,3.122826904296875,0.25031715631484985,0.39488792419433594,0.24198387563228607
1772534866926843000,3.1328427734375,0.29640743136405945,0.18643991649150848,0.2074834108352661
1772534866936860000,3.14285986328125,0.2813943922519684,-0.04557147994637489,0.16634289920330048
1772534866946877000,3.152876953125,0.2052852362394333,-0.19727765023708344,0.11987952888011932
1772534866956893000,3.162892822265625,0.1060103252530098,-0.23682372272014618,0.06481707841157913
1772534866966910000,3.172909912109375,0.00017097493400797248,-0.19114412367343903,-0.0041518681682646275
1772534866976926700,3.1829267578125,-0.07142651081085205,-0.0971641018986702,-0.03476490452885628
1772534866986943000,3.19294287109375,-0.10899598896503448,0.042508047074079514,0.025374865159392357
1772534866996960000,3.2029599609375,-0.13196149468421936,0.16438362002372742,0.1337849646806717
1772534867006976000,3.21297607421875,-0.16061098873615265,0.20011365413665771,0.20558299124240875
1772534867016992800,3.22299267578125,-0.2306680977344513,0.176799014210701,0.21683856844902039
1772534867027010000,3.233010009765625,-0.33711785078048706,0.20681655406951904,0.1908929944038391
1772534867037026000,3.243026123046875,-0.40725645422935486,0.2589820325374603,0.13000567257404327
1772534867047042800,3.253042724609375,-0.4659850001335144,0.2147032469511032,0.09858835488557816
1772534867057060000,3.26306005859375,-0.48581463098526,0.17732365429401398,0.12771642208099365
1772534867067075800,3.273075927734375,-0.4386838674545288,0.17077679932117462,0.18042303621768951
1772534867077092900,3.2830927734375,-0.3673732280731201,0.10644707828760147,0.27928224205970764
1772534867087110000,3.29310986328125,-0.26755446195602417,-0.027966653928160667,0.4041685163974762
1772534867097126000,3.3031259765625,-0.13120728731155396,-0.10156204551458359,0.49069568514823914
1772534867107143000,3.313142822265625,-0.020482106134295464,-0.09620323032140732,0.5232086181640625
1772534867117160000,3.323159912109375,0.06938653439283371,-0.0730968490242958,0.5962964296340942
1772534867127175700,3.33317578125,0.15174904465675354,-0.15867353975772858,0.7359557747840881
1772534867137193000,3.34319287109375,0.2156505286693573,-0.32187604904174805,0.9045325517654419
1772534867147210000,3.3532099609375,0.26958727836608887,-0.49946120381355286,1.0481033325195312
1772534867157225700,3.363225830078125,0.2897751033306122,-0.6431328654289246,1.0624701976776123
1772534867167243000,3.373242919921875,0.25378328561782837,-0.6206246614456177,0.9578967094421387
1772534867177260000,3.383260009765625,0.2257622927427292,-0.1887504756450653,0.8134377598762512
1772534867187275800,3.39327587890625,0.1982787400484085,0.4574629068374634,0.7150917649269104
1772534867197292800,3.403292724609375,0.09767249971628189,0.45434993505477905,0.6643322110176086
1772534867207310000,3.41331005859375,-0.07833687961101532,-0.34357067942619324,0.5779097080230713
1772534867217325800,3.423325927734375,-0.1909310668706894,-1.0699875354766846,0.464553564786911
1772534867227342800,3.4333427734375,-0.15183134377002716,-1.4797348976135254,0.3276233971118927
1772534867237360000,3.443360107421875,-0.0452289953827858,-1.74653959274292,0.17409484088420868
1772534867247376000,3.4533759765625,0.004308728501200676,-1.709674596786499,-0.00809228140860796
1772534867257393000,3.463392822265625,-0.11800466477870941,-1.1543282270431519,-0.31011340022087097
1772534867267410000,3.473409912109375,-0.350050151348114,-0.38442009687423706,-0.8657047152519226
1772534867277426000,3.483426025390625,-0.6076430678367615,0.03786535561084747,-1.5719603300094604
1772534867287443000,3.49344287109375,-0.722066342830658,0.000013582121027866378,-1.928011178970337
1772534867297459000,3.503458984375,-0.5072224736213684,-0.16809393465518951,-1.71945321559906
1772534867307475700,3.513475830078125,-0.0838533565402031,-0.3779155910015106,-1.2335271835327148
1772534867317493000,3.523492919921875,0.34284016489982605,-0.7222644686698914,-0.7536391615867615
1772534867327509000,3.533509033203125,0.6406673192977905,-1.0689693689346313,-0.3754436671733856
1772534867337525800,3.54352587890625,0.7764962911605835,-1.2920435667037964,-0.1183820366859436
1772534867347543000,3.55354296875,0.7547206878662109,-1.1633139848709106,0.01907728798687458
1772534867357559000,3.56355908203125,0.621655285358429,-0.7843653559684753,0.07531392574310303
1772534867367575800,3.573575927734375,0.4033490717411041,-0.3466322422027588,0.13811711966991425
1772534867377592800,3.5835927734375,0.17456142604351044,0.07691342383623123,0.1793881356716156
1772534867387609000,3.593609130859375,-0.021990519016981125,0.4354177713394165,0.16700203716754913
1772534867397625900,3.6036259765625,-0.15594592690467834,0.6917121410369873,0.12386495620012283
1772534867407643000,3.613642822265625,-0.26004117727279663,0.8474202752113342,0.07570967078208923
1772534867417659000,3.623658935546875,-0.36669570207595825,0.9245265126228333,0.012316054664552212
1772534867427676000,3.633676025390625,-0.44552579522132874,0.9380849003791809,-0.07705163955688477
1772534867437693000,3.64369287109375,-0.5293251276016235,0.9127353429794312,-0.18671715259552002
1772534867447709000,3.653708984375,-0.5898838043212891,0.8453360795974731,-0.32003074884414673
1772534867457726000,3.663725830078125,-0.5915703773498535,0.6856635808944702,-0.43270960450172424
1772534867467743000,3.673742919921875,-0.517048716545105,0.4489157497882843,-0.49735650420188904
1772534867477759000,3.683759033203125,-0.4124418795108795,0.19152335822582245,-0.5078360438346863
1772534867487775700,3.693775634765625,-0.2995571494102478,0.018086059018969536,-0.45691853761672974
1772534867497793000,3.70379296875,-0.19387146830558777,-0.018910840153694153,-0.3675476610660553
1772534867507809000,3.71380908203125,-0.09354592859745026,0.016331302002072334,-0.30132177472114563
1772534867517825800,3.72382568359375,-0.04436613246798515,0.07673632353544235,-0.27815598249435425
1772534867527843000,3.733843017578125,-0.03447461873292923,0.0842919796705246,-0.2588168978691101
1772534867537859000,3.743859130859375,-0.05464193969964981,-0.014657772146165371,-0.24036653339862823
1772534867547875800,3.753875732421875,-0.09738807380199432,-0.1426226645708084,-0.26549771428108215
1772534867557892900,3.763892822265625,-0.1071256548166275,-0.1898607462644577,-0.32541990280151367
1772534867567909000,3.7739091796875,-0.06809809058904648,-0.18476106226444244,-0.3457033336162567
1772534867577926000,3.78392578125,-0.0039017973467707634,-0.1476895958185196,-0.29513657093048096
1772534867587942000,3.79394189453125,0.035952676087617874,-0.13138306140899658,-0.22038350999355316
1772534867597959000,3.803958984375,0.030849259346723557,-0.1243475154042244,-0.15824902057647705
1772534867607976000,3.813975830078125,-0.019757725298404694,-0.0819646418094635,-0.11584378033876419
1772534867617992000,3.823991943359375,-0.09019540995359421,-0.03674549609422684,-0.09961740672588348
1772534867628009000,3.834009033203125,-0.16111458837985992,-0.023374564945697784,-0.06619393080472946
1772534867638026000,3.84402587890625,-0.19786301255226135,0.047754205763339996,0.004436559975147247
1772534867648042000,3.8540419921875,-0.16753999888896942,0.1861983686685562,0.08889471739530563
1772534867658059000,3.86405908203125,-0.08902548253536224,0.2953445613384247,0.13527819514274597
1772534867668075800,3.87407568359375,0.01025370229035616,0.4317399561405182,0.16155613958835602
1772534867678092000,3.884092041015625,0.08453672379255295,0.5518008470535278,0.2087758481502533
1772534867688108800,3.89410888671875,0.13964630663394928,0.567035436630249,0.35782390832901
1772534867698125800,3.904125732421875,0.23922856152057648,0.5195046663284302,0.5654274225234985
1772534867708141800,3.914141845703125,0.4182262718677521,0.38803666830062866,0.7290315628051758
1772534867718158800,3.924158935546875,0.6000685095787048,0.14165140688419342,0.7824886441230774
1772534867728175900,3.93417578125,0.7306107878684998,-0.030460171401500702,0.7097436189651489
1772534867738192000,3.94419189453125,0.6653550863265991,-0.13526993989944458,0.5115509033203125
1772534867748209000,3.954208984375,0.41425442695617676,-0.2684844434261322,0.10078147053718567
1772534867758226000,3.964225830078125,0.145046666264534,-0.5801829695701599,-0.5043838024139404
1772534867768242000,3.974241943359375,-0.08315720409154892,-1.4159742593765259,-1.0105823278427124
1772534867778258700,3.9842587890625,-0.1254948079586029,-2.889108657836914,-1.177696704864502
1772534867788276000,3.99427587890625,0.1564556509256363,-4.144892692565918,-0.9133036732673645
1772534867798292000,4.0042919921875,0.6481292247772217,-4.3081231117248535,-0.47307008504867554
1772534867808308700,4.014308837890625,1.070387840270996,-3.1333725452423096,-0.09602905809879303
1772534867818326000,4.024325927734375,1.2009080648422241,-1.5183336734771729,0.10011009126901627
1772534867828342000,4.034342041015625,1.1259493827819824,-0.24980637431144714,0.0515793040394783
1772534867838358800,4.04435888671875,0.9165554046630859,0.7021325826644897,-0.1383136659860611
1772534867848374800,4.054374755859375,0.6972371339797974,1.3567969799041748,-0.25503629446029663
1772534867858392000,4.06439208984375,0.44485709071159363,1.790130853652954,-0.21290402114391327
1772534867868408800,4.074408935546875,0.1733590066432953,1.755334496498108,-0.13142965734004974
1772534867878424800,4.0844248046875,0.015419702976942062,1.2215677499771118,-0.016337161883711815
1772534867888441900,4.09444189453125,0.06847120076417923,0.5566480755805969,0.17882780730724335
1772534867898459000,4.104458984375,0.3122399151325226,0.22851839661598206,0.48357492685317993
1772534867908475000,4.114474853515625,0.600210964679718,0.46516263484954834,0.7587593793869019
1772534867918492200,4.1244921875,0.7502204775810242,1.1110044717788696,0.9074702858924866
1772534867928509000,4.134509033203125,0.6588548421859741,1.794345736503601,0.9140589237213135
1772534867938525000,4.14452490234375,0.35182034969329834,2.3088998794555664,0.7932672500610352
1772534867948542000,4.1545419921875,-0.06383676826953888,2.564093589782715,0.5746846199035645
1772534867958559000,4.16455908203125,-0.49919676780700684,2.5048115253448486,0.2884022295475006
1772534867968575000,4.174574951171875,-0.8319166302680969,2.2638320922851562,-0.03166978061199188
1772534867978592000,4.184592041015625,-0.9956192970275879,1.9265016317367554,-0.3175816833972931
1772534867988609000,4.194609130859375,-0.9813519716262817,1.5870684385299683,-0.5078704357147217
1772534867998625000,4.204625,-0.7734019756317139,1.251511812210083,-0.5682184100151062
1772534868008642000,4.21464208984375,-0.4763857126235962,0.9748192429542542,-0.47863954305648804
1772534868018658800,4.224658935546875,-0.20850633084774017,0.8896082043647766,-0.24088558554649353
1772534868028675000,4.234675048828125,0.026731746271252632,0.9963980317115784,0.0017718010349199176
1772534868038692000,4.244692138671875,0.18136446177959442,1.1357300281524658,0.11836498975753784
1772534868048708900,4.254708984375,0.2062530368566513,1.1393860578536987,0.07518023997545242
1772534868058724900,4.264724853515625,0.0820261612534523,1.019066333770752,-0.039923712611198425
1772534868068742100,4.2747421875,-0.10045736283063889,0.7021858096122742,-0.19958075881004333
1772534868078758000,4.2847578125,-0.30541157722473145,0.22836287319660187,-0.4059871733188629
1772534868088775000,4.29477490234375,-0.48058366775512695,-0.340150386095047,-0.575392484664917
1772534868098792200,4.304792236328125,-0.5555111765861511,-0.7471314668655396,-0.6175359487533569
1772534868108808000,4.314807861328125,-0.45914387702941895,-0.8833034038543701,-0.5743269324302673
1772534868118825000,4.324824951171875,-0.2712956964969635,-0.7904430031776428,-0.5111799240112305
1772534868128842000,4.334842041015625,-0.11037178337574005,-0.5900925993919373,-0.37599387764930725
1772534868138858000,4.34485791015625,-0.02460521087050438,-0.39107269048690796,-0.19644780457019806
1772534868148875000,4.354875,-0.0032354744616895914,-0.2867087423801422,-0.02082991413772106
1772534868158892000,4.36489208984375,-0.0557657927274704,-0.27979862689971924,0.13558818399906158
1772534868168907800,4.37490771484375,-0.12773026525974274,-0.3270854353904724,0.25820624828338623
1772534868178925000,4.384925048828125,-0.1884937435388565,-0.4225078523159027,0.29764899611473083
1772534868188942000,4.394942138671875,-0.23192431032657623,-0.4722072184085846,0.2831360995769501
1772534868198957800,4.404957763671875,-0.2585918605327606,-0.34447935223579407,0.3034363090991974
1772534868208975000,4.41497509765625,-0.2782747745513916,-0.03761741518974304,0.4063272774219513
1772534868218991900,4.424991943359375,-0.2989653944969177,0.23200367391109467,0.5784524083137512
1772534868229008000,4.4350078125,-0.2944369614124298,0.2998804450035095,0.7674111723899841
1772534868239025000,4.44502490234375,-0.19824331998825073,0.3136838972568512,0.8903616070747375
1772534868249042000,4.4550419921875,-0.07061664760112762,0.2503448724746704,0.9326813220977783
1772534868259058000,4.465057861328125,0.025661155581474304,0.11565203219652176,1.0220324993133545
1772534868269075000,4.475074951171875,0.045711029320955276,-0.012437494471669197,1.1978341341018677
1772534868279092000,4.485092041015625,0.048166465014219284,-0.08000961691141129,1.3581072092056274
1772534868289108000,4.49510791015625,0.07571499794721603,0.03126950562000275,1.399295687675476
1772534868299125000,4.505125,0.1481577754020691,0.21660181879997253,1.2998844385147095
1772534868309142000,4.51514208984375,0.3115762770175934,-0.17879530787467957,1.0088459253311157
1772534868319158000,4.525157958984375,0.5680738091468811,-1.319882869720459,0.6770554184913635
1772534868329175000,4.535175048828125,0.9147167205810547,-2.531423807144165,0.6148234605789185
1772534868339191800,4.54519189453125,1.1179289817810059,-3.3030145168304443,0.7620885968208313
1772534868349207800,4.555207763671875,0.9743233323097229,-3.3671560287475586,0.8111764788627625
1772534868359225000,4.56522509765625,0.5238139629364014,-2.70186448097229,0.48420530557632446
1772534868369241000,4.575240966796875,-0.1555485874414444,-1.5512058734893799,-0.1950073093175888
1772534868379257900,4.5852578125,-0.9415350556373596,-0.42688873410224915,-0.9636864066123962
1772534868389275100,4.595275146484375,-1.5787689685821533,0.310412734746933,-1.5210421085357666
1772534868399291100,4.605291015625,-1.8694392442703247,0.7873715758323669,-1.8225464820861816
1772534868409308000,4.615307861328125,-1.8351235389709473,0.8470934629440308,-1.8376655578613281
1772534868419325200,4.6253251953125,-1.5404388904571533,0.4794888496398926,-1.4721978902816772
1772534868429341200,4.635341064453125,-0.9965290427207947,0.05777488276362419,-0.8529287576675415
1772534868439358000,4.64535791015625,-0.36854180693626404,-0.20924589037895203,-0.28462719917297363
1772534868449375000,4.655375,0.15417252480983734,-0.2507912218570709,0.07412242889404297
1772534868459391000,4.665390869140625,0.4526265859603882,-0.10146456956863403,0.22549943625926971
1772534868469408000,4.675407958984375,0.5375276207923889,0.11196541786193848,0.25808241963386536
1772534868479425000,4.685425048828125,0.4250383675098419,0.30514392256736755,0.24541908502578735
1772534868489441000,4.69544091796875,0.2032034546136856,0.5397308468818665,0.16917598247528076
1772534868499458000,4.7054580078125,-0.04140762612223625,0.7707968354225159,0.030349649488925934
1772534868509475000,4.71547509765625,-0.2641158103942871,0.9473055601119995,-0.08563181012868881
1772534868519491000,4.725490966796875,-0.4450496435165405,1.0683963298797607,-0.14377927780151367
1772534868529507800,4.7355078125,-0.5002872943878174,1.1619510650634766,-0.17659500241279602
1772534868539525000,4.745525146484375,-0.42572253942489624,1.16910982131958,-0.19059418141841888
1772534868549541000,4.755541015625,-0.28862062096595764,1.0236154794692993,-0.16202591359615326
1772534868559558000,4.765557861328125,-0.12129154056310654,0.7216010689735413,-0.07928523421287537
1772534868569575200,4.7755751953125,0.03411056473851204,0.3988664150238037,-0.00007430219557136297
1772534868579591000,4.7855908203125,0.12507669627666473,0.18989962339401245,0.03978176787495613
1772534868589608000,4.79560791015625,0.16376443207263947,0.12017514556646347,0.019508453086018562
1772534868599625200,4.805625244140625,0.1430479735136032,0.11093610525131226,-0.04314187914133072
1772534868609641000,4.815640869140625,0.09176240861415863,0.13904230296611786,-0.11178911477327347
1772534868619658000,4.825657958984375,0.04318768531084061,0.14336808025836945,-0.1693781167268753
1772534868629675000,4.835675048828125,-0.012236426584422588,0.1141585260629654,-0.21710754930973053
1772534868639690800,4.845690673828125,-0.06470922380685806,0.06963180750608444,-0.24881860613822937
1772534868649708000,4.8557080078125,-0.09897398203611374,-0.015323029831051826,-0.2558104693889618
1772534868659724000,4.86572412109375,-0.14179708063602448,-0.22095395624637604,-0.2300955206155777
1772534868669740800,4.87574072265625,-0.20267507433891296,-0.36744457483291626,-0.15518665313720703
1772534868679758000,4.885758056640625,-0.23205401003360748,-0.37370648980140686,-0.06285965442657471
1772534868689774000,4.895774169921875,-0.24474211037158966,-0.29448649287223816,0.029140308499336243
1772534868699790800,4.905790771484375,-0.2546946108341217,-0.18866898119449615,0.09581627696752548
1772534868709808000,4.91580810546875,-0.26406973600387573,-0.07916299253702164,0.111245296895504
1772534868719824100,4.92582421875,-0.285267174243927,-0.05849500000476837,0.08861162513494492
1772534868729841000,4.9358408203125,-0.31747275590896606,-0.09581707417964935,0.07984556257724762
1772534868739858000,4.94585791015625,-0.34644636511802673,-0.19159899652004242,0.09300237894058228
1772534868749874000,4.9558740234375,-0.37378716468811035,-0.3203580379486084,0.17969545722007751
1772534868759891000,4.965890869140625,-0.3907645642757416,-0.34251073002815247,0.351431280374527
1772534868769908000,4.975907958984375,-0.38440626859664917,-0.1823202669620514,0.5291008353233337
1772534868779924000,4.985924072265625,-0.34826263785362244,0.06710553169250488,0.6251214146614075
1772534868789941000,4.99594091796875,-0.29889002442359924,0.2549063265323639,0.6172767877578735
1772534868799958000,5.0059580078125,-0.16101418435573578,0.3302021324634552,0.606865406036377
1772534868809974000,5.01597412109375,0.12580719590187073,0.0935688316822052,0.6921446323394775
1772534868819991000,5.025990966796875,0.44473326206207275,-0.5442990064620972,0.9571531414985657
1772534868830008000,5.036008056640625,0.7695406079292297,-1.283044457435608,1.3808841705322266
1772534868840024000,5.046024169921875,1.117175817489624,-1.572038173675537,1.798089861869812
1772534868850040800,5.056040771484375,1.3768055438995361,-1.2688167095184326,2.0543177127838135
1772534868860058000,5.06605810546875,1.3449879884719849,-1.017965316772461,1.9099844694137573
1772534868870074000,5.07607421875,1.1325113773345947,-0.6807798743247986,1.302616000175476
1772534868880091000,5.0860908203125,0.9070782661437988,-0.13858184218406677,0.577716052532196
1772534868890108200,5.096108154296875,0.7246511578559875,-0.1673557013273239,0.07072316855192184
1772534868900124200,5.106124267578125,0.6253232955932617,-0.5216916799545288,-0.1633860021829605
1772534868910141000,5.116140869140625,0.5832749009132385,-0.6862430572509766,-0.2658231556415558
1772534868920157200,5.1261572265625,0.572114109992981,-0.6455779671669006,-0.47271695733070374
1772534868930174200,5.13617431640625,0.5105141401290894,-0.9134743809700012,-0.9300174117088318
1772534868940191200,5.146191162109375,0.5909229516983032,-1.4105459451675415,-1.3623051643371582
1772534868950207200,5.156207275390625,0.9251858592033386,-1.734492540359497,-1.5388423204421997
1772534868960224300,5.166224365234375,1.2537739276885986,-1.8722234964370728,-1.3383013010025024
1772534868970241000,5.176240966796875,1.3950343132019043,-1.672980785369873,-0.8669561147689819
1772534868980257300,5.18625732421875,1.360066533088684,-1.252639651298523,-0.4902815520763397
1772534868990274300,5.1962744140625,1.0842576026916504,-0.6495372653007507,-0.4392718970775604
1772534869000291000,5.206291015625,0.6080281734466553,0.05576898902654648,-0.6875832080841064
1772534869010307000,5.21630712890625,0.004098604898899794,0.8047460317611694,-1.054560899734497
1772534869020324400,5.226324462890625,-0.6611859202384949,1.33735191822052,-1.33826744556427
1772534869030341000,5.236341064453125,-1.274214506149292,1.4954466819763184,-1.384972333908081
1772534869040357000,5.246357177734375,-1.5610435009002686,1.384128451347351,-1.152236819267273
1772534869050374100,5.2563740234375,-1.4328280687332153,1.1825119256973267,-0.7708245515823364
1772534869060391200,5.26639111328125,-1.0088595151901245,1.0274544954299927,-0.422895610332489
1772534869070407200,5.2764072265625,-0.47491058707237244,0.9521589279174805,-0.24759222567081451
1772534869080424200,5.286424072265625,-0.04716937616467476,0.8465571403503418,-0.30840444564819336
1772534869090441200,5.296441162109375,0.16443687677383423,0.6636298894882202,-0.5122619867324829
1772534869100457200,5.306457275390625,0.16410371661186218,0.5038021802902222,-0.7205866575241089
1772534869110474000,5.316473876953125,0.03984115645289421,0.35091087222099304,-0.8364661335945129
1772534869121117200,5.3271171875,-0.14424026012420654,0.14822381734848022,-0.9017348885536194
1772534869131133200,5.33713330078125,-0.22211907804012299,0.1233443021774292,-0.9349687695503235
1772534869141150200,5.347150146484375,-0.20172539353370667,0.2047635316848755,-0.9711357951164246
1772534869151167200,5.357167236328125,-0.17555344104766846,0.22258833050727844,-0.9671937823295593
1772534869161183200,5.367183349609375,-0.1518411934375763,0.13967373967170715,-0.9252801537513733
1772534869171200300,5.3772001953125,-0.1536095291376114,0.011403122916817665,-0.8711093068122864
1772534869181216300,5.38721630859375,-0.15593953430652618,-0.1494813710451126,-0.8224443197250366
1772534869191233300,5.3972333984375,-0.16389013826847076,-0.29821252822875977,-0.7626206874847412
1772534869201250000,5.40725,-0.16036969423294067,-0.3974546790122986,-0.693599283695221
1772534869211266300,5.417266357421875,-0.1051410660147667,-0.43320709466934204,-0.6264026761054993
1772534869221283000,5.427282958984375,-0.04271896928548813,-0.3293667137622833,-0.5466164946556091
1772534869231300000,5.437300048828125,-0.03305462375283241,-0.10808971524238586,-0.44810667634010315
1772534869241316000,5.447316162109375,-0.0736481249332428,0.05874587222933769,-0.33996397256851196
1772534869251333000,5.4573330078125,-0.1684742271900177,0.11462937295436859,-0.22348155081272125
1772534869261350100,5.46735009765625,-0.2824207842350006,0.1528816968202591,-0.10910305380821228
1772534869271366100,5.4773662109375,-0.3531719148159027,0.19982177019119263,-0.010289122350513935
1772534869281383200,5.487383056640625,-0.3963358998298645,0.28510311245918274,0.11880095303058624
1772534869291400200,5.497400146484375,-0.4001428782939911,0.38175082206726074,0.28221356868743896
1772534869301416200,5.507416259765625,-0.36163702607154846,0.42941367626190186,0.44895249605178833
1772534869311433000,5.517432861328125,-0.3585062325000763,0.4973490536212921,0.6275699138641357
1772534869321450200,5.5274501953125,-0.4155285060405731,0.5165539383888245,0.7349818348884583
1772534869331466200,5.53746630859375,-0.4822782278060913,0.44367730617523193,0.7858240008354187
1772534869341483000,5.54748291015625,-0.4856737554073334,0.3953760862350464,0.9054646492004395
1772534869351500300,5.557500244140625,-0.36480697989463806,0.4042385518550873,1.0874831676483154
1772534869361516300,5.567516357421875,-0.19455350935459137,0.30157503485679626,1.3043997287750244
1772534869371533000,5.577532958984375,-0.09496220201253891,0.14133794605731964,1.5841408967971802
1772534869381550000,5.587550048828125,-0.12755902111530304,0.2979065179824829,1.8280986547470093
1772534869391566300,5.59756640625,-0.28098294138908386,0.6364699006080627,1.914328694343567
1772534869401583000,5.6075830078125,-0.3644235134124756,0.8809265494346619,1.9351651668548584
1772534869411600100,5.61760009765625,-0.2826490104198456,0.68680739402771,1.999444842338562
1772534869421616000,5.6276162109375,-0.16687767207622528,0.05024665966629982,2.1187620162963867
1772534869431633200,5.637633056640625,-0.015516907908022404,-0.5995007157325745,2.225785493850708
1772534869441650200,5.647650146484375,0.18794752657413483,-0.990455687046051,2.2841897010803223
1772534869451666200,5.657666259765625,0.342576801776886,-1.0963690280914307,2.2436699867248535
1772534869461683200,5.66768310546875,0.3080925941467285,-0.9324004054069519,2.107215166091919
1772534869471699200,5.67769921875,0.025907497853040695,-0.6452005505561829,1.8925708532333374
1772534869481716200,5.68771630859375,-0.32550299167633057,-0.24264059960842133,1.568915605545044
1772534869491733000,5.69773291015625,-0.6032214164733887,0.34285908937454224,1.0780295133590698
1772534869501749200,5.707749267578125,-0.7175636887550354,0.8170247673988342,0.48959365487098694
1772534869511766300,5.717766357421875,-0.6267797350883484,0.9807652831077576,-0.0717434287071228
1772534869521783000,5.727782958984375,-0.37055355310440063,0.7178865075111389,-0.48887595534324646
1772534869531799000,5.737799072265625,0.0013025520602241158,0.17583680152893066,-0.7105745077133179
1772534869541816300,5.74781640625,0.42230942845344543,-0.3304849863052368,-0.744415819644928
1772534869551833000,5.7578330078125,0.8427383899688721,-0.6352009177207947,-0.6612642407417297
1772534869561849000,5.76784912109375,1.1714164018630981,-0.7486901879310608,-0.5502035021781921
1772534869571866400,5.777866455078125,1.3177366256713867,-0.736929714679718,-0.44972482323646545
1772534869581883100,5.787883056640625,1.212672233581543,-0.6151278614997864,-0.38506487011909485
1772534869591899100,5.797899169921875,0.8520237803459167,-0.3573046028614044,-0.3644583821296692
1772534869601916200,5.807916259765625,0.32419511675834656,0.05950300768017769,-0.40858909487724304
1772534869611933200,5.81793310546875,-0.1598847359418869,0.5799912214279175,-0.5295370817184448
1772534869621949200,5.82794921875,-0.49760526418685913,1.1084380149841309,-0.6064843535423279
1772534869631966200,5.83796630859375,-0.689721941947937,1.5693459510803223,-0.5743862986564636
1772534869641983200,5.847983154296875,-0.7551310658454895,1.8337446451187134,-0.44104504585266113
1772534869651999200,5.857999267578125,-0.714599072933197,1.8372405767440796,-0.23494060337543488
1772534869662016300,5.868016357421875,-0.5983704924583435,1.5913338661193848,-0.003326554549857974
1772534869672033000,5.878032958984375,-0.44140297174453735,1.1359421014785767,0.14078614115715027
1772534869682049300,5.88804931640625,-0.23009978234767914,0.6749566197395325,0.15759548544883728
1772534869692066300,5.89806640625,-0.0003890878288075328,0.3908953070640564,0.04418530315160751
1772534869702083000,5.9080830078125,0.1651354283094406,0.24405261874198914,-0.10327152907848358
1772534869712099000,5.91809912109375,0.2523083984851837,0.19461582601070404,-0.19535112380981445
1772534869722116400,5.928116455078125,0.2854098975658417,0.22984784841537476,-0.24262675642967224
1772534869732133000,5.938133056640625,0.24904045462608337,0.4043080508708954,-0.2743940055370331
1772534869742149000,5.948149169921875,0.1564074456691742,0.630092203617096,-0.28041407465934753
1772534869752166100,5.958166259765625,0.008335161954164505,0.8055692315101624,-0.33644965291023254
1772534869762182100,5.96818212890625,-0.15296131372451782,0.8377066254615784,-0.3473736643791199
1772534869772199200,5.97819921875,-0.26814064383506775,0.7778699398040771,-0.3032064735889435
1772534869782216200,5.98821630859375,-0.3033612072467804,0.6921393275260925,-0.24105602502822876
1772534869792232200,5.998232177734375,-0.327184796333313,0.5834820866584778,-0.17278482019901276
1772534869802249200,6.008249267578125,-0.380234956741333,0.42525941133499146,-0.11487012356519699
1772534869812266000,6.018265869140625,-0.49903857707977295,0.2912749946117401,-0.11003462225198746
1772534869822282000,6.028281982421875,-0.6520422101020813,0.2792319059371948,-0.20084123313426971
1772534869832299300,6.03829931640625,-0.7743420600891113,0.3835369944572449,-0.3643167018890381
1772534869842316000,6.04831591796875,-0.8378323316574097,0.5745591521263123,-0.5029169321060181
1772534869852332000,6.05833203125,-0.8104462623596191,0.7752126455307007,-0.5442845821380615
1772534869862349300,6.068349365234375,-0.7314345240592957,0.8328511714935303,-0.47692233324050903
1772534869872366000,6.078365966796875,-0.6773369312286377,0.7716764807701111,-0.2850695550441742
1772534869882382000,6.088382080078125,-0.6350771188735962,0.545275866985321,-0.061774685978889465
1772534869892399000,6.098399169921875,-0.5464779734611511,0.23372593522071838,0.08696126192808151
1772534869902416100,6.108416015625,-0.3280135691165924,-0.06432092934846878,0.1330195665359497
1772534869912432000,6.11843212890625,0.033137980848550797,-0.34736594557762146,0.07732434570789337
1772534869922449700,6.12844970703125,0.39102262258529663,-0.5558397769927979,-0.020908743143081665
1772534869932466400,6.138466552734375,0.554254949092865,-0.4238189160823822,-0.0277357567101717
1772534869942482700,6.148482666015625,0.3565429449081421,0.07498369365930557,0.1039130836725235
1772534869952499700,6.158499755859375,-0.05714131519198418,0.6077309846878052,0.36851412057876587
1772534869962516500,6.1685166015625,-0.38490933179855347,0.4608698785305023,0.6309055089950562
1772534869972532500,6.178532470703125,-0.5826690196990967,-0.04775926470756531,0.65833979845047
1772534869982549800,6.1885498046875,-0.6251296401023865,-0.13790620863437653,0.5442970991134644
1772534869992566500,6.19856640625,-0.48598986864089966,-0.03484080359339714,0.4010888338088989
1772534870002582500,6.20858251953125,-0.37247875332832336,-0.09441199153661728,0.245672345161438
1772534870012599800,6.218599853515625,-0.41918236017227173,-0.22646935284137726,0.08710480481386185
1772534870022616600,6.228616455078125,-0.5156441926956177,-0.27362674474716187,-0.1281430572271347
1772534870032632600,6.238632568359375,-0.5637150406837463,-0.2840343713760376,-0.4735686182975769
1772534870042649600,6.248649658203125,-0.5790665745735168,-0.23958009481430054,-0.9892340898513794
1772534870052665600,6.25866552734375,-0.5051729083061218,-0.31457898020744324,-1.6116971969604492
1772534870062682600,6.2686826171875,-0.19940951466560364,-0.6035335659980774,-2.055873155593872
1772534870072699600,6.27869970703125,0.3372688293457031,-0.8900483846664429,-2.13847279548645
1772534870082715400,6.28871533203125,0.9640379548072815,-1.1662368774414062,-1.9097187519073486
1772534870092732700,6.298732666015625,1.5108258724212646,-1.4142056703567505,-1.5189858675003052
1772534870102749700,6.308749755859375,1.8464717864990234,-1.5664674043655396,-1.1294881105422974
1772534870112765400,6.318765380859375,1.9385902881622314,-1.5412615537643433,-0.81822270154953
1772534870122782700,6.32878271484375,1.7996078729629517,-1.3485432863235474,-0.5942699909210205
1772534870132799700,6.3387998046875,1.5343698263168335,-1.0585740804672241,-0.40140682458877563
1772534870142815500,6.3488154296875,1.2462035417556763,-0.8052288293838501,-0.18148483335971832
1772534870152832500,6.35883251953125,0.978205680847168,-0.731111466884613,0.109674833714962
1772534870162849800,6.368849853515625,0.72393798828125,-0.8673912882804871,0.4088713824748993
1772534870172865500,6.378865478515625,0.5120004415512085,-1.0693321228027344,0.6377000212669373
1772534870182882600,6.388882568359375,0.3737086057662964,-1.1788690090179443,0.7024680972099304
1772534870192899600,6.398899658203125,0.3511047661304474,-1.0531624555587769,0.5781989097595215
1772534870202915600,6.40891552734375,0.411169171333313,-0.684928834438324,0.30783477425575256
1772534870212932600,6.4189326171875,0.41531410813331604,-0.21351121366024017,0.011362642981112003
1772534870222949600,6.42894970703125,0.3345351219177246,0.12259116023778915,-0.21082913875579834
1772534870232965600,6.438965576171875,0.19126902520656586,0.2764188051223755,-0.319197416305542
1772534870242982700,6.448982666015625,0.03930186480283737,0.25917884707450867,-0.3338339030742645
1772534870252999400,6.45899951171875,-0.0922899842262268,0.1338302344083786,-0.33154332637786865
1772534870263015400,6.469015380859375,-0.17385728657245636,0.04426812753081322,-0.3641617000102997
1772534870273032700,6.47903271484375,-0.17515051364898682,0.007159642409533262,-0.45006754994392395
1772534870283049500,6.489049560546875,-0.12923681735992432,0.002409894485026598,-0.5586465001106262
1772534870293065500,6.4990654296875,-0.08356999605894089,0.006207562051713467,-0.6404151320457458
1772534870303082800,6.509082763671875,-0.030884146690368652,0.050104446709156036,-0.6698233485221863
1772534870313099500,6.519099609375,0.021315408870577812,0.10490777343511581,-0.6281113028526306
1772534870323115500,6.529115478515625,0.06771805882453918,0.1411837488412857,-0.504500687122345
1772534870333132500,6.539132568359375,0.12131471186876297,0.1446128487586975,-0.315046101808548
1772534870343149600,6.549149658203125,0.17375554144382477,0.133426234126091,-0.09426764398813248
1772534870353165600,6.55916552734375,0.17722830176353455,0.14279204607009888,0.11128950864076614
1772534870363182600,6.5691826171875,0.13504783809185028,0.1471811980009079,0.2695172131061554
1772534870373198600,6.579198486328125,0.09200156480073929,0.12461383640766144,0.3727029860019684
1772534870383215600,6.589215576171875,0.10623589158058167,0.1251099854707718,0.42254725098609924
1772534870393232600,6.599232666015625,0.12383592128753662,0.19924093782901764,0.4559648633003235
1772534870403248600,6.60924853515625,0.08815702050924301,0.33646056056022644,0.5150622725486755
1772534870413265700,6.619265625,-0.01429558265954256,0.5362232327461243,0.5814018845558167
1772534870423282700,6.62928271484375,-0.18011677265167236,0.7515914440155029,0.6763709783554077
1772534870433298700,6.639298583984375,-0.3477664887905121,0.7894245982170105,0.7902725338935852
1772534870443315500,6.6493154296875,-0.41425204277038574,0.5843760967254639,0.8579605221748352
1772534870453332700,6.659332763671875,-0.35387125611305237,0.23295815289020538,0.8663803339004517
1772534870463348700,6.6693486328125,-0.17240452766418457,-0.0960165411233902,0.8453270196914673
1772534870473365500,6.679365478515625,0.05480226129293442,-0.3454439342021942,0.843253493309021
1772534870483382800,6.6893828125,0.2167315036058426,-0.33506321907043457,0.901836097240448
1772534870493398800,6.699398681640625,0.21457462012767792,0.03497502952814102,1.0299333333969116
1772534870503415600,6.70941552734375,0.011172226630151272,0.6014555096626282,1.2568676471710205
1772534870513432600,6.7194326171875,-0.172690287232399,0.6181239485740662,1.4315398931503296
1772534870523448800,6.72944873046875,-0.2942665219306946,-0.1152738630771637,1.2848711013793945
1772534870533465600,6.739465576171875,-0.39536410570144653,-0.7590160965919495,0.8693247437477112
1772534870543482600,6.749482666015625,-0.34517523646354675,-1.0368218421936035,0.5519102811813354
1772534870553498600,6.75949853515625,-0.25168150663375854,-1.2461367845535278,0.45458561182022095
1772534870563515600,6.769515625,-0.30920711159706116,-1.1417131423950195,0.5059241652488708
1772534870573532700,6.77953271484375,-0.5314721465110779,-0.486897736787796,0.6205708384513855
1772534870583548700,6.789548583984375,-0.8420228362083435,0.24808411300182343,0.6278634071350098
1772534870593565700,6.799565673828125,-1.1513012647628784,0.6287041306495667,0.3291637897491455
1772534870603582700,6.809582763671875,-1.3701270818710327,0.6809442043304443,-0.33093371987342834
1772534870613598500,6.819598388671875,-1.356721043586731,0.47489941120147705,-1.1500447988510132
1772534870623615500,6.829615478515625,-1.0892469882965088,0.012909939512610435,-1.7274706363677979
1772534870633632800,6.8396328125,-0.6191953420639038,-0.4428631663322449,-1.8504823446273804
1772534870643648500,6.8496484375,-0.10769743472337723,-0.6806613802909851,-1.5658849477767944
1772534870653665500,6.85966552734375,0.3293595314025879,-0.6791819930076599,-1.062403917312622
1772534870663681500,6.869681640625,0.5588478446006775,-0.5569580793380737,-0.5714728236198425
1772534870673698600,6.879698486328125,0.5755152106285095,-0.2980031967163086,-0.2748664617538452
1772534870683715600,6.889715576171875,0.4702732264995575,-0.03756628558039665,-0.19117794930934906
1772534870693731600,6.899731689453125,0.3351380527019501,0.19762200117111206,-0.21912916004657745
1772534870703748600,6.90974853515625,0.22951015830039978,0.3506152629852295,-0.23253417015075684
1772534870713765600,6.919765625,0.13932539522647858,0.22544564306735992,-0.20063669979572296
1772534870723781600,6.92978173828125,0.12429238855838776,-0.05317506939172745,-0.13463982939720154
1772534870733798400,6.93979833984375,0.23140472173690796,-0.21823352575302124,-0.0841473713517189
1772534870743815700,6.949815673828125,0.3771930932998657,-0.1801319569349289,-0.06729248911142349
1772534870753831700,6.959831787109375,0.4244367778301239,-0.045949116349220276,-0.05927344411611557
1772534870763848400,6.969848388671875,0.36450710892677307,0.08016407489776611,-0.039213716983795166
1772534870773865700,6.97986572265625,0.24748170375823975,0.18102118372917175,-0.0132713308557868
1772534870783881700,6.9898818359375,0.08672025054693222,0.24931848049163818,-0.01022866927087307
1772534870793898500,6.9998984375,-0.10762286931276321,0.31206467747688293,-0.06584079563617706
1772534870803915500,7.00991552734375,-0.2886999845504761,0.3974083364009857,-0.18626068532466888
1772534870813931800,7.019931884765625,-0.40817683935165405,0.47910240292549133,-0.35353168845176697
1772534870823948500,7.029948486328125,-0.44140109419822693,0.5408337116241455,-0.54215407371521
1772534870833965600,7.039965576171875,-0.4252764582633972,0.5262150764465332,-0.7054905295372009
1772534870843981600,7.049981689453125,-0.4065621495246887,0.4012760519981384,-0.7889388203620911
1772534870853998600,7.05999853515625,-0.4105590283870697,0.19990113377571106,-0.7808287143707275
1772534870864015600,7.070015625,-0.44428718090057373,-0.02540202997624874,-0.7287924289703369
1772534870874031600,7.080031494140625,-0.46177640557289124,-0.1699213981628418,-0.6769204139709473
1772534870884048600,7.090048583984375,-0.4235275685787201,-0.22267408668994904,-0.6393938064575195
1772534870894065700,7.100065673828125,-0.2859475910663605,-0.21140065789222717,-0.5774194002151489
1772534870904081700,7.11008154296875,-0.08100882917642593,-0.1200861930847168,-0.4940541982650757
1772534870914098400,7.120098388671875,0.08146663010120392,0.02598606050014496,-0.3943134844303131
1772534870924115200,7.130115234375,0.14982332289218903,0.15264306962490082,-0.2723705470561981
1772534870934131200,7.140131103515625,0.1688859611749649,0.2409263253211975,-0.1030970886349678
1772534870944148200,7.150148193359375,0.11639638245105743,0.20336590707302094,0.06758463382720947
1772534870954165200,7.160165283203125,0.0015483618481084704,0.12555205821990967,0.16607871651649475
1772534870964181200,7.17018115234375,-0.06107427179813385,0.1326025128364563,0.1748034954071045
1772534870974198300,7.1801982421875,-0.00755059439688921,0.2587745785713196,0.1313321888446808
1772534870984214300,7.19021435546875,0.10373358428478241,0.35889264941215515,0.15528759360313416
1772534870994231300,7.200231201171875,0.2452092170715332,0.3208131790161133,0.3151893615722656
1772534871004248000,7.210248046875,0.38572612404823303,0.20411930978298187,0.5989052653312683
1772534871014264300,7.220264404296875,0.5086302161216736,-0.04285185784101486,0.9042462706565857
1772534871024281300,7.23028125,0.6752849817276001,-0.3556976616382599,1.208239197731018
1772534871034298000,7.240298095703125,0.8936071991920471,-0.5728374123573303,1.5129092931747437
1772534871044314000,7.250314208984375,1.0074125528335571,-0.5206565260887146,1.7862292528152466
1772534871054331400,7.260331298828125,0.8970160484313965,-0.21932516992092133,1.9573967456817627
1772534871064348200,7.27034814453125,0.6982081532478333,0.0723024234175682,1.9828603267669678
1772534871074364200,7.2803642578125,0.5365793108940125,-0.007900799624621868,1.7625389099121094
1772534871084381400,7.29038134765625,0.3170575797557831,-0.29318341612815857,1.3301347494125366
1772534871094398200,7.300398193359375,0.05042695626616478,-0.5403711199760437,0.8767235279083252
1772534871104414200,7.310414306640625,-0.1790139526128769,-0.6999804377555847,0.5449013710021973
1772534871114431200,7.32043115234375,-0.46494290232658386,-0.6324608325958252,0.37110137939453125
1772534871124448300,7.3304482421875,-0.7631346583366394,-0.2951943576335907,0.2705308198928833
1772534871134464300,7.34046435546875,-0.9576340913772583,0.28276699781417847,0.12187743932008743
1772534871144481300,7.350481201171875,-1.0870182514190674,0.8755989074707031,-0.17776307463645935
1772534871154498300,7.360498291015625,-1.1138452291488647,1.1555531024932861,-0.5673829913139343
1772534871164514300,7.370514404296875,-0.9300437569618225,0.9718570113182068,-0.8392757773399353
1772534871174531300,7.38053125,-0.5553199648857117,0.41068312525749207,-0.8684659004211426
1772534871184548000,7.390548095703125,-0.08661451935768127,-0.1970938891172409,-0.7408897876739502
1772534871194564400,7.400564453125,0.42995697259902954,-0.7299429178237915,-0.5653603076934814
1772534871204581400,7.410581298828125,0.9301204681396484,-1.12399160861969,-0.4074101150035858
1772534871214597000,7.42059716796875,1.2883896827697754,-1.1614208221435547,-0.2799112796783447
1772534871224614100,7.4306142578125,1.40169358253479,-0.8454468250274658,-0.1512579619884491
1772534871234631400,7.44063134765625,1.2678236961364746,-0.384795606136322,-0.006894924212247133
1772534871244647200,7.450647216796875,0.9839503765106201,-0.04145156964659691,0.156273752450943
1772534871254664200,7.460664306640625,0.6439358592033386,0.08973734080791473,0.3005465269088745
1772534871264681200,7.47068115234375,0.33459049463272095,0.18428941071033478,0.3669995665550232
1772534871274697200,7.480697265625,0.07272826880216599,0.2802468240261078,0.30525338649749756
1772534871284714200,7.49071435546875,-0.18548624217510223,0.32655227184295654,0.1174350157380104
1772534871294731300,7.500731201171875,-0.4178917706012726,0.2898850739002228,-0.18113836646080017
1772534871304747300,7.510747314453125,-0.5645464658737183,0.2497754842042923,-0.5538360476493835
1772534871314764300,7.520764404296875,-0.6174658536911011,0.24527792632579803,-0.9575222730636597
1772534871324781000,7.530781005859375,-0.6314605474472046,0.23586446046829224,-1.3413783311843872
1772534871334797000,7.540797119140625,-0.647640585899353,0.17704908549785614,-1.6465803384780884
1772534871344814300,7.550814453125,-0.6213117241859436,0.1055072546005249,-1.7970517873764038
1772534871354831000,7.5608310546875,-0.5543686747550964,-0.003406715579330921,-1.7715038061141968
1772534871364847000,7.57084716796875,-0.507483959197998,-0.17746959626674652,-1.5765085220336914
1772534871374864400,7.580864501953125,-0.49491173028945923,-0.3816051483154297,-1.2796968221664429
1772534871384881200,7.590881103515625,-0.4808560907840729,-0.5111631155014038,-0.9830697178840637
1772534871394897200,7.600897216796875,-0.4727989733219147,-0.48415762186050415,-0.7621825933456421
1772534871404914200,7.6109140625,-0.48838353157043457,-0.3479931354522705,-0.646447479724884
1772534871414931200,7.62093115234375,-0.4991954267024994,-0.16256414353847504,-0.6227858066558838
1772534871424947200,7.630947265625,-0.5161893367767334,0.010751181282103062,-0.6536515951156616
1772534871434964200,7.640964111328125,-0.525335431098938,0.10798639059066772,-0.6930418610572815
1772534871444981200,7.650981201171875,-0.44995811581611633,0.15187181532382965,-0.6633542776107788
1772534871454997200,7.660997314453125,-0.32393360137939453,0.11396438628435135,-0.531686007976532
1772534871465014300,7.67101416015625,-0.19525843858718872,-0.025467276573181152,-0.28534919023513794
1772534871475030300,7.6810302734375,-0.07373680174350739,-0.19762945175170898,0.03546078875660896
1772534871485047300,7.69104736328125,0.0008378304773941636,-0.32610487937927246,0.3250561058521271
1772534871495064300,7.701064208984375,-0.005756688769906759,-0.31874415278434753,0.49117451906204224
1772534871505080300,7.711080322265625,-0.07996460795402527,-0.0698845386505127,0.495675265789032
1772534871515097000,7.72109716796875,-0.19145332276821136,0.3333928883075714,0.4568093419075012
1772534871525114400,7.7311142578125,-0.3138657808303833,0.581963837146759,0.47407570481300354
1772534871535130400,7.74113037109375,-0.39779290556907654,0.5938093066215515,0.5919346809387207
1772534871545147100,7.751147216796875,-0.42911621928215027,0.4120655953884125,0.7768427729606628
1772534871555164400,7.761164306640625,-0.47073689103126526,0.10009410977363586,0.9327529668807983
1772534871565180400,7.771180419921875,-0.43678638339042664,-0.13976748287677765,1.003385066986084
1772534871575197200,7.781197265625,-0.23874279856681824,-0.26928606629371643,0.9744796752929688
1772534871585214200,7.791214111328125,0.023431289941072464,-0.1613643914461136,0.951383113861084
1772534871595230500,7.80123046875,0.20420852303504944,0.0914851725101471,1.0288033485412598
1772534871605247200,7.811247314453125,0.2594510018825531,-0.061156030744314194,1.1509777307510376
1772534871615264300,7.82126416015625,0.26027604937553406,-1.0320303440093994,1.0259604454040527
1772534871625280300,7.8312802734375,0.42593079805374146,-2.0943307876586914,0.5434449315071106
1772534871635297300,7.84129736328125,0.8748460412025452,-2.3374481201171875,0.10064192116260529
1772534871645314300,7.851314208984375,1.2131495475769043,-2.1033427715301514,0.09283886104822159
1772534871655330300,7.861330322265625,1.0633525848388672,-1.5954502820968628,0.5155560374259949
1772534871665347300,7.871347412109375,0.5878525972366333,-0.7017368078231812,1.0922448635101318
1772534871675364400,7.8813642578125,0.042339202016592026,0.37790733575820923,1.3493062257766724
1772534871685380000,7.891380126953125,-0.43703725934028625,1.4063043594360352,1.1477915048599243
1772534871695397000,7.901397216796875,-0.8003376722335815,2.0080835819244385,0.7309442162513733
1772534871705413400,7.911413330078125,-0.9591731429100037,1.9910234212875366,0.38998478651046753
1772534871715430100,7.92143017578125,-0.9873078465461731,1.5846657752990723,0.26214799284935
1772534871725447200,7.931447265625,-0.8470258116722107,1.0566091537475586,0.2791730463504791
1772534871735463200,7.941463134765625,-0.4949740469455719,0.6404308676719666,0.425924688577652
1772534871745480200,7.951480224609375,-0.011120295152068138,0.5090078711509705,0.6728202104568481
1772534871755497200,7.961497314453125,0.4397563338279724,0.6869791746139526,0.9732849597930908
1772534871765513200,7.97151318359375,0.7150800228118896,0.9879741668701172,1.2685328722000122
1772534871775530200,7.9815302734375,0.762798011302948,1.214669942855835,1.5254395008087158
1772534871785547300,7.99154736328125,0.5696282982826233,1.258763074874878,1.7412676811218262
1772534871795563300,8.001563232421875,0.19933654367923737,1.1258684396743774,1.858435869216919
1772534871805580000,8.011580078125,-0.22226876020431519,0.9175258278846741,1.795457363128662
1772534871815597300,8.021597412109376,-0.5448316335678101,0.7581353783607483,1.4961543083190918
1772534871825613300,8.03161328125,-0.6828499436378479,0.6854009628295898,0.9945758581161499
1772534871835630000,8.041630126953125,-0.6948986053466797,0.617470383644104,0.36897456645965576
1772534871845647400,8.0516474609375,-0.6679165363311768,0.5892515778541565,-0.3202584385871887
1772534871855663400,8.061663330078124,-0.6359466314315796,0.5868488550186157,-0.9428938031196594
1772534871865680100,8.07168017578125,-0.6160591840744019,0.5869455337524414,-1.3800675868988037
1772534871875697200,8.081697265625,-0.5928335189819336,0.6324014067649841,-1.580558180809021
1772534871885713400,8.09171337890625,-0.5996695756912231,0.7154150605201721,-1.5831466913223267
1772534871895730200,8.101730224609375,-0.6809460520744324,0.7644076347351074,-1.4306786060333252
1772534871905746200,8.11174609375,-0.7739039659500122,0.7720117568969727,-1.2027477025985718
1772534871915763200,8.12176318359375,-0.8097785711288452,0.730589747428894,-0.9738189578056335
1772534871925779700,8.13177978515625,-0.8212634921073914,0.5752694010734558,-0.7876735329627991
1772534871935796000,8.1417958984375,-0.8330559730529785,0.2808937132358551,-0.6562122106552124
1772534871945813000,8.15181298828125,-0.7840529680252075,-0.06389535963535309,-0.5874312520027161
1772534871955829800,8.161829833984376,-0.6632837057113647,-0.33473536372184753,-0.6172744035720825
1772534871965845800,8.171845703125,-0.49619030952453613,-0.4584203064441681,-0.7227497100830078
1772534871975863000,8.181863037109375,-0.27642226219177246,-0.4983157813549042,-0.855808675289154
1772534871985879800,8.1918798828125,-0.08797832578420639,-0.45196667313575745,-0.9242907762527466
1772534871995895800,8.201895751953124,0.008113852702081203,-0.39227429032325745,-0.9114642143249512
1772534872005913000,8.2119130859375,-0.007892011664807796,-0.36377421021461487,-0.8254331946372986
1772534872015929900,8.221929931640625,-0.10842447727918625,-0.411846399307251,-0.6839993596076965
1772534872025945900,8.23194580078125,-0.24896907806396484,-0.4715512692928314,-0.550287127494812
1772534872035963000,8.241962890625,-0.3689812421798706,-0.45550042390823364,-0.4288719892501831
1772534872045980000,8.25197998046875,-0.4060969054698944,-0.4532684087753296,-0.3096950054168701
1772534872055996000,8.261995849609375,-0.3615318238735199,-0.45524686574935913,-0.21370242536067963
1772534872066013000,8.272012939453125,-0.3121302127838135,-0.34135201573371887,-0.172690287232399
1772534872076030000,8.282030029296875,-0.3051910698413849,-0.043947216123342514,-0.13691604137420654
1772534872086046000,8.2920458984375,-0.2972196936607361,0.15567028522491455,-0.0549178421497345
1772534872096063000,8.30206298828125,-0.32521751523017883,0.09776756912469864,0.05278811231255531
1772534872106079700,8.312079833984376,-0.40315064787864685,-0.2502724230289459,0.151974618434906
1772534872116096000,8.322095947265625,-0.4044119417667389,-0.8366506695747375,0.22035260498523712
1772534872126113000,8.332113037109375,-0.2778925895690918,-1.2544349431991577,0.28507915139198303
1772534872136129000,8.34212890625,-0.12429478764533997,-1.102609395980835,0.5052346587181091
1772534872146145800,8.352145751953126,-0.12780776619911194,-0.6878870725631714,0.926277220249176
1772534872156163000,8.3621630859375,-0.26315492391586304,-0.6632328629493713,1.3956170082092285
1772534872166178800,8.3721787109375,-0.4324030876159668,-1.0715662240982056,1.489273190498352
1772534872176195800,8.38219580078125,-0.5936452150344849,-1.3832926750183105,0.9427952170372009
1772534872186213000,8.392213134765624,-0.7655680179595947,-1.250472068786621,0.15963786840438843
1772534872196228900,8.402228759765626,-0.8995079398155212,-0.8691028952598572,-0.32908228039741516
1772534872206246000,8.412245849609375,-1.125317096710205,-0.5780622959136963,-0.4603244662284851
1772534872216263000,8.422262939453125,-1.3494268655776978,-0.24659113585948944,-0.3313260078430176
1772534872226279000,8.43227880859375,-1.336998462677002,0.29184624552726746,-0.14296594262123108
1772534872236296000,8.4422958984375,-1.061151385307312,0.7960090041160583,-0.04529770836234093
1772534872246313000,8.45231298828125,-0.617612361907959,0.841389000415802,-0.05440704897046089
1772534872256328700,8.46232861328125,-0.16491864621639252,0.5726187825202942,-0.06548579782247543
1772534872266346000,8.472345947265625,0.21651047468185425,0.18872171640396118,-0.03580593317747116
1772534872276363000,8.482363037109375,0.5112659335136414,-0.25863873958587646,-0.003082609036937356
1772534872286378800,8.492378662109376,0.7212644219398499,-0.6485284566879272,0.007537544704973698
1772534872296396000,8.50239599609375,0.8048970103263855,-0.7414680123329163,-0.01335575245320797
1772534872306413000,8.5124130859375,0.7428736090660095,-0.4795418381690979,-0.0285890344530344
1772534872316428800,8.5224287109375,0.5834006071090698,-0.0810122936964035,0.0023672839161008596
1772534872326445800,8.53244580078125,0.41292497515678406,0.3196922540664673,0.06217868626117706
1772534872336462000,8.542462158203126,0.3255663812160492,0.6869924664497375,0.16034892201423645
1772534872346478800,8.552478759765625,0.39039358496665955,0.9901699423789978,0.3119083642959595
1772534872356496000,8.562495849609375,0.41187384724617004,1.015052080154419,0.4631114602088928
1772534872366511900,8.572511962890625,0.21568861603736877,0.8626521825790405,0.6383562684059143
1772534872376529000,8.58252880859375,-0.07589290291070938,0.7385510206222534,0.7490888833999634
1772534872386546000,8.5925458984375,-0.3080100119113922,0.6718968749046326,0.6744844317436218
1772534872396562000,8.60256201171875,-0.4740613102912903,0.5948524475097656,0.4067126214504242
1772534872406579000,8.612578857421875,-0.5295999646186829,0.5929173827171326,0.0195529293268919
1772534872416596000,8.622595947265625,-0.4968886077404022,0.5613778233528137,-0.38431066274642944
1772534872426612000,8.632612060546874,-0.40806683897972107,0.5034644603729248,-0.6810890436172485
1772534872436628700,8.642628662109376,-0.27357882261276245,0.4800843298435211,-0.8401048183441162
1772534872446646000,8.65264599609375,-0.1330011934041977,0.4862327575683594,-0.8232595324516296
1772534872456662000,8.662662109375,-0.03297446295619011,0.48063746094703674,-0.6767259836196899
1772534872466678800,8.6726787109375,-0.02401851676404476,0.4478507339954376,-0.5004913210868835
1772534872476696000,8.682696044921874,-0.08281232416629791,0.3528698980808258,-0.3695809841156006
1772534872486712000,8.692712158203125,-0.14872050285339355,0.24621136486530304,-0.29441672563552856
1772534872496728800,8.702728759765625,-0.18543004989624023,0.19485577940940857,-0.27612611651420593
1772534872506745900,8.712745849609375,-0.21510352194309235,0.12836197018623352,-0.31083616614341736
1772534872516762000,8.72276220703125,-0.24468031525611877,0.037516750395298004,-0.36406210064888
1772534872526779000,8.73277880859375,-0.30617642402648926,-0.03808719664812088,-0.3853847086429596
1772534872536796000,8.7427958984375,-0.43092504143714905,-0.05072150006890297,-0.32869771122932434
1772534872546812000,8.75281201171875,-0.576748251914978,-0.08475004136562347,-0.2355576604604721
1772534872556829000,8.762828857421875,-0.6977120041847229,-0.24464356899261475,-0.15837392210960388
1772534872566845000,8.772844970703124,-0.7752741575241089,-0.48793157935142517,-0.12660853564739227
1772534872576862000,8.782862060546876,-0.8168284893035889,-0.7268456220626831,-0.1530819535255432
1772534872586879000,8.79287890625,-0.8845788240432739,-0.8822727799415588,-0.24351945519447327
1772534872596895000,8.80289501953125,-0.9567488431930542,-0.9221845269203186,-0.4028305411338806
1772534872606912000,8.812912109375,-1.0170295238494873,-0.8638181090354919,-0.5501219630241394
1772534872616928800,8.8229287109375,-1.0640947818756104,-0.8987390995025635,-0.6724777221679688
1772534872626945000,8.832945068359376,-1.0880872011184692,-1.071367621421814,-0.7253769040107727
1772534872636962000,8.842962158203125,-1.0979182720184326,-1.3299511671066284,-0.6221913695335388
1772534872646978800,8.852978759765625,-1.1058608293533325,-1.606736421585083,-0.3543330430984497
1772534872656994800,8.862994873046874,-1.1611504554748535,-1.7880103588104248,0.05928835645318031
1772534872667012000,8.87301220703125,-1.3108558654785156,-1.4871309995651245,0.5228847861289978
1772534872677028900,8.88302880859375,-1.4875493049621582,-0.8807611465454102,0.8792828321456909
1772534872687044900,8.893044921875,-1.5870569944381714,-0.31869569420814514,1.0967909097671509
1772534872697062000,8.903061767578125,-1.5238533020019531,0.005682653281837702,1.1984338760375977
1772534872707079000,8.913078857421874,-1.4022594690322876,0.06527514010667801,1.1772849559783936
1772534872717095000,8.923094970703126,-1.261687994003296,0.22918525338172913,1.0225433111190796
1772534872727112000,8.93311181640625,-1.078777551651001,0.05742121487855911,0.7220282554626465
1772534872737128000,8.9431279296875,-0.9931700229644775,-0.4605926275253296,0.3196144700050354
1772534872747145000,8.95314501953125,-1.0160186290740967,-0.5724738836288452,-0.07637626677751541
1772534872757161700,8.96316162109375,-1.0634132623672485,-0.44390472769737244,-0.3951806128025055
1772534872767177700,8.973177734375,-1.0610928535461426,-0.10604920238256454,-0.594458281993866
1772534872777195000,8.983195068359375,-0.9073362946510315,0.5779888033866882,-0.7104749083518982
1772534872787211800,8.993211669921875,-0.5669377446174622,1.2988841533660889,-0.7921434044837952
1772534872797227800,9.003227783203124,-0.15104304254055023,1.2628095149993896,-0.8778902888298035
1772534872807245000,9.0132451171875,0.1332683116197586,0.5654471516609192,-0.9478368759155273
1772534872817261800,9.02326171875,0.21641379594802856,-0.238329216837883,-0.8764463067054749
1772534872827277800,9.03327783203125,0.17414890229701996,-0.727598249912262,-0.6065732836723328
1772534872837294800,9.043294921875,0.1534540057182312,-0.9338036179542542,-0.15895450115203857
1772534872847312000,9.053311767578125,0.30958715081214905,-0.706752598285675,0.33898231387138367
1772534872857327900,9.063327880859376,0.7803725004196167,-0.16169409453868866,0.6396971344947815
1772534872867345000,9.073344970703126,1.4584940671920776,0.3699157238006592,0.7074000239372253
1772534872877362000,9.08336181640625,1.8940998315811157,0.6560183167457581,0.42176562547683716
1772534872887378000,9.0933779296875,1.8185222148895264,0.9345154762268066,0.011656123213469982
1772534872897395000,9.10339501953125,1.5639392137527466,0.9348960518836975,-0.2956114113330841
1772534872907411700,9.11341162109375,1.380173921585083,0.9764940738677979,-0.5698424577713013
1772534872917428000,9.123427978515625,1.3243132829666138,1.097801923751831,-0.8409298658370972
1772534872927445200,9.1334453125,1.4952312707901,0.8934080004692078,-1.1146764755249023
1772534872937461200,9.143461181640625,1.7854715585708618,0.8883583545684814,-1.111101746559143
1772534872947478300,9.153478271484374,1.7977495193481445,1.6790367364883423,-0.5108909606933594
1772534872957495300,9.163495361328126,1.5020830631256104,2.498417615890503,0.5464385747909546
1772534872967511300,9.17351123046875,1.264880657196045,1.266225814819336,1.2561219930648804
1772534872977528300,9.1835283203125,1.122758388519287,-0.23877635598182678,1.4986909627914429
1772534872987545300,9.19354541015625,1.1111485958099365,-0.923952579498291,1.5608962774276733
1772534872997561300,9.203561279296874,1.1654168367385864,-1.0626933574676514,1.5467407703399658
1772534873007578000,9.213578125,1.172153115272522,-1.0821232795715332,1.3257173299789429
1772534873017595400,9.223595458984375,1.105162262916565,-0.9080207347869873,0.9002578854560852
1772534873027611100,9.233611083984375,0.9614735841751099,-0.3837894797325134,0.31109529733657837
1772534873037628200,9.243628173828125,0.7988548278808594,0.20879343152046204,-0.3378600776195526
1772534873047645400,9.2536455078125,0.6415075659751892,0.5881900191307068,-0.8912401795387268
1772534873057661200,9.2636611328125,0.4937649667263031,0.7073702216148376,-1.2095725536346436
1772534873067678200,9.27367822265625,0.33819136023521423,0.6241573095321655,-1.204745888710022
1772534873077695200,9.2836953125,0.12851004302501678,0.4888319969177246,-0.9953210353851318
1772534873087711200,9.293711181640624,-0.12556298077106476,0.27101659774780273,-0.6980262398719788
1772534873097728300,9.303728271484376,-0.3189830482006073,0.03856576979160309,-0.35427126288414
1772534873107745300,9.313745361328126,-0.436688631772995,-0.09061698615550995,0.01040656864643097
1772534873117761000,9.323760986328125,-0.47948217391967773,-0.21979521214962006,0.28697797656059265
1772534873127778300,9.3337783203125,-0.44671010971069336,-0.4241400957107544,0.38725584745407104
1772534873137794300,9.343794189453124,-0.4259449243545532,-0.5675361156463623,0.34271660447120667
1772534873147811000,9.35381103515625,-0.45578378438949585,-0.5206077694892883,0.21093407273292542
1772534873157828400,9.363828369140625,-0.46739035844802856,-0.4235653877258301,0.03111078217625618
1772534873167844400,9.37384423828125,-0.38092711567878723,-0.3828184902667999,-0.14518968760967255
1772534873177861000,9.383861083984375,-0.24782603979110718,-0.42939263582229614,-0.28152674436569214
1772534873187878100,9.393878173828124,-0.1347024142742157,-0.5873689651489258,-0.39101436734199524
1772534873197894400,9.403894287109376,-0.08037260174751282,-0.7207677364349365,-0.42590203881263733
1772534873207911200,9.4139111328125,-0.1391373872756958,-0.7867129445075989,-0.36894047260284424
1772534873217928200,9.42392822265625,-0.4017612934112549,-0.6944546699523926,-0.24116627871990204
1772534873227944200,9.433944091796874,-0.8784735202789307,-0.5275165438652039,-0.06832099705934525
1772534873237961200,9.443961181640624,-1.4668360948562622,-0.190270334482193,0.14715589582920074
1772534873247978200,9.453978271484376,-1.9888505935668945,0.097757987678051,0.33703795075416565
1772534873257994200,9.463994140625,-2.2530601024627686,-0.10872301459312439,0.36136218905448914
1772534873268011300,9.47401123046875,-2.153362274169922,-0.6235852837562561,0.1947718858718872
1772534873278028300,9.4840283203125,-1.7220311164855957,-1.1589834690093994,-0.044248953461647034
1772534873288044300,9.494044189453126,-1.259594202041626,-1.6994789838790894,-0.3105115294456482
1772534873298061000,9.50406103515625,-0.8421474695205688,-1.8950766324996948,-0.40785858035087585
1772534873308077300,9.514077392578125,-0.5327688455581665,-1.9675508737564087,-0.41643238067626953
1772534873318094300,9.52409423828125,-0.2585732340812683,-1.5905181169509888,-0.24865934252738953
1772534873328111000,9.534111083984374,-0.07493336498737335,-1.1302874088287354,-0.0211806520819664
1772534873338127000,9.544127197265626,0.07087896764278412,-0.5603370666503906,0.22855567932128906
1772534873348144400,9.554144287109375,0.3177899420261383,-0.1301678568124771,0.46695226430892944
1772534873358161200,9.5641611328125,0.5931219458580017,-0.027714451774954796,0.6462005972862244
1772534873368177200,9.57417724609375,0.8185646533966064,-0.19549866020679474,0.7690977454185486
1772534873378194400,9.5841943359375,0.9196438193321228,-0.7037363052368164,0.8493398427963257
1772534873388211200,9.594211181640626,0.8545045256614685,-1.1332128047943115,0.9029932022094727
1772534873398227200,9.604227294921875,0.6599006652832031,-1.1336588859558105,0.9635881185531616
1772534873408244200,9.614244140625,0.44808536767959595,-0.9524606466293335,0.9563618898391724
1772534873418261200,9.62426123046875,0.2692527770996094,-1.3338218927383423,0.6800594925880432
1772534873428277200,9.63427734375,0.14487463235855103,-1.6955262422561646,0.3086846172809601
1772534873438294300,9.644294189453126,0.06342504173517227,-1.601047396659851,0.09373261779546738
1772534873448311300,9.654311279296875,0.018097776919603348,-1.192777395248413,0.03837322071194649
1772534873458327300,9.664327392578125,-0.04145423322916031,-0.7317184209823608,0.06053578108549118
1772534873468344300,9.67434423828125,-0.1732460856437683,-0.31322261691093445,0.08990565687417984
1772534873478361000,9.684361083984374,-0.31600430607795715,-0.07573097944259644,0.08153613656759262
1772534873488377300,9.69437744140625,-0.4581875503063202,0.047457531094551086,-0.016171779483556747
1772534873498394400,9.704394287109375,-0.5785610675811768,0.08120590448379517,-0.1533794403076172
1772534873508411100,9.7144111328125,-0.7351424694061279,0.06696305423974991,-0.1577502191066742
1772534873518427100,9.72442724609375,-0.912675142288208,0.10164220631122589,-0.021077055484056473
1772534873528444400,9.7344443359375,-1.0445809364318848,0.2146286815404892,0.10099159181118011
1772534873538461200,9.744461181640625,-1.122908592224121,0.399179607629776,0.1784387230873108
1772534873548477200,9.754477294921875,-1.1772264242172241,0.6957710981369019,0.2536136209964752
1772534873558494200,9.764494140625,-1.1988041400909424,1.0337016582489014,0.3218850791454315
1772534873568510200,9.77451025390625,-1.172031044960022,1.3051155805587769,0.3290886878967285
1772534873578527200,9.78452734375,-1.0584920644760132,1.4724010229110718,0.25126391649246216
1772534873588544300,9.794544189453125,-0.8733266592025757,1.5131747722625732,0.09877797216176987
1772534873598560300,9.804560302734375,-0.6686356067657471,1.5213384628295898,-0.0655374675989151
1772534873608577300,9.814577392578125,-0.4027967154979706,1.6316505670547485,-0.2660447359085083
1772534873618594000,9.824593994140624,-0.05896291881799698,1.8310436010360718,-0.5078288912773132
1772534873628610000,9.834610107421875,0.2738967835903168,1.9410886764526367,-0.6869003176689148
1772534873638627300,9.84462744140625,0.5938625335693359,1.975966215133667,-0.7851023077964783
1772534873648644000,9.85464404296875,0.8356704115867615,2.0642220973968506,-0.7916485667228699
1772534873658660000,9.86466015625,0.9389746785163879,2.2646212577819824,-0.7184311151504517
1772534873668677400,9.874677490234374,0.9079205989837646,2.643183708190918,-0.6209807395935059
1772534873678694100,9.884694091796876,0.7773184180259705,3.152493953704834,-0.528924822807312
1772534873688710100,9.894710205078125,0.618654727935791,3.6048085689544678,-0.3864566385746002
1772534873698727200,9.90472705078125,0.40351125597953796,3.397706985473633,-0.28036534786224365
1772534873708743400,9.914743408203124,0.20443516969680786,2.2828288078308105,-0.28598859906196594
1772534873718760200,9.92476025390625,0.18255490064620972,1.1089794635772705,-0.2502519190311432
1772534873728777200,9.934777099609375,0.33697348833084106,0.4964374601840973,-0.09512411803007126
1772534873738793200,9.944793212890625,0.5710309743881226,0.05277746170759201,0.0659680962562561
1772534873748810200,9.954810302734375,0.7891665101051331,-0.8056157827377319,0.13505688309669495
1772534873758827300,9.9648271484375,0.8984829187393188,-1.875049114227295,0.050515636801719666
1772534873768843300,9.97484326171875,0.7628270387649536,-1.0635930299758911,-0.31347349286079407
1772534873778860300,9.9848603515625,0.4815775454044342,-1.3351120948791504,-0.5196381211280823
1772534873788877300,9.994877197265625,0.1916527897119522,-0.8223490118980408,-0.4059520363807678
1772534873798893300,10.004893310546874,0.006401173770427704,-0.13810913264751434,-0.07462896406650543
1772534873808910000,10.01491015625,0.021495705470442772,0.13283847272396088,0.2360796481370926
1772534873818927400,10.02492724609375,0.2576104998588562,0.13494956493377686,0.5256574153900146
1772534873828943400,10.034943359375,0.6384076476097107,-0.0003174488083459437,0.773857057094574
1772534873838960000,10.044960205078125,0.992767333984375,-0.2526248097419739,0.8893527984619141
1772534873848977400,10.054977294921875,1.1589927673339844,-0.4484254717826843,0.8601751923561096
1772534873858993400,10.064993408203126,1.1391165256500244,-0.5776071548461914,0.7479677200317383
1772534873869010200,10.07501025390625,0.9309971928596497,-0.7035863995552063,0.5458723902702332
1772534873879027200,10.085027099609375,0.5995950102806091,-0.8349468111991882,0.19960658252239227
1772534873889043500,10.09504345703125,0.30479317903518677,-1.059438705444336,-0.33153000473976135
1772534873899060200,10.105060302734374,0.12041402608156204,-1.397815465927124,-1.0178660154342651
1772534873909076200,10.115076171875,0.08548054844141006,-1.7742877006530762,-1.6817207336425781
1772534873919093500,10.125093505859375,0.21104300022125244,-1.8463586568832397,-2.0555315017700195
1772534873929110500,10.135110595703125,0.4311031997203827,-1.486648678779602,-2.0598983764648438
1772534873939126800,10.145126708984375,0.6766958832740784,-0.8092299699783325,-1.8090999126434326
1772534873949143600,10.1551435546875,0.951668918132782,-0.14631779491901398,-1.3983159065246582
1772534873959160600,10.16516064453125,1.133680820465088,0.17877960205078125,-1.0771658420562744
1772534873969176600,10.175176513671875,1.207349419593811,0.2835480868816376,-0.9201844930648804
1772534873979193600,10.185193603515625,1.319529414176941,0.3126271367073059,-0.731113612651825
1772534873989210600,10.195210693359375,1.3926169872283936,0.26050055027008057,-0.49987292289733887
1772534873999226600,10.2052265625,1.348282814025879,0.07813768088817596,-0.20851032435894012
1772534874009243600,10.21524365234375,1.1836895942687988,-0.25065407156944275,0.1312597543001175
1772534874019260700,10.2252607421875,0.8634151816368103,-0.6512169241905212,0.3463704586029053
1772534874029276700,10.235276611328125,0.413075715303421,-1.0282385349273682,0.4534638822078705
1772534874039293400,10.24529345703125,0.06369056552648544,-1.3307265043258667,0.48805302381515503
1772534874049310700,10.255310791015624,-0.0889919251203537,-1.49075448513031,0.4773503243923187
1772534874059326700,10.26532666015625,-0.07769106328487396,-1.4294229745864868,0.44871655106544495
1772534874069343500,10.275343505859375,0.0732707530260086,-1.1626874208450317,0.4462227523326874
1772534874079359500,10.285359375,0.3276503086090088,-0.83945631980896,0.5088350176811218
1772534874089376800,10.295376708984374,0.6201831102371216,-0.6027431488037109,0.6378962993621826
1772534874099393500,10.3053935546875,0.8962000608444214,-0.5012540221214294,0.772056519985199
1772534874109409500,10.315409423828125,1.0934408903121948,-0.5563178062438965,0.8793829679489136
1772534874119426800,10.3254267578125,1.1564393043518066,-0.6723381876945496,0.916194498538971
1772534874129443600,10.335443603515625,1.075782060623169,-0.7037927508354187,0.8766127824783325
1772534874139459600,10.34545947265625,0.8917642831802368,-0.6227277517318726,0.763681173324585
1772534874149476600,10.3554765625,0.6942160725593567,-0.4678630828857422,0.5793920159339905
1772534874159493600,10.36549365234375,0.5903639793395996,-0.16169355809688568,0.37229713797569275
1772534874169509600,10.375509521484375,0.6022395491600037,0.037286385893821716,0.2533281445503235
1772534874179526700,10.385526611328125,0.6269863843917847,0.27609390020370483,0.2713228464126587
1772534874189543700,10.395543701171874,0.5720720291137695,0.6402087211608887,0.37119433283805847
1772534874199559700,10.4055595703125,0.4206324517726898,1.0623480081558228,0.4848891794681549
1772534874209576700,10.41557666015625,0.21618236601352692,1.502259373664856,0.5748893618583679
1772534874219593500,10.425593505859375,0.034204307943582535,1.9721863269805908,0.6220582127571106
1772534874229609700,10.435609619140624,-0.07553310692310333,2.4103734493255615,0.6186038255691528
1772534874239626800,10.445626708984374,-0.11146926879882812,2.778965473175049,0.5571796298027039
1772534874249642500,10.455642578125,-0.12028886377811432,3.0950965881347656,0.4052305817604065
1772534874259659500,10.465659423828125,-0.1189144030213356,3.129696846008301,0.12154214084148407
1772534874269676800,10.4756767578125,-0.09957879036664963,2.5119285583496094,-0.2846178710460663
1772534874279692500,10.485692626953124,-0.04435627907514572,1.419783592224121,-0.7623168230056763
1772534874289709600,10.49570947265625,0.12034904956817627,0.561797022819519,-1.1384934186935425
1772534874299726800,10.505726806640626,0.3555527627468109,0.22697162628173828,-1.2647905349731445
1772534874309742600,10.51574267578125,0.5510761737823486,0.28065431118011475,-1.14018976688385
1772534874319759600,10.525759521484375,0.5728102326393127,0.08014996349811554,-0.8276806473731995
1772534874329776600,10.535776611328124,0.2796635925769806,-0.4295947849750519,-0.41145145893096924
1772534874339792600,10.545792724609376,-0.18304705619812012,-0.4773719012737274,0.18721330165863037
1772534874349809700,10.5558095703125,-0.5206913948059082,-0.09748847037553787,0.955038845539093
1772534874359826700,10.56582666015625,-0.5666871070861816,0.04927167668938637,1.6372277736663818
1772534874369842400,10.575842529296875,-0.3807806372642517,-0.23717500269412994,1.9296330213546753
1772534874379859700,10.585859619140624,-0.12675261497497559,-0.8292050361633301,1.7395195960998535
1772534874389876500,10.59587646484375,0.0497201532125473,-1.489405632019043,1.232399344444275
1772534874399892500,10.605892578125,0.11181414872407913,-2.1457769870758057,0.6358726024627686
1772534874409909800,10.61590966796875,0.12265854328870773,-2.6492860317230225,0.09807436913251877
1772534874419925800,10.62592578125,0.13209359347820282,-2.7345454692840576,-0.3863133490085602
1772534874429942500,10.635942626953126,0.18700078129768372,-2.524280071258545,-0.8699572682380676
1772534874439959600,10.64595947265625,0.329500675201416,-2.081425905227661,-1.286412000656128
1772534874449975800,10.655975830078125,0.4491786062717438,-1.4270511865615845,-1.5199531316757202
1772534874459992600,10.66599267578125,0.4556058645248413,-0.8369202017784119,-1.5008387565612793
1772534874470009600,10.676009521484374,0.34176719188690186,-0.6818478107452393,-1.1381194591522217
1772534874480025600,10.686025634765626,0.239802747964859,-0.6612112522125244,-0.45952871441841125
1772534874490042600,10.696042724609375,0.28075897693634033,-0.7747881412506104,0.38397589325904846
1772534874500059600,10.7060595703125,0.37814784049987793,-0.9556753635406494,1.1436750888824463
1772534874510075600,10.71607568359375,0.44323229789733887,-1.0192798376083374,1.6277320384979248
1772534874520092700,10.7260927734375,0.1923537254333496,-0.8207007646560669,1.4876958131790161
1772534874530109700,10.736109619140626,-0.17864377796649933,-0.4486353099346161,0.9132589101791382
1772534874540125700,10.746125732421875,-0.34610894322395325,0.02449415810406208,0.2654218077659607
1772534874550142500,10.756142578125,-0.3060206472873688,0.5836818218231201,-0.2628241777420044
1772534874560159700,10.76615966796875,-0.16133803129196167,1.2248485088348389,-0.5850427150726318
1772534874570175700,10.77617578125,0.024272050708532333,1.7119572162628174,-0.6636227369308472
1772534874580192500,10.786192626953126,0.18746230006217957,1.8178492784500122,-0.5628287196159363
1772534874590208500,10.79620849609375,0.2987387478351593,1.4742679595947266,-0.3457470238208771
1772534874600225800,10.806225830078125,0.30217796564102173,0.7570024728775024,-0.092052161693573
1772534874610242600,10.81624267578125,0.2799600064754486,-0.08107594400644302,0.17907947301864624
1772534874620258600,10.826258544921876,0.330583781003952,-0.6081399917602539,0.46430614590644836
1772534874630275800,10.83627587890625,0.41811230778694153,-0.5860390067100525,0.6474781036376953
1772534874640292600,10.846292724609375,0.5270938873291016,-0.27152976393699646,0.6452271938323975
1772534874650308600,10.85630859375,0.6239799857139587,0.11024368554353714,0.4630161225795746
1772534874660325600,10.86632568359375,0.7204117178916931,0.6073176264762878,0.19505417346954346
1772534874670342700,10.8763427734375,0.8333814144134521,1.2103755474090576,0.05378333851695061
1772534874680358700,10.886358642578125,0.9349583387374878,1.8201485872268677,0.05733120068907738
1772534874690375700,10.896375732421875,0.9539358019828796,2.262906789779663,0.1421760469675064
1772534874700392700,10.906392822265625,0.8674954175949097,2.3854360580444336,0.26627588272094727
1772534874710408700,10.91640869140625,0.7065009474754333,2.176274299621582,0.3768508732318878
1772534874720425700,10.92642578125,0.531171977519989,1.8776243925094604,0.5705977082252502
1772534874730441500,10.93644140625,0.24461853504180908,1.816837191581726,0.841532289981842
1772534874740458800,10.946458740234375,-0.02532293274998665,1.754345417022705,0.8927246332168579
1772534874750475500,10.9564755859375,-0.10967563092708588,1.2842631340026855,0.8167576789855957
1772534874760491500,10.966491455078126,-0.1107102707028389,0.5999143123626709,0.6439664363861084
1772534874770508500,10.976508544921876,-0.17911356687545776,0.12550519406795502,0.3655654489994049
1772534874780525600,10.986525634765625,-0.25567811727523804,0.11884170025587082,0.07783487439155579
1772534874790541600,10.99654150390625,-0.2634870409965515,0.48603513836860657,-0.136264368891716
1772534874800558600,11.00655859375,-0.23024305701255798,1.0076549053192139,-0.270624041557312
1772534874810575600,11.01657568359375,-0.22945262491703033,1.3780311346054077,-0.3508267402648926
