time,seconds_elapsed,z,y,x
1772533397660772600,0.244772705078125,0,0,0
1772533397670692600,0.254692626953125,-0.9168901443481445,0.48967838287353516,-0.6616232395172119
1772533397680627500,0.26462744140625,-1.053049087524414,1.7154302597045898,-0.4347745180130005
1772533397690540800,0.274540771484375,0.7663164138793945,2.5254387855529785,-0.33130407333374023
1772533397700467000,0.284467041015625,2.3904924392700195,2.5801844596862793,-0.5120741128921509
1772533397710397700,0.294397705078125,5.104720115661621,2.599033832550049,0.08654844760894775
1772533397720325600,0.30432568359375,7.50905704498291,2.5561318397521973,0.6445774435997009
1772533397730296000,0.314296142578125,7.385322570800781,2.488259792327881,1.721364974975586
1772533397740241200,0.3242412109375,5.364051818847656,1.6496734619140625,3.5193426609039307
1772533397750125300,0.334125244140625,4.273828506469727,-0.3161649703979492,4.07454776763916
1772533397760045800,0.3440458984375,3.9512100219726562,-2.8034892082214355,2.546375036239624
1772533397769986600,0.353986572265625,2.783203125,-4.173364162445068,0.7496191263198853
1772533397779915000,0.3639150390625,0.9399127960205078,-3.499772071838379,-0.1875966340303421
1772533397789882600,0.373882568359375,-1.1440486907958984,-1.9327583312988281,-0.26900333166122437
1772533397799827000,0.383826904296875,-3.608443260192871,-0.9228873252868652,0.07839874178171158
1772533397809719600,0.393719482421875,-5.495221138000488,-0.48612022399902344,-0.22237905859947205
1772533397819643000,0.403642822265625,-6.9202165603637695,0.10202693939208984,-0.6587560772895813
1772533397829579000,0.4135791015625,-8.734538078308105,0.28653383255004883,-0.7669252753257751
1772533397839507500,0.423507568359375,-8.946866035461426,-0.15728092193603516,-0.9140026569366455
1772533397849474800,0.433474853515625,-7.77442741394043,-1.0747156143188477,0.31202805042266846
1772533397859419000,0.4434189453125,-6.707124710083008,-1.578932762145996,2.394319772720337
1772533397869340400,0.45334033203125,-6.160198211669922,-2.309276580810547,2.6826090812683105
1772533397879275500,0.463275634765625,-6.357720375061035,-3.984402656555176,0.9691100120544434
1772533397889193200,0.473193115234375,-6.850909233093262,-5.622969150543213,-1.5215532779693604
1772533397899121200,0.48312109375,-7.740399360656738,-6.22315788269043,-3.6417808532714844
1772533397909054500,0.493054443359375,-8.910640716552734,-6.137761116027832,-3.678769826889038
1772533397918984400,0.502984375,-10.185759544372559,-5.789435863494873,-2.3047266006469727
1772533397928930800,0.512930908203125,-11.870513916015625,-5.4957146644592285,-1.5741499662399292
1772533397938867500,0.522867431640625,-13.074845314025879,-5.625025749206543,-1.935785174369812
1772533397948785000,0.532784912109375,-13.066631317138672,-6.07923698425293,-3.6937575340270996
1772533397958713900,0.5427138671875,-12.368404388427734,-7.431436538696289,-5.458208084106445
1772533397968647700,0.552647705078125,-12.188650131225586,-8.582259178161621,-6.9496893882751465
1772533397978577000,0.562576904296875,-12.514266967773438,-6.719888687133789,-5.006923198699951
1772533397988512300,0.57251220703125,-12.877763748168945,-4.630805015563965,-1.174493432044983
1772533397998442200,0.582442138671875,-12.59218978881836,-4.007448196411133,0.7893015146255493
1772533398008350500,0.5923505859375,-12.435867309570312,-2.8029944896698,1.7492119073867798
1772533398018278100,0.602278076171875,-12.530125617980957,-1.2835372686386108,2.5055041313171387
1772533398028248800,0.612248779296875,-12.10128116607666,-0.7691922187805176,2.4173583984375
1772533398038180900,0.622180908203125,-10.214828491210938,-1.7490901947021484,1.09676992893219
1772533398048100900,0.632100830078125,-8.092649459838867,-3.173525094985962,-0.8292235732078552
1772533398058031600,0.642031494140625,-6.557425498962402,-3.562345504760742,-1.9213427305221558
1772533398067964400,0.65196435546875,-4.668469429016113,-3.1192283630371094,-2.107309341430664
1772533398077895400,0.6618955078125,-2.848487377166748,-2.96441650390625,-1.6786880493164062
1772533398087831800,0.671831787109375,-2.316915512084961,-2.1621620655059814,-0.8106443881988525
1772533398097763300,0.681763427734375,-3.069549083709717,-0.9490017890930176,-0.27099114656448364
1772533398107692000,0.691692138671875,-4.24899435043335,-0.5877945423126221,-0.2550702691078186
1772533398117623300,0.701623291015625,-5.635551452636719,-0.5362016558647156,0.27224504947662354
1772533398127555600,0.7115556640625,-6.847532749176025,-0.16218480467796326,0.9441452026367188
1772533398137486800,0.72148681640625,-6.998104572296143,0.20092540979385376,0.8942732810974121
1772533398147424000,0.731424072265625,-6.222977638244629,-0.005073077976703644,-0.5254121422767639
1772533398157356000,0.74135595703125,-5.151506423950195,-0.7988050580024719,-2.7239911556243896
1772533398167280000,0.751280029296875,-4.499475002288818,-1.3897746801376343,-4.6154561042785645
1772533398177211400,0.76121142578125,-4.703243255615234,-1.2132923603057861,-5.357240676879883
1772533398187129600,0.771129638671875,-2.5605368614196777,0.1542421579360962,-4.406958103179932
1772533398197059600,0.7810595703125,1.130904197692871,2.3756749629974365,-3.698946952819824
1772533398207009500,0.791009521484375,2.0198240280151367,3.694916009902954,-1.3972493410110474
1772533398216941600,0.800941650390625,2.003424644470215,5.158854961395264,-0.400241881608963
1772533398226884600,0.810884521484375,3.700247287750244,7.029484748840332,0.07962793856859207
1772533398236817700,0.820817626953125,7.759398460388184,8.82678508758545,1.2090189456939697
1772533398246742800,0.83074267578125,13.987308502197266,9.675666809082031,2.6396257877349854
1772533398256675000,0.840675048828125,21.273479461669922,8.492270469665527,3.812939405441284
1772533398266601700,0.850601806640625,29.203968048095703,6.3540496826171875,4.249356269836426
1772533398276533500,0.860533447265625,35.50182342529297,4.57028341293335,4.282609939575195
1772533398286465000,0.870465087890625,36.602684020996094,2.1975274085998535,4.958799362182617
1772533398296396800,0.880396728515625,33.05976867675781,1.6593308448791504,6.1082539558410645
1772533398306316000,0.89031591796875,27.410167694091797,1.8507821559906006,5.991671085357666
1772533398326179300,0.910179443359375,16.932565689086914,1.034083604812622,0.4193291664123535
1772533398336100000,0.92010009765625,11.48699951171875,1.1892163753509521,-2.401416778564453
1772533398346030800,0.93003076171875,5.588115692138672,1.772240161895752,-4.381420612335205
1772533398355999000,0.9399990234375,0.3520832061767578,2.6382930278778076,-4.339715957641602
1772533398365933600,0.94993359375,-3.7510228157043457,3.5956945419311523,-2.228588581085205
1772533398375852000,0.95985205078125,-6.26383638381958,3.9230027198791504,0.8963800668716431
1772533398385785000,0.96978515625,-7.660038948059082,3.5813472270965576,2.4956064224243164
1772533398395724500,0.979724609375,-7.663957595825195,2.152468681335449,2.420029401779175
1772533398405658400,0.989658447265625,-4.692743301391602,-0.7194087505340576,0.33272993564605713
1772533398415580400,0.999580322265625,-0.637420654296875,-4.037206172943115,-1.4157798290252686
1772533398425512700,1.0095126953125,1.673701286315918,-5.176855087280273,-1.7215124368667603
1772533398435442200,1.019442138671875,1.2829055786132812,-5.079763889312744,-0.8568730354309082
1772533398445374500,1.02937451171875,-1.1295490264892578,-5.093145370483398,0.1138310432434082
1772533398455307800,1.039307861328125,-4.844551086425781,-5.20792293548584,0.34691092371940613
1772533398465240000,1.049239990234375,-8.818286895751953,-5.10913610458374,-0.5722647905349731
1772533398475171800,1.059171875,-12.152264595031738,-5.330411911010742,-2.3190598487854004
1772533398485104000,1.069104248046875,-14.901803970336914,-5.380976676940918,-3.6798319816589355
1772533398495010300,1.07901025390625,-17.036828994750977,-4.907481670379639,-4.132006645202637
1772533398504940000,1.08893994140625,-18.03839874267578,-4.732631206512451,-3.765338897705078
1772533398514898000,1.09889794921875,-17.8260555267334,-4.822963714599609,-2.910552740097046
1772533398524830500,1.10883056640625,-17.28748893737793,-4.27719783782959,-1.2620339393615723
1772533398534737000,1.11873681640625,-16.30193328857422,-3.054804801940918,0.1281328797340393
1772533398544667000,1.1286669921875,-14.91537857055664,-2.159891128540039,0.5197960734367371
1772533398554632400,1.138632568359375,-13.72669506072998,-1.7332987785339355,0.4598712623119354
1772533398564566000,1.14856591796875,-12.718725204467773,-1.4152508974075317,-0.025429032742977142
1772533398574489000,1.158489013671875,-11.989866256713867,-1.308392882347107,-0.8861340880393982
1772533398584421600,1.168421630859375,-11.305707931518555,-1.3596525192260742,-2.5114688873291016
1772533398594364000,1.178364013671875,-10.596959114074707,-0.9247223734855652,-4.460031509399414
1772533398604297500,1.18829736328125,-9.868597984313965,-0.160730242729187,-6.09499979019165
1772533398614201600,1.19820166015625,-9.251068115234375,0.39696499705314636,-7.347414016723633
1772533398624132000,1.208132080078125,-9.125238418579102,0.46390169858932495,-7.215392112731934
1772533398634079500,1.21807958984375,-8.239136695861816,0.2786537706851959,-5.871278285980225
1772533398644011800,1.22801171875,-6.3907365798950195,0.4801322817802429,-4.494804382324219
1772533398653944300,1.2379443359375,-4.121461391448975,0.18690282106399536,-3.4254536628723145
1772533398663876600,1.247876708984375,-2.57440185546875,0.039875805377960205,-0.7119868397712708
1772533398673805800,1.257805908203125,-2.017404556274414,1.1403464078903198,3.054687738418579
1772533398683737900,1.26773779296875,-0.7964568138122559,1.7177455425262451,4.95175838470459
1772533398693672700,1.277672607421875,3.7174806594848633,0.64000403881073,3.2730612754821777
1772533398703605000,1.28760498046875,5.092042922973633,-0.6968281269073486,0.18215590715408325
1772533398713548500,1.297548583984375,6.092702865600586,-1.157621145248413,-0.7504403591156006
1772533398723482000,1.307482177734375,5.956613540649414,-1.297123670578003,-0.1608697772026062
1772533398733401000,1.317401123046875,6.055271148681641,-0.2559316158294678,1.7602598667144775
1772533398743333000,1.3273330078125,6.230451583862305,1.993827223777771,5.008432388305664
1772533398753264400,1.337264404296875,6.969067573547363,4.55468225479126,8.741165161132812
1772533398763196200,1.347196044921875,8.84308910369873,6.003423690795898,11.184375762939453
1772533398773126100,1.357126220703125,11.773015022277832,5.724141597747803,10.930459022521973
1772533398783058000,1.367057861328125,16.906055450439453,4.3226637840271,7.521038055419922
1772533398792994800,1.376994873046875,24.24346923828125,2.713231325149536,1.7338430881500244
1772533398802927000,1.386927001953125,32.21804428100586,0.1762944459915161,-4.299083709716797
1772533398812859100,1.396859130859375,32.36896896362305,-3.754812717437744,-3.939140558242798
1772533398822791400,1.40679150390625,24.34437370300293,-4.233172416687012,5.296761989593506
1772533398832720600,1.416720703125,15.59221076965332,-1.5824345350265503,10.831406593322754
1772533398842652400,1.42665234375,9.999841690063477,-0.697003960609436,9.949996948242188
1772533398852580400,1.436580322265625,2.030583381652832,2.711949110031128,7.125485420227051
1772533398862511900,1.446511962890625,-5.3170390129089355,7.063262939453125,5.898231029510498
1772533398872445000,1.45644482421875,-4.410933971405029,8.084835052490234,4.725409507751465
1772533398882376400,1.46637646484375,2.6809234619140625,6.467031478881836,3.787893056869507
1772533398892292000,1.4762919921875,7.953563690185547,4.325521945953369,3.1457507610321045
1772533398902222000,1.48622216796875,9.663633346557617,2.153789520263672,0.5152263641357422
1772533398912184600,1.4961845703125,10.771355628967285,-0.3057422637939453,-3.7319915294647217
1772533398922118100,1.5061181640625,11.228836059570312,-1.487080454826355,-6.330554962158203
1772533398932046800,1.516046875,8.670284271240234,-1.2681597471237183,-6.047070026397705
1772533398941980000,1.52597998046875,3.632145881652832,-1.0796760320663452,-4.810219764709473
1772533398951875800,1.535875732421875,-2.3677964210510254,-1.0561202764511108,-3.1150429248809814
1772533398961805000,1.54580517578125,-7.887621879577637,-0.7356784343719482,-1.6287922859191895
1772533398971740700,1.55574072265625,-12.01852035522461,-0.9748525619506836,-0.685072660446167
1772533398981670400,1.56567041015625,-13.049505233764648,-2.163738489151001,-0.8097429275512695
1772533398991637500,1.575637451171875,-10.47508716583252,-4.185863494873047,-2.6828932762145996
1772533399001571000,1.585571044921875,-8.053242683410645,-6.157382965087891,-5.399394989013672
1772533399011472000,1.595471923828125,-7.698637962341309,-7.158290863037109,-7.5944719314575195
1772533399021402000,1.605402099609375,-8.866854667663574,-7.684202194213867,-8.187660217285156
1772533399031321900,1.61532177734375,-11.699235916137695,-7.328527927398682,-6.901432037353516
1772533399041251000,1.6252509765625,-15.735191345214844,-6.104282379150391,-4.358362674713135
1772533399051204400,1.635204345703125,-19.086713790893555,-4.69597053527832,-1.547959566116333
1772533399061136100,1.64513623046875,-19.24566078186035,-3.3988523483276367,0.36841845512390137
1772533399071057200,1.65505712890625,-15.928899765014648,-2.568974494934082,0.9463951587677002
1772533399080987600,1.664987548828125,-11.263592720031738,-3.089850425720215,0.805565595626831
1772533399090921000,1.6749208984375,-7.330416679382324,-4.019936561584473,-0.8684946298599243
1772533399100852000,1.68485205078125,-6.00760555267334,-4.658834457397461,-4.6805419921875
1772533399110812700,1.694812744140625,-6.662245750427246,-4.958433628082275,-7.393115520477295
1772533399120746500,1.70474658203125,-8.774229049682617,-2.849097728729248,-5.667348384857178
1772533399130678800,1.7146787109375,-11.616884231567383,-0.11398661136627197,-1.8758885860443115
1772533399140612600,1.724612548828125,-11.95145034790039,1.2020156383514404,1.2410640716552734
1772533399150511600,1.73451171875,-9.5144681930542,0.9594539999961853,3.071981430053711
1772533399160441900,1.74444189453125,-7.509820461273193,0.5113471746444702,3.335293769836426
1772533399170401000,1.754401123046875,-7.280036449432373,0.7355753779411316,2.243166446685791
1772533399180334300,1.764334228515625,-8.037960052490234,0.7144686579704285,0.7413111925125122
1772533399190269400,1.77426953125,-8.190239906311035,0.2223271131515503,0.15731918811798096
1772533399200202800,1.78420263671875,-7.851383686065674,-0.23199033737182617,-0.34828776121139526
1772533399210139000,1.794138916015625,-7.695401668548584,-0.26485225558280945,-1.1774746179580688
1772533399220072700,1.80407275390625,-8.143221855163574,0.2147689312696457,-0.8265756368637085
1772533399229994800,1.813994873046875,-8.926700592041016,1.2164407968521118,1.1702041625976562
1772533399239927300,1.82392724609375,-8.106672286987305,1.7592875957489014,3.0186774730682373
1772533399249859600,1.833859619140625,-3.8037896156311035,2.096747636795044,2.901991844177246
1772533399259792000,1.8437919921875,1.9589414596557617,2.30318284034729,1.6979150772094727
1772533399269719300,1.85371923828125,6.068535804748535,2.9364404678344727,1.5179423093795776
1772533399279651300,1.8636513671875,7.915121078491211,4.4774885177612305,2.4411239624023438
1772533399289616000,1.873615966796875,7.459754943847656,6.369373798370361,3.789078712463379
1772533399299551200,1.88355126953125,6.073615074157715,8.338421821594238,5.813297748565674
1772533399309445000,1.893445068359375,4.90708065032959,9.827253341674805,7.70468282699585
1772533399319376400,1.90337646484375,5.981649398803711,10.550434112548828,8.17326831817627
1772533399329314600,1.913314453125,11.399940490722656,9.53639030456543,6.794014930725098
1772533399339246300,1.923246337890625,22.270488739013672,5.892767906188965,2.0086278915405273
1772533399349176800,1.9331767578125,36.550819396972656,0.8678398132324219,-3.5658702850341797
1772533399359108600,1.943108642578125,46.82965087890625,-1.6113210916519165,-8.066301345825195
1772533399369041000,1.953041015625,44.56102752685547,-4.819305896759033,-8.569985389709473
1772533399378972700,1.96297265625,38.87099838256836,-7.214329719543457,-8.52003288269043
1772533399388898300,1.972898193359375,33.624813079833984,-5.597525596618652,-7.867700099945068
1772533399398829300,1.982829345703125,25.749427795410156,-3.14158034324646,-3.573793649673462
1772533399408761900,1.992761962890625,16.09989356994629,-2.2936367988586426,0.6161540150642395
1772533399418693000,2.002693115234375,6.731330871582031,-3.0172066688537598,1.046537160873413
1772533399428634400,2.01263427734375,0.6348361968994141,-3.9751908779144287,-0.8541461229324341
1772533399438566700,2.022566650390625,0.8543586730957031,-4.769260406494141,-2.854024648666382
1772533399448493000,2.0324931640625,5.172508239746094,-5.6100616455078125,-5.136987686157227
1772533399458424600,2.042424560546875,7.414237022399902,-6.148536682128906,-6.767204284667969
1772533399468355300,2.052355224609375,7.287986755371094,-5.586087226867676,-6.603855609893799
1772533399478287000,2.062287109375,4.882941246032715,-4.017455577850342,-3.745347023010254
1772533399488216000,2.072216064453125,0.3870420455932617,-2.69573974609375,-0.12999796867370605
1772533399498147300,2.082147216796875,-5.308783054351807,-1.6823647022247314,2.8244752883911133
1772533399508086500,2.09208642578125,-10.082557678222656,-1.323444128036499,3.567885398864746
1772533399518018800,2.102018798828125,-11.146607398986816,-2.47523832321167,0.9838223457336426
1772533399527969000,2.111968994140625,-10.098234176635742,-4.515328407287598,-2.1900746822357178
1772533399537903000,2.121903076171875,-10.14108943939209,-5.236087799072266,-3.1119046211242676
1772533399547816000,2.13181591796875,-11.820999145507812,-4.628024101257324,-2.0741453170776367
1772533399557748000,2.141748046875,-14.93978500366211,-3.744293212890625,-0.6759365797042847
1772533399567671300,2.15167138671875,-18.87873077392578,-2.680335521697998,0.7860833406448364
1772533399577602600,2.1616025390625,-22.755184173583984,-1.9894899129867554,1.886190414428711
1772533399587513000,2.17151318359375,-24.212966918945312,-2.165186882019043,2.142218589782715
1772533399597442000,2.181442138671875,-22.48480987548828,-2.687598466873169,-0.5858280062675476
1772533399607401500,2.1914013671875,-18.30593490600586,-3.1557583808898926,-2.4685568809509277
1772533399617333500,2.20133349609375,-13.398693084716797,-2.8621504306793213,-1.9599969387054443
1772533399627276300,2.2112763671875,-9.222671508789062,-2.445028066635132,-1.7876416444778442
1772533399637209300,2.221209228515625,-6.1992597579956055,-2.2674026489257812,-1.3356789350509644
1772533399647130400,2.23113037109375,-3.8539786338806152,-1.8844051361083984,-0.4072946310043335
1772533399657062400,2.2410625,-2.284846305847168,-1.2729851007461548,0.5797445178031921
1772533399666991900,2.250991943359375,-2.1161012649536133,-0.8740519881248474,1.3274071216583252
1772533399676923600,2.260923583984375,-3.383586883544922,-0.9519041776657104,1.0846474170684814
1772533399686854700,2.270854736328125,-5.080206394195557,-0.7661216855049133,0.8651673197746277
1772533399696786200,2.2807861328125,-6.010250091552734,-0.4680684208869934,0.43542012572288513
1772533399706721000,2.290720947265625,-6.303544998168945,-0.15811286866664886,-0.12667447328567505
1772533399716653000,2.300653076171875,-6.698325157165527,0.5562999248504639,-0.5505027770996094
1772533399726583000,2.3105830078125,-7.075478553771973,1.5664052963256836,-0.9319685697555542
1772533399736514600,2.3205146484375,-7.154336929321289,2.4798426628112793,-0.9981089234352112
1772533399746452200,2.3304521484375,-7.003680229187012,3.6876773834228516,-0.8566605448722839
1772533399756384800,2.340384765625,-6.629716873168945,5.079010009765625,-0.060089558362960815
1772533399766313000,2.35031298828125,-6.1475830078125,6.114649295806885,1.0908969640731812
1772533399776244700,2.36024462890625,-5.471264839172363,6.005345344543457,1.6768364906311035
1772533399786176500,2.370176513671875,-5.1297383308410645,5.087935447692871,2.2832694053649902
1772533399796108500,2.380108642578125,-5.311606407165527,4.1099934577941895,2.93363881111145
1772533399806052900,2.390052978515625,-5.490148544311523,2.9426138401031494,3.437699556350708
1772533399815986200,2.399986083984375,-5.151313304901123,2.1796340942382812,4.976771354675293
1772533399825915400,2.409915283203125,-4.189920902252197,1.5642207860946655,6.55497932434082
1772533399835848200,2.41984814453125,-2.831234931945801,0.04241502285003662,5.949917793273926
1772533399845773800,2.42977392578125,-0.8115425109863281,-2.186018466949463,3.756448745727539
1772533399855705900,2.439705810546875,2.4125537872314453,-2.90403151512146,1.7219023704528809
1772533399865634300,2.44963427734375,5.625669479370117,-2.722466468811035,1.8242104053497314
1772533399875566000,2.459566162109375,8.160945892333984,-1.8039538860321045,5.2201666831970215
1772533399885507000,2.469507080078125,11.766815185546875,0.7788974046707153,7.757549285888672
1772533399895440000,2.47943994140625,18.969406127929688,3.2161357402801514,6.156886577606201
1772533399905361400,2.489361328125,27.614364624023438,4.906841278076172,-0.028698980808258057
1772533399915293000,2.49929296875,28.507431030273438,1.4513028860092163,-3.4559578895568848
1772533399925223700,2.5092236328125,26.30791664123535,-3.2251524925231934,-6.003140449523926
1772533399935155000,2.519155029296875,29.238075256347656,-3.680962324142456,-9.325268745422363
1772533399945084200,2.529084228515625,32.36002731323242,-5.142749786376953,-10.633986473083496
1772533399955015400,2.539015380859375,29.258010864257812,-5.176745414733887,-9.803606986999512
1772533399964944100,2.548944091796875,22.077648162841797,-2.7099673748016357,-8.959179878234863
1772533399974875100,2.558875244140625,14.529123306274414,-1.402268409729004,-9.695311546325684
1772533399984788000,2.5687880859375,8.528623580932617,-0.6917463541030884,-9.193461418151855
1772533399994717200,2.57871728515625,5.108096122741699,0.20544171333312988,-6.768416404724121
1772533400004680400,2.588680419921875,4.277131080627441,0.06584775447845459,-3.9522783756256104
1772533400014613000,2.598613037109375,4.932720184326172,0.47798848152160645,-1.303856372833252
1772533400024519400,2.60851953125,4.234845161437988,1.0077224969863892,1.0163788795471191
1772533400034449400,2.618449462890625,1.662287712097168,1.2033265829086304,2.1901638507843018
1772533400044405500,2.628405517578125,0.40738677978515625,1.1453673839569092,2.481215476989746
1772533400054338000,2.638338134765625,0.05248069763183594,0.9451401233673096,3.694413423538208
1772533400064266500,2.6482666015625,-2.808192729949951,1.3842874765396118,5.816118240356445
1772533400074198800,2.65819873046875,-8.469797134399414,1.9261910915374756,7.017150402069092
1772533400084132400,2.66813232421875,-14.271045684814453,1.3426662683486938,6.016993999481201
1772533400094065000,2.67806494140625,-18.297649383544922,-0.30874526500701904,2.79915189743042
1772533400103975700,2.6879755859375,-19.835805892944336,-1.7523088455200195,-1.3897714614868164
1772533400113906000,2.697906005859375,-18.262771606445312,-2.425593376159668,-4.3090105056762695
1772533400123841000,2.707841064453125,-16.411191940307617,-1.9602302312850952,-3.914384365081787
1772533400133771800,2.717771728515625,-16.87797737121582,-1.5170257091522217,-1.5618489980697632
1772533400143701500,2.727701416015625,-18.796588897705078,-1.642411231994629,0.7941177487373352
1772533400153632300,2.73763232421875,-19.270397186279297,-1.8055706024169922,2.712796688079834
1772533400163599400,2.747599365234375,-17.72525978088379,-1.1701468229293823,3.537865161895752
1772533400173533700,2.75753369140625,-15.126106262207031,-0.33742213249206543,3.412156820297241
1772533400183431400,2.767431396484375,-11.807743072509766,-0.3328312635421753,2.2831623554229736
1772533400193362200,2.777362060546875,-8.489835739135742,-1.025793433189392,0.24842196702957153
1772533400203316200,2.787316162109375,-6.014354705810547,-1.6225782632827759,-1.5080567598342896
1772533400213249300,2.797249267578125,-4.79349946975708,-1.7701101303100586,-2.203493356704712
1772533400223158500,2.807158447265625,-4.80604887008667,-1.3685089349746704,-1.0271943807601929
1772533400233089000,2.817089111328125,-5.6352033615112305,-0.5782749652862549,2.5492327213287354
1772533400243022000,2.82702197265625,-7.088109016418457,0.47891637682914734,6.126254558563232
1772533400252952800,2.836952880859375,-9.04654312133789,0.8228393793106079,7.4400529861450195
1772533400262883800,2.8468837890625,-10.132613182067871,-0.16243940591812134,6.155104160308838
1772533400272814800,2.85681494140625,-9.680452346801758,-1.267021894454956,2.5687766075134277
1772533400282769000,2.866768798828125,-8.107070922851562,-2.0607903003692627,-1.3305888175964355
1772533400292702200,2.8767021484375,-6.444540977478027,-2.341477632522583,-3.2716641426086426
1772533400302632400,2.886632568359375,-5.1091694831848145,-1.8939186334609985,-3.062917709350586
1772533400312565500,2.8965654296875,-3.9701123237609863,-0.6148660778999329,-1.7709109783172607
1772533400322500600,2.90650048828125,-3.4554595947265625,0.7684301733970642,0.5628681182861328
1772533400332433700,2.91643359375,-3.501750946044922,1.92708158493042,2.7845771312713623
1772533400342367500,2.926367431640625,-3.4489669799804688,2.4631311893463135,2.43335223197937
1772533400352300500,2.936300537109375,-3.014796257019043,1.6926075220108032,-0.32225340604782104
1772533400362238000,2.946238037109375,-1.9090213775634766,0.8450767993927002,-2.599821090698242
1772533400372171800,2.956171875,0.14566326141357422,1.1267085075378418,-2.655496597290039
1772533400382111500,2.966111572265625,3.1238136291503906,2.4959652423858643,-0.6392315626144409
1772533400392045600,2.976045654296875,4.955097198486328,3.997567653656006,2.1522483825683594
1772533400401915600,2.98591552734375,4.249702453613281,4.8036603927612305,3.1150593757629395
1772533400411843300,2.99584326171875,4.8186750411987305,5.278836727142334,0.7464903593063354
1772533400421815800,3.00581591796875,7.063204765319824,5.456106185913086,-2.339219570159912
1772533400431748000,3.015748046875,9.374175071716309,5.780008316040039,-3.756531000137329
1772533400441681000,3.025680908203125,13.678226470947266,7.446740627288818,-2.446336507797241
1772533400451613200,3.03561328125,22.47626495361328,8.14354419708252,0.31378060579299927
1772533400461524500,3.0455244140625,35.9715576171875,6.572399139404297,-1.015987515449524
1772533400471454700,3.055454833984375,41.61278533935547,2.7286899089813232,-3.2564010620117188
1772533400481415200,3.065415283203125,36.91808319091797,-3.478797197341919,-4.944816589355469
1772533400491348200,3.07534814453125,37.08506774902344,-6.2488627433776855,-8.531002044677734
1772533400501269800,3.085269775390625,40.37666320800781,-6.253847599029541,-7.054693698883057
1772533400511201800,3.095201904296875,34.7358512878418,-5.094621658325195,-2.6609692573547363
1772533400521137000,3.105136962890625,23.8566951751709,-4.89768123626709,-3.4602041244506836
1772533400531069200,3.115069091796875,13.338603019714355,-5.618545055389404,-6.016687393188477
1772533400541002000,3.125001953125,4.977606773376465,-4.049325466156006,-4.9951863288879395
1772533400550934300,3.134934326171875,-0.3814115524291992,-1.3582462072372437,-1.6577198505401611
1772533400560863000,3.144863037109375,-3.7120914459228516,0.8418266773223877,0.4976215362548828
1772533400570795000,3.154794921875,-6.784778594970703,1.4739357233047485,1.7546803951263428
1772533400580726500,3.1647265625,-6.806142807006836,0.3195970058441162,2.1901564598083496
1772533400590658600,3.174658447265625,-2.98862361907959,-1.4102479219436646,2.153841257095337
1772533400600589600,3.184589599609375,-1.2307119369506836,-2.353771924972534,3.000929832458496
1772533400610521600,3.194521484375,-2.7821292877197266,-2.7258715629577637,3.474494218826294
1772533400620459300,3.204459228515625,-6.181746959686279,-2.7733497619628906,3.8607568740844727
1772533400630391600,3.2143916015625,-9.969985961914062,-2.606412649154663,4.185624599456787
1772533400640306400,3.224306396484375,-13.398053169250488,-3.055161476135254,3.425649881362915
1772533400650237000,3.23423681640625,-16.20656967163086,-4.069759845733643,1.4941356182098389
1772533400660179000,3.244178955078125,-18.715221405029297,-4.176644325256348,0.1285245269536972
1772533400670111000,3.254111083984375,-21.18288803100586,-3.721435546875,-0.26272010803222656
1772533400680043500,3.26404345703125,-22.629085540771484,-3.585897207260132,-0.77533358335495
1772533400689975300,3.273975341796875,-22.952476501464844,-3.740360736846924,-0.9289294481277466
1772533400699905800,3.28390576171875,-22.894237518310547,-3.9422974586486816,-0.5619974136352539
1772533400709837600,3.293837646484375,-21.803804397583008,-4.238133430480957,-0.6651995182037354
1772533400719774500,3.3037744140625,-18.40817642211914,-4.397050380706787,-1.3084099292755127
1772533400729706800,3.313706787109375,-14.175796508789062,-4.5205183029174805,-1.6036618947982788
1772533400739638000,3.323637939453125,-10.603780746459961,-4.720118045806885,-1.5471348762512207
1772533400749570300,3.3335703125,-7.002415657043457,-5.151749610900879,-1.8484420776367188
1772533400759511300,3.34351123046875,-3.745647430419922,-4.945215702056885,-2.1870040893554688
1772533400769444400,3.3534443359375,-2.135082244873047,-3.7668895721435547,-0.9649809002876282
1772533400779366100,3.3633662109375,-2.3544750213623047,-2.3721988201141357,0.7455005645751953
1772533400789298200,3.373298095703125,-3.695158004760742,-1.427625060081482,1.5113376379013062
1772533400799238700,3.38323876953125,-4.565908908843994,-0.7295575141906738,1.3302006721496582
1772533400809171500,3.39317138671875,-4.81093168258667,0.30347150564193726,0.6474106311798096
1772533400819082500,3.40308251953125,-5.167805194854736,1.3812741041183472,0.06552296876907349
1772533400829013000,3.413012939453125,-5.671237945556641,1.8691238164901733,0.2970811724662781
1772533400838954500,3.42295458984375,-6.165732383728027,2.1540064811706543,0.790907621383667
1772533400848886000,3.432885986328125,-4.952993869781494,1.5998326539993286,-0.4417457580566406
1772533400858795300,3.442795166015625,-3.3650455474853516,1.1036995649337769,-1.667809247970581
1772533400868724500,3.452724365234375,-3.821162700653076,1.8299691677093506,-0.22898201644420624
1772533400878681600,3.462681640625,-5.286462306976318,2.6769797801971436,2.5336740016937256
1772533400888614000,3.47261376953125,-5.8628950119018555,2.6992692947387695,3.6502535343170166
1772533400898550500,3.482550537109375,-5.415964603424072,2.0093979835510254,2.8613779544830322
1772533400908483300,3.4924833984375,-4.669888973236084,0.8765400648117065,1.5633459091186523
1772533400918409000,3.502408935546875,-2.952516555786133,-0.21291875839233398,0.4375421404838562
1772533400928341000,3.512341064453125,-0.9502630233764648,-0.8750717043876648,0.12461340427398682
1772533400938287900,3.522287841796875,0.48653697967529297,-0.53155517578125,0.6398344039916992
1772533400948221200,3.53222119140625,0.7893352508544922,0.492840975522995,2.573807716369629
1772533400958149400,3.5421494140625,-1.382227897644043,2.0506062507629395,6.108978271484375
1772533400968082400,3.55208251953125,-5.5052490234375,4.810970783233643,9.131299018859863
1772533400978002200,3.562002197265625,-7.2314043045043945,6.346928596496582,9.500770568847656
1772533400987933700,3.57193359375,-3.1298465728759766,5.779125690460205,8.094595909118652
1772533400997863400,3.581863525390625,6.270977020263672,4.797148704528809,5.287704944610596
1772533401007795000,3.591794921875,18.623004913330078,4.903192520141602,0.4451083540916443
1772533401017729800,3.601729736328125,27.158742904663086,2.176997423171997,-2.031099557876587
1772533401027661600,3.61166162109375,31.01475715637207,-1.5681531429290771,-2.0589981079101562
1772533401037595100,3.62159521484375,35.00273895263672,-2.9048657417297363,-2.635110855102539
1772533401047527200,3.631527099609375,39.02777099609375,-3.20269513130188,-4.663961410522461
1772533401057457400,3.64145751953125,40.555564880371094,-2.9547362327575684,-5.398735046386719
1772533401067389200,3.65138916015625,34.685508728027344,-3.149956226348877,-5.09141206741333
1772533401077330400,3.661330322265625,24.959251403808594,-4.9076128005981445,-6.287845134735107
1772533401087263200,3.67126318359375,17.933189392089844,-4.697012424468994,-7.56398344039917
1772533401097197800,3.68119775390625,14.08475112915039,-2.51371693611145,-5.739223003387451
1772533401107131000,3.691130859375,11.36119270324707,-0.42484915256500244,-3.0687451362609863
1772533401117052200,3.70105224609375,7.666937828063965,1.0680217742919922,-2.1241393089294434
1772533401126984000,3.71098388671875,3.1310033798217773,1.6584383249282837,-2.6624560356140137
1772533401136916000,3.720916015625,-0.8034572601318359,1.2429604530334473,-3.1665773391723633
1772533401146847700,3.73084765625,-3.1257476806640625,0.5665128231048584,-2.3104469776153564
1772533401156790300,3.740790283203125,-4.815524578094482,0.3158729076385498,-0.6431869864463806
1772533401166723300,3.750723388671875,-6.573492050170898,0.5603433847427368,0.796174168586731
1772533401176639700,3.7606396484375,-6.416616439819336,0.4018411934375763,1.2060744762420654
1772533401186571000,3.770571044921875,-5.529428958892822,-0.33763790130615234,0.4518391489982605
1772533401196514600,3.7805146484375,-5.444015026092529,-1.112952709197998,-1.1881159543991089
1772533401206447000,3.790447021484375,-6.552106857299805,-1.7788535356521606,-3.0000216960906982
1772533401216373200,3.800373291015625,-9.524406433105469,-1.8506946563720703,-3.4318056106567383
1772533401226305000,3.810304931640625,-13.435307502746582,-1.3049321174621582,-2.56473970413208
1772533401236233200,3.820233154296875,-17.48984718322754,-0.9971293210983276,-1.4836639165878296
1772533401246164700,3.830164794921875,-21.743900299072266,-1.1802033185958862,0.058938026428222656
1772533401256073500,3.840073486328125,-25.038837432861328,-1.6685914993286133,1.5792737007141113
1772533401266002700,3.850002685546875,-24.745298385620117,-1.908919095993042,1.9111523628234863
1772533401275956200,3.859956298828125,-20.746543884277344,-1.5273451805114746,0.9776585102081299
1772533401285887700,3.8698876953125,-15.781835556030273,-1.4326101541519165,-0.267322838306427
1772533401295799300,3.87979931640625,-12.346755981445312,-2.2194790840148926,-1.5736732482910156
1772533401305739300,3.8897392578125,-9.173738479614258,-3.020834445953369,-2.383972644805908
1772533401325598000,3.909597900390625,-4.853480815887451,-3.2577719688415527,-1.1610956192016602
1772533401335527700,3.919527587890625,-3.3470354080200195,-2.850013256072998,0.7543578147888184
1772533401345459700,3.929459716796875,-2.0643301010131836,-2.1569948196411133,2.8279621601104736
1772533401355389400,3.939389404296875,-1.4849443435668945,-0.8834030628204346,4.524763584136963
1772533401365342200,3.94934228515625,-2.0483474731445312,0.19579315185546875,4.995834827423096
1772533401375274200,3.959274169921875,-3.813408374786377,0.8628488779067993,4.2875518798828125
1772533401385192000,3.96919189453125,-6.2829132080078125,1.3951225280761719,3.337184429168701
1772533401395122400,3.979122314453125,-8.898448944091797,1.7669425010681152,2.5263094902038574
1772533401405087700,3.989087646484375,-10.440176010131836,2.0770368576049805,1.5659079551696777
1772533401415021800,3.999021728515625,-9.941858291625977,2.3705029487609863,0.6521250605583191
1772533401424921000,4.008921142578125,-7.759124279022217,2.6664156913757324,0.41772520542144775
1772533401434851600,4.0188515625,-6.080265998840332,2.978872776031494,1.6874929666519165
1772533401444783600,4.02878369140625,-5.572152137756348,3.545233964920044,3.109065055847168
1772533401454714400,4.03871435546875,-5.533013343811035,4.101431846618652,4.344235897064209
1772533401464650500,4.048650390625,-5.449065208435059,4.580679893493652,4.900668621063232
1772533401474581800,4.058581787109375,-5.549448013305664,4.981509208679199,4.49497127532959
1772533401484531500,4.068531494140625,-5.254456043243408,4.933902263641357,3.7557730674743652
1772533401494464800,4.07846484375,-3.5014753341674805,4.576951503753662,2.289641857147217
1772533401504393200,4.088393310546875,-0.7266902923583984,4.177507400512695,1.0949517488479614
1772533401514325800,4.09832568359375,2.6069679260253906,4.002934455871582,1.1008840799331665
1772533401524263000,4.108262939453125,6.32949161529541,4.345337867736816,1.8159266710281372
1772533401534196000,4.118196044921875,9.258085250854492,4.237005233764648,4.141102313995361
1772533401544126000,4.1281259765625,11.15090560913086,2.979422092437744,6.598480224609375
1772533401554058800,4.138058837890625,19.20363998413086,3.091428756713867,3.5501229763031006
1772533401564030700,4.14803076171875,30.428264617919922,2.2276530265808105,-3.686276435852051
1772533401573967400,4.15796728515625,34.341243743896484,-3.937195301055908,-7.365208625793457
1772533401583855600,4.167855712890625,37.59545135498047,-8.323123931884766,-11.140430450439453
1772533401593787600,4.17778759765625,41.43156433105469,-9.729560852050781,-13.26786994934082
1772533401603712000,4.1877119140625,39.20427703857422,-9.652084350585938,-9.5366792678833
1772533401613643000,4.19764306640625,28.836132049560547,-8.68671703338623,-7.308177471160889
1772533401623609900,4.20760986328125,16.22771453857422,-7.182344913482666,-8.226537704467773
1772533401633544400,4.21754443359375,7.515158653259277,-4.155263900756836,-7.210207462310791
1772533401643445200,4.2274453125,3.904324531555176,-0.4486810863018036,-3.152757167816162
1772533401653376500,4.23737646484375,2.8721208572387695,2.544095516204834,0.002793610095977783
1772533401663306500,4.247306396484375,2.2288169860839844,3.2467257976531982,1.301965355873108
1772533401673237800,4.25723779296875,1.4923934936523438,2.682720899581909,1.4748454093933105
1772533401683178800,4.2671787109375,0.8003988265991211,1.6881153583526611,1.1600574254989624
1772533401693110800,4.27711083984375,1.4789228439331055,0.2238163948059082,0.40143632888793945
1772533401703036000,4.287035888671875,2.4263992309570312,-0.8946905136108398,-0.6451376676559448
1772533401712967400,4.296967529296875,1.7295684814453125,-1.1658825874328613,-1.3610459566116333
1772533401722896000,4.306895751953125,-1.171722412109375,-0.46766096353530884,-0.953421950340271
1772533401732827100,4.3168271484375,-5.524202823638916,0.4195176362991333,-0.24796068668365479
1772533401742761700,4.32676171875,-9.830967903137207,0.8080968260765076,-0.18572133779525757
1772533401752693200,4.336693359375,-12.827194213867188,0.37954050302505493,-1.1600210666656494
1772533401762624500,4.34662451171875,-14.038508415222168,-0.5127773284912109,-3.2341928482055664
1772533401772555800,4.3565556640625,-14.247340202331543,-1.2564985752105713,-4.809682369232178
1772533401782490000,4.366489990234375,-14.5825777053833,-1.7091968059539795,-4.234635353088379
1772533401792422000,4.376421875,-14.860987663269043,-2.1155219078063965,-2.6804165840148926
1772533401802351400,4.386351318359375,-14.804522514343262,-3.125178098678589,-2.1127982139587402
1772533401812283100,4.396283203125,-14.514972686767578,-4.645265579223633,-3.0134382247924805
1772533401822221300,4.40622119140625,-13.9592866897583,-5.6315693855285645,-4.8731369972229
1772533401832153300,4.4161533203125,-13.961602210998535,-6.302792549133301,-6.101657867431641
1772533401842078000,4.426077880859375,-16.068946838378906,-7.074121952056885,-7.124885559082031
1772533401852009500,4.436009521484375,-18.47931480407715,-7.890477180480957,-6.829258918762207
1772533401861958100,4.445958251953125,-19.232101440429688,-8.266073226928711,-4.488673210144043
1772533401871891200,4.45589111328125,-18.05036163330078,-7.261466026306152,-0.07215571403503418
1772533401881805000,4.46580517578125,-14.681316375732422,-5.4303741455078125,5.329791069030762
1772533401891736300,4.475736328125,-9.796859741210938,-4.349369049072266,8.618011474609375
1772533401901674000,4.485674072265625,-3.6320443153381348,-3.427487373352051,8.668164253234863
1772533401911605800,4.495605712890625,2.3069801330566406,-2.9358978271484375,5.927120208740234
1772533401921544000,4.5055439453125,5.87860107421875,-2.922874689102173,2.3961877822875977
1772533401931476200,4.515476318359375,5.830301284790039,-2.5669941902160645,-0.3592560291290283
1772533401941400800,4.52540087890625,1.9069337844848633,-1.8943471908569336,-0.7084392309188843
1772533401951332600,4.53533251953125,-3.0118236541748047,-0.5233361721038818,0.7328701019287109
1772533401961262000,4.545261962890625,-7.750244617462158,1.6345099210739136,2.8273284435272217
1772533401971193600,4.555193603515625,-11.323209762573242,3.1840531826019287,4.097710132598877
1772533401981140000,4.565139892578125,-12.759138107299805,3.5693488121032715,2.7376246452331543
1772533401991073000,4.575072998046875,-11.897665023803711,3.5791778564453125,0.14274370670318604
1772533402000990500,4.584990478515625,-10.088820457458496,3.4722096920013428,-1.733214020729065
1772533402010921700,4.594921630859375,-8.213404655456543,3.4977526664733887,-2.9454898834228516
1772533402020857900,4.60485791015625,-5.571098327636719,3.6252098083496094,-3.5070927143096924
1772533402030789600,4.61478955078125,-2.683588981628418,3.936891555786133,-2.239719867706299
1772533402040696000,4.624696044921875,0.32394886016845703,4.743747234344482,0.43765032291412354
1772533402050625500,4.63462548828125,2.929135322570801,5.431352615356445,2.304429531097412
1772533402060593400,4.644593505859375,3.1022377014160156,5.742367744445801,2.952702045440674
1772533402070526700,4.654526611328125,-1.2503418922424316,5.6849894523620605,3.142780303955078
1772533402080421400,4.66442138671875,-8.4046049118042,7.334220886230469,3.334228992462158
1772533402090350800,4.674350830078125,-15.38311767578125,10.886628150939941,4.234555244445801
1772533402100310500,4.684310546875,-10.706098556518555,13.292818069458008,9.073227882385254
1772533402110243000,4.6942431640625,9.843598365783691,11.538078308105469,14.121707916259766
1772533402120175900,4.70417578125,32.520652770996094,5.0034379959106445,13.00252914428711
1772533402130108400,4.7141083984375,50.325965881347656,-2.7897679805755615,12.06893539428711
1772533402140024600,4.724024658203125,60.621559143066406,-3.490377902984619,11.17879867553711
1772533402149955300,4.733955322265625,56.34136962890625,-2.147361993789673,9.260246276855469
1772533402159914000,4.7439140625,42.19403839111328,-2.65669584274292,5.27458381652832
1772533402169847600,4.75384765625,29.454418182373047,-1.4458867311477661,2.415562152862549
1772533402179768000,4.76376806640625,18.727352142333984,1.6446208953857422,3.8241169452667236
1772533402189700400,4.773700439453125,10.107422828674316,4.7117767333984375,5.8176469802856445
1772533402199632100,4.783632080078125,3.7029762268066406,6.3178606033325195,5.921361923217773
1772533402209564200,4.793564208984375,-1.037008285522461,6.300331115722656,5.267786026000977
1772533402219492400,4.803492431640625,-2.9975204467773438,4.051197052001953,2.3074333667755127
1772533402229424000,4.813424072265625,-2.0366086959838867,0.1976938247680664,-3.784914493560791
1772533402239359200,4.823359130859375,0.9795713424682617,-3.2848875522613525,-8.645421028137207
1772533402249291300,4.833291259765625,4.739274978637695,-5.828136920928955,-9.030094146728516
1772533402259224000,4.84322412109375,6.516134262084961,-6.545799255371094,-6.789419174194336
1772533402269156400,4.85315625,4.6712188720703125,-6.081859588623047,-4.574319839477539
1772533402279086600,4.863086669921875,0.16562366485595703,-5.343008041381836,-2.2133755683898926
1772533402289018600,4.8730185546875,-4.907413005828857,-4.794991493225098,-1.1299285888671875
1772533402298945300,4.8829453125,-9.701732635498047,-4.543524742126465,-1.6510695219039917
1772533402308876800,4.892876708984375,-13.741915702819824,-4.107138633728027,-2.100473403930664
1772533402318815000,4.90281494140625,-17.08739471435547,-3.653916358947754,-1.8675414323806763
1772533402328747000,4.9127470703125,-19.795255661010742,-3.345425605773926,-1.5923261642456055
1772533402338682000,4.92268212890625,-21.644237518310547,-3.5890276432037354,-1.942493200302124
1772533402348614400,4.932614501953125,-22.80431365966797,-4.640406131744385,-3.2455456256866455
1772533402358550500,4.942550537109375,-23.434925079345703,-4.693720817565918,-3.6220388412475586
1772533402368483300,4.9524833984375,-23.02605628967285,-4.017759799957275,-2.8723039627075195
1772533402378404600,4.962404541015625,-20.708759307861328,-3.8273940086364746,-2.8986473083496094
1772533402388336000,4.972336181640625,-16.678546905517578,-4.19499397277832,-2.5949063301086426
1772533402398269700,4.982269775390625,-12.444303512573242,-4.160652160644531,-0.6566854119300842
1772533402408201500,4.992201416015625,-8.829154014587402,-3.4636754989624023,2.284200429916382
1772533402418138600,5.002138671875,-6.061269760131836,-2.710233688354492,5.468225479125977
1772533402428071000,5.01207080078125,-3.5649213790893555,-2.3031070232391357,7.507294178009033
1772533402437999000,5.0219990234375,-2.4668502807617188,-2.1440253257751465,7.246094703674316
1772533402447931100,5.03193115234375,-3.400796890258789,-2.747372627258301,5.871221542358398
1772533402457866500,5.041866455078125,-5.012807369232178,-2.8222994804382324,3.8893110752105713
1772533402467799000,5.051799072265625,-6.993025779724121,-2.3811559677124023,2.418652057647705
1772533402477736700,5.06173681640625,-8.483055114746094,-1.5392416715621948,1.9300544261932373
1772533402487669800,5.071669677734375,-8.994071960449219,-0.5022541880607605,1.7751085758209229
1772533402497629000,5.08162890625,-9.29312801361084,0.46150922775268555,2.045511245727539
1772533402507564500,5.091564453125,-10.059117317199707,1.34169340133667,2.754617691040039
1772533402517431300,5.101431396484375,-10.293777465820312,2.192023992538452,2.4634501934051514
1772533402527359700,5.11135986328125,-9.020197868347168,2.982755661010742,1.436225175857544
1772533402537292800,5.121292724609375,-7.005680084228516,3.3387374877929688,0.8601573705673218
1772533402547221800,5.1312216796875,-3.21474552154541,2.8368287086486816,0.19305406510829926
1772533402557163500,5.14116357421875,2.5788583755493164,2.6437795162200928,-0.8328625559806824
1772533402567093800,5.15109375,7.3998212814331055,3.1000723838806152,-1.1205081939697266
1772533402577018400,5.161018310546875,9.815217971801758,3.4031248092651367,0.09148545563220978
1772533402586948000,5.170947998046875,10.41384220123291,3.303194761276245,2.2677719593048096
1772533402596886300,5.18088623046875,9.041234970092773,3.110729217529297,3.3544998168945312
1772533402606816800,5.190816650390625,5.396428108215332,3.9102673530578613,1.9169954061508179
1772533402616751000,5.200751220703125,1.1261959075927734,5.224926471710205,0.09983992576599121
1772533402626682000,5.21068212890625,-0.8168516159057617,6.256859302520752,-0.042572200298309326
1772533402636613600,5.220613525390625,1.868927001953125,7.524625778198242,0.31678253412246704
1772533402646545000,5.230544921875,8.24069881439209,9.038970947265625,1.2818641662597656
1772533402656474400,5.240474365234375,16.515193939208984,10.355002403259277,0.8821659088134766
1772533402666405400,5.2504052734375,23.50324821472168,6.2836689949035645,-1.1672143936157227
1772533402676364000,5.260364013671875,28.699546813964844,-2.264667272567749,-4.142684459686279
1772533402686297600,5.270297607421875,33.33118438720703,-5.558712959289551,-4.947804927825928
1772533402696230700,5.280230712890625,34.66701889038086,-5.2721028327941895,-1.0805233716964722
1772533402706164200,5.290164306640625,33.08976745605469,-6.046921730041504,0.7075852751731873
1772533402716101400,5.300101318359375,27.961727142333984,-5.337250709533691,-0.3959593176841736
1772533402726035200,5.31003515625,19.01604461669922,-3.0663297176361084,-1.397858738899231
1772533402735935200,5.319935302734375,10.269389152526855,-0.5070160627365112,-2.842595100402832
1772533402745865700,5.32986572265625,4.128012657165527,2.076310396194458,-3.3858070373535156
1772533402755833000,5.3398330078125,0.25310707092285156,2.973483085632324,-2.6947648525238037
1772533402765767400,5.349767333984375,-2.0765433311462402,1.855790615081787,-1.976992130279541
1772533402775678200,5.35967822265625,-3.427122116088867,-0.37611567974090576,-1.9259424209594727
1772533402785610000,5.36960986328125,-1.5248003005981445,-2.763256549835205,-3.3582029342651367
1772533402795555600,5.3795556640625,2.77374267578125,-4.440426349639893,-3.588667869567871
1772533402805489000,5.389489013671875,5.268573760986328,-3.83231258392334,-1.383794903755188
1772533402815396400,5.399396240234375,3.8629064559936523,-1.4425852298736572,2.2079219818115234
1772533402825327000,5.4093271484375,-1.0461483001708984,0.26342615485191345,5.235523700714111
1772533402835273500,5.4192734375,-6.611720085144043,0.7149245142936707,3.7948052883148193
1772533402845205800,5.429205810546875,-12.518417358398438,0.20880815386772156,0.3000343441963196
1772533402855142400,5.439142333984375,-18.33527374267578,-0.2306847870349884,-2.406649589538574
1772533402865075200,5.4490751953125,-22.786296844482422,-0.31909680366516113,-4.096102714538574
1772533402875000800,5.459000732421875,-24.550373077392578,-0.30211472511291504,-4.3379669189453125
1772533402884932900,5.468932861328125,-23.712356567382812,-0.5784602761268616,-3.592902421951294
1772533402894867500,5.478867431640625,-20.30352020263672,-1.160538673400879,-2.20804762840271
1772533402904799700,5.4887998046875,-15.934234619140625,-1.5688971281051636,0.3920423984527588
1772533402914735900,5.49873583984375,-11.807514190673828,-1.2758536338806152,2.5897507667541504
1772533402924668400,5.50866845703125,-8.779598236083984,-1.159511685371399,3.5588247776031494
1772533402934593800,5.51859375,-7.151193618774414,-0.6547666788101196,4.471603870391846
1772533402944525800,5.52852587890625,-6.538987159729004,0.14239700138568878,4.086238861083984
1772533402954457600,5.53845751953125,-6.829624176025391,0.042288683354854584,2.459404230117798
1772533402964389600,5.5483896484375,-7.539982795715332,-0.48610714077949524,1.3059804439544678
1772533402974318300,5.558318359375,-8.01885986328125,-1.0248587131500244,1.6772841215133667
1772533402984249900,5.568249755859375,-7.83065938949585,-1.2817898988723755,2.9663093090057373
1772533402994194700,5.578194580078125,-6.182705879211426,-1.6093456745147705,3.607701063156128
1772533403004127500,5.58812744140625,-4.273046970367432,-1.7042577266693115,3.853369951248169
1772533403014047500,5.598047607421875,-4.034709453582764,-1.4484937191009521,4.1440510749816895
1772533403023979000,5.60797900390625,-4.740624904632568,-0.6733885407447815,4.547496795654297
1772533403033914000,5.6179140625,-6.371288299560547,0.5008206367492676,4.018529891967773
1772533403043846100,5.62784619140625,-7.940959453582764,1.1541849374771118,2.1048026084899902
1772533403053781000,5.637781005859375,-8.459932327270508,1.6183090209960938,0.39588701725006104
1772533403063713300,5.64771337890625,-7.655765056610107,2.2630503177642822,0.21510139107704163
1772533403073645300,5.657645263671875,-6.025677680969238,2.6927669048309326,1.0245089530944824
1772533403083577300,5.667577392578125,-3.756443500518799,2.8002123832702637,1.6010597944259644
1772533403093493800,5.67749365234375,-1.7666869163513184,3.450181722640991,2.8258864879608154
1772533403103424300,5.68742431640625,-0.4432954788208008,4.88400411605835,4.449151992797852
1772533403113373700,5.697373779296875,1.78131103515625,6.412306308746338,4.839804649353027
1772533403123306200,5.70730615234375,4.622500419616699,7.954598426818848,5.191469669342041
1772533403133232000,5.717232177734375,6.507190704345703,9.402372360229492,8.11087417602539
1772533403143164000,5.727163818359375,10.585659980773926,10.477689743041992,13.238313674926758
1772533403153099500,5.737099609375,17.360139846801758,8.981714248657227,16.694625854492188
1772533403163031800,5.74703173828125,20.375965118408203,6.0117340087890625,17.35223388671875
1772533403172970500,5.756970458984375,20.253782272338867,2.5205435752868652,14.428123474121094
1772533403182903300,5.7669033203125,18.82952308654785,-0.8400897979736328,8.735837936401367
1772533403192826000,5.776826171875,18.15273666381836,-4.349903106689453,2.8752801418304443
1772533403202758000,5.7867578125,23.796005249023438,-4.253230094909668,-9.037023544311523
1772533403212689000,5.79668896484375,21.53522491455078,-5.071199417114258,-12.466064453125
1772533403222620700,5.80662060546875,14.144060134887695,-10.820329666137695,-12.392541885375977
1772533403232551000,5.816551025390625,21.637922286987305,-15.601242065429688,-16.619125366210938
1772533403242482400,5.826482421875,35.29905319213867,-17.346923828125,-16.777551651000977
1772533403252418300,5.836418212890625,35.403663635253906,-14.912324905395508,-12.731021881103516
1772533403262350300,5.846350341796875,21.16358757019043,-10.849740028381348,-8.917271614074707
1772533403272300000,5.856300048828125,5.2893829345703125,-7.992667198181152,-9.811049461364746
1772533403282233900,5.86623388671875,-6.923693656921387,-5.882535934448242,-11.544973373413086
1772533403292122600,5.87612255859375,-14.681147575378418,-3.3679935932159424,-9.764297485351562
1772533403302052000,5.886052001953125,-17.24944305419922,-1.1702346801757812,-5.089520454406738
1772533403312005600,5.896005615234375,-15.985103607177734,-0.7996031045913696,-0.4579487442970276
1772533403321937400,5.9059375,-11.305169105529785,-2.503371238708496,0.5451851487159729
1772533403331884800,5.915884765625,-2.2702674865722656,-5.272565841674805,-2.587510585784912
1772533403341818000,5.925818115234375,7.865424156188965,-7.44303560256958,-6.1994781494140625
1772533403351745300,5.935745361328125,12.993422508239746,-7.56688928604126,-7.955705165863037
1772533403361678000,5.945677978515625,11.377748489379883,-6.283824920654297,-6.932422637939453
1772533403371597300,5.955597412109375,4.597119331359863,-4.8962531089782715,-3.6802525520324707
1772533403381528800,5.96552880859375,-4.7452168464660645,-3.721038818359375,-2.00909423828125
1772533403391465000,5.97546484375,-13.330855369567871,-3.190222978591919,-3.4178624153137207
1772533403401397000,5.98539697265625,-19.352493286132812,-2.4631409645080566,-4.3137922286987305
1772533403411339500,5.995339599609375,-22.675125122070312,-1.1171963214874268,-2.331270933151245
1772533403421272600,6.0052724609375,-24.955810546875,0.03889119625091553,1.2728681564331055
1772533403431239000,6.015239013671875,-25.309925079345703,0.5426548719406128,4.551623821258545
1772533403441175300,6.02517529296875,-21.469127655029297,0.903213620185852,5.028518199920654
1772533403451056600,6.035056640625,-15.287572860717773,0.7965822815895081,2.9714646339416504
1772533403460987100,6.044987060546875,-11.241231918334961,0.26489365100860596,2.0446174144744873
1772533403470920400,6.05492041015625,-7.718698024749756,-0.018515050411224365,1.6732639074325562
1772533403480851500,6.0648515625,-4.42457914352417,0.4294414818286896,2.191319465637207
1772533403490784800,6.07478466796875,-2.5340404510498047,0.3480446934700012,3.1609671115875244
1772533403500715800,6.0847158203125,-1.297501564025879,-0.6942993998527527,3.5335726737976074
1772533403510652700,6.094652587890625,-0.3278026580810547,-1.6603243350982666,3.9956679344177246
1772533403520584400,6.10458447265625,-0.8745174407958984,-2.260000705718994,3.1639456748962402
1772533403530521300,6.114521240234375,-2.430868148803711,-2.523402690887451,0.8775878548622131
1772533403540453600,6.12445361328125,-3.885084629058838,-2.6186323165893555,1.3003196716308594
1772533403550375000,6.134375,-5.0579609870910645,-1.3575483560562134,8.18860912322998
1772533403560306200,6.14430615234375,-4.803037166595459,2.140603542327881,16.87721061706543
1772533403570238700,6.15423876953125,-2.0366697311401367,6.354397296905518,20.823989868164062
1772533403580170000,6.164169921875,0.4470090866088867,7.427617073059082,18.24680519104004
1772533403590103000,6.17410302734375,0.9395732879638672,3.9578359127044678,10.741974830627441
1772533403600034600,6.18403466796875,-1.0210838317871094,0.7625490427017212,3.373042345046997
1772533403609963500,6.193963623046875,-3.6310782432556152,0.11581170558929443,-0.9359793663024902
1772533403619894800,6.203894775390625,-5.296012878417969,0.28012585639953613,-2.3292393684387207
1772533403629828000,6.213828125,-5.776318550109863,1.1804897785186768,-0.9090697765350342
1772533403639759400,6.22375927734375,-6.011628150939941,3.453002452850342,2.778543472290039
1772533403649695000,6.233695068359375,-5.921136856079102,5.313113212585449,4.629693031311035
1772533403659627000,6.243626953125,-5.803289413452148,5.035965442657471,2.4953670501708984
1772533403669557500,6.2535576171875,-5.97627067565918,4.107816696166992,-0.4675281047821045
1772533403679489300,6.2634892578125,-5.537351608276367,3.0039947032928467,-1.9906187057495117
1772533403689408000,6.273407958984375,-4.687972545623779,1.9865086078643799,-2.279935598373413
1772533403699338200,6.283338134765625,-4.600788593292236,2.687091588973999,-0.880089521408081
1772533403709263600,6.293263671875,-3.267683982849121,3.2017650604248047,0.6212701797485352
1772533403719193300,6.303193359375,1.688765525817871,2.917365074157715,1.4907126426696777
1772533403729130200,6.313130126953125,9.004881858825684,4.294776916503906,2.736368179321289
1772533403739060700,6.323060791015625,19.84851837158203,4.4427809715271,0.8491140007972717
1772533403748994600,6.33299462890625,33.24610900878906,1.0097917318344116,-2.4250447750091553
1772533403758925600,6.342925537109375,41.40388107299805,-7.511412620544434,-4.03218936920166
1772533403768890600,6.352890625,43.43505859375,-14.178727149963379,-10.643205642700195
1772533403778825000,6.362824951171875,44.79356384277344,-15.157613754272461,-16.733821868896484
1772533403788733700,6.372733642578125,43.1793212890625,-12.657435417175293,-16.0635986328125
1772533403798665500,6.38266552734375,33.2907829284668,-8.288814544677734,-10.57625675201416
1772533403808584400,6.39258447265625,20.321636199951172,-4.46535587310791,-6.5357794761657715
1772533403818515000,6.402514892578125,8.892021179199219,-1.517524242401123,-4.666251182556152
1772533403828450300,6.4124501953125,1.0482120513916016,0.5698947310447693,-3.089027166366577
1772533403838381300,6.42238134765625,-1.4731254577636719,1.8475110530853271,-1.0490413904190063
1772533403848309000,6.43230908203125,-0.53350830078125,2.228515625,1.2112592458724976
1772533403858239500,6.442239501953125,1.7317419052124023,1.5838196277618408,4.706073760986328
1772533403868200400,6.452200439453125,3.5454912185668945,1.651301622390747,7.489923477172852
1772533403878134000,6.462134033203125,2.903927803039551,1.9362833499908447,7.404752731323242
1772533403888061400,6.4720615234375,1.2520990371704102,1.2962487936019897,4.9440016746521
1772533403897994500,6.481994384765625,0.9508733749389648,-0.20160576701164246,1.3217101097106934
1772533403907929900,6.491929931640625,0.36455345153808594,-1.6131082773208618,-2.0039544105529785
1772533403917863200,6.50186328125,-3.247738838195801,-2.7425575256347656,-4.087484359741211
1772533403927792600,6.511792724609375,-8.148189544677734,-2.96350359916687,-5.345438480377197
1772533403937725700,6.5217255859375,-12.258554458618164,-2.6566431522369385,-4.770061492919922
1772533403947656400,6.531656494140625,-15.60845947265625,-1.5434117317199707,-2.362313747406006
1772533403957589200,6.54158935546875,-18.883909225463867,-0.22630718350410461,0.08684003353118896
1772533403967514400,6.551514404296875,-22.54168701171875,0.5687766075134277,1.7844622135162354
1772533403977446400,6.5614462890625,-24.816295623779297,1.5573694705963135,2.918666124343872
1772533403987383000,6.571383056640625,-25.09492301940918,1.144094467163086,4.5002617835998535
1772533403997315600,6.581315673828125,-22.20093536376953,0.7770719528198242,4.107554912567139
1772533404007257300,6.59125732421875,-16.447479248046875,0.9314590692520142,3.5190861225128174
1772533404017190700,6.601190673828125,-10.472299575805664,0.03082793951034546,2.689093589782715
1772533404027086600,6.611086669921875,-5.412807941436768,-0.8637174367904663,1.4740991592407227
1772533404037016000,6.62101611328125,-1.475153923034668,-1.321071982383728,0.8837326169013977
1772533404046985200,6.630985107421875,0.7829017639160156,-2.0183205604553223,0.48427534103393555
1772533404056918800,6.640918701171875,1.1812744140625,-2.687601089477539,1.8194981813430786
1772533404066839800,6.65083984375,0.5911960601806641,-2.7276251316070557,3.8548812866210938
1772533404076772000,6.660772216796875,-1.4459123611450195,-2.216017246246338,4.918391227722168
1772533404086676200,6.67067626953125,-5.250770092010498,-1.8106770515441895,5.552213191986084
1772533404096605700,6.680605712890625,-9.915535926818848,-1.393027424812317,5.320127010345459
1772533404106571500,6.690571533203125,-14.001707077026367,-0.8654562830924988,4.7358551025390625
1772533404116504800,6.7005048828125,-15.921262741088867,-0.6654149293899536,3.9550533294677734
1772533404126427100,6.71042724609375,-15.323974609375,-0.7908779382705688,3.0495595932006836
1772533404136359400,6.720359375,-13.228904724121094,-0.6970453858375549,2.817866325378418
1772533404146290400,6.73029052734375,-10.997015953063965,-0.3027946949005127,2.7528605461120605
1772533404156222200,6.74022216796875,-8.691970825195312,0.3905774652957916,2.2381479740142822
1772533404166136000,6.750135986328125,-6.155372619628906,0.6139770150184631,1.2609919309616089
1772533404176066000,6.760066162109375,-4.003674030303955,0.6662343740463257,-0.06664109230041504
1772533404186025500,6.770025390625,-2.2320356369018555,1.182725429534912,-1.644223928451538
1772533404195958500,6.77995849609375,-1.823348045349121,1.8674499988555908,-1.7557313442230225
1772533404205897000,6.78989697265625,-2.675262451171875,3.240177631378174,-0.7948172092437744
1772533404215830500,6.79983056640625,-3.465029239654541,4.86839485168457,-0.5014605522155762
1772533404225723000,6.809722900390625,-3.8030381202697754,5.3142008781433105,-0.8494067192077637
1772533404235652000,6.819652099609375,-4.261716365814209,5.40562629699707,-1.2445061206817627
1772533404245609700,6.829609619140625,-4.164906024932861,5.619626998901367,-0.9695589542388916
1772533404255542000,6.8395419921875,-2.0420045852661133,4.707277774810791,0.4257018566131592
1772533404265480200,6.849480224609375,0.7128086090087891,4.146327495574951,2.669121742248535
1772533404275413000,6.8594130859375,4.380937576293945,5.049036026000977,4.7794647216796875
1772533404285339600,6.869339599609375,10.089783668518066,6.41436767578125,4.182458877563477
1772533404295272000,6.87927197265625,14.72325611114502,7.734009265899658,3.057255744934082
1772533404305207300,6.889207275390625,19.44799041748047,6.424186706542969,3.653313398361206
1772533404315139600,6.8991396484375,26.96575927734375,1.8611466884613037,4.0451459884643555
1772533404325067500,6.909067626953125,36.749046325683594,-3.91229248046875,0.8697172999382019
1772533404334999600,6.91899951171875,47.173194885253906,-8.34738826751709,-3.6439220905303955
1772533404344937200,6.928937255859375,49.9783935546875,-9.453893661499023,-4.020975112915039
1772533404354869800,6.938869873046875,41.2449836730957,-8.496957778930664,-4.907135009765625
1772533404364783600,6.94878369140625,29.50803565979004,-7.332498073577881,-7.313845634460449
1772533404374714400,6.95871435546875,20.398752212524414,-5.298631191253662,-7.737375259399414
1772533404384636000,6.968635986328125,15.597485542297363,-2.5645949840545654,-6.629816055297852
1772533404394565600,6.978565673828125,13.955899238586426,-0.8872479796409607,-5.625265121459961
1772533404404521000,6.98852099609375,12.71334457397461,-0.18976366519927979,-5.240298271179199
1772533404414453200,6.998453369140625,9.88050651550293,0.9790266156196594,-4.112285137176514
1772533404424400000,7.00839990234375,6.684425354003906,2.1474051475524902,-1.7492444515228271
1772533404434333700,7.018333740234375,4.138790130615234,2.410261631011963,0.022914230823516846
1772533404444255200,7.028255126953125,1.4992647171020508,1.9598772525787354,0.17176419496536255
1772533404454187800,7.038187744140625,-2.0095510482788086,1.0999846458435059,-0.15412652492523193
1772533404464094500,7.048094482421875,-6.035165309906006,-0.31674665212631226,-0.6178867816925049
1772533404474024700,7.058024658203125,-10.184980392456055,-1.610382318496704,-1.303170084953308
1772533404483985700,7.067985595703125,-14.673532485961914,-1.5046435594558716,-0.5593644380569458
1772533404493918700,7.077918701171875,-18.744626998901367,-0.836117148399353,0.635697603225708
1772533404503841500,7.087841552734375,-21.512489318847656,-0.40188121795654297,1.4600963592529297
1772533404513773600,7.097773681640625,-22.991497039794922,-0.3619939088821411,2.514707565307617
1772533404523703800,7.107703857421875,-23.580738067626953,-0.4009026288986206,3.8264973163604736
1772533404533635600,7.117635498046875,-23.51615333557129,-0.5160739421844482,5.251166820526123
1772533404543569200,7.127569091796875,-22.540668487548828,-0.7064081430435181,5.565640926361084
1772533404553501200,7.137501220703125,-19.623863220214844,-1.2818422317504883,4.354745864868164
1772533404563437800,7.147437744140625,-15.833988189697266,-1.8903546333312988,3.8702685832977295
1772533404573370400,7.157370361328125,-12.784646034240723,-2.173612594604492,4.276323318481445
1772533404583299000,7.167299072265625,-10.29456615447998,-2.670483112335205,3.534578561782837
1772533404593231400,7.1772314453125,-8.595898628234863,-3.120633602142334,2.1692583560943604
1772533404603141600,7.1871416015625,-7.639547348022461,-3.2270166873931885,1.3682507276535034
1772533404613071600,7.197071533203125,-7.350247383117676,-3.5088462829589844,0.6138473749160767
1772533404623036200,7.2070361328125,-7.974562168121338,-3.8729758262634277,0.7050408124923706
1772533404632969500,7.216969482421875,-8.975537300109863,-3.7001075744628906,1.9965157508850098
1772533404642892300,7.226892333984375,-9.37879753112793,-3.3176817893981934,3.251868724822998
1772533404652824800,7.236824951171875,-8.909520149230957,-3.385735511779785,3.4481148719787598
1772533404662741800,7.24674169921875,-8.357288360595703,-3.6883013248443604,2.4839887619018555
1772533404672672800,7.2566728515625,-7.987621784210205,-3.875912666320801,1.313594102859497
1772533404682598000,7.266597900390625,-6.616467475891113,-3.747148036956787,0.33603018522262573
1772533404692528000,7.276528076171875,-5.153941631317139,-3.003037929534912,0.22961533069610596
1772533404702481000,7.28648095703125,-5.062084674835205,-1.9193031787872314,0.9688611030578613
1772533404712413400,7.296413330078125,-6.5602922439575195,-0.5589843988418579,2.389711380004883
1772533404722345200,7.30634521484375,-8.145292282104492,1.2028613090515137,3.1710662841796875
1772533404732277500,7.316277587890625,-8.69093132019043,2.26603102684021,2.8824620246887207
1772533404742211000,7.326211181640625,-8.057592391967773,2.435939073562622,2.2118821144104004
1772533404752143400,7.336143310546875,-5.5474653244018555,2.2936792373657227,0.5701491236686707
1772533404762071800,7.34607177734375,-2.6291065216064453,2.0483531951904297,-0.7134188413619995
1772533404772004000,7.356004150390625,-0.44422054290771484,2.5505211353302,-0.9200593829154968
1772533404781942800,7.36594287109375,1.6345596313476562,3.294341564178467,-1.391767978668213
1772533404791875600,7.37587548828125,1.8308544158935547,4.715956687927246,-2.667649507522583
1772533404801842400,7.385842529296875,-0.6499452590942383,6.430469036102295,-3.8030519485473633
1772533404811778600,7.395778564453125,-1.6706042289733887,7.9534382820129395,-5.4452996253967285
1772533404821670700,7.405670654296875,2.450115203857422,9.292402267456055,-5.651119709014893
1772533404831602400,7.4156025390625,11.262639999389648,10.478026390075684,-0.44749653339385986
1772533404841530000,7.425530029296875,27.125146865844727,10.40023422241211,6.4342732429504395
1772533404851461600,7.435461669921875,48.66415786743164,8.242748260498047,10.85401439666748
1772533404861392100,7.44539208984375,57.16193389892578,1.0387500524520874,12.903247833251953
1772533404871323400,7.455323486328125,48.9124641418457,-2.5995845794677734,8.199821472167969
1772533404881271800,7.465271728515625,37.25126647949219,-0.6214631795883179,4.389077186584473
1772533404891204900,7.475204833984375,28.50339126586914,2.132356643676758,5.105648994445801
1772533404901134800,7.485134765625,20.35685920715332,2.483362913131714,2.823500156402588
1772533404911067600,7.495067626953125,12.935311317443848,1.2227232456207275,-1.7316384315490723
1772533404920997000,7.5049970703125,7.786355018615723,0.4713592529296875,-3.4872355461120605
1772533404930929400,7.514929443359375,3.697556495666504,1.4733119010925293,-2.7731544971466064
1772533404940825900,7.524825927734375,-1.8397650718688965,2.7328028678894043,0.2895330786705017
1772533404950754600,7.534754638671875,-6.703360557556152,3.2251932621002197,4.265768527984619
1772533404960696300,7.5446962890625,-9.923419952392578,3.0157663822174072,7.032329559326172
1772533404970626300,7.554626220703125,-12.898557662963867,2.1616313457489014,8.177139282226562
1772533404980554200,7.56455419921875,-14.54133129119873,-0.15311789512634277,7.915602684020996
1772533404990484200,7.574484130859375,-12.877185821533203,-2.9440953731536865,5.472620964050293
1772533405000454700,7.58445458984375,-8.35511589050293,-4.894394397735596,1.2940571308135986
1772533405010388700,7.594388671875,-4.2518534660339355,-6.374972343444824,-1.6483347415924072
1772533405020318000,7.60431787109375,-2.4095497131347656,-6.3139448165893555,-3.7223291397094727
1772533405030251300,7.614251220703125,-2.937647819519043,-5.162055969238281,-4.11249303817749
1772533405040144600,7.62414453125,-5.469979763031006,-3.931657552719116,-2.889378309249878
1772533405050074000,7.63407421875,-8.98067569732666,-2.809020757675171,-1.709356427192688
1772533405060042800,7.644042724609375,-13.084465026855469,-2.186717987060547,-0.7361235618591309
1772533405069976300,7.653976318359375,-17.33654022216797,-1.744408369064331,0.06653743982315063
1772533405079898600,7.663898681640625,-20.718463897705078,-1.467897653579712,0.05252361297607422
1772533405089831000,7.673830810546875,-21.7532901763916,-1.725126028060913,-1.1393762826919556
1772533405099759600,7.683759521484375,-19.958744049072266,-2.2072434425354004,-2.911900043487549
1772533405109691600,7.693691650390625,-16.11556053161621,-2.524000406265259,-4.544890880584717
1772533405119631000,7.703631103515625,-11.886341094970703,-2.801568031311035,-4.3875837326049805
1772533405129563600,7.713563720703125,-7.814253330230713,-2.5725221633911133,-1.8814188241958618
1772533405139507500,7.723507568359375,-4.3041863441467285,-1.9270045757293701,2.0123038291931152
1772533405149441000,7.73344091796875,-1.142364501953125,-0.9758627414703369,5.422026634216309
1772533405159327700,7.74332763671875,1.0373544692993164,-0.2902674674987793,6.135759353637695
1772533405169257000,7.753257080078125,1.0770454406738281,-0.6323843002319336,4.039174556732178
1772533405179219700,7.7632197265625,0.5213737487792969,-1.4488027095794678,0.87995445728302
1772533405189152000,7.773152099609375,0.3879823684692383,-2.0045433044433594,-1.8590624332427979
1772533405199096300,7.783096435546875,0.2551898956298828,-2.515584707260132,-3.484252452850342
1772533405209030100,7.793030029296875,-0.4400959014892578,-2.864997148513794,-3.145908832550049
1772533405218951400,7.802951416015625,-2.807023048400879,-3.77829647064209,-3.648956298828125
1772533405228884000,7.812884033203125,-5.68302059173584,-4.7092485427856445,-3.896744728088379
1772533405238807800,7.822807861328125,-8.735207557678223,-3.4722650051116943,-2.5157337188720703
1772533405248739300,7.8327392578125,-10.158468246459961,-1.3194243907928467,-1.1465227603912354
1772533405258675700,7.84267578125,-10.042896270751953,-0.7007343769073486,-1.6650941371917725
1772533405268607700,7.852607666015625,-8.852165222167969,-1.118341088294983,-2.6237759590148926
1772533405278516200,7.86251611328125,-7.064624786376953,-1.2047559022903442,-2.9324183464050293
1772533405288445700,7.87244580078125,-5.253857612609863,-0.8529634475708008,-2.8367836475372314
1772533405298370800,7.882370849609375,-3.3590097427368164,-0.3347076177597046,-2.1293413639068604
1772533405308300000,7.892300048828125,-1.3635249137878418,0.3334157466888428,-1.4548357725143433
1772533405318268700,7.9022685546875,0.28511810302734375,1.4354283809661865,-1.5325289964675903
1772533405328201700,7.91220166015625,0.8153963088989258,2.2401506900787354,-2.076751470565796
1772533405338131700,7.922131591796875,-0.8048067092895508,3.043170928955078,-3.1439359188079834
1772533405348064800,7.932064697265625,-3.501086711883545,5.122954368591309,-4.007669448852539
1772533405358001000,7.9420009765625,-3.574425220489502,8.441413879394531,-3.545145273208618
1772533405367934200,7.951934326171875,2.005375862121582,10.74811840057373,-2.3533518314361572
1772533405377862000,7.96186181640625,12.941314697265625,11.725648880004883,-1.2301242351531982
1772533405387794400,7.97179443359375,24.794946670532227,9.182016372680664,1.764853596687317
1772533405397729800,7.981729736328125,32.38051223754883,2.5998668670654297,7.371949672698975
1772533405407662600,7.99166259765625,36.6495475769043,1.5334193706512451,9.441672325134277
1772533405417589500,8.001589599609375,39.35627746582031,1.823547124862671,7.963359832763672
1772533405427521800,8.011521728515625,37.52775573730469,-0.2608036994934082,5.346132755279541
1772533405437446100,8.021446044921875,30.954044342041016,-1.831385850906372,0.304715096950531
1772533405447377700,8.031377685546875,23.07524871826172,-2.136380672454834,-2.6553797721862793
1772533405457310700,8.041310791015626,16.007980346679688,-0.8424273729324341,-1.5752754211425781
1772533405467242200,8.0512421875,8.875405311584473,1.1209053993225098,0.1734243631362915
1772533405477184000,8.06118408203125,1.3138408660888672,2.2044825553894043,1.7524499893188477
1772533405487116800,8.07111669921875,-4.929596424102783,2.9813196659088135,3.4018852710723877
1772533405497050600,8.081050537109375,-8.184255599975586,3.227860927581787,5.906888484954834
1772533405506983400,8.0909833984375,-7.893681049346924,2.4271469116210938,8.426204681396484
1772533405516904000,8.100904052734375,-6.666777610778809,1.1780328750610352,8.44840145111084
1772533405526835700,8.110835693359375,-4.047229290008545,-0.37895071506500244,5.205693244934082
1772533405536747300,8.120747314453125,-0.5247564315795898,-2.604189872741699,0.39459729194641113
1772533405546677000,8.130677001953124,1.0818300247192383,-4.466152667999268,-2.484769105911255
1772533405556609000,8.140609130859374,0.03877544403076172,-4.569824695587158,-3.6742336750030518
1772533405566538800,8.150538818359376,-3.4354047775268555,-3.785792350769043,-3.6043055057525635
1772533405576501500,8.16050146484375,-8.490177154541016,-3.0436642169952393,-2.719038724899292
1772533405586434600,8.1704345703125,-13.994956970214844,-2.1703433990478516,-1.5695070028305054
1772533405596339700,8.180339599609376,-19.036697387695312,-1.420906901359558,-0.7219594717025757
1772533405606270200,8.190270263671875,-23.116985321044922,-1.1012451648712158,-1.0984091758728027
1772533405616225300,8.200225341796875,-25.387332916259766,-1.7772059440612793,-2.072596788406372
1772533405626158000,8.210157958984375,-23.987567901611328,-2.867753267288208,-2.234891653060913
1772533405636091400,8.22009130859375,-19.570024490356445,-2.996262550354004,-2.5180540084838867
1772533405646024400,8.2300244140625,-14.005605697631836,-2.9893369674682617,-2.666585683822632
1772533405655966700,8.239966796875,-9.055656433105469,-2.895219326019287,-1.9911231994628906
1772533405665900500,8.249900634765625,-5.1101555824279785,-2.4661989212036133,-0.8708231449127197
1772533405675820300,8.2598203125,-2.6576805114746094,-1.8593535423278809,0.5212504863739014
1772533405685752600,8.269752685546875,-1.7003769874572754,-0.9291095733642578,1.6837029457092285
1772533405695679500,8.279679443359376,-1.2370939254760742,-0.43633419275283813,1.7640831470489502
1772533405705611500,8.289611572265626,-1.3582267761230469,-0.6792035102844238,1.0231006145477295
1772533405715524600,8.299524658203126,-2.0250935554504395,-1.061394214630127,0.4828278720378876
1772533405725454600,8.30945458984375,-2.602187156677246,-1.1636085510253906,-0.05425107479095459
1772533405735392800,8.319392822265625,-2.637009620666504,-1.1764096021652222,-0.3406105041503906
1772533405745323500,8.329323486328125,-2.5805158615112305,-1.5686149597167969,-0.23891954123973846
1772533405755294700,8.339294677734374,-3.1019983291625977,-1.8985118865966797,-0.19626790285110474
1772533405765229600,8.3492294921875,-4.777952671051025,-1.662748098373413,-0.016330331563949585
1772533405775142000,8.359141845703125,-6.449082374572754,-1.196861743927002,0.39159685373306274
1772533405785074400,8.369074462890625,-7.862342357635498,-0.7539817690849304,0.5245431065559387
1772533405794980400,8.37898046875,-8.91390609741211,-0.1435016393661499,0.6991530060768127
1772533405804910300,8.388910400390625,-9.103555679321289,0.5422326922416687,0.28547096252441406
1772533405814869200,8.398869140625,-8.529017448425293,0.5769179463386536,-0.7159733772277832
1772533405824802000,8.408802001953125,-8.366199493408203,0.804226815700531,-0.8097550868988037
1772533405834729700,8.418729736328125,-8.764742851257324,1.4347217082977295,-0.16687005758285522
1772533405844662000,8.428662109375,-9.549415588378906,1.9977343082427979,0.9113026857376099
1772533405854593000,8.438593017578125,-9.814908027648926,2.7724523544311523,3.2162375450134277
1772533405864525300,8.448525390625,-10.33385944366455,4.059606552124023,4.367552280426025
1772533405874457900,8.458457763671875,-12.852131843566895,5.082458972930908,3.7631731033325195
1772533405884390100,8.46839013671875,-14.898479461669922,5.898494720458984,2.424431562423706
1772533405894295600,8.478295654296875,-11.719757080078125,5.553014278411865,2.1239023208618164
1772533405904225300,8.488225341796875,2.5246381759643555,3.023988723754883,4.527718544006348
1772533405914194400,8.4981943359375,28.87158203125,0.66168212890625,5.514612674713135
1772533405924128000,8.5081279296875,55.45089340209961,1.1479815244674683,2.895787239074707
1772533405934056000,8.518055908203126,61.749961853027344,-2.4757227897644043,3.81390643119812
1772533405943989200,8.5279892578125,47.75988006591797,-7.847363471984863,-0.18403494358062744
1772533405953912800,8.537912841796874,36.66967010498047,-6.166273593902588,-5.254870891571045
1772533405963844900,8.547844970703125,33.761539459228516,-4.152611255645752,-4.5575456619262695
1772533405973753600,8.557753662109375,31.944950103759766,-3.9846038818359375,-1.8267773389816284
1772533405983683300,8.567683349609375,28.7330265045166,-2.4547841548919678,-0.648321270942688
1772533405993628200,8.577628173828124,22.833545684814453,-0.21611475944519043,0.9012422561645508
1772533406003559400,8.587559326171874,14.653817176818848,2.1186795234680176,2.0859222412109375
1772533406013508400,8.59750830078125,7.189398765563965,4.232636451721191,3.2880470752716064
1772533406023441400,8.60744140625,0.8594532012939453,5.871390342712402,5.615139007568359
1772533406033367300,8.6173671875,-4.529956340789795,6.76139497756958,7.32243537902832
1772533406043299600,8.627299560546875,-7.56308650970459,5.974979877471924,7.8485236167907715
1772533406063166500,8.64716650390625,0.7517204284667969,-0.08929187059402466,4.125555992126465
1772533406073107000,8.65710693359375,3.3680601119995117,-1.613476037979126,1.953170895576477
1772533406083040300,8.667040283203125,2.6859817504882812,-2.1858811378479004,0.6910116672515869
1772533406092942000,8.676942138671874,-0.42131996154785156,-1.9265094995498657,-0.31148359179496765
1772533406102872300,8.686872314453124,-5.8397040367126465,-2.0387167930603027,-1.5982916355133057
1772533406112806000,8.696805908203125,-12.842916488647461,-2.6394734382629395,-2.6441314220428467
1772533406122736400,8.706736328125,-18.63925552368164,-2.5159249305725098,-3.1146292686462402
1772533406132670500,8.71667041015625,-22.67656707763672,-1.6504786014556885,-2.213660955429077
1772533406142601500,8.7266015625,-22.539066314697266,-1.025541067123413,-0.8333430290222168
1772533406152539100,8.7365390625,-20.2840633392334,-0.8851100206375122,0.19511893391609192
1772533406162470700,8.746470703125,-16.1416072845459,-1.453681468963623,0.6523493528366089
1772533406172394000,8.75639404296875,-11.332342147827148,-2.89994215965271,-0.48824208974838257
1772533406182324500,8.766324462890625,-8.449668884277344,-3.0714364051818848,-2.543921947479248
1772533406192254200,8.776254150390624,-7.610296726226807,-2.0416531562805176,-4.388147830963135
1772533406202185000,8.78618505859375,-5.62324333190918,-1.6495596170425415,-4.084183216094971
1772533406212127700,8.796127685546875,-4.234340190887451,-1.8014013767242432,-2.1170527935028076
1772533406222059800,8.806059814453125,-3.5150585174560547,-1.345643162727356,0.6362457275390625
1772533406231997700,8.815997802734374,-2.9693803787231445,-0.5827057361602783,2.9768645763397217
1772533406241930000,8.825929931640625,-2.8109073638916016,-0.3710266351699829,4.1645612716674805
1772533406251871000,8.83587109375,-1.9365391731262207,-0.5599343776702881,4.095529556274414
1772533406261804300,8.84580419921875,-1.1931829452514648,-0.9128239154815674,2.874852180480957
1772533406271737000,8.855737060546875,-1.9331727027893066,-1.8450357913970947,1.0391329526901245
1772533406281670400,8.86567041015625,-3.5035057067871094,-2.394235610961914,-0.3312922418117523
1772533406291609300,8.875609375,-7.420551300048828,-2.3565011024475098,-0.7997219562530518
1772533406301543200,8.885543212890624,-8.912988662719727,-2.21709942817688,-1.065017819404602
1772533406311468800,8.89546875,-6.696748733520508,-2.3720672130584717,-1.5771470069885254
1772533406321401900,8.90540185546875,-4.388509273529053,-3.1152172088623047,-1.752506971359253
1772533406331309000,8.91530908203125,-1.5659050941467285,-3.8327136039733887,-1.0607579946517944
1772533406341239300,8.9252392578125,0.3921928405761719,-4.322041988372803,0.06998002529144287
1772533406351200000,8.935199951171874,1.1905908584594727,-3.987595558166504,0.8572474718093872
1772533406361133300,8.94513330078125,0.44385337829589844,-2.4620180130004883,0.5150580406188965
1772533406371062300,8.955062255859374,-1.7486705780029297,-1.246325135231018,0.11716568470001221
1772533406380995300,8.964995361328125,-3.896200656890869,-1.489169955253601,-0.6262933015823364
1772533406390918700,8.974918701171875,-4.25014066696167,-1.9436557292938232,-1.1971707344055176
1772533406400850700,8.9848505859375,-3.6331562995910645,-1.6550358533859253,-0.8074836134910583
1772533406410759400,8.994759521484376,-1.7195425033569336,-0.6060800552368164,-0.1140446662902832
1772533406420689200,9.004689208984376,1.8068046569824219,0.7141551971435547,0.4260817766189575
1772533406430643500,9.0146435546875,5.046525955200195,1.3920834064483643,0.30258166790008545
1772533406440575700,9.02457568359375,6.488031387329102,1.3704116344451904,-0.4511030316352844
1772533406450516000,9.034515869140625,6.3257036209106445,0.8887009620666504,-1.3052692413330078
1772533406460448800,9.04444873046875,3.72995662689209,-0.17555546760559082,-1.2449474334716797
1772533406470380800,9.054380859375,-0.9115195274353027,-0.7296860218048096,-0.08071362972259521
1772533406480313600,9.064313720703124,-4.518920421600342,0.8729362487792969,1.1680222749710083
1772533406490187500,9.0741875,-5.311994552612305,3.51617431640625,2.032597064971924
1772533406500114400,9.084114501953126,-3.9840826988220215,4.826286315917969,1.8107472658157349
1772533406510098400,9.094098388671876,-1.2485742568969727,3.2021331787109375,0.38355159759521484
1772533406520031200,9.10403125,1.2846183776855469,0.6115245819091797,-0.7545645236968994
1772533406529972000,9.113971923828124,2.641598701477051,-1.0074408054351807,-1.107742190361023
1772533406539905500,9.123905517578125,3.679302215576172,-1.5884329080581665,-0.2686777710914612
1772533406549828000,9.133828125,8.007312774658203,-0.6362371444702148,1.5622217655181885
1772533406559760600,9.1437607421875,11.929837226867676,1.2410554885864258,3.168318271636963
1772533406569689900,9.15368994140625,11.94290542602539,2.3077101707458496,3.8361117839813232
1772533406579622000,9.163621826171875,9.11280632019043,2.5123510360717773,3.686809539794922
1772533406589565400,9.1735654296875,5.476877212524414,2.5939812660217285,2.6739189624786377
1772533406599498500,9.18349853515625,3.4015045166015625,2.3277885913848877,0.7579137682914734
1772533406609419800,9.193419677734376,3.359299659729004,1.1999907493591309,-1.0781773328781128
1772533406619351800,9.203351806640624,3.417159080505371,0.11483335494995117,-2.605499029159546
1772533406629291300,9.213291259765626,2.1023454666137695,-0.4300694465637207,-3.541773557662964
1772533406639224000,9.22322412109375,0.09761333465576172,-1.4044826030731201,-3.8503453731536865
1772533406649158400,9.233158447265625,-1.3056507110595703,-1.9148778915405273,-3.5010037422180176
1772533406659091200,9.24309130859375,-1.7630553245544434,-0.7711755037307739,-2.0785608291625977
1772533406669018400,9.253018310546874,-2.1322288513183594,0.5379774570465088,-0.420693039894104
1772533406678950700,9.26295068359375,-2.712329864501953,0.75823974609375,0.8845163583755493
1772533406688884500,9.272884521484375,-1.4644880294799805,0.10148167610168457,0.6347250938415527
1772533406698816800,9.282816650390625,2.5099916458129883,-0.3448382616043091,-0.5262924432754517
1772533406708722200,9.29272216796875,6.803367614746094,-0.7457752227783203,-0.4037121534347534
1772533406718652000,9.30265185546875,7.893310546875,-1.1481832265853882,2.009056329727173
1772533406728606700,9.312606689453125,4.2288923263549805,-1.2583469152450562,4.30870246887207
1772533406738539000,9.3225390625,0.8878402709960938,-1.0183203220367432,4.609084129333496
1772533406748472600,9.33247265625,-0.7906246185302734,-0.5619057416915894,2.966254234313965
1772533406758405000,9.342405029296875,-2.8643321990966797,-0.30736589431762695,0.46841907501220703
1772533406768386600,9.352386474609375,-4.680230617523193,-0.30826640129089355,-1.1282718181610107
1772533406778323700,9.36232373046875,-5.046464443206787,-0.4193260669708252,-1.590267539024353
1772533406788205800,9.372205810546875,-4.7785258293151855,-0.6093957424163818,-1.6733739376068115
1772533406798137600,9.3821376953125,-4.661884784698486,-0.9329488277435303,-1.9870092868804932
1772533406808059400,9.392059326171875,-4.430290699005127,-1.1748769283294678,-1.9077568054199219
1772533406817990100,9.401990234375,-3.797163486480713,-0.9939732551574707,-1.1598411798477173
1772533406827903000,9.411903076171875,-3.0651283264160156,-0.5349597930908203,-0.16347286105155945
1772533406837832000,9.42183203125,-2.240675926208496,-0.1154639720916748,0.6871322393417358
1772533406847804400,9.431804443359376,-0.98077392578125,0.030900955200195312,0.9397676587104797
1772533406857737700,9.44173779296875,-0.03755664825439453,-0.1553351879119873,0.5310248136520386
1772533406867655000,9.451655029296875,0.4379711151123047,-0.6141555309295654,-0.029414892196655273
1772533406877586700,9.461586669921875,0.9312829971313477,-1.0757291316986084,-0.36035969853401184
1772533406887518500,9.4715185546875,1.083003044128418,-1.4055737257003784,-0.6333525776863098
1772533406897450200,9.4814501953125,0.6040639877319336,-1.4945205450057983,-0.6839393377304077
1772533406907386000,9.49138623046875,-0.22238826751708984,-1.2902203798294067,-0.5798653364181519
1772533406917318400,9.501318359375,-1.2675938606262207,-0.8105676174163818,-0.5735698938369751
1772533406927244800,9.511244873046875,-2.149333953857422,-0.3478548526763916,-0.5258100032806396
1772533406937176600,9.521176513671875,-2.895380973815918,-0.0027267932891845703,-0.34184005856513977
1772533406947108000,9.531108154296875,-3.4499945640563965,0.2810637950897217,-0.344702810049057
1772533406957039900,9.541039794921875,-3.4503331184387207,0.7037501335144043,-0.4422674775123596
1772533406966972200,9.55097216796875,-2.6625518798828125,1.2337515354156494,-0.387577086687088
1772533406976904000,9.560904052734376,-1.20072603225708,1.1821062564849854,-0.25449568033218384
1772533406986811000,9.570810791015624,-0.0016374588012695312,0.6207613945007324,-0.3180730640888214
1772533406996740000,9.580739990234376,0.19530296325683594,0.2810513973236084,-0.47311121225357056
1772533407006680800,9.590680908203124,0.27266502380371094,0.32044196128845215,-0.4481358230113983
1772533407016611300,9.600611328125,0.7943706512451172,0.47922706604003906,-0.24922199547290802
1772533407026543000,9.610543212890626,1.4496002197265625,0.7009382247924805,0.2650822699069977
1772533407036473600,9.6204736328125,1.4939346313476562,0.8759458065032959,0.8400249481201172
1772533407046429000,9.630428955078125,0.9479169845581055,0.9950480461120605,1.121658205986023
1772533407056362000,9.640362060546876,0.026147842407226562,0.8260917663574219,1.060859203338623
1772533407066293200,9.650293212890626,-0.6090021133422852,0.6886131763458252,0.9115641117095947
1772533407076226000,9.66022607421875,-0.46428585052490234,0.6678509712219238,0.7772615551948547
1772533407086166500,9.67016650390625,-0.1739664077758789,0.35911083221435547,0.7133552432060242
1772533407096100000,9.68010009765625,0.07658100128173828,0.2186591625213623,0.17078208923339844
1772533407106020900,9.690020751953124,-0.44948482513427734,0.41500401496887207,-0.8473122119903564
1772533407115953200,9.699953125,-0.525273323059082,-0.09431266784667969,-0.952361524105072
1772533407135811800,9.719811767578125,0.07921791076660156,-0.49648523330688477,-0.04428000748157501
1772533407145754000,9.729754150390624,0.24185466766357422,-0.2545182704925537,-0.5168455243110657
1772533407155687000,9.73968701171875,-0.14545536041259766,-0.006727933883666992,-0.47757861018180847
1772533407165575200,9.7495751953125,-0.849980354309082,0.23797941207885742,-0.14975705742835999
1772533407175503600,9.759503662109376,-1.381624698638916,0.4571051597595215,0.07203787565231323
1772533407185477400,9.769477294921876,-1.473219394683838,0.6887781620025635,0.15171605348587036
1772533407195410200,9.77941015625,-0.7074718475341797,0.6157028675079346,-0.23300962150096893
1772533407205356800,9.789356689453125,0.48580455780029297,0.5737857818603516,-1.2449251413345337
