time,seconds_elapsed,z,y,x
1772533397551216400,0.13521630859375,0.3801550269126892,-0.11930610239505768,0.4738955497741699
1772533397621008100,0.205008056640625,0.3918725848197937,-0.4568518102169037,1.2247517108917236
1772533397650827800,0.234827880859375,0.3003957271575928,-1.1736204624176025,2.102370500564575
1772533397660772600,0.244772705078125,0.09906667470932007,-0.6368761658668518,1.9851949214935303
1772533397670692600,0.254692626953125,0.1384802907705307,0.8605751395225525,1.706103801727295
1772533397680627500,0.26462744140625,0.4579170346260071,1.2993179559707642,1.3355358839035034
1772533397690540800,0.274540771484375,0.6858769059181213,1.2726871967315674,0.8232919573783875
1772533397700467000,0.284467041015625,0.8179658055305481,1.0862714052200317,0.3886769115924835
1772533397710397700,0.294397705078125,0.9360735416412354,0.7710955739021301,0.0745663121342659
1772533397720325600,0.30432568359375,0.9829437732696533,0.8552489876747131,0.07989247888326645
1772533397730296000,0.314296142578125,0.9861394762992859,0.9829437732696533,0.4525908827781677
1772533397740241200,0.3242412109375,0.7774869799613953,0.618767261505127,0.9010539650917053
1772533397750125300,0.334125244140625,0.26311254501342773,-0.09054480493068695,1.1704248189926147
1772533397760045800,0.3440458984375,-0.20985090732574463,-0.43874284625053406,1.2407301664352417
1772533397769986600,0.353986572265625,-0.26098209619522095,-0.06817491352558136,1.1672290563583374
1772533397779915000,0.3639150390625,-0.04793548583984375,0.3609808385372162,0.992530882358551
1772533397789882600,0.373882568359375,0.14167599380016327,0.299330472946167,0.7593780159950256
1772533397799827000,0.383826904296875,0.2876129150390625,-0.2641777992248535,0.5218310356140137
1772533397809719600,0.393719482421875,0.4749607741832733,-1.1022498607635498,0.24819929897785187
1772533397819643000,0.403642822265625,0.6773550510406494,-1.7401913404464722,-0.09800143539905548
1772533397829579000,0.4135791015625,0.825422465801239,-2.1917169094085693,-0.4866783320903778
1772533397839507500,0.423507568359375,0.8850755095481873,-2.730724811553955,-0.8829450011253357
1772533397849474800,0.433474853515625,0.7924002408981323,-2.798766613006592,-1.1725552082061768
1772533397859419000,0.4434189453125,0.4142425060272217,-2.1002399921417236,-1.3493839502334595
1772533397869340400,0.45334033203125,-0.16298064589500427,-1.3813409805297852,-1.5388622283935547
1772533397879275500,0.463275634765625,-0.6858769059181213,-0.7274209856987,-1.6549726724624634
1772533397889193200,0.473193115234375,-0.993596076965332,-0.1267627328634262,-1.621950387954712
1772533397899121200,0.48312109375,-1.0202269554138184,0.28015628457069397,-1.461233377456665
1772533397909054500,0.493054443359375,-0.8541837334632874,0.4142425060272217,-1.2332735061645508
1772533397918984400,0.502984375,-0.7497909069061279,0.37589409947395325,-1.0053136348724365
1772533397928930800,0.512930908203125,-0.8477923274040222,0.3673722445964813,-0.8392704725265503
1772533397938867500,0.522867431640625,-1.0212922096252441,0.252460241317749,-0.7774869799613953
1772533397948785000,0.532784912109375,-1.038335919380188,-0.13528458774089813,-0.810509204864502
1772533397958713900,0.5427138671875,-0.8232919573783875,-0.5559184551239014,-0.779617428779602
1772533397968647700,0.552647705078125,-0.39613354206085205,-0.7476604580879211,-0.535679042339325
1772533397978577000,0.562576904296875,0.22156846523284912,-0.9168993234634399,-0.18748101592063904
1772533397988512300,0.57251220703125,0.5111786723136902,-0.7497909069061279,-0.06817491352558136
1772533397998442200,0.582442138671875,0.4749607741832733,-0.2439383566379547,-0.23861220479011536
1772533398008350500,0.5923505859375,0.33115431666374207,0.36524176597595215,-0.4675041437149048
1772533398018278100,0.602278076171875,0.00852186419069767,0.8595098853111267,-0.7753564715385437
1772533398028248800,0.612248779296875,-0.5069177746772766,0.9978570342063904,-1.232208251953125
1772533398038180900,0.622180908203125,-0.970160961151123,0.5665708184242249,-1.686929702758789
1772533398048100900,0.632100830078125,-1.0958584547042847,0.04473978653550148,-1.9500422477722168
1772533398058031600,0.642031494140625,-0.8914669156074524,-0.29080861806869507,-2.0448479652404785
1772533398067964400,0.65196435546875,-0.6379414200782776,-0.47283029556274414,-2.118349075317383
1772533398077895400,0.6618955078125,-0.503722071647644,-0.17469821870326996,-2.1725428104400635
1772533398087831800,0.671831787109375,-0.45898228883743286,0.47283029556274414,-2.0299346446990967
1772533398097763300,0.681763427734375,-0.5559184551239014,1.3280792236328125,-1.8073009252548218
1772533398107692000,0.691692138671875,-0.7370080947875977,2.1682817935943604,-1.6464507579803467
1772533398117623300,0.701623291015625,-0.8403357267379761,2.661484718322754,-1.5134297609329224
1772533398127555600,0.7115556640625,-0.9477910995483398,2.7689402103424072,-1.4015803337097168
1772533398137486800,0.72148681640625,-1.153381109237671,2.525134801864624,-1.3078398704528809
1772533398147424000,0.731424072265625,-1.3717538118362427,2.146977186203003,-1.2023817300796509
1772533398157356000,0.74135595703125,-1.4154284000396729,1.7231475114822388,-1.007444143295288
1772533398167280000,0.751280029296875,-1.1906641721725464,1.2449910640716553,-0.6901378631591797
1772533398177211400,0.76121142578125,-0.7519213557243347,0.5452661514282227,-0.3290238380432129
1772533398187129600,0.771129638671875,-0.28228676319122314,-0.5569837093353271,0.009587096981704235
1772533398197059600,0.7810595703125,0.0852186381816864,-1.4250154495239258,0.4973306655883789
1772533398207009500,0.791009521484375,0.37695932388305664,-1.6166242361068726,1.1427286863327026
1772533398216941600,0.800941650390625,0.4451342523097992,-1.7678873538970947,1.4899946451187134
1772533398226884600,0.810884521484375,0.45898228883743286,-2.070413589477539,1.3355358839035034
1772533398236817700,0.820817626953125,0.5388747453689575,-2.3035664558410645,0.8573794364929199
1772533398246742800,0.83074267578125,0.48028692603111267,-2.4495034217834473,0.28335198760032654
1772533398256675000,0.840675048828125,0.2652430236339569,-2.5592222213745117,-0.18854624032974243
1772533398266601700,0.850601806640625,0.02769605815410614,-2.3461756706237793,-0.4632432162761688
1772533398276533500,0.860533447265625,-0.13102366030216217,-1.3429925441741943,-0.27376487851142883
1772533398286465000,0.870465087890625,-0.11930610239505768,0.3726983964443207,0.40678587555885315
1772533398296396800,0.880396728515625,-0.01810896210372448,2.0970444679260254,1.1448591947555542
1772533398306316000,0.89031591796875,-0.1374150663614273,3.0672054290771484,1.6773425340652466
1772533398326179300,0.910179443359375,-0.512243926525116,2.6923763751983643,1.7753440141677856
1772533398336100000,0.92010009765625,-0.5399399995803833,1.9681512117385864,1.796648621559143
1772533398346030800,0.93003076171875,-0.447264701128006,1.0330097675323486,1.7391260862350464
1772533398355999000,0.9399990234375,-0.20985090732574463,0.06710968166589737,1.4122326374053955
1772533398365933600,0.94993359375,0.03621792420744896,-0.5133091807365417,0.803052544593811
1772533398375852000,0.95985205078125,0.12143656611442566,-0.6251586079597473,-0.07350108027458191
1772533398385785000,0.96978515625,-0.0426093190908432,-0.3386109471321106,-1.0745538473129272
1772533398395724500,0.979724609375,-0.3886769115924835,0.07882724702358246,-2.066152572631836
1772533398405658400,0.989658447265625,-0.7540518045425415,0.26204732060432434,-2.9297902584075928
1772533398415580400,0.999580322265625,-0.8627055883407593,0.2641777992248535,-3.2951653003692627
1772533398425512700,1.0095126953125,-0.6943987607955933,0.2556559145450592,-2.9415078163146973
1772533398435442200,1.019442138671875,-0.5378095507621765,0.07669677585363388,-1.9617598056793213
1772533398445374500,1.02937451171875,-0.5410051941871643,-0.3386109471321106,-0.6720288991928101
1772533398455307800,1.039307861328125,-0.6283543109893799,-0.7764217257499695,0.5442008972167969
1772533398465240000,1.049239990234375,-0.7061163187026978,-0.9999874830245972,1.3781452178955078
1772533398475171800,1.059171875,-0.6922683119773865,-0.9435301423072815,1.7348651885986328
1772533398485104000,1.069104248046875,-0.4675041437149048,-0.5857450366020203,1.682668685913086
1772533398495010300,1.07901025390625,-0.08095771074295044,-0.04047885537147522,1.3291444778442383
1772533398504940000,1.08893994140625,0.29293906688690186,0.32050198316574097,0.803052544593811
1772533398514898000,1.09889794921875,0.5708317756652832,0.3695026934146881,0.2854824364185333
1772533398524830500,1.10883056640625,0.779617428779602,0.20878566801548004,-0.05539211630821228
1772533398534737000,1.11873681640625,0.8190310597419739,-0.19493764638900757,-0.26311254501342773
1772533398544667000,1.1286669921875,0.6720288991928101,-0.6837464570999146,-0.3929378390312195
1772533398554632400,1.138632568359375,0.488808810710907,-0.9360735416412354,-0.4973306655883789
1772533398564566000,1.14856591796875,0.32476291060447693,-0.825422465801239,-0.6539199352264404
1772533398574489000,1.158489013671875,0.17256775498390198,-0.3716331720352173,-0.9211602807044983
1772533398584421600,1.168421630859375,0.02876129187643528,0.3045234978199005,-1.3334054946899414
1772533398594364000,1.178364013671875,-0.03408745676279068,1.0340749025344849,-1.7859963178634644
1772533398604297500,1.18829736328125,0.0159784946590662,1.5187560319900513,-2.1427161693573
1772533398614201600,1.19820166015625,0.15232832729816437,1.508103609085083,-2.2929141521453857
1772533398624132000,1.208132080078125,0.3790898025035858,0.9659000635147095,-2.206630229949951
1772533398634079500,1.21807958984375,0.6549851298332214,0.2226337045431137,-2.145911931991577
1772533398644011800,1.22801171875,0.9275516271591187,-0.24074266850948334,-2.2108912467956543
1772533398653944300,1.2379443359375,1.2183603048324585,-0.2641777992248535,-2.2087607383728027
1772533398663876600,1.247876708984375,1.5644278526306152,0.18535055220127106,-2.0555002689361572
1772533398673805800,1.257805908203125,1.7604306936264038,0.7338123917579651,-1.8094314336776733
1772533398683737900,1.26773779296875,1.5303404331207275,0.810509204864502,-1.5176907777786255
1772533398693672700,1.277672607421875,1.0596405267715454,0.4451342523097992,-1.1416635513305664
1772533398703605000,1.28760498046875,0.825422465801239,0.12250179797410965,-0.4557865858078003
1772533398713548500,1.297548583984375,0.9584434032440186,-0.45046040415763855,0.5218310356140137
1772533398723482000,1.307482177734375,1.2002513408660889,-1.0063788890838623,1.4899946451187134
1772533398733401000,1.317401123046875,1.484668493270874,-1.3366011381149292,2.1352596282958984
1772533398743333000,1.3273330078125,1.7263432741165161,-1.230077862739563,2.342980146408081
1772533398753264400,1.337264404296875,1.764691710472107,-0.9531172513961792,2.1448466777801514
1772533398763196200,1.347196044921875,1.4463201761245728,-0.7870740294456482,1.7306041717529297
1772533398773126100,1.357126220703125,0.8147701025009155,-0.8083786964416504,1.2662957906723022
1772533398783058000,1.367057861328125,0.10545806586742401,-1.04046630859375,0.8659012913703918
1772533398792994800,1.376994873046875,-0.3716331720352173,-1.3131660223007202,0.7732260227203369
1772533398802927000,1.386927001953125,-0.29400432109832764,-1.400515079498291,1.2705566883087158
1772533398812859100,1.396859130859375,0.5910711884498596,-0.9722914695739746,2.825397491455078
1772533398822791400,1.40679150390625,1.5452536344528198,-0.8659012913703918,4.916050434112549
1772533398832720600,1.416720703125,1.353644847869873,-1.7604306936264038,6.270760536193848
1772533398842652400,1.42665234375,0.6422023773193359,-2.896768093109131,6.5433268547058105
1772533398852580400,1.436580322265625,0.2769605815410614,-3.5549488067626953,6.462369441986084
1772533398862511900,1.446511962890625,0.1704372763633728,-4.025648593902588,5.228030681610107
1772533398872445000,1.45644482421875,0.09161003679037094,-4.046953201293945,2.5038301944732666
1772533398882376400,1.46637646484375,0.06497921794652939,-3.2408382892608643,-0.191741943359375
1772533398892292000,1.4762919921875,0.1267627328634262,-1.6155589818954468,-1.895715355873108
1772533398902222000,1.48622216796875,0.12995843589305878,0.02556559257209301,-2.8147451877593994
1772533398912184600,1.4961845703125,0.13421936333179474,0.6752246022224426,-3.176924228668213
1772533398922118100,1.5061181640625,0.34287187457084656,0.299330472946167,-2.8232669830322266
1772533398932046800,1.516046875,0.6038539409637451,-0.657115638256073,-1.7540392875671387
1772533398941980000,1.52597998046875,0.7082468271255493,-1.986260175704956,-0.3886769115924835
1772533398951875800,1.535875732421875,0.7093120217323303,-3.0725314617156982,0.6858769059181213
1772533398961805000,1.54580517578125,0.6624417901039124,-3.222729444503784,1.0585752725601196
1772533398971740700,1.55574072265625,0.5399399995803833,-2.278000831604004,0.57296222448349
1772533398981670400,1.56567041015625,0.34500235319137573,-0.703985869884491,-0.5697665214538574
1772533398991637500,1.575637451171875,0.10971900075674057,0.9085106253623962,-1.7529741525650024
1772533399001571000,1.585571044921875,-0.03728315606713295,2.2428481578826904,-2.286522626876831
1772533399011472000,1.595471923828125,0.02236989326775074,2.9170074462890625,-2.066152572631836
1772533399021402000,1.605402099609375,0.27376487851142883,2.876528739929199,-1.353644847869873
1772533399031321900,1.61532177734375,0.5644403696060181,2.4612209796905518,-0.48348262906074524
1772533399041251000,1.6252509765625,0.7359428405761719,1.9244766235351562,0.16617634892463684
1772533399051204400,1.635204345703125,0.7103772759437561,1.3419272899627686,0.3151758313179016
1772533399061136100,1.64513623046875,0.4760259985923767,0.7242252826690674,-0.07882724702358246
1772533399071057200,1.65505712890625,0.12143656611442566,0.22902509570121765,-0.7540518045425415
1772533399080987600,1.664987548828125,-0.23115555942058563,-0.05113118514418602,-1.3110355138778687
1772533399090921000,1.6749208984375,-0.5431357026100159,-0.07776200771331787,-1.5070384740829468
1772533399100852000,1.68485205078125,-0.7199643850326538,0.21517707407474518,-1.2407301664352417
1772533399110812700,1.694812744140625,-0.5473966002464294,0.6965292692184448,-0.8595098853111267
1772533399120746500,1.70474658203125,-0.03408745676279068,1.2524477243423462,-0.5974625945091248
1772533399130678800,1.7146787109375,0.34500235319137573,1.3408620357513428,-0.45046040415763855
1772533399140612600,1.724612548828125,0.316241055727005,0.9021192193031311,-0.695464015007019
1772533399150511600,1.73451171875,0.0639139786362648,0.618767261505127,-1.178946614265442
1772533399160441900,1.74444189453125,-0.22156846523284912,0.9605738520622253,-1.5697540044784546
1772533399170401000,1.754401123046875,-0.4355471432209015,1.4953209161758423,-1.7444522380828857
1772533399180334300,1.764334228515625,-0.5399399995803833,1.575080156326294,-1.6943862438201904
1772533399190269400,1.77426953125,-0.5282224416732788,1.0521838665008545,-1.5292751789093018
1772533399200202800,1.78420263671875,-0.5197005867958069,0.46217799186706543,-1.3334054946899414
1772533399210139000,1.794138916015625,-0.48348262906074524,0.16724158823490143,-1.1714900732040405
1772533399220072700,1.80407275390625,-0.30146095156669617,0.11611039936542511,-1.0820103883743286
1772533399229994800,1.813994873046875,-0.11930610239505768,0.24713405966758728,-1.192794680595398
1772533399239927300,1.82392724609375,-0.1267627328634262,0.43767762184143066,-1.628341794013977
1772533399249859600,1.833859619140625,-0.3077192008495331,0.36311131715774536,-2.12687087059021
1772533399259792000,1.8437919921875,-0.45898228883743286,0.12250179797410965,-2.2013039588928223
1772533399269719300,1.85371923828125,-0.4568518102169037,0.10971900075674057,-1.703973412513733
1772533399279651300,1.8636513671875,-0.39826399087905884,0.19387240707874298,-0.7892045378684998
1772533399289616000,1.873615966796875,-0.4749607741832733,0.05752258375287056,0.31198012828826904
1772533399299551200,1.88355126953125,-0.718899130821228,-0.3780245780944824,1.330209732055664
1772533399309445000,1.893445068359375,-1.1342068910598755,-0.8307486176490784,1.8328665494918823
1772533399319376400,1.90337646484375,-1.7007776498794556,-0.8754884004592896,1.4537767171859741
1772533399329314600,1.913314453125,-2.2140867710113525,-0.24287313222885132,0.17469821870326996
1772533399339246300,1.923246337890625,-2.483590841293335,0.7455299496650696,-1.5899934768676758
1772533399349176800,1.9331767578125,-2.2982401847839355,1.6230156421661377,-2.9404425621032715
1772533399359108600,1.943108642578125,-1.794518232345581,2.530461072921753,-2.5826575756073
1772533399369041000,1.953041015625,-1.2886656522750854,2.9074203968048096,-0.5197005867958069
1772533399378972700,1.96297265625,-0.8680317401885986,1.4441896677017212,1.6272765398025513
1772533399388898300,1.972898193359375,-0.3695026934146881,-0.4216991364955902,3.1843810081481934
1772533399398829300,1.982829345703125,0.1587197184562683,-1.1746857166290283,4.062932014465332
1772533399408761900,1.992761962890625,0.3279586136341095,-1.1342068910598755,4.242956161499023
1772533399418693000,2.002693115234375,0.1288931965827942,-0.9360735416412354,3.7126033306121826
1772533399428634400,2.01263427734375,-0.02769605815410614,-0.8158353567123413,2.432459592819214
1772533399438566700,2.022566650390625,0.01704372838139534,-0.9509868025779724,0.7029206156730652
1772533399448493000,2.0324931640625,0.16830681264400482,-1.1491200923919678,-0.6134410500526428
1772533399458424600,2.042424560546875,0.49413496255874634,-1.2705566883087158,-0.9168993234634399
1772533399468355300,2.052355224609375,0.9989222884178162,-1.5463188886642456,-0.4685693681240082
1772533399478287000,2.062287109375,1.4857337474822998,-1.8552364110946655,0.381220281124115
1772533399488216000,2.072216064453125,1.6666902303695679,-1.9606945514678955,1.2971875667572021
1772533399498147300,2.082147216796875,1.5187560319900513,-1.7242127656936646,1.956433653831482
1772533399508086500,2.09208642578125,1.0969237089157104,-1.169359564781189,2.019282341003418
1772533399518018800,2.102018798828125,0.5750926733016968,-0.5868102312088013,1.4729509353637695
1772533399527969000,2.111968994140625,0.35352420806884766,0.09054480493068695,0.9158340692520142
1772533399537903000,2.121903076171875,0.527157187461853,0.8850755095481873,0.7806826233863831
1772533399547816000,2.13181591796875,0.7806826233863831,1.5198211669921875,0.9595086574554443
1772533399557748000,2.141748046875,0.8893364071846008,1.9180852174758911,1.2258168458938599
1772533399567671300,2.15167138671875,0.8009220957756042,1.9681512117385864,1.4037108421325684
1772533399577602600,2.1616025390625,0.4983958899974823,1.5303404331207275,1.3184921741485596
1772533399587513000,2.17151318359375,0.007456631399691105,0.6720288991928101,0.7838783264160156
1772533399597442000,2.181442138671875,-0.4781564772129059,-0.12250179797410965,-0.11504516750574112
1772533399607401500,2.1914013671875,-0.6145063042640686,-0.3716331720352173,-1.1214240789413452
1772533399617333500,2.20133349609375,-0.4962654411792755,-0.19387240707874298,-1.988390564918518
1772533399627276300,2.2112763671875,-0.423829585313797,0.28122150897979736,-2.4953083992004395
1772533399637209300,2.221209228515625,-0.39613354206085205,0.7934654355049133,-2.650832414627075
1772533399647130400,2.23113037109375,-0.3726983964443207,1.1821423768997192,-2.5570919513702393
1772533399657062400,2.2410625,-0.40678587555885315,1.4484505653381348,-2.264152765274048
1772533399666991900,2.250991943359375,-0.5250267386436462,1.6336679458618164,-1.8168880939483643
1772533399676923600,2.260923583984375,-0.6549851298332214,1.626211404800415,-1.2844047546386719
1772533399686854700,2.270854736328125,-0.6975944638252258,1.3131660223007202,-0.7913349866867065
1772533399696786200,2.2807861328125,-0.6975944638252258,0.8520532846450806,-0.47283029556274414
1772533399706721000,2.290720947265625,-0.6443328261375427,0.447264701128006,-0.256721168756485
1772533399716653000,2.300653076171875,-0.5239614844322205,0.17576344311237335,-0.05858781561255455
1772533399726583000,2.3105830078125,-0.3886769115924835,-0.04687025398015976,0.11078423261642456
1772533399736514600,2.3205146484375,-0.28015628457069397,-0.20558997988700867,0.23115555942058563
1772533399746452200,2.3304521484375,-0.2236989289522171,-0.23009033501148224,0.30146095156669617
1772533399756384800,2.340384765625,-0.2023942768573761,-0.1491326242685318,0.3705679476261139
1772533399766313000,2.35031298828125,-0.29506954550743103,-0.04687025398015976,0.484547883272171
1772533399776244700,2.36024462890625,-0.5314181447029114,0.01384802907705307,0.6411371231079102
1772533399786176500,2.370176513671875,-0.7487256526947021,0.08628387749195099,0.8744231462478638
1772533399796108500,2.380108642578125,-0.8946625590324402,0.20772044360637665,1.1097065210342407
1772533399806052900,2.390052978515625,-0.9893351793289185,0.28441721200942993,1.2503172159194946
1772533399815986200,2.399986083984375,-1.0330097675323486,0.2982652485370636,1.2726871967315674
1772533399825915400,2.409915283203125,-1.153381109237671,0.40785109996795654,1.1597723960876465
1772533399835848200,2.41984814453125,-1.3728190660476685,0.7007901668548584,0.8840102553367615
1772533399845773800,2.42977392578125,-1.451646327972412,0.8999887704849243,0.5090482234954834
1772533399855705900,2.439705810546875,-1.2758828401565552,0.5687012672424316,0.27376487851142883
1772533399865634300,2.44963427734375,-0.9850742220878601,-0.3151758313179016,0.38548120856285095
1772533399875566000,2.459566162109375,-0.7849435806274414,-1.5452536344528198,0.7093120217323303
1772533399885507000,2.469507080078125,-0.9872047305107117,-2.5230045318603516,0.7849435806274414
1772533399895440000,2.47943994140625,-1.515560269355774,-2.5517656803131104,0.3045234978199005
1772533399905361400,2.489361328125,-1.9148895740509033,-1.1192935705184937,-0.316241055727005
1772533399915293000,2.49929296875,-1.8871934413909912,1.4548419713974,-0.5090482234954834
1772533399925223700,2.5092236328125,-1.598515272140503,3.07466197013855,-0.7710955739021301
1772533399935155000,2.519155029296875,-1.1374025344848633,3.176924228668213,-1.237534523010254
1772533399945084200,2.529084228515625,-0.5623098611831665,2.9020941257476807,-1.1672290563583374
1772533399955015400,2.539015380859375,-0.0159784946590662,2.38452410697937,-0.2013290375471115
1772533399964944100,2.548944091796875,0.30984964966773987,1.1501853466033936,0.9957265853881836
1772533399974875100,2.558875244140625,0.39506828784942627,-0.34180665016174316,1.6837339401245117
1772533399984788000,2.5687880859375,0.6432675719261169,-1.4260807037353516,1.621950387954712
1772533399994717200,2.57871728515625,1.0415315628051758,-1.9148895740509033,0.9095758199691772
1772533400004680400,2.588680419921875,1.353644847869873,-2.0214128494262695,-0.08415340632200241
1772533400014613000,2.598613037109375,1.5569711923599243,-1.8850629329681396,-0.8808145523071289
1772533400024519400,2.60851953125,1.5995805263519287,-1.4495158195495605,-1.2247517108917236
1772533400034449400,2.618449462890625,1.4963860511779785,-0.8445966243743896,-1.3078398704528809
1772533400044405500,2.628405517578125,1.323818325996399,-0.47176507115364075,-1.384536623954773
1772533400054338000,2.638338134765625,1.1491200923919678,-0.25139498710632324,-1.2503172159194946
1772533400064266500,2.6482666015625,0.9127715229988098,0.19813334941864014,-0.6965292692184448
1772533400074198800,2.65819873046875,0.44087332487106323,0.7327471375465393,-0.01917419396340847
1772533400084132400,2.66813232421875,-0.21837277710437775,1.007444143295288,0.39932921528816223
1772533400094065000,2.67806494140625,-0.803052544593811,1.0425968170166016,0.40998154878616333
1772533400103975700,2.6879755859375,-1.0106397867202759,0.9147688746452332,0.08095771074295044
1772533400113906000,2.697906005859375,-0.7710955739021301,0.6517894268035889,-0.3481980562210083
1772533400123841000,2.707841064453125,-0.2439383566379547,0.596397340297699,-0.4983958899974823
1772533400133771800,2.717771728515625,0.27163442969322205,0.6517894268035889,-0.3503285050392151
1772533400143701500,2.727701416015625,0.5463314056396484,0.57296222448349,-0.27056917548179626
1772533400153632300,2.73763232421875,0.6102453470230103,0.2545906901359558,-0.5175700783729553
1772533400163599400,2.747599365234375,0.5090482234954834,-0.03728315606713295,-1.0191617012023926
1772533400173533700,2.75753369140625,0.29187384247779846,-0.19387240707874298,-1.5591017007827759
1772533400183431400,2.767431396484375,0.04687025398015976,-0.23967742919921875,-2.0171518325805664
1772533400193362200,2.777362060546875,-0.10226237028837204,-0.1395455300807953,-2.301435947418213
1772533400203316200,2.787316162109375,-0.03302222490310669,-0.0031956990715116262,-2.283327102661133
1772533400213249300,2.797249267578125,0.24074266850948334,0.04793548583984375,-1.9329984188079834
1772533400223158500,2.807158447265625,0.5932016372680664,-0.02023942768573761,-1.3461881875991821
1772533400233089000,2.817089111328125,0.8531184792518616,-0.2780258059501648,-0.6379414200782776
1772533400243022000,2.82702197265625,0.7444647550582886,-0.6294195652008057,0.03834838792681694
1772533400252952800,2.836952880859375,0.19600287079811096,-0.895727813243866,0.48135218024253845
1772533400262883800,2.8468837890625,-0.4898740351200104,-1.1725552082061768,0.5442008972167969
1772533400272814800,2.85681494140625,-0.9893351793289185,-1.3461881875991821,0.20878566801548004
1772533400282769000,2.866768798828125,-1.0532491207122803,-1.1672290563583374,-0.33008909225463867
1772533400292702200,2.8767021484375,-0.6698983907699585,-0.6443328261375427,-0.8286181092262268
1772533400302632400,2.886632568359375,-0.14593692123889923,0.01491326279938221,-1.185338020324707
1772533400312565500,2.8965654296875,0.24287313222885132,0.5239614844322205,-1.3035788536071777
1772533400322500600,2.90650048828125,0.4035901725292206,0.634745717048645,-1.0862714052200317
1772533400332433700,2.91643359375,0.22582940757274628,0.24926452338695526,-0.5804188251495361
1772533400342367500,2.926367431640625,-0.22582940757274628,-0.42063388228416443,0
1772533400352300500,2.936300537109375,-0.6155715584754944,-0.9254211783409119,0.41637295484542847
1772533400362238000,2.946238037109375,-0.6081148982048035,-1.0298140048980713,0.6049191951751709
1772533400372171800,2.956171875,-0.2460688352584839,-0.6422023773193359,0.57296222448349
1772533400382111500,2.966111572265625,0.14487169682979584,0.1267627328634262,0.4866783320903778
1772533400392045600,2.976045654296875,0.26098209619522095,1.0031832456588745,0.6081148982048035
1772533400401915600,2.98591552734375,0.01810896210372448,1.4250154495239258,0.8882712125778198
1772533400411843300,2.99584326171875,-0.3577851355075836,1.2417954206466675,1.1107717752456665
1772533400421815800,3.00581591796875,-0.503722071647644,1.1746857166290283,1.1587072610855103
1772533400431748000,3.015748046875,-0.3460675776004791,1.1374025344848633,0.9712262153625488
1772533400441681000,3.025680908203125,-0.14487169682979584,0.6006582975387573,0.6326152682304382
1772533400451613200,3.03561328125,-0.26098209619522095,-0.3268933892250061,0.12463226169347763
1772533400461524500,3.0455244140625,-0.6603113412857056,-0.6411371231079102,-0.39506828784942627
1772533400471454700,3.055454833984375,-0.8882712125778198,0.8648360371589661,-0.1693720519542694
1772533400481415200,3.065415283203125,-0.9222254753112793,2.460155725479126,0.4461994767189026
1772533400491348200,3.07534814453125,-0.6528546810150146,2.3451104164123535,0.6091801524162292
1772533400501269800,3.085269775390625,0.0532616525888443,1.8754758834838867,0.9360735416412354
1772533400511201800,3.095201904296875,0.5687012672424316,2.084261655807495,1.9681512117385864
1772533400521137000,3.105136962890625,0.5303528904914856,2.0256738662719727,2.9170074462890625
1772533400531069200,3.115069091796875,0.5197005867958069,1.4356677532196045,3.233381748199463
1772533400541002000,3.125001953125,0.8765535950660706,0.6549851298332214,2.928725004196167
1772533400550934300,3.134934326171875,1.1970555782318115,-0.11184946447610855,2.1778688430786133
1772533400560863000,3.144863037109375,1.2130341529846191,-0.6656374931335449,1.2961223125457764
1772533400570795000,3.154794921875,1.0766842365264893,-0.8520532846450806,0.4344819188117981
1772533400580726500,3.1647265625,0.8861407041549683,-1.0862714052200317,-0.4760259985923767
1772533400590658600,3.174658447265625,0.7231600880622864,-1.3813409805297852,-1.1331416368484497
1772533400600589600,3.184589599609375,0.6688331961631775,-1.2045122385025024,-1.0947932004928589
1772533400610521600,3.194521484375,0.5569837093353271,-0.7892045378684998,-0.5665708184242249
1772533400620459300,3.204459228515625,0.36524176597595215,-0.5367442965507507,0.11504516750574112
1772533400630391600,3.2143916015625,0.06284874677658081,-0.47069984674453735,0.7476604580879211
1772533400640306400,3.224306396484375,-0.3364804685115814,-0.4952002167701721,1.237534523010254
1772533400650237000,3.23423681640625,-0.6145063042640686,-0.503722071647644,1.5314055681228638
1772533400660179000,3.244178955078125,-0.6411371231079102,-0.36630702018737793,1.612363338470459
1772533400670111000,3.254111083984375,-0.5708317756652832,-0.1608501821756363,1.4463201761245728
1772533400680043500,3.26404345703125,-0.5228962898254395,-0.09480573982000351,1.0031832456588745
1772533400689975300,3.273975341796875,-0.4025249183177948,-0.1267627328634262,0.4014596939086914
1772533400699905800,3.28390576171875,-0.21517707407474518,-0.13634982705116272,-0.29400432109832764
1772533400709837600,3.293837646484375,-0.06924014538526535,-0.2652430236339569,-1.108641266822815
1772533400719774500,3.3037744140625,0.04154408723115921,-0.6027887463569641,-1.9415203332901
1772533400729706800,3.313706787109375,0.16724158823490143,-0.8094439506530762,-2.566679000854492
1772533400739638000,3.323637939453125,0.256721168756485,-0.825422465801239,-2.9170074462890625
1772533400749570300,3.3335703125,0.2961347699165344,-0.8243572115898132,-3.0767924785614014
1772533400759511300,3.34351123046875,0.42702528834342957,-0.6208977103233337,-2.990508556365967
1772533400769444400,3.3534443359375,0.6400718688964844,-0.28441721200942993,-2.5752007961273193
1772533400779366100,3.3633662109375,0.7061163187026978,-0.18961147964000702,-1.9308680295944214
1772533400789298200,3.373298095703125,0.5282224416732788,-0.44300377368927,-1.3099702596664429
1772533400799238700,3.38323876953125,0.2748301327228546,-0.895727813243866,-0.8595098853111267
1772533400809171500,3.39317138671875,0.08628387749195099,-1.2620347738265991,-0.5442008972167969
1772533400819082500,3.40308251953125,-0.0319569893181324,-1.3334054946899414,-0.3513937294483185
1772533400829013000,3.413012939453125,-0.0852186381816864,-1.0798799991607666,-0.30984964966773987
1772533400838954500,3.42295458984375,-0.1480673849582672,-0.5207657814025879,-0.4557865858078003
1772533400848886000,3.432885986328125,-0.2556559145450592,0.1704372763633728,-0.8392704725265503
1772533400858795300,3.442795166015625,-0.17363297939300537,0.9627043604850769,-1.0798799991607666
1772533400868724500,3.452724365234375,0.09374050796031952,1.535666584968567,-0.8999887704849243
1772533400878681600,3.462681640625,0.17576344311237335,1.4910598993301392,-0.5303528904914856
1772533400888614000,3.47261376953125,-0.08841434121131897,0.8445966243743896,-0.1715025156736374
1772533400898550500,3.482550537109375,-0.39932921528816223,0.07243584841489792,0.1384802907705307
1772533400908483300,3.4924833984375,-0.49093925952911377,-0.29080861806869507,0.35245898365974426
1772533400918409000,3.502408935546875,-0.3577851355075836,-0.18322007358074188,0.43767762184143066
1772533400928341000,3.512341064453125,-0.02343512699007988,0.34500235319137573,0.5559184551239014
1772533400938287900,3.522287841796875,0.3716331720352173,1.11503267288208,0.803052544593811
1772533400948221200,3.53222119140625,0.6485937833786011,1.703973412513733,1.2151645421981812
1772533400958149400,3.5421494140625,0.7242252826690674,1.6432551145553589,1.8499102592468262
1772533400968082400,3.55208251953125,0.40572062134742737,0.6688331961631775,2.4729385375976562
1772533400978002200,3.562002197265625,-0.34500235319137573,-1.1437939405441284,2.540048122406006
1772533400987933700,3.57193359375,-1.1107717752456665,-2.895702838897705,1.8019747734069824
1772533400997863400,3.581863525390625,-1.5569711923599243,-3.3855769634246826,0.574027419090271
1772533401007795000,3.591794921875,-1.6017110347747803,-2.1576294898986816,-0.8286181092262268
1772533401017729800,3.601729736328125,-1.283339500427246,0.49413496255874634,-1.9830644130706787
1772533401027661600,3.61166162109375,-0.9158340692520142,2.8317887783050537,-2.67533278465271
1772533401037595100,3.62159521484375,-0.7295514941215515,3.6391022205352783,-3.017139434814453
1772533401047527200,3.631527099609375,-0.6613765358924866,3.195033311843872,-2.750831127166748
1772533401057457400,3.64145751953125,-0.4994611442089081,2.0363261699676514,-1.6400593519210815
1772533401067389200,3.65138916015625,-0.4334166944026947,0.9413996934890747,-0.03408745676279068
1772533401077330400,3.661330322265625,-0.4792217016220093,-0.20878566801548004,1.1874685287475586
1772533401087263200,3.67126318359375,-0.2226337045431137,-1.475081443786621,1.5804063081741333
1772533401097197800,3.68119775390625,0.34287187457084656,-2.2897183895111084,1.339796781539917
1772533401107131000,3.691130859375,0.8169005513191223,-2.356827974319458,0.8350095152854919
1772533401117052200,3.70105224609375,1.0585752725601196,-1.9617598056793213,0.40678587555885315
1772533401126984000,3.71098388671875,1.1906641721725464,-1.5772106647491455,0.05645735189318657
1772533401136916000,3.720916015625,1.323818325996399,-1.3962541818618774,-0.3290238380432129
1772533401146847700,3.73084765625,1.4804075956344604,-1.3291444778442383,-0.7316819429397583
1772533401156790300,3.740790283203125,1.5740149021148682,-0.9978570342063904,-1.0745538473129272
1772533401166723300,3.750723388671875,1.4804075956344604,-0.39613354206085205,-1.3334054946899414
1772533401176639700,3.7606396484375,1.1640334129333496,0.02663082629442215,-1.5335360765457153
1772533401186571000,3.770571044921875,0.7838783264160156,0.33008909225463867,-1.4772119522094727
1772533401196514600,3.7805146484375,0.46963462233543396,0.48348262906074524,-0.9829437732696533
1772533401206447000,3.790447021484375,0.32156720757484436,0.30359140038490295,-0.07030537724494934
1772533401216373200,3.800373291015625,0.41850343346595764,-0.03408745676279068,1.024487853050232
1772533401226305000,3.810304931640625,0.5953320860862732,-0.33328479528427124,1.9244766235351562
1772533401236233200,3.820233154296875,0.6528546810150146,-0.4035901725292206,2.389850378036499
1772533401246164700,3.830164794921875,0.6507242321968079,-0.18535055220127106,2.3355233669281006
1772533401256073500,3.840073486328125,0.5974625945091248,0.07776200771331787,1.7263432741165161
1772533401266002700,3.850002685546875,0.4323514401912689,0.22582940757274628,0.6240934133529663
1772533401275956200,3.859956298828125,0.21837277710437775,0.42596006393432617,-0.6102453470230103
1772533401285887700,3.8698876953125,0.05006595328450203,0.7306166887283325,-1.5166255235671997
1772533401295799300,3.87979931640625,-0.03089175745844841,0.9042496681213379,-1.9468464851379395
1772533401305739300,3.8897392578125,0.02663082629442215,0.811574399471283,-2.070413589477539
1772533401325598000,3.909597900390625,0.4664389193058014,0.5165048837661743,-1.874410629272461
1772533401335527700,3.919527587890625,0.6315500140190125,0.3183715343475342,-1.6634944677352905
1772533401345459700,3.929459716796875,0.658180832862854,0.11611039936542511,-1.3664276599884033
1772533401355389400,3.939389404296875,0.5431357026100159,0.08415340632200241,-0.9680305123329163
1772533401365342200,3.94934228515625,0.3055887222290039,0.32263246178627014,-0.5197005867958069
1772533401375274200,3.959274169921875,0.04367455467581749,0.7220948338508606,-0.1374150663614273
1772533401385192000,3.96919189453125,-0.13634982705116272,1.0436620712280273,0.1065233051776886
1772533401395122400,3.979122314453125,-0.23754696547985077,1.1405982971191406,0.17469821870326996
1772533401405087700,3.989087646484375,-0.27376487851142883,0.954182505607605,0.06284874677658081
1772533401415021800,3.999021728515625,-0.2439383566379547,0.512243926525116,-0.12250179797410965
1772533401424921000,4.008921142578125,-0.14380645751953125,0.08308817446231842,-0.21091613173484802
1772533401434851600,4.0188515625,-0.00852186419069767,0.05752258375287056,-0.09374050796031952
1772533401444783600,4.02878369140625,0.01171756349503994,0.43661239743232727,0.09267527610063553
1772533401454714400,4.03871435546875,-0.10971900075674057,0.9499215483665466,0.24180789291858673
1772533401464650500,4.048650390625,-0.3151758313179016,1.4122326374053955,0.3460675776004791
1772533401474581800,4.058581787109375,-0.534613847732544,1.686929702758789,0.4760259985923767
1772533401484531500,4.068531494140625,-0.7402037978172302,1.3951889276504517,0.6368761658668518
1772533401494464800,4.07846484375,-0.9168993234634399,0.5047873258590698,0.8552489876747131
1772533401504393200,4.088393310546875,-0.9754871129989624,-0.5782883763313293,1.1725552082061768
1772533401514325800,4.09832568359375,-0.955247700214386,-1.581471562385559,1.575080156326294
1772533401524263000,4.108262939453125,-0.9392692446708679,-2.184260368347168,1.9010415077209473
1772533401534196000,4.118196044921875,-0.970160961151123,-1.9660207033157349,1.9361941814422607
1772533401544126000,4.1281259765625,-1.1672290563583374,-1.0628362894058228,1.4420591592788696
1772533401554058800,4.138058837890625,-1.6081024408340454,-0.22689463198184967,0.20772044360637665
1772533401564030700,4.14803076171875,-1.8903892040252686,0.8648360371589661,-0.8829450011253357
1772533401573967400,4.15796728515625,-1.8051705360412598,2.178934097290039,-1.085206151008606
1772533401583855600,4.167855712890625,-1.4942556619644165,2.1778688430786133,-0.8627055883407593
1772533401593787600,4.17778759765625,-0.7870740294456482,1.3962541818618774,-0.2013290375471115
1772533401603712000,4.1877119140625,0.07776200771331787,0.8371400237083435,1.1129021644592285
1772533401613643000,4.19764306640625,0.42915576696395874,0.549527108669281,2.5698747634887695
1772533401623609900,4.20760986328125,0.49306973814964294,-0.04900071769952774,3.3292527198791504
1772533401633544400,4.21754443359375,0.6965292692184448,-1.1437939405441284,3.1407063007354736
1772533401643445200,4.2274453125,0.8424661755561829,-2.1586947441101074,2.3408496379852295
1772533401653376500,4.23737646484375,0.6475285291671753,-2.469742774963379,1.3834713697433472
1772533401663306500,4.247306396484375,0.2577863931655884,-2.0224781036376953,0.45046040415763855
1772533401673237800,4.25723779296875,-0.12143656611442566,-1.1107717752456665,-0.40678587555885315
1772533401683178800,4.2671787109375,-0.43022099137306213,-0.1384802907705307,-1.1437939405441284
1772533401693110800,4.27711083984375,-0.6592460870742798,0.4632432162761688,-1.6698858737945557
1772533401703036000,4.287035888671875,-0.7721607685089111,0.8147701025009155,-1.7401913404464722
1772533401712967400,4.296967529296875,-0.7519213557243347,1.0947932004928589,-1.2950570583343506
1772533401722896000,4.306895751953125,-0.6422023773193359,1.192794680595398,-0.5239614844322205
1772533401732827100,4.3168271484375,-0.6059844493865967,1.0330097675323486,0.2897433936595917
1772533401742761700,4.32676171875,-0.7114425301551819,0.6816160082817078,0.9137036204338074
1772533401752693200,4.336693359375,-0.8680317401885986,0.2897433936595917,1.2567086219787598
1772533401762624500,4.34662451171875,-0.9147688746452332,0.0010652330238372087,1.377079963684082
1772533401772555800,4.3565556640625,-0.7082468271255493,-0.17256775498390198,1.4356677532196045
1772533401782490000,4.366489990234375,-0.3290238380432129,-0.4675041437149048,1.6326028108596802
1772533401792422000,4.376421875,-0.08095771074295044,-1.2098383903503418,2.038456439971924
1772533401802351400,4.386351318359375,-0.08734910935163498,-2.4250030517578125,2.610353469848633
1772533401812283100,4.396283203125,-0.21091613173484802,-3.842561721801758,3.2344470024108887
1772533401822221300,4.40622119140625,-0.27163442969322205,-5.200334548950195,3.8020830154418945
1772533401832153300,4.4161533203125,-0.15552401542663574,-6.16743278503418,4.241890907287598
1772533401842078000,4.426077880859375,0.15552401542663574,-5.900059223175049,4.188629627227783
1772533401852009500,4.436009521484375,0.7497909069061279,-4.389958381652832,3.2014245986938477
1772533401861958100,4.445958251953125,1.5559059381484985,-2.1736080646514893,1.347253441810608
1772533401871891200,4.45589111328125,2.3184797763824463,0.05858781561255455,-0.8414009213447571
1772533401881805000,4.46580517578125,2.5922446250915527,1.4186240434646606,-2.751896381378174
1772533401891736300,4.475736328125,2.1874561309814453,1.6326028108596802,-3.963865280151367
1772533401901674000,4.485674072265625,1.3696233034133911,0.9477910995483398,-4.255739212036133
1772533401911605800,4.495605712890625,0.5399399995803833,0.02982652559876442,-3.608210563659668
1772533401921544000,4.5055439453125,0.08947957307100296,-0.5165048837661743,-2.2886531352996826
1772533401931476200,4.515476318359375,0.11611039936542511,-0.3833507299423218,-0.7508561015129089
1772533401941400800,4.52540087890625,0.4334166944026947,0.35352420806884766,0.5569837093353271
1772533401951332600,4.53533251953125,0.7007901668548584,1.1054456233978271,1.3195574283599854
1772533401961262000,4.545261962890625,0.7029206156730652,1.5569711923599243,1.5484493970870972
1772533401971193600,4.555193603515625,0.36311131715774536,1.6975820064544678,1.3195574283599854
1772533401981140000,4.565139892578125,-0.10865376889705658,1.5644278526306152,0.7966611385345459
1772533401991073000,4.575072998046875,-0.4216991364955902,1.3429925441741943,0.18641577661037445
1772533402000990500,4.584990478515625,-0.4749607741832733,1.2918612957000732,-0.3173062801361084
1772533402010921700,4.594921630859375,-0.335415244102478,1.4186240434646606,-0.6368761658668518
1772533402020857900,4.60485791015625,-0.09693620353937149,1.542057991027832,-0.8222267627716064
1772533402030789600,4.61478955078125,0.17469821870326996,1.565493106842041,-0.764704167842865
1772533402040696000,4.624696044921875,0.3290238380432129,1.2183603048324585,-0.32369768619537354
1772533402050625500,4.63462548828125,0.2439383566379547,0.25032976269721985,0.6816160082817078
1772533402060593400,4.644593505859375,-0.0053261648863554,-1.459102988243103,2.4431118965148926
1772533402070526700,4.654526611328125,-0.27056917548179626,-3.724320888519287,4.591154098510742
1772533402080421400,4.66442138671875,-0.3513937294483185,-5.724429130554199,5.960777759552002
1772533402090350800,4.674350830078125,-0.19387240707874298,-6.055583477020264,5.140814781188965
1772533402100310500,4.684310546875,0.21943800151348114,-5.345206260681152,1.6485812664031982
1772533402110243000,4.6942431640625,0.6315500140190125,-4.156672477722168,-2.599701166152954
1772533402120175900,4.70417578125,0.5324833393096924,-2.075739622116089,-5.185420989990234
1772533402130108400,4.7141083984375,0.3918725848197937,-0.3194367587566376,-5.411250591278076
1772533402140024600,4.724024658203125,0.46217799186706543,0.38761165738105774,-3.402620553970337
1772533402149955300,4.733955322265625,0.40572062134742737,0.4770912528038025,-0.17469821870326996
1772533402159914000,4.7439140625,0.2535254657268524,0.23754696547985077,2.432459592819214
1772533402169847600,4.75384765625,0.4344819188117981,0.12037133425474167,3.514470100402832
1772533402179768000,4.76376806640625,0.810509204864502,0.5601794123649597,3.5027525424957275
1772533402189700400,4.773700439453125,0.8382052183151245,1.239664912223816,2.779592514038086
1772533402199632100,4.783632080078125,0.4792217016220093,1.8967806100845337,1.6347332000732422
1772533402209564200,4.793564208984375,0.01810896210372448,2.4963736534118652,0.29293906688690186
1772533402219492400,4.803492431640625,-0.49200451374053955,2.909550905227661,-1.1214240789413452
1772533402229424000,4.813424072265625,-0.8701622486114502,2.9457688331604004,-2.2801313400268555
1772533402239359200,4.823359130859375,-0.7668346166610718,2.329132080078125,-2.8339192867279053
1772533402249291300,4.833291259765625,-0.20772044360637665,1.1427286863327026,-2.6412453651428223
1772533402259224000,4.84322412109375,0.38654643297195435,0.05965305119752884,-1.729538917541504
1772533402269156400,4.85315625,0.7391385436058044,-0.42063388228416443,-0.404655396938324
1772533402279086600,4.863086669921875,0.8424661755561829,-0.3151758313179016,0.8200962543487549
1772533402289018600,4.8730185546875,0.7178338766098022,0.1480673849582672,1.665624976158142
1772533402298945300,4.8829453125,0.4866783320903778,0.7828131318092346,2.1055662631988525
1772533402308876800,4.892876708984375,0.32156720757484436,1.4409940242767334,2.1810646057128906
1772533402318815000,4.90281494140625,0.22050324082374573,2.1108922958374023,1.9756077527999878
1772533402328747000,4.9127470703125,0.10226237028837204,2.746570110321045,1.5569711923599243
1772533402338682000,4.92268212890625,-0.0053261648863554,3.0906405448913574,1.0053136348724365
1772533402348614400,4.932614501953125,0.0159784946590662,3.07466197013855,0.4121120274066925
1772533402358550500,4.942550537109375,0.2769605815410614,2.7232682704925537,-0.24713405966758728
1772533402368483300,4.9524833984375,0.5985277891159058,2.1427161693573,-1.0319445133209229
1772533402378404600,4.962404541015625,0.7955959439277649,1.4729509353637695,-1.888258695602417
1772533402388336000,4.972336181640625,1.0287487506866455,0.8541837334632874,-2.610353469848633
1772533402398269700,4.982269775390625,1.3387316465377808,0.4557865858078003,-3.0480310916900635
1772533402408201500,4.992201416015625,1.4931904077529907,0.2876129150390625,-3.1694676876068115
1772533402418138600,5.002138671875,1.3632320165634155,0.3386109471321106,-3.018204689025879
1772533402428071000,5.01207080078125,0.9669652581214905,0.5889406800270081,-2.670006513595581
1772533402437999000,5.0219990234375,0.41743817925453186,0.8712274432182312,-2.1002399921417236
1772533402447931100,5.03193115234375,-0.03834838792681694,1.1491200923919678,-1.4335373640060425
1772533402457866500,5.041866455078125,-0.2897433936595917,1.2844047546386719,-0.9010539650917053
1772533402467799000,5.051799072265625,-0.32476291060447693,1.2844047546386719,-0.5473966002464294
1772533402477736700,5.06173681640625,-0.2236989289522171,1.1363372802734375,-0.400394469499588
1772533402487669800,5.071669677734375,-0.14593692123889923,0.9243559837341309,-0.4142425060272217
1772533402497629000,5.08162890625,-0.12995843589305878,0.7732260227203369,-0.423829585313797
1772533402507564500,5.091564453125,-0.1821548491716385,0.6720288991928101,-0.423829585313797
1772533402517431300,5.101431396484375,-0.339676171541214,0.5644403696060181,-0.5857450366020203
1772533402527359700,5.11135986328125,-0.49200451374053955,0.44087332487106323,-0.9307473301887512
1772533402537292800,5.121292724609375,-0.5303528904914856,0.3386109471321106,-1.3057093620300293
1772533402547221800,5.1312216796875,-0.5133091807365417,0.12463226169347763,-1.6432551145553589
1772533402557163500,5.14116357421875,-0.4334166944026947,-0.14487169682979584,-1.7167562246322632
1772533402567093800,5.15109375,-0.27056917548179626,-0.2897433936595917,-1.206642746925354
1772533402577018400,5.161018310546875,-0.1374150663614273,-0.6027887463569641,-0.09800143539905548
1772533402586948000,5.170947998046875,-0.1501978635787964,-1.2354040145874023,1.384536623954773
1772533402596886300,5.18088623046875,-0.3492632806301117,-1.6432551145553589,2.8179407119750977
1772533402606816800,5.190816650390625,-0.5868102312088013,-1.5633625984191895,3.7924959659576416
1772533402616751000,5.200751220703125,-0.6848116517066956,-1.5102341175079346,4.128976345062256
1772533402626682000,5.21068212890625,-0.6517894268035889,-1.8637583255767822,3.7594735622406006
1772533402636613600,5.220613525390625,-0.6081148982048035,-2.19917368888855,2.751896381378174
1772533402646545000,5.230544921875,-0.6134410500526428,-2.122609853744507,1.5017122030258179
1772533402656474400,5.240474365234375,-0.7860088348388672,-1.7178213596343994,0.3790898025035858
1772533402666405400,5.2504052734375,-1.0500534772872925,-0.825422465801239,-0.46963462233543396
1772533402676364000,5.260364013671875,-0.9765523672103882,0.2226337045431137,-1.045792579650879
1772533402686297600,5.270297607421875,-0.256721168756485,0.9712262153625488,-1.1416635513305664
1772533402696230700,5.280230712890625,0.5846797823905945,1.407971739768982,-0.7050511240959167
1772533402706164200,5.290164306640625,0.9010539650917053,1.4324721097946167,-0.03834838792681694
1772533402716101400,5.300101318359375,0.9520519971847534,1.1139674186706543,0.8169005513191223
1772533402726035200,5.31003515625,1.0031832456588745,0.48028692603111267,1.6251461505889893
1772533402735935200,5.319935302734375,1.014900803565979,-0.29293906688690186,1.796648621559143
1772533402745865700,5.32986572265625,1.069227695465088,-0.8978582620620728,1.2503172159194946
1772533402755833000,5.3398330078125,1.0947932004928589,-1.1661638021469116,0.2748301327228546
1772533402765767400,5.349767333984375,1.045792579650879,-0.9435301423072815,-0.9147688746452332
1772533402775678200,5.35967822265625,1.0031832456588745,-0.20026381313800812,-2.184260368347168
1772533402785610000,5.36960986328125,1.038335919380188,0.6730940937995911,-3.393033504486084
1772533402795555600,5.3795556640625,1.3057093620300293,1.4250154495239258,-4.095953941345215
1772533402805489000,5.389489013671875,1.6847991943359375,2.1013052463531494,-3.9107367992401123
1772533402815396400,5.399396240234375,1.8403232097625732,2.6401801109313965,-2.947899341583252
1772533402825327000,5.4093271484375,1.5166255235671997,2.6114187240600586,-1.5644278526306152
1772533402835273500,5.4192734375,0.7785521745681763,1.7284737825393677,-0.12995843589305878
1772533402845205800,5.429205810546875,0.19387240707874298,0.4952002167701721,1.1192935705184937
1772533402855142400,5.439142333984375,0.04580501839518547,-0.4994611442089081,1.9031718969345093
1772533402865075200,5.4490751953125,0.2226337045431137,-1.0862714052200317,2.0437827110290527
1772533402875000800,5.459000732421875,0.5900059342384338,-1.3887975215911865,1.5782759189605713
1772533402884932900,5.468932861328125,0.9840090274810791,-1.232208251953125,0.6485937833786011
1772533402894867500,5.478867431640625,1.323818325996399,-0.5537880063056946,-0.4973306655883789
1772533402904799700,5.4887998046875,1.5484493970870972,0.3897421360015869,-1.5271446704864502
1772533402914735900,5.49873583984375,1.528209924697876,1.153381109237671,-2.1629557609558105
1772533402924668400,5.50866845703125,1.2439258098602295,1.5484493970870972,-2.2939794063568115
1772533402934593800,5.51859375,0.848857581615448,1.6006457805633545,-2.085326910018921
1772533402944525800,5.52852587890625,0.36524176597595215,1.2726871967315674,-1.6666902303695679
1772533402954457600,5.53845751953125,-0.03941362351179123,0.7721607685089111,-1.192794680595398
1772533402964389600,5.5483896484375,-0.1374150663614273,0.44087332487106323,-0.9074453711509705
1772533402974318300,5.558318359375,0.02023942768573761,0.3194367587566376,-0.8935973644256592
1772533402984249900,5.568249755859375,0.2545906901359558,0.37695932388305664,-1.091597557067871
1772533402994194700,5.578194580078125,0.3886769115924835,0.5218310356140137,-1.3547101020812988
1772533403004127500,5.58812744140625,0.42702528834342957,0.6912030577659607,-1.390928030014038
1772533403014047500,5.598047607421875,0.3588503897190094,0.7721607685089111,-1.1107717752456665
1772533403023979000,5.60797900390625,0.18641577661037445,0.6720288991928101,-0.6922683119773865
1772533403033914000,5.6179140625,-0.07563154399394989,0.4440690279006958,-0.26950395107269287
1772533403043846100,5.62784619140625,-0.33008909225463867,0.05432688444852829,0.02343512699007988
1772533403053781000,5.637781005859375,-0.36417654156684875,-0.40572062134742737,0.14061075448989868
1772533403063713300,5.64771337890625,-0.18641577661037445,-0.6762897968292236,0.12463226169347763
1772533403073645300,5.657645263671875,0.01704372838139534,-0.5836145281791687,0.04473978653550148
1772533403083577300,5.667577392578125,0.11824086308479309,-0.15126308798789978,-0.05006595328450203
1772533403093493800,5.67749365234375,0.15765449404716492,0.5111786723136902,-0.03408745676279068
1772533403103424300,5.68742431640625,0.09693620353937149,1.0820103883743286,0.09906667470932007
1772533403113373700,5.697373779296875,-0.10119713842868805,1.3429925441741943,0.23861220479011536
1772533403123306200,5.70730615234375,-0.2652430236339569,1.4633638858795166,0.4216991364955902
1772533403133232000,5.717232177734375,-0.2673735022544861,1.5527102947235107,0.680550754070282
1772533403143164000,5.727163818359375,-0.3673722445964813,1.1352721452713013,0.9095758199691772
1772533403153099500,5.737099609375,-0.9243559837341309,0.534613847732544,1.3174269199371338
1772533403163031800,5.74703173828125,-1.729538917541504,0.4334166944026947,2.2843921184539795
1772533403172970500,5.756970458984375,-2.6028969287872314,0.21091613173484802,3.3568155765533447
1772533403182903300,5.7669033203125,-3.3674678802490234,-0.45898228883743286,4.139628887176514
1772533403192826000,5.776826171875,-3.9341719150543213,-1.437798261642456,4.399545669555664
1772533403202758000,5.7867578125,-4.256804466247559,-2.3174145221710205,4.136433124542236
1772533403212689000,5.79668896484375,-3.7637345790863037,-1.9053024053573608,4.103410720825195
1772533403222620700,5.80662060546875,-3.293034791946411,-1.276948094367981,3.2408382892608643
1772533403232551000,5.816551025390625,-2.7008984088897705,-1.283339500427246,0.9744219183921814
1772533403242482400,5.826482421875,-1.4324721097946167,-0.5101134777069092,-0.5324833393096924
1772533403252418300,5.836418212890625,-0.16191542148590088,0.970160961151123,0.32263246178627014
1772533403262350300,5.846350341796875,0.4653736650943756,1.4889295101165771,2.3163492679595947
1772533403272300000,5.856300048828125,0.4142425060272217,0.8275529146194458,3.4462950229644775
1772533403282233900,5.86623388671875,0.35458943247795105,-0.06817491352558136,3.1779894828796387
1772533403292122600,5.87612255859375,0.5463314056396484,-0.7572475075721741,1.7710829973220825
1772533403302052000,5.886052001953125,0.695464015007019,-1.0670971870422363,-0.27376487851142883
1772533403312005600,5.896005615234375,0.5324833393096924,-0.848857581615448,-2.417546272277832
1772533403321937400,5.9059375,0.09054480493068695,-0.23648172616958618,-4.302609443664551
1772533403331884800,5.915884765625,-0.27269965410232544,0.16830681264400482,-5.566774845123291
1772533403341818000,5.925818115234375,-0.21091613173484802,0.09267527610063553,-5.6764936447143555
1772533403351745300,5.935745361328125,0.21943800151348114,0.01704372838139534,-4.3324360847473145
1772533403361678000,5.945677978515625,0.7391385436058044,0.07669677585363388,-2.0586960315704346
1772533403371597300,5.955597412109375,1.0766842365264893,0.13528458774089813,0.24713405966758728
1772533403381528800,5.96552880859375,1.069227695465088,-0.05965305119752884,2.0086300373077393
1772533403391465000,5.97546484375,0.9477910995483398,-0.47069984674453735,2.9031593799591064
1772533403401397000,5.98539697265625,1.1608376502990723,-0.6368761658668518,2.7955708503723145
1772533403411339500,5.995339599609375,1.6688207387924194,-0.30146095156669617,1.9617598056793213
1772533403421272600,6.0052724609375,2.0810658931732178,0.34074142575263977,0.8296833634376526
1772533403431239000,6.015239013671875,2.1341943740844727,0.8861407041549683,-0.5079829692840576
1772533403441175300,6.02517529296875,1.8307361602783203,1.1363372802734375,-1.9074329137802124
1772533403451056600,6.035056640625,1.4409940242767334,1.1512506008148193,-2.8786590099334717
1772533403460987100,6.044987060546875,1.2098383903503418,1.0660319328308105,-3.2110118865966797
1772533403470920400,6.05492041015625,1.1022498607635498,0.7157034277915955,-3.200359582901001
1772533403480851500,6.0648515625,1.0926628112792969,0.2332860380411148,-2.957486391067505
1772533403490784800,6.07478466796875,1.0820103883743286,-0.05539211630821228,-2.5783965587615967
1772533403500715800,6.0847158203125,1.1107717752456665,-0.0053261648863554,-2.2705442905426025
1772533403510652700,6.094652587890625,1.2812089920043945,0.512243926525116,-2.0629568099975586
1772533403520584400,6.10458447265625,1.5303404331207275,1.5495145320892334,-1.9180852174758911
1772533403530521300,6.114521240234375,1.9074329137802124,2.660419464111328,-1.9138243198394775
1772533403540453600,6.12445361328125,2.5315263271331787,3.294100046157837,-1.9979777336120605
1772533403550375000,6.134375,3.1172711849212646,3.312208890914917,-2.0736093521118164
1772533403560306200,6.14430615234375,2.9819867610931396,2.6178102493286133,-2.056565523147583
1772533403570238700,6.15423876953125,1.8158228397369385,1.461233377456665,-1.8073009252548218
1772533403580170000,6.164169921875,0.04367455467581749,0.5942668914794922,-1.2258168458938599
1772533403590103000,6.17410302734375,-1.4772119522094727,0.22582940757274628,-0.36524176597595215
1772533403600034600,6.18403466796875,-2.0448479652404785,0.19919857382774353,0.5921363830566406
1772533403609963500,6.193963623046875,-1.833931803703308,0.24713405966758728,1.2790786027908325
1772533403619894800,6.203894775390625,-1.3035788536071777,0.2577863931655884,1.537796974182129
1772533403629828000,6.213828125,-0.7551170587539673,0.38548120856285095,1.4910598993301392
1772533403639759400,6.22375927734375,-0.42809051275253296,0.619832456111908,1.3152965307235718
1772533403649695000,6.233695068359375,-0.5665708184242249,0.7093120217323303,1.206642746925354
1772533403659627000,6.243626953125,-1.0127702951431274,0.6262238621711731,1.2567086219787598
1772533403669557500,6.2535576171875,-1.2140992879867554,0.4461994767189026,1.3429925441741943
1772533403679489300,6.2634892578125,-1.075619101524353,0.2013290375471115,1.3216878175735474
1772533403689408000,6.273407958984375,-0.779617428779602,-0.0213046595454216,1.2662957906723022
1772533403699338200,6.283338134765625,-0.44939517974853516,-0.29400432109832764,1.2140992879867554
1772533403709263600,6.293263671875,-0.38441595435142517,-0.9967917799949646,0.955247700214386
1772533403719193300,6.303193359375,-0.5942668914794922,-2.338719129562378,0.5228962898254395
1772533403729130200,6.313130126953125,-0.931812584400177,-3.7647998332977295,0.11504516750574112
1772533403739060700,6.323060791015625,-1.5612322092056274,-4.693416595458984,-0.3513937294483185
1772533403748994600,6.33299462890625,-2.0437827110290527,-4.408067226409912,-0.6826812028884888
1772533403758925600,6.342925537109375,-2.19917368888855,-2.329132080078125,-0.6251586079597473
1772533403768890600,6.352890625,-2.1204795837402344,0.25032976269721985,-0.3290238380432129
1772533403778825000,6.362824951171875,-1.2439258098602295,1.657103180885315,0.03834838792681694
1772533403788733700,6.372733642578125,0.16191542148590088,2.0395216941833496,0.8445966243743896
1772533403798665500,6.38266552734375,1.2758828401565552,1.5463188886642456,2.2620222568511963
1772533403808584400,6.39258447265625,1.6602988243103027,-0.04367455467581749,3.4739911556243896
1772533403818515000,6.402514892578125,1.6464507579803467,-1.8243447542190552,3.8585402965545654
1772533403828450300,6.4124501953125,1.665624976158142,-2.8616154193878174,3.186511516571045
1772533403838381300,6.42238134765625,1.7987791299819946,-3.008617639541626,1.6677554845809937
1772533403848309000,6.43230908203125,1.902106761932373,-2.4473729133605957,-0.0010652330238372087
1772533403858239500,6.442239501953125,1.8903892040252686,-1.4250154495239258,-1.314231276512146
1772533403868200400,6.452200439453125,1.602776288986206,-0.09161003679037094,-2.122609853744507
1772533403878134000,6.462134033203125,1.014900803565979,1.5049079656600952,-2.4239377975463867
1772533403888061400,6.4720615234375,0.3929378390312195,2.7391135692596436,-2.3877198696136475
1772533403897994500,6.481994384765625,-0.06710968166589737,2.9553558826446533,-2.0363261699676514
1772533403907929900,6.491929931640625,-0.23648172616958618,2.264152765274048,-1.132076382637024
1772533403917863200,6.50186328125,-0.1171756312251091,1.1842727661132812,0.17469821870326996
1772533403927792600,6.511792724609375,0.18854624032974243,0.06604444980621338,1.3483186960220337
1772533403937725700,6.5217255859375,0.6049191951751709,-0.8360747694969177,2.138455390930176
1772533403947656400,6.531656494140625,0.9808133244514465,-1.3493839502334595,2.5837225914001465
1772533403957589200,6.54158935546875,1.1043803691864014,-1.3738843202590942,2.674267530441284
1772533403967514400,6.551514404296875,0.9531172513961792,-0.8829450011253357,2.311022996902466
1772533403977446400,6.5614462890625,0.6901378631591797,-0.26311254501342773,1.4346026182174683
1772533403987383000,6.571383056640625,0.38548120856285095,0.1171756312251091,0.24819929897785187
1772533403997315600,6.581315673828125,-0.0639139786362648,0.39506828784942627,-1.0628362894058228
1772533404007257300,6.59125732421875,-0.4419385492801666,0.7061163187026978,-2.2652180194854736
1772533404017190700,6.601190673828125,-0.680550754070282,1.1129021644592285,-3.051226854324341
1772533404027086600,6.611086669921875,-0.803052544593811,1.6389942169189453,-3.339905023574829
1772533404037016000,6.62101611328125,-0.7668346166610718,2.0224781036376953,-3.134315013885498
1772533404046985200,6.630985107421875,-0.633680522441864,2.122609853744507,-2.516613006591797
1772533404056918800,6.640918701171875,-0.39826399087905884,1.8829325437545776,-1.6326028108596802
1772533404066839800,6.65083984375,-0.2226337045431137,1.339796781539917,-0.6240934133529663
1772533404076772000,6.660772216796875,-0.24713405966758728,0.8669665455818176,0.3726983964443207
1772533404086676200,6.67067626953125,-0.3620460629463196,0.6027887463569641,1.161902904510498
1772533404096605700,6.680605712890625,-0.5324833393096924,0.40785109996795654,1.5644278526306152
1772533404106571500,6.690571533203125,-0.6943987607955933,0.2130466103553772,1.484668493270874
1772533404116504800,6.7005048828125,-0.8232919573783875,0.1384802907705307,0.9232907295227051
1772533404126427100,6.71042724609375,-0.8978582620620728,0.4216991364955902,0.07350108027458191
1772533404136359400,6.720359375,-0.8797492980957031,0.9232907295227051,-0.6922683119773865
1772533404146290400,6.73029052734375,-0.8744231462478638,1.3440577983856201,-1.1544462442398071
1772533404156222200,6.74022216796875,-0.9531172513961792,1.4676247835159302,-1.3323402404785156
1772533404166136000,6.750135986328125,-1.0585752725601196,1.2886656522750854,-1.2503172159194946
1772533404176066000,6.760066162109375,-1.0958584547042847,1.0532491207122803,-0.9307473301887512
1772533404186025500,6.770025390625,-1.001052737236023,0.8946625590324402,-0.48241740465164185
1772533404195958500,6.77995849609375,-0.7370080947875977,0.825422465801239,0.05965305119752884
1772533404205897000,6.78989697265625,-0.4547213613986969,0.7103772759437561,0.6017234921455383
1772533404215830500,6.79983056640625,-0.2897433936595917,0.40785109996795654,1.0266183614730835
1772533404225723000,6.809722900390625,-0.16191542148590088,-0.04367455467581749,1.2993179559707642
1772533404235652000,6.819652099609375,0.04900071769952774,-0.4952002167701721,1.4409940242767334
1772533404245609700,6.829609619140625,0.30359140038490295,-0.931812584400177,1.4271459579467773
1772533404255542000,6.8395419921875,0.46963462233543396,-1.5910587310791016,1.3131660223007202
1772533404265480200,6.849480224609375,0.535679042339325,-2.3035664558410645,1.2918612957000732
1772533404275413000,6.8594130859375,0.44939517974853516,-2.947899341583252,1.2577738761901855
1772533404285339600,6.869339599609375,0.13208889961242676,-3.4782521724700928,1.1001193523406982
1772533404295272000,6.87927197265625,-0.20665520429611206,-3.7509517669677734,0.9861394762992859
1772533404305207300,6.889207275390625,-0.6017234921455383,-3.889432191848755,0.5974625945091248
1772533404315139600,6.8991396484375,-1.1267502307891846,-3.4835782051086426,-0.26204732060432434
1772533404325067500,6.909067626953125,-1.5644278526306152,-2.1714775562286377,-1.1864032745361328
1772533404334999600,6.91899951171875,-1.5070384740829468,-0.5697665214538574,-1.5548408031463623
1772533404344937200,6.928937255859375,-0.9914656281471252,0.8627055883407593,-0.6943987607955933
1772533404354869800,6.938869873046875,-0.6773550510406494,1.7849310636520386,0.8477923274040222
1772533404364783600,6.94878369140625,-0.4952002167701721,1.7231475114822388,1.8584321737289429
1772533404374714400,6.95871435546875,-0.1693720519542694,1.0298140048980713,2.080000638961792
1772533404384636000,6.968635986328125,0.11078423261642456,0.2343512624502182,1.7774744033813477
1772533404394565600,6.978565673828125,0.21730753779411316,-0.33115431666374207,1.3216878175735474
1772533404404521000,6.98852099609375,0.23115555942058563,-0.4770912528038025,0.9946613311767578
1772533404414453200,6.998453369140625,0.25139498710632324,-0.24819929897785187,0.8019872903823853
1772533404424400000,7.00839990234375,0.21837277710437775,0.08947957307100296,0.5889406800270081
1772533404434333700,7.018333740234375,0.02663082629442215,0.4781564772129059,0.3695026934146881
1772533404444255200,7.028255126953125,-0.2588516175746918,0.978682816028595,0.2663082480430603
1772533404454187800,7.038187744140625,-0.48348262906074524,1.5112993717193604,0.29400432109832764
1772533404464094500,7.048094482421875,-0.5580489635467529,1.9372594356536865,0.40998154878616333
1772533404474024700,7.058024658203125,-0.3801550269126892,2.1162185668945312,0.6315500140190125
1772533404483985700,7.067985595703125,0.0053261648863554,1.911693811416626,0.9413996934890747
1772533404493918700,7.077918701171875,0.2897433936595917,1.3291444778442383,1.1917294263839722
1772533404503841500,7.087841552734375,0.40678587555885315,0.5814840793609619,1.3078398704528809
1772533404513773600,7.097773681640625,0.4632432162761688,-0.10545806586742401,1.2716219425201416
1772533404523703800,7.107703857421875,0.4547213613986969,-0.6741593480110168,1.1107717752456665
1772533404533635600,7.117635498046875,0.32369768619537354,-1.1746857166290283,0.848857581615448
1772533404543569200,7.127569091796875,0.07030537724494934,-1.5537755489349365,0.4440690279006958
1772533404553501200,7.137501220703125,-0.21837277710437775,-1.7678873538970947,-0.12037133425474167
1772533404563437800,7.147437744140625,-0.34500235319137573,-1.6176894903182983,-0.6453980803489685
1772533404573370400,7.157370361328125,-0.3567199110984802,-1.0575101375579834,-0.9893351793289185
1772533404583299000,7.167299072265625,-0.4121120274066925,-0.36417654156684875,-1.1938599348068237
1772533404593231400,7.1772314453125,-0.42702528834342957,0.2450035959482193,-1.26949143409729
1772533404603141600,7.1871416015625,-0.36524176597595215,0.633680522441864,-1.216229796409607
1772533404613071600,7.197071533203125,-0.2854824364185333,0.6635070443153381,-1.0330097675323486
1772533404623036200,7.2070361328125,-0.17469821870326996,0.3055887222290039,-0.7242252826690674
1772533404632969500,7.216969482421875,-0.0852186381816864,-0.37376365065574646,-0.39826399087905884
1772533404642892300,7.226892333984375,-0.16298064589500427,-1.0841408967971802,-0.18535055220127106
1772533404652824800,7.236824951171875,-0.3684374690055847,-1.459102988243103,-0.15765449404716492
1772533404662741800,7.24674169921875,-0.5111786723136902,-1.260969638824463,-0.29400432109832764
1772533404672672800,7.2566728515625,-0.5026568174362183,-0.6326152682304382,-0.5484618544578552
1772533404682598000,7.266597900390625,-0.3705679476261139,-0.02343512699007988,-0.8243572115898132
1772533404692528000,7.276528076171875,-0.15126308798789978,0.3929378390312195,-0.8904016613960266
1772533404702481000,7.28648095703125,0.03834838792681694,0.6059844493865967,-0.6784203052520752
1772533404712413400,7.296413330078125,0.10013190656900406,0.46217799186706543,-0.30359140038490295
1772533404722345200,7.30634521484375,-0.0319569893181324,-0.16298064589500427,0.07882724702358246
1772533404732277500,7.316277587890625,-0.3003957271575928,-0.9222254753112793,0.3279586136341095
1772533404742211000,7.326211181640625,-0.5452661514282227,-1.3525795936584473,0.3695026934146881
1772533404752143400,7.336143310546875,-0.6816160082817078,-1.3461881875991821,0.23222079873085022
1772533404762071800,7.34607177734375,-0.5921363830566406,-0.8754884004592896,0.1501978635787964
1772533404772004000,7.356004150390625,-0.3492632806301117,-0.15445879101753235,0.21730753779411316
1772533404781942800,7.36594287109375,-0.17895914614200592,0.43980807065963745,0.42063388228416443
1772533404791875600,7.37587548828125,-0.06284874677658081,0.6208977103233337,0.9137036204338074
1772533404801842400,7.385842529296875,-0.0010652330238372087,0.04580501839518547,1.621950387954712
1772533404811778600,7.395778564453125,-0.0426093190908432,-1.6432551145553589,2.0544350147247314
1772533404821670700,7.405670654296875,-0.06924014538526535,-4.20247745513916,2.000108242034912
1772533404831602400,7.4156025390625,-0.02343512699007988,-6.48900032043457,1.5473841428756714
1772533404841530000,7.425530029296875,-0.15126308798789978,-7.6636857986450195,0.7029206156730652
1772533404851461600,7.435461669921875,-0.512243926525116,-7.318683624267578,0.24074266850948334
1772533404861392100,7.44539208984375,-1.017031192779541,-4.394219398498535,1.1182283163070679
1772533404871323400,7.455323486328125,-1.3312749862670898,-0.3066539466381073,2.465481758117676
1772533404881271800,7.465271728515625,-0.9371387362480164,2.5176782608032227,2.901028871536255
1772533404891204900,7.475204833984375,-0.3567199110984802,3.968126058578491,2.544309139251709
1772533404901134800,7.485134765625,-0.27376487851142883,4.625241756439209,2.132063865661621
1772533404911067600,7.495067626953125,-0.2663082480430603,4.192890167236328,1.895715355873108
1772533404920997000,7.5049970703125,0.15339355170726776,2.6593542098999023,1.735930323600769
1772533404930929400,7.514929443359375,0.7029206156730652,0.8094439506530762,1.6837339401245117
1772533404940825900,7.524825927734375,1.1267502307891846,-0.6315500140190125,1.6006457805633545
1772533404950754600,7.534754638671875,1.2684261798858643,-1.4793423414230347,1.075619101524353
1772533404960696300,7.5446962890625,1.108641266822815,-1.544188380241394,0.0639139786362648
1772533404970626300,7.554626220703125,0.7157034277915955,-0.7380733489990234,-1.2236864566802979
1772533404980554200,7.56455419921875,0.1810896098613739,0.4419385492801666,-2.6305930614471436
1772533404990484200,7.574484130859375,-0.3599156141281128,1.5793410539627075,-3.926715135574341
1772533405000454700,7.58445458984375,-0.7274209856987,2.3834588527679443,-4.760526180267334
1772533405010388700,7.594388671875,-0.7689650654792786,2.6199405193328857,-4.775439739227295
1772533405020318000,7.60431787109375,-0.5655055642127991,2.2417829036712646,-3.9331066608428955
1772533405030251300,7.614251220703125,-0.2535254657268524,1.2449910640716553,-2.465481758117676
1772533405040144600,7.62414453125,0.01171756349503994,-0.19706811010837555,-0.7700303196907043
1772533405050074000,7.63407421875,0.07563154399394989,-1.565493106842041,0.7316819429397583
1772533405060042800,7.644042724609375,-0.01704372838139534,-2.4335248470306396,1.7561697959899902
1772533405069976300,7.653976318359375,-0.1715025156736374,-2.834984540939331,2.2236738204956055
1772533405079898600,7.663898681640625,-0.400394469499588,-2.836049795150757,2.048043727874756
1772533405089831000,7.673830810546875,-0.6230281591415405,-2.5421786308288574,1.260969638824463
1772533405099759600,7.683759521484375,-0.695464015007019,-2.0906529426574707,0.1491326242685318
1772533405109691600,7.693691650390625,-0.5676360726356506,-1.5038427114486694,-0.9286168813705444
1772533405119631000,7.703631103515625,-0.2748301327228546,-0.8893364071846008,-1.7071690559387207
1772533405129563600,7.713563720703125,0.01384802907705307,-0.5410051941871643,-2.118349075317383
1772533405139507500,7.723507568359375,0.02236989326775074,-0.4461994767189026,-2.1810646057128906
1772533405149441000,7.73344091796875,-0.3599156141281128,-0.5559184551239014,-1.9106285572052002
1772533405159327700,7.74332763671875,-1.0830756425857544,-0.657115638256073,-1.3856018781661987
1772533405169257000,7.753257080078125,-1.9053024053573608,-0.5676360726356506,-0.7402037978172302
1772533405179219700,7.7632197265625,-2.5091564655303955,-0.39506828784942627,-0.1800243854522705
1772533405189152000,7.773152099609375,-2.764679193496704,-0.2130466103553772,0.27163442969322205
1772533405199096300,7.783096435546875,-2.7253987789154053,0.007456631399691105,0.6901378631591797
1772533405209030100,7.793030029296875,-2.6018316745758057,0.611310601234436,1.216229796409607
1772533405218951400,7.802951416015625,-2.2801313400268555,1.07135808467865,1.833931803703308
1772533405228884000,7.812884033203125,-1.431406855583191,1.1160979270935059,2.222608804702759
1772533405238807800,7.822807861328125,-0.3822855055332184,1.2247517108917236,2.133129119873047
1772533405248739300,7.8327392578125,0.10119713842868805,1.3834713697433472,1.5718845129013062
1772533405258675700,7.84267578125,0.09693620353937149,1.61981999874115,0.9042496681213379
1772533405268607700,7.852607666015625,0.14061075448989868,1.7167562246322632,0.3705679476261139
1772533405278516200,7.86251611328125,0.3173062801361084,1.5324708223342896,0.06604444980621338
1772533405288445700,7.87244580078125,0.527157187461853,1.185338020324707,0.04154408723115921
1772533405298370800,7.882370849609375,0.7050511240959167,0.8690969944000244,0.2556559145450592
1772533405308300000,7.892300048828125,0.8296833634376526,0.6645722389221191,0.6432675719261169
1772533405318268700,7.9022685546875,0.9339430332183838,0.741269052028656,1.155511498451233
1772533405328201700,7.91220166015625,1.017031192779541,1.161902904510498,1.719951868057251
1772533405338131700,7.922131591796875,1.04046630859375,1.5218185186386108,2.188521146774292
1772533405348064800,7.932064697265625,1.11503267288208,1.101184606552124,2.258826732635498
1772533405358001000,7.9420009765625,1.2045122385025024,-0.37589409947395325,1.7710829973220825
1772533405367934200,7.951934326171875,1.0979889631271362,-2.226869583129883,0.887205958366394
1772533405377862000,7.96186181640625,1.0159659385681152,-3.209946632385254,-0.2641777992248535
1772533405387794400,7.97179443359375,1.2034469842910767,-2.4164810180664062,-1.2993179559707642
1772533405397729800,7.981729736328125,1.4537767171859741,-0.18322007358074188,-1.8776063919067383
1772533405407662600,7.99166259765625,1.4228850603103638,1.5239490270614624,-1.9234113693237305
1772533405417589500,8.001589599609375,1.155511498451233,1.827540397644043,-1.3951889276504517
1772533405427521800,8.011521728515625,0.9286168813705444,1.6176894903182983,-0.44832995533943176
1772533405437446100,8.021446044921875,0.8275529146194458,1.429276466369629,0.5165048837661743
1772533405447377700,8.031377685546875,1.1629681587219238,1.0202269554138184,1.1672290563583374
1772533405457310700,8.041310791015626,1.7774744033813477,0.41956865787506104,1.4665595293045044
1772533405467242200,8.0512421875,2.1640207767486572,-0.11397993564605713,1.55803644657135
1772533405477184000,8.06118408203125,2.290783643722534,-0.4749607741832733,1.30038321018219
1772533405487116800,8.07111669921875,2.2609570026397705,-0.5889406800270081,0.5665708184242249
1772533405497050600,8.081050537109375,2.057630777359009,-0.5047873258590698,-0.49200451374053955
1772533405506983400,8.0909833984375,1.5740149021148682,-0.35565468668937683,-1.5665583610534668
1772533405516904000,8.100904052734375,0.825422465801239,0.08095771074295044,-2.376002311706543
1772533405526835700,8.110835693359375,0.01810896210372448,0.6752246022224426,-2.8978333473205566
1772533405536747300,8.120747314453125,-0.5335485935211182,1.1895990371704102,-2.9596168994903564
1772533405546677000,8.130677001953124,-0.6134410500526428,1.4665595293045044,-2.3440451622009277
1772533405556609000,8.140609130859374,-0.4227643609046936,1.5166255235671997,-1.2449910640716553
1772533405566538800,8.150538818359376,-0.19919857382774353,1.5548408031463623,-0.0958709716796875
1772533405576501500,8.16050146484375,-0.04047885537147522,1.7082343101501465,0.7551170587539673
1772533405586434600,8.1704345703125,0.06284874677658081,1.8232795000076294,1.1597723960876465
1772533405596339700,8.180339599609376,0.0532616525888443,1.659233570098877,1.1917294263839722
1772533405606270200,8.190270263671875,-0.02876129187643528,1.1672290563583374,0.9296821355819702
1772533405616225300,8.200225341796875,-0.07563154399394989,0.5026568174362183,0.35458943247795105
1772533405626158000,8.210157958984375,-0.0010652330238372087,-0.15339355170726776,-0.534613847732544
1772533405636091400,8.22009130859375,0.14700216054916382,-0.6464632749557495,-1.4335373640060425
1772533405646024400,8.2300244140625,0.32156720757484436,-0.8690969944000244,-2.0533697605133057
1772533405655966700,8.239966796875,0.5069177746772766,-0.825422465801239,-2.3120882511138916
1772533405665900500,8.249900634765625,0.6134410500526428,-0.6485937833786011,-2.2652180194854736
1772533405675820300,8.2598203125,0.6155715584754944,-0.38654643297195435,-2.0341956615448
1772533405685752600,8.269752685546875,0.48241740465164185,-0.17576344311237335,-1.7306041717529297
1772533405705611500,8.289611572265626,0.0106523297727108,-0.3599156141281128,-0.9946613311767578
1772533405715524600,8.299524658203126,-0.0852186381816864,-0.534613847732544,-0.633680522441864
1772533405725454600,8.30945458984375,-0.10971900075674057,-0.6155715584754944,-0.35458943247795105
1772533405735392800,8.319392822265625,-0.06497921794652939,-0.5527228116989136,-0.13634982705116272
1772533405745323500,8.329323486328125,0.01171756349503994,-0.39506828784942627,0.08947957307100296
1772533405755294700,8.339294677734374,0.1171756312251091,-0.15445879101753235,0.35245898365974426
1772533405765229600,8.3492294921875,0.2354165017604828,0.09054480493068695,0.5985277891159058
1772533405775142000,8.359141845703125,0.30984964966773987,0.18854624032974243,0.7402037978172302
1772533405785074400,8.369074462890625,0.3183715343475342,0.2236989289522171,0.7689650654792786
1772533405794980400,8.37898046875,0.29080861806869507,0.2652430236339569,0.703985869884491
1772533405804910300,8.388910400390625,0.2226337045431137,0.3087844252586365,0.5953320860862732
1772533405814869200,8.398869140625,0.19600287079811096,0.4461994767189026,0.5399399995803833
1772533405824802000,8.408802001953125,0.33115431666374207,0.6912030577659607,0.6304848194122314
1772533405834729700,8.418729736328125,0.4866783320903778,0.8222267627716064,0.8627055883407593
1772533405844662000,8.428662109375,0.5974625945091248,0.7114425301551819,1.1608376502990723
1772533405854593000,8.438593017578125,0.6208977103233337,0.23115555942058563,1.492125153541565
1772533405864525300,8.448525390625,0.4461994767189026,-0.5218310356140137,1.8754758834838867
1772533405874457900,8.458457763671875,0.17682868242263794,-1.3898627758026123,2.125805616378784
1772533405884390100,8.46839013671875,-0.04687025398015976,-2.5943751335144043,1.8073009252548218
1772533405894295600,8.478295654296875,-0.10226237028837204,-4.032040119171143,0.5889406800270081
1772533405904225300,8.488225341796875,0.02556559257209301,-4.823375225067139,-1.5622973442077637
1772533405914194400,8.4981943359375,0.14167599380016327,-4.068258285522461,-3.798887252807617
1772533405924128000,8.5081279296875,0.316241055727005,-1.7263432741165161,-4.540156364440918
1772533405934056000,8.518055908203126,0.2119813710451126,1.5601669549942017,-3.013943672180176
1772533405943989200,8.5279892578125,-0.2769605815410614,3.4281861782073975,-0.6091801524162292
1772533405953912800,8.537912841796874,-0.10865376889705658,2.6497671604156494,0.5420704483985901
1772533405963844900,8.547844970703125,0.47283029556274414,1.4228850603103638,0.5814840793609619
1772533405973753600,8.557753662109375,0.9243559837341309,1.0585752725601196,0.44087332487106323
1772533405983683300,8.567683349609375,1.237534523010254,1.237534523010254,0.4461994767189026
1772533405993628200,8.577628173828124,1.5134297609329224,1.314231276512146,0.7274209856987
1772533406003559400,8.587559326171874,1.6741468906402588,0.9712262153625488,1.0873366594314575
1772533406013508400,8.59750830078125,1.7859963178634644,0.34393709897994995,1.2247517108917236
1772533406023441400,8.60744140625,1.843518853187561,-0.14487169682979584,1.0607057809829712
1772533406033367300,8.6173671875,1.6720163822174072,-0.4121120274066925,0.6283543109893799
1772533406043299600,8.627299560546875,1.314231276512146,-0.4675041437149048,-0.07669677585363388
1772533406053234000,8.63723388671875,0.9147688746452332,-0.31304535269737244,-0.9477910995483398
1772533406063166500,8.64716650390625,0.6208977103233337,0.06071828305721283,-1.3951889276504517
1772533406073107000,8.65710693359375,0.484547883272171,0.534613847732544,-0.993596076965332
1772533406083040300,8.667040283203125,0.3908073604106903,0.6390066742897034,0.06817491352558136
1772533406092942000,8.676942138671874,0.30146095156669617,0.43022099137306213,1.4015803337097168
1772533406102872300,8.686872314453124,0.15658925473690033,0.4653736650943756,2.7051591873168945
1772533406112806000,8.696805908203125,0.05752258375287056,0.8307486176490784,3.4430994987487793
1772533406122736400,8.706736328125,0.11611039936542511,1.183207631111145,3.4100773334503174
1772533406132670500,8.71667041015625,0.18961147964000702,1.2077078819274902,2.890376567840576
1772533406142601500,8.7266015625,0.16724158823490143,0.423829585313797,2.1768035888671875
1772533406152539100,8.7365390625,0.0053261648863554,-0.8009220957756042,1.5006470680236816
1772533406162470700,8.746470703125,-0.24180789291858673,-2.183195114135742,0.9669652581214905
1772533406172394000,8.75639404296875,-0.5079829692840576,-2.899963855743408,0.49413496255874634
1772533406182324500,8.766324462890625,-0.534613847732544,-2.577331304550171,0.0159784946590662
1772533406192254200,8.776254150390624,-0.22795987129211426,-1.4164936542510986,-0.5889406800270081
1772533406202185000,8.78618505859375,0.23648172616958618,-0.22689463198184967,-1.246056318283081
1772533406212127700,8.796127685546875,0.6379414200782776,0.14593692123889923,-1.5612322092056274
1772533406222059800,8.806059814453125,0.8286181092262268,0.5676360726356506,-1.5409927368164062
1772533406231997700,8.815997802734374,0.7380733489990234,0.7380733489990234,-1.3248835802078247
1772533406241930000,8.825929931640625,0.4355471432209015,0.8595098853111267,-1.0585752725601196
1772533406251871000,8.83587109375,0.0426093190908432,1.0031832456588745,-0.8126396536827087
1772533406261804300,8.84580419921875,-0.39506828784942627,1.2641652822494507,-0.48241740465164185
1772533406271737000,8.855737060546875,-0.7316819429397583,1.3813409805297852,-0.02982652559876442
1772533406281670400,8.86567041015625,-0.8403357267379761,1.0798799991607666,0.4898740351200104
1772533406291609300,8.875609375,-0.8435314297676086,0.37589409947395325,0.9211602807044983
1772533406301543200,8.885543212890624,-0.8392704725265503,-1.030879259109497,0.8083786964416504
1772533406311468800,8.89546875,-0.8531184792518616,-1.8499102592468262,0.5750926733016968
1772533406321401900,8.90540185546875,-0.8946625590324402,-2.0128910541534424,0.6720288991928101
1772533406331309000,8.91530908203125,-0.810509204864502,-2.4047634601593018,0.9286168813705444
1772533406341239300,8.9252392578125,-0.6528546810150146,-2.52620005607605,1.3291444778442383
1772533406351200000,8.935199951171874,-0.5569837093353271,-1.811561942100525,1.7401913404464722
1772533406361133300,8.94513330078125,-0.5260919332504272,-0.41850343346595764,2.041652202606201
1772533406371062300,8.955062255859374,-0.5282224416732788,0.9978570342063904,2.165086030960083
1772533406380995300,8.964995361328125,-0.5197005867958069,1.651776909828186,2.010760545730591
1772533406390918700,8.974918701171875,-0.4770912528038025,1.2801437377929688,1.581471562385559
1772533406400850700,8.9848505859375,-0.3822855055332184,0.5005263686180115,1.2130341529846191
1772533406410759400,8.994759521484376,-0.34180665016174316,-0.3567199110984802,0.9946613311767578
1772533406420689200,9.004689208984376,-0.42063388228416443,-0.9168993234634399,0.8584446907043457
1772533406430643500,9.0146435546875,-0.4749607741832733,-0.6549851298332214,0.8914669156074524
1772533406440575700,9.02457568359375,-0.40678587555885315,0.2343512624502182,1.0745538473129272
1772533406450516000,9.034515869140625,-0.2641777992248535,1.2449910640716553,1.2247517108917236
1772533406460448800,9.04444873046875,-0.06284874677658081,2.2044997215270996,1.3216878175735474
1772533406470380800,9.054380859375,0.16404588520526886,2.8648111820220947,1.3334054946899414
1772533406480313600,9.064313720703124,0.22050324082374573,2.6444408893585205,0.9946613311767578
1772533406490187500,9.0741875,0.004260932095348835,1.6400593519210815,0.34287187457084656
1772533406500114400,9.084114501953126,-0.3577851355075836,0.5260919332504272,-0.4014596939086914
1772533406510098400,9.094098388671876,-0.6784203052520752,-0.5250267386436462,-1.1374025344848633
1772533406520031200,9.10403125,-0.680550754070282,-1.1821423768997192,-1.8392579555511475
1772533406529972000,9.113971923828124,-0.3077192008495331,-1.0138355493545532,-2.5698747634887695
1772533406539905500,9.123905517578125,0.2119813710451126,-0.23648172616958618,-3.3951640129089355
1772533406549828000,9.133828125,0.6613765358924866,0.6027887463569641,-4.049083709716797
1772533406559760600,9.1437607421875,0.7838783264160156,1.5314055681228638,-3.889432191848755
1772533406569689900,9.15368994140625,0.5143743753433228,2.0501739978790283,-2.9500296115875244
1772533406579622000,9.163621826171875,0.06178351491689682,1.7753440141677856,-1.7220823764801025
1772533406589565400,9.1735654296875,-0.4675041437149048,0.7955959439277649,-0.5687012672424316
1772533406599498500,9.18349853515625,-0.9872047305107117,-0.6091801524162292,0.33115431666374207
1772533406609419800,9.193419677734376,-1.3121007680892944,-1.813692331314087,0.8520532846450806
1772533406619351800,9.203351806640624,-1.330209732055664,-2.2013039588928223,1.0649666786193848
1772533406629291300,9.213291259765626,-1.085206151008606,-1.706103801727295,1.0766842365264893
1772533406639224000,9.22322412109375,-0.6411371231079102,-0.6464632749557495,0.7455299496650696
1772533406649158400,9.233158447265625,-0.05539211630821228,0.4983958899974823,0.13102366030216217
1772533406659091200,9.24309130859375,0.5186353325843811,1.199186086654663,-0.5101134777069092
1772533406669018400,9.253018310546874,0.8190310597419739,1.2215559482574463,-0.9254211783409119
1772533406678950700,9.26295068359375,0.7476604580879211,0.4877435564994812,-1.1171631813049316
1772533406688884500,9.272884521484375,0.3886769115924835,-0.9085106253623962,-1.1949251890182495
1772533406698816800,9.282816650390625,0.05006595328450203,-2.088522434234619,-0.9328778386116028
1772533406708722200,9.29272216796875,0.0031956990715116262,-2.1970431804656982,-0.29400432109832764
1772533406718652000,9.30265185546875,0.2886781394481659,-1.0969237089157104,0.5079829692840576
1772533406728606700,9.312606689453125,0.5559184551239014,0.3503285050392151,1.232208251953125
1772533406738539000,9.3225390625,0.33328479528427124,0.7402037978172302,1.6581683158874512
1772533406748472600,9.33247265625,-0.23222079873085022,0.41743817925453186,1.904237151145935
1772533406758405000,9.342405029296875,-0.6464632749557495,0.20558997988700867,2.1427161693573
1772533406768386600,9.352386474609375,-0.7700303196907043,-0.18428531289100647,2.2087607383728027
1772533406778323700,9.36232373046875,-0.7487256526947021,-0.7764217257499695,2.0341956615448
1772533406788205800,9.372205810546875,-0.6965292692184448,-0.9339430332183838,1.675212025642395
1772533406798137600,9.3821376953125,-0.5910711884498596,-0.5580489635467529,1.161902904510498
1772533406808059400,9.392059326171875,-0.3620460629463196,-0.05432688444852829,0.5591141581535339
1772533406817990100,9.401990234375,-0.06924014538526535,0.42596006393432617,-0.01704372838139534
1772533406827903000,9.411903076171875,0.14700216054916382,0.8989235162734985,-0.49306973814964294
1772533406837832000,9.42183203125,0.19919857382774353,1.1768162250518799,-0.803052544593811
1772533406847804400,9.431804443359376,0.07137060910463333,1.1864032745361328,-0.9117063283920288
1772533406857737700,9.44173779296875,-0.15126308798789978,1.0394011735916138,-0.788139283657074
1772533406867655000,9.451655029296875,-0.3684374690055847,0.6539199352264404,-0.47069984674453735
1772533406877586700,9.461586669921875,-0.5431357026100159,0.11291470378637314,-0.06497921794652939
1772533406887518500,9.4715185546875,-0.6443328261375427,-0.23648172616958618,0.33221954107284546
1772533406897450200,9.4814501953125,-0.6400718688964844,-0.32050198316574097,0.6315500140190125
1772533406907386000,9.49138623046875,-0.5420704483985901,-0.22050324082374573,0.7732260227203369
1772533406917318400,9.501318359375,-0.3790898025035858,0.0213046595454216,0.7402037978172302
1772533406927244800,9.511244873046875,-0.18961147964000702,0.28228676319122314,0.5527228116989136
1772533406937176600,9.521176513671875,-0.02982652559876442,0.4749607741832733,0.26098209619522095
1772533406947108000,9.531108154296875,0.08308817446231842,0.5165048837661743,-0.07137060910463333
1772533406957039900,9.541039794921875,0.15232832729816437,0.3929378390312195,-0.39932921528816223
1772533406966972200,9.55097216796875,0.15658925473690033,0.17363297939300537,-0.6986597180366516
1772533406976904000,9.560904052734376,0.07669677585363388,-0.0958709716796875,-0.9339430332183838
1772533406986811000,9.570810791015624,0,-0.1810896098613739,-0.9999874830245972
1772533406996740000,9.580739990234376,0.02236989326775074,-0.02556559257209301,-0.895727813243866
1772533407006680800,9.590680908203124,0.10865376889705658,0.03408745676279068,-0.7455299496650696
1772533407016611300,9.600611328125,0.20985090732574463,-0.0159784946590662,-0.5889406800270081
1772533407026543000,9.610543212890626,0.3003957271575928,0.07030537724494934,-0.3929378390312195
1772533407036473600,9.6204736328125,0.31411057710647583,0.2790910601615906,-0.15126308798789978
1772533407046429000,9.630428955078125,0.24180789291858673,0.4568518102169037,0.08628387749195099
1772533407056362000,9.640362060546876,0.12569749355316162,0.4973306655883789,0.2535254657268524
1772533407066293200,9.650293212890626,0.02236989326775074,0.43661239743232727,0.33115431666374207
1772533407076226000,9.66022607421875,-0.04580501839518547,0.41850343346595764,0.31304535269737244
1772533407086166500,9.67016650390625,-0.08095771074295044,0.5974625945091248,0.22582940757274628
1772533407096100000,9.68010009765625,-0.13208889961242676,0.8286181092262268,0.3279586136341095
1772533407106020900,9.690020751953124,-0.2439383566379547,0.5410051941871643,0.7274209856987
1772533407115953200,9.699953125,-0.23754696547985077,-0.15658925473690033,0.9190297722816467
1772533407135811800,9.719811767578125,-0.10119713842868805,-0.9754871129989624,0.7529866099357605
1772533407145754000,9.729754150390624,-0.09693620353937149,-0.8754884004592896,0.6134410500526428
1772533407155687000,9.73968701171875,-0.012782796286046505,-0.587875485420227,0.43767762184143066
1772533407165575200,9.7495751953125,0.06817491352558136,-0.27269965410232544,0.2023942768573761
1772533407175503600,9.759503662109376,0.07882724702358246,-0.05752258375287056,-0.10332760214805603
1772533407185477400,9.769477294921876,0.04900071769952774,0.0031956990715116262,-0.404655396938324
1772533407195410200,9.77941015625,-0.04047885537147522,0.012782796286046505,-0.633680522441864
1772533407205356800,9.789356689453125,-0.1267627328634262,0.007456631399691105,-0.657115638256073
