time,seconds_elapsed,z,y,x
1772533397660772600,0.244772705078125,13.776078224182129,2.847458839416504,0.2949153780937195
1772533397670692600,0.254692626953125,11.894123077392578,4.059423446655273,-1.1413763761520386
1772533397680627500,0.26462744140625,11.176276206970215,6.314659118652344,-1.2801600694656372
1772533397690540800,0.274540771484375,13.201202392578125,8.072187423706055,-1.409970760345459
1772533397700467000,0.284467041015625,15.390036582946777,8.828319549560547,-1.80717933177948
1772533397710397700,0.294397705078125,19.11027717590332,9.388837814331055,-1.2323036193847656
1772533397720325600,0.30432568359375,22.7497615814209,9.795618057250977,-0.6197410821914673
1772533397730296000,0.314296142578125,23.63510513305664,10.164710998535156,0.6251249313354492
1772533397740241200,0.3242412109375,22.208385467529297,9.685547828674316,2.822932481765747
1772533397750125300,0.334125244140625,21.49951171875,7.880163192749023,3.8668015003204346
1772533397760045800,0.3440458984375,21.47079849243164,5.323431968688965,2.650649309158325
1772533397769986600,0.353986572265625,20.46042823791504,3.776472330093384,0.9128618240356445
1772533397779915000,0.3639150390625,18.61735725402832,4.332205295562744,-0.10707881301641464
1772533397789882600,0.373882568359375,16.386049270629883,5.883352756500244,-0.25064817070961
1772533397799827000,0.383826904296875,13.622937202453613,6.91765022277832,0.1704886108636856
1772533397809719600,0.393719482421875,11.348559379577637,7.363313674926758,0.07956135272979736
1772533397819643000,0.403642822265625,9.490532875061035,7.937591075897217,-0.054436713457107544
1772533397829579000,0.4135791015625,7.182655334472656,8.052446365356445,0.21355941891670227
1772533397839507500,0.423507568359375,6.507281303405762,7.449455261230469,0.5150550603866577
1772533397849474800,0.433474853515625,7.311867713928223,6.281159400939941,2.248655080795288
1772533397859419000,0.4434189453125,8.097311973571777,5.486144065856934,4.7958149909973145
1772533397869340400,0.45334033203125,8.422736167907715,4.423132419586182,5.4041900634765625
1772533397879275500,0.463275634765625,8.02492904663086,2.344966173171997,3.7950167655944824
1772533397889193200,0.473193115234375,7.331010341644287,0.25722843408584595,1.195214867591858
1772533397899121200,0.48312109375,6.2105712890625,-0.7818548083305359,-1.1748759746551514
1772533397909054500,0.493054443359375,4.759324073791504,-1.0929217338562012,-1.4626128673553467
1772533397918984400,0.502984375,3.1507492065429688,-1.088136076927185,-0.26560330390930176
1772533397928930800,0.512930908203125,1.072582721710205,-1.0929217338562012,0.3188436031341553
1772533397938867500,0.522867431640625,-0.5605186820030212,-1.5050854682922363,-0.18843477964401245
1772533397948785000,0.532784912109375,-0.9720842242240906,-2.251646041870117,-2.0991036891937256
1772533397958713900,0.5427138671875,-0.6658028960227966,-3.9326040744781494,-4.009772777557373
1772533397968647700,0.552647705078125,-0.8715856671333313,-5.416752338409424,-5.652445316314697
1772533397978577000,0.562576904296875,-1.5948163270950317,-3.789034605026245,-3.7561333179473877
1772533397988512300,0.57251220703125,-2.3563320636749268,-1.8544375896453857,0.13698910176753998
1772533397998442200,0.582442138671875,-2.437688112258911,-1.3806586265563965,2.162513494491577
1772533398008350500,0.5923505859375,-2.6195425987243652,-0.3080759048461914,3.1441688537597656
1772533398018278100,0.602278076171875,-3.0311081409454346,1.1001001596450806,3.88594388961792
1772533398028248800,0.612248779296875,-2.8875386714935303,1.4829518795013428,3.7567315101623535
1772533398038180900,0.622180908203125,-1.225723385810852,0.31465616822242737,2.3922245502471924
1772533398048100900,0.632100830078125,0.727418065071106,-1.3519448041915894,0.41934216022491455
1772533398058031600,0.642031494140625,2.1308085918426514,-1.9980069398880005,-0.7106683254241943
1772533398067964400,0.65196435546875,3.9314076900482178,-1.8065811395645142,-0.916451096534729
1772533398077895400,0.6618955078125,5.707480430603027,-1.9022940397262573,-0.519242525100708
1772533398087831800,0.671831787109375,6.2105712890625,-1.3184453248977661,0.28534409403800964
1772533398097763300,0.681763427734375,5.415555953979492,-0.2745763957500458,0.7016952633857727
1772533398107692000,0.691692138671875,4.170690059661865,-0.058624155819416046,0.5246263742446899
1772533398117623300,0.701623291015625,2.685943365097046,-0.13998012244701385,0.8315058946609497
1772533398127555600,0.7115556640625,1.3453645706176758,0.11844471842050552,1.290927767753601
1772533398137486800,0.72148681640625,1.0582258701324463,0.381655216217041,1.0516455173492432
1772533398147424000,0.731424072265625,1.709073543548584,0.08015955984592438,-0.5527420043945312
1772533398157356000,0.74135595703125,2.6763720512390137,-0.8105686902999878,-2.9419753551483154
1772533398167280000,0.751280029296875,3.2368907928466797,-1.4859428405761719,-5.020142078399658
1772533398177211400,0.76121142578125,2.940180778503418,-1.3615161180496216,-5.9060845375061035
1772533398187129600,0.771129638671875,5.037489891052246,0.008374879136681557,-4.996213912963867
1772533398197059600,0.7810595703125,8.757730484008789,2.311466693878174,-4.249054908752441
1772533398207009500,0.791009521484375,9.691530227661133,3.786043643951416,-1.8502501249313354
1772533398216941600,0.800941650390625,9.715457916259766,5.457430362701416,-0.7250252366065979
1772533398226884600,0.810884521484375,11.477771759033203,7.554739475250244,-0.08315058797597885
1772533398236817700,0.820817626953125,15.667604446411133,9.57069206237793,1.2478569746017456
1772533398246742800,0.83074267578125,22.127029418945312,10.604990005493164,2.919243574142456
1772533398256675000,0.840675048828125,29.75953483581543,9.546764373779297,4.365106582641602
1772533398266601700,0.850601806640625,38.15834426879883,7.47338342666626,5.069194793701172
1772533398276533500,0.860533447265625,45.02035903930664,5.73978328704834,5.289334297180176
1772533398286465000,0.870465087890625,46.701316833496094,3.441477060317993,6.007779598236084
1772533398296396800,0.880396728515625,43.679779052734375,3.0442686080932617,7.04207706451416
1772533398306316000,0.89031591796875,38.45086669921875,3.441477060317993,6.692126750946045
1772533398326179300,0.910179443359375,28.51466941833496,3.063411235809326,0.5102694034576416
1772533398336100000,0.92010009765625,23.19961166381836,3.441477060317993,-2.583052158355713
1772533398346030800,0.93003076171875,17.33839225769043,4.25084924697876,-4.756931304931641
1772533398355999000,0.9399990234375,12.071191787719727,5.318646430969238,-4.790431022644043
1772533398365933600,0.94993359375,7.895716667175293,6.419943332672119,-2.6500511169433594
1772533398375852000,0.95985205078125,5.3007001876831055,6.7932233810424805,0.5629115104675293
1772533398385785000,0.96978515625,3.830310821533203,6.376872539520264,2.2342982292175293
1772533398395724500,0.979724609375,3.7776687145233154,4.738985061645508,2.1720848083496094
1772533398405658400,0.989658447265625,6.756134510040283,1.5212370157241821,0.04127619042992592
1772533398415580400,0.999580322265625,10.869397163391113,-2.227717876434326,-1.7736797332763672
1772533398425512700,1.0095126953125,13.24965763092041,-3.7746777534484863,-2.142174482345581
1772533398435442200,1.019442138671875,12.899706840515137,-3.970889091491699,-1.3046865463256836
1772533398445374500,1.02937451171875,10.481760025024414,-4.128815650939941,-0.2991028428077698
1772533398455307800,1.039307861328125,6.703492641448975,-4.2484564781188965,0.022133609279990196
1772533398465240000,1.049239990234375,2.609373092651367,-4.05703067779541,-0.7968099117279053
1772533398475171800,1.059171875,-0.890728235244751,-4.147958278656006,-2.472982168197632
1772533398485104000,1.069104248046875,-3.840480327606201,-4.076173305511475,-3.8183467388153076
1772533398495010300,1.07901025390625,-6.196214199066162,-3.5162527561187744,-4.316053867340088
1772533398504940000,1.08893994140625,-7.421937465667725,-3.3098719120025635,-4.024129390716553
1772533398514898000,1.09889794921875,-7.421937465667725,-3.425325632095337,-3.2338998317718506
1772533398524830500,1.10883056640625,-7.082156658172607,-2.9318058490753174,-1.6109678745269775
1772533398534737000,1.11873681640625,-6.2775702476501465,-1.7682958841323853,-0.18843477964401245
1772533398544667000,1.1286669921875,-5.051846981048584,-0.9349954724311829,0.28534409403800964
1772533398554632400,1.138632568359375,-4.0079779624938965,-0.5760720372200012,0.3284149169921875
1772533398564566000,1.14856591796875,-3.1316065788269043,-0.3367897868156433,-0.07357929646968842
1772533398574489000,1.158489013671875,-2.523829698562622,-0.3320041298866272,-0.9068797826766968
1772533398584421600,1.168421630859375,-1.9489539861679077,-0.5234299302101135,-2.5878376960754395
1772533398594364000,1.178364013671875,-1.3411771059036255,-0.26500511169433594,-4.680361270904541
1772533398604297500,1.18829736328125,-0.7088736891746521,0.3002992272377014,-6.519245147705078
1772533398614201600,1.19820166015625,-0.1866401731967926,0.6544370055198669,-7.984251022338867
1772533398624132000,1.208132080078125,-0.1579262912273407,0.5300102233886719,-8.012965202331543
1772533398634079500,1.21807958984375,0.641276478767395,0.16151553392410278,-6.748956203460693
1772533398644011800,1.22801171875,2.4227328300476074,0.18065811693668365,-5.398207664489746
1772533398653944300,1.2379443359375,4.644468784332275,-0.29371899366378784,-4.3447675704956055
1772533398663876600,1.247876708984375,6.153143405914307,-0.6047859191894531,-1.6636099815368652
1772533398673805800,1.257805908203125,6.669992923736572,0.36729827523231506,2.0572292804718018
1772533398683737900,1.26773779296875,7.862216949462891,0.8464609980583191,3.920041799545288
1772533398693672700,1.277672607421875,12.39721393585205,-0.3128615617752075,2.224726915359497
1772533398703605000,1.28760498046875,13.814363479614258,-1.6869399547576904,-0.882951557636261
1772533398713548500,1.297548583984375,14.882160186767578,-2.1032910346984863,-1.7928223609924316
1772533398723482000,1.307482177734375,14.824732780456543,-2.1128623485565186,-1.1270195245742798
1772533398733401000,1.317401123046875,15.006587028503418,-0.8727820515632629,0.9176474809646606
1772533398743333000,1.3273330078125,15.260226249694824,1.6169499158859253,4.312464714050293
1772533398753264400,1.337264404296875,16.074384689331055,4.423132419586182,8.205587387084961
1772533398763196200,1.347196044921875,18.032909393310547,6.089733600616455,10.819746017456055
1772533398773126100,1.357126220703125,21.068803787231445,5.979663848876953,10.73838996887207
1772533398783058000,1.367057861328125,26.350360870361328,4.695914268493652,7.491927623748779
1772533398792994800,1.376994873046875,33.896724700927734,3.1830523014068604,1.8418751955032349
1772533398802927000,1.386927001953125,42.142391204833984,0.7692924737930298,-4.095914363861084
1772533398812859100,1.396859130859375,42.54977035522461,-2.9174489974975586,-3.6699917316436768
1772533398822791400,1.40679150390625,34.67738342285156,-2.9413771629333496,5.715256690979004
1772533398832720600,1.416720703125,25.948366165161133,0.3290131092071533,11.542976379394531
1772533398842652400,1.42665234375,20.26900291442871,1.8711873292922974,11.054242134094238
1772533398852580400,1.436580322265625,12.085549354553223,5.950351715087891,8.655437469482422
1772533398862511900,1.446511962890625,4.443471431732178,10.87298583984375,7.8795647621154785
1772533398872445000,1.45644482421875,5.128417015075684,12.19920825958252,7.137789726257324
1772533398882376400,1.46637646484375,12.166905403137207,10.614561080932617,6.5389862060546875
1772533398892292000,1.4762919921875,17.535202026367188,8.325826644897461,6.079564094543457
1772533398902222000,1.48622216796875,19.43091583251953,5.897709846496582,3.4552359580993652
1772533398912184600,1.4961845703125,20.757736206054688,3.1208388805389404,-0.882951557636261
1772533398922118100,1.5061181640625,21.403799057006836,1.6360924243927002,-3.5503506660461426
1772533398932046800,1.516046875,18.947566986083984,1.6504493951797485,-3.229114055633545
1772533398941980000,1.52597998046875,13.890933990478516,1.7700905799865723,-1.80717933177948
1772533398951875800,1.535875732421875,7.756932735443115,1.832902193069458,0.1944168359041214
1772533398961805000,1.54580517578125,2.035095691680908,2.2301106452941895,2.0093727111816406
1772533398971740700,1.55574072265625,-2.2887349128723145,2.0195422172546387,3.187239646911621
1772533398981670400,1.56567041015625,-3.428914785385132,0.745364248752594,3.1345977783203125
1772533398991637500,1.575637451171875,-0.8476574420928955,-1.4811571836471558,1.1569297313690186
1772533399001571000,1.585571044921875,1.6564314365386963,-3.717249870300293,-1.8167506456375122
1772533399011472000,1.595471923828125,2.1020946502685547,-4.971687316894531,-4.34955358505249
1772533399021402000,1.605402099609375,0.9864411354064941,-5.694917678833008,-5.278566837310791
1772533399031321900,1.61532177734375,-1.8532410860061646,-5.455037593841553,-4.272983074188232
1772533399041251000,1.6252509765625,-5.956932067871094,-4.277170658111572,-1.9363917112350464
1772533399051204400,1.635204345703125,-9.418747901916504,-2.888735055923462,0.7447660565376282
1772533399061136100,1.64513623046875,-9.696913719177246,-1.6342978477478027,2.602792739868164
1772533399071057200,1.65505712890625,-6.473781585693359,-0.8967102766036987,3.1680972576141357
1772533399080987600,1.664987548828125,-1.867598056793213,-1.557727575302124,3.0340991020202637
1772533399090921000,1.6749208984375,2.035095691680908,-2.644667148590088,1.353141188621521
1772533399100852000,1.68485205078125,3.3373894691467285,-3.4157543182373047,-2.520838737487793
1772533399110812700,1.694812744140625,2.662015199661255,-3.817748546600342,-5.355136871337891
1772533399120746500,1.70474658203125,0.5216353535652161,-1.7826528549194336,-3.7848472595214844
1772533399130678800,1.7146787109375,-2.3706889152526855,0.9038887619972229,-0.12622138857841492
1772533399140612600,1.724612548828125,-2.7631118297576904,2.1583259105682373,2.919243574142456
1772533399150511600,1.73451171875,-0.3690928816795349,1.8131613731384277,4.71445894241333
1772533399160441900,1.74444189453125,1.6133606433868408,1.2293126583099365,4.910670280456543
1772533399170401000,1.754401123046875,1.8293129205703735,1.3058829307556152,3.6945180892944336
1772533399180334300,1.764334228515625,1.048654556274414,1.1431710720062256,2.052443504333496
1772533399190269400,1.77426953125,0.8620143532752991,0.5204389095306396,1.3722838163375854
1772533399200202800,1.78420263671875,1.158724308013916,-0.04905286431312561,0.8219345808029175
1772533399210139000,1.794138916015625,1.2687941789627075,-0.18305093050003052,-0.030508488416671753
1772533399220072700,1.80407275390625,0.771087110042572,0.20458634197711945,0.3044866919517517
1772533399229994800,1.813994873046875,-0.06699903309345245,1.1096714735031128,2.286940336227417
1772533399239927300,1.82392724609375,0.7034898400306702,1.5212370157241821,4.11625337600708
1772533399249859600,1.833859619140625,4.980062007904053,1.688734531402588,3.9870407581329346
1772533399259792000,1.8437919921875,10.744970321655273,1.7222341299057007,2.7846474647521973
1772533399269719300,1.85371923828125,14.882160186767578,2.2301106452941895,2.6075785160064697
1772533399279651300,1.8636513671875,16.7736873626709,3.7334015369415283,3.531806230545044
1772533399289616000,1.873615966796875,16.366308212280273,5.696712493896484,4.90109920501709
1772533399299551200,1.88355126953125,15.020944595336914,7.8418779373168945,6.99840784072876
1772533399309445000,1.893445068359375,13.881361961364746,9.565906524658203,9.014361381530762
1772533399319376400,1.90337646484375,14.982659339904785,10.504491806030273,9.613164901733398
1772533399329314600,1.913314453125,20.465213775634766,9.594620704650879,8.296514511108398
1772533399339246300,1.923246337890625,31.478778839111328,5.878567218780518,3.4552359580993652
1772533399349176800,1.9331767578125,45.9924430847168,0.6209374666213989,-2.2857437133789062
1772533399359108600,1.943108642578125,56.56513214111328,-2.0889341831207275,-7.0648088455200195
1772533399369041000,1.953041015625,54.5778923034668,-5.364109992980957,-7.89332389831543
1772533399378972700,1.96297265625,49.12883758544922,-7.634300708770752,-8.03210735321045
1772533399388898300,1.972898193359375,44.0817756652832,-5.723631858825684,-7.380661487579346
1772533399398829300,1.982829345703125,36.34398651123047,-2.864806890487671,-2.985046148300171
1772533399408761900,1.992761962890625,26.75714111328125,-1.5864413976669312,1.32921302318573
1772533399418693000,2.002693115234375,17.386249542236328,-1.9357935190200806,1.8658034801483154
1772533399428634400,2.01263427734375,11.2576322555542,-2.659024238586426,0.046061836183071136
1772533399438566700,2.022566650390625,11.463415145874023,-3.4061830043792725,-1.8693926334381104
1772533399448493000,2.0324931640625,15.806387901306152,-4.344169616699219,-4.057629108428955
1772533399458424600,2.042424560546875,18.085552215576172,-5.019543647766113,-5.585446357727051
1772533399468355300,2.052355224609375,17.98505401611328,-4.55055046081543,-5.283352375030518
1772533399478287000,2.062287109375,15.576677322387695,-2.984447956085205,-2.2331018447875977
1772533399488216000,2.072216064453125,11.036894798278809,-1.5672988891601562,1.6067804098129272
1772533399498147300,2.082147216796875,5.25762939453125,-0.3846462368965149,4.77667236328125
1772533399508086500,2.09208642578125,0.37806597352027893,0.15672987699508667,5.676971912384033
1772533399518018800,2.102018798828125,-0.7806583642959595,-0.8679963946342468,3.1680972576141357
1772533399527969000,2.111968994140625,0.20099709928035736,-2.8456642627716064,-0.020937198773026466
1772533399537903000,2.121903076171875,0.11006984114646912,-3.5258240699768066,-1.0408778190612793
1772533399547816000,2.13181591796875,-1.6187444925308228,-2.8600213527679443,-0.15493527054786682
1772533399557748000,2.141748046875,-4.802993297576904,-1.887937068939209,1.0612168312072754
1772533399567671300,2.15167138671875,-8.834898948669434,-0.7100701332092285,2.3443679809570312
1772533399577602600,2.1616025390625,-12.833306312561035,0.09451649338006973,3.311666488647461
1772533399587513000,2.17151318359375,-14.422738075256348,-0.015553346835076809,3.5126636028289795
1772533399597442000,2.181442138671875,-12.809377670288086,-0.5569294691085815,0.7836494445800781
1772533399607401500,2.1914013671875,-8.705686569213867,-1.1407781839370728,-1.0887342691421509
1772533399617333500,2.20133349609375,-3.830909013748169,-1.0450652837753296,-0.5814558863639832
1772533399627276300,2.2112763671875,0.3445664644241333,-0.8727820515632629,-0.45224347710609436
1772533399637209300,2.221209228515625,3.3852458000183105,-0.9541380405426025,-0.08793623000383377
1772533399647130400,2.23113037109375,5.755336761474609,-0.8201399445533752,0.7208378314971924
1772533399657062400,2.2410625,7.350152969360352,-0.42771705985069275,1.568495273590088
1772533399666991900,2.250991943359375,7.536793231964111,-0.2021935135126114,2.162513494491577
1772533399676923600,2.260923583984375,6.27278470993042,-0.40378883481025696,1.7647067308425903
1772533399686854700,2.270854736328125,4.563112735748291,-0.29371899366378784,1.420140266418457
1772533399696786200,2.2807861328125,3.61017107963562,-0.039481572806835175,0.9080761671066284
1772533399706721000,2.290720947265625,3.2895328998565674,0.2476571500301361,0.2997010350227356
1772533399716653000,2.300653076171875,2.8636105060577393,0.9613165259361267,-0.1453639715909958
1772533399726583000,2.3105830078125,2.451446771621704,1.9908283948898315,-0.5288137793540955
1772533399736514600,2.3205146484375,2.3365912437438965,2.9389843940734863,-0.5814558863639832
1772533399746452200,2.3304521484375,2.451446771621704,4.193421840667725,-0.42352959513664246
1772533399756384800,2.340384765625,2.7912275791168213,5.644070625305176,0.3858426511287689
1772533399766313000,2.35031298828125,3.2416765689849854,6.754938125610352,1.5445669889450073
1772533399776244700,2.36024462890625,3.8883368968963623,6.735795974731445,2.1337995529174805
1772533399786176500,2.370176513671875,4.199403762817383,5.9264235496521,2.736790895462036
1772533399796108500,2.380108642578125,3.9840497970581055,5.074578762054443,3.373879909515381
1772533399806052900,2.390052978515625,3.768097400665283,4.040280818939209,3.8572301864624023
1772533399815986200,2.399986083984375,4.070191383361816,3.40797758102417,5.3802618980407715
1772533399825915400,2.409915283203125,4.999204635620117,2.9102704524993896,6.93619441986084
1772533399835848200,2.41984814453125,6.33499813079834,1.4733805656433105,6.27577543258667
1772533399845773800,2.42977392578125,8.346165657043457,-0.7148557901382446,3.996612071990967
1772533399855705900,2.439705810546875,11.57827091217041,-1.4189438819885254,1.8993029594421387
1772533399865634300,2.44963427734375,14.810376167297363,-1.212562918663025,2.0237298011779785
1772533399875566000,2.459566162109375,17.367107391357422,-0.2356930375099182,5.571687698364258
1772533399885507000,2.469507080078125,21.00180435180664,2.4263222217559814,8.35872745513916
1772533399895440000,2.47943994140625,28.26581573486328,4.9160542488098145,6.993622303009033
1772533399905361400,2.489361328125,37.0283317565918,6.616154670715332,0.8793623447418213
1772533399915293000,2.49929296875,38.06741714477539,3.1351959705352783,-2.7314071655273438
1772533399925223700,2.5092236328125,36.01317596435547,-1.6199408769607544,-5.62373161315918
1772533399935155000,2.519155029296875,39.096927642822266,-2.2085752487182617,-9.31047248840332
1772533399945084200,2.529084228515625,42.37269973754883,-3.8081772327423096,-10.957931518554688
1772533399955015400,2.539015380859375,39.38945007324219,-3.8847475051879883,-10.406984329223633
1772533399964944100,2.548944091796875,32.283363342285156,-1.3280165195465088,-9.713065147399902
1772533399974875100,2.558875244140625,24.775285720825195,0.14715859293937683,-10.450055122375488
1772533399984788000,2.5687880859375,18.79442596435547,1.0235298871994019,-9.832706451416016
1772533399994717200,2.57871728515625,15.390036582946777,2.0195422172546387,-7.2227349281311035
1772533400004680400,2.588680419921875,14.585450172424316,1.8759729862213135,-4.191627025604248
1772533400014613000,2.598613037109375,15.279369354248047,2.201396942138672,-1.3286148309707642
1772533400024519400,2.60851953125,14.618949890136719,2.6081767082214355,1.171286702156067
1772533400034449400,2.618449462890625,12.071191787719727,2.6703901290893555,2.4640090465545654
1772533400044405500,2.628405517578125,10.835897445678711,2.469393014907837,2.8325037956237793
1772533400054338000,2.638338134765625,10.496116638183594,2.139183521270752,4.101896286010742
1772533400064266500,2.6482666015625,7.632505893707275,2.5076780319213867,6.237490653991699
1772533400074198800,2.65819873046875,1.939382791519165,3.053839921951294,7.396214962005615
1772533400084132400,2.66813232421875,-3.9218363761901855,2.517249345779419,6.314060688018799
1772533400094065000,2.67806494140625,-8.025527000427246,0.908674418926239,2.991028308868408
1772533400103975700,2.6879755859375,-9.644271850585938,-0.5330012440681458,-1.3094722032546997
1772533400113906000,2.697906005859375,-8.140382766723633,-1.2508480548858643,-4.3208394050598145
1772533400123841000,2.707841064453125,-6.3493547439575195,-0.844068169593811,-4.004986763000488
1772533400133771800,2.717771728515625,-6.881159782409668,-0.4420739710330963,-1.721037745475769
1772533400143701500,2.727701416015625,-8.873184204101562,-0.600000262260437,0.5868397355079651
1772533400153632300,2.73763232421875,-9.418747901916504,-0.8201399445533752,2.4975085258483887
1772533400163599400,2.747599365234375,-7.934599876403809,-0.28893333673477173,3.345165967941284
1772533400173533700,2.75753369140625,-5.38205623626709,0.39122650027275085,3.2542388439178467
1772533400183431400,2.767431396484375,-2.097309112548828,0.19980068504810333,2.1577277183532715
1772533400193362200,2.777362060546875,1.197009563446045,-0.719641387462616,0.13698910176753998
1772533400203316200,2.787316162109375,3.6532418727874756,-1.5433706045150757,-1.6253247261047363
1772533400213249300,2.797249267578125,4.855037212371826,-1.8831514120101929,-2.3336002826690674
1772533400223158500,2.807158447265625,4.821537494659424,-1.6151553392410278,-1.160519003868103
1772533400233089000,2.817089111328125,3.9696927070617676,-0.8871390223503113,2.4496521949768066
1772533400243022000,2.82702197265625,2.489732027053833,0.17587246000766754,6.108277797698975
1772533400252952800,2.836952880859375,0.4977070987224579,0.5682953596115112,7.534998416900635
1772533400262883800,2.8468837890625,-0.6275177597999573,-0.3655036687850952,6.38584566116333
1772533400272814800,2.85681494140625,-0.2153540402650833,-1.4524433612823486,2.9383862018585205
1772533400282769000,2.866768798828125,1.3214362859725952,-2.280359983444214,-0.8542376756668091
1772533400292702200,2.8767021484375,2.954537868499756,-2.644667148590088,-2.7457640171051025
1772533400302632400,2.886632568359375,4.266402721405029,-2.313859462738037,-2.5495524406433105
1772533400312565500,2.8965654296875,5.386841773986816,-1.1599208116531372,-1.3142578601837158
1772533400322500600,2.90650048828125,5.884549140930176,0.12323036789894104,0.9607182741165161
1772533400332433700,2.91643359375,5.822335720062256,1.2340983152389526,3.1680972576141357
1772533400342367500,2.926367431640625,5.860620975494385,1.7796618938446045,2.8666014671325684
1772533400352300500,2.936300537109375,6.282355785369873,1.057029366493225,0.19920247793197632
1772533400362238000,2.946238037109375,7.378866672515869,0.2715853750705719,-1.989033818244934
1772533400372171800,2.956171875,9.43310546875,0.6113662123680115,-1.9938194751739502
1772533400382111500,2.966111572265625,12.425928115844727,2.0338993072509766,0.0077766734175384045
1772533400392045600,2.976045654296875,14.283356666564941,3.604189157485962,2.712862730026245
1772533400401915600,2.98591552734375,13.603795051574707,4.509274482727051,3.555734395980835
1772533400411843300,2.99584326171875,14.19721508026123,5.1080780029296875,1.0755738019943237
1772533400421815800,3.00581591796875,16.472190856933594,5.4143595695495605,-2.1278176307678223
1772533400431748000,3.015748046875,18.8183536529541,5.849853038787842,-3.66520619392395
1772533400441681000,3.025680908203125,23.1708984375,7.602595806121826,-2.420340061187744
1772533400451613200,3.03561328125,32.04887008666992,8.34018325805664,0.37148571014404297
1772533400461524500,3.0455244140625,45.67180633544922,6.754938125610352,-0.9020941257476807
1772533400471454700,3.055454833984375,51.46064376831055,2.905484914779663,-3.238685369491577
1772533400481415200,3.065415283203125,46.89274215698242,-3.2715866565704346,-5.1876397132873535
1772533400491348200,3.07534814453125,47.17988204956055,-6.005984783172607,-9.037691116333008
1772533400501269800,3.085269775390625,50.598628997802734,-5.938985824584961,-7.773682594299316
1772533400511201800,3.095201904296875,45.05385971069336,-4.593621253967285,-3.5982069969177246
1772533400521137000,3.105136962890625,34.217960357666016,-4.109673023223877,-4.613361835479736
1772533400531069200,3.115069091796875,23.697917938232422,-4.512265205383301,-7.332805156707764
1772533400541002000,3.125001953125,15.308082580566406,-2.644667148590088,-6.38464879989624
1772533400550934300,3.134934326171875,9.916455268859863,0.28115665912628174,-3.0233314037323
1772533400560863000,3.144863037109375,6.55992317199707,2.6321048736572266,-0.7776673436164856
1772533400570795000,3.154794921875,3.466601848602295,3.3266217708587646,0.5916253924369812
1772533400580726500,3.1647265625,3.442673683166504,2.1343977451324463,1.1617153882980347
1772533400590658600,3.174658447265625,7.283154010772705,0.2907279431819916,1.2861422300338745
1772533400600589600,3.184589599609375,9.06401252746582,-0.7674978375434875,2.2773690223693848
1772533400610521600,3.194521484375,7.517650604248047,-1.2029916048049927,2.8516464233398438
1772533400620459300,3.204459228515625,4.098905086517334,-1.2460623979568481,3.311666488647461
1772533400630391600,3.2143916015625,0.2679961323738098,-1.0115658044815063,3.6993038654327393
1772533400640306400,3.224306396484375,-3.222533941268921,-1.3471591472625732,2.9958138465881348
1772533400650237000,3.23423681640625,-6.110072612762451,-2.2229323387145996,1.109073281288147
1772533400660179000,3.244178955078125,-8.71047306060791,-2.1846470832824707,-0.2315055876970291
1772533400670111000,3.254111083984375,-11.276775360107422,-1.6007983684539795,-0.6197410821914673
1772533400680043500,3.26404345703125,-12.818948745727539,-1.3806586265563965,-1.1365907192230225
1772533400689975300,3.273975341796875,-13.225728988647461,-1.5098711252212524,-1.2897313833236694
1772533400699905800,3.28390576171875,-13.235300064086914,-1.7539390325546265,-0.916451096534729
1772533400709837600,3.293837646484375,-12.191431045532227,-2.170290231704712,-0.9978070259094238
1772533400719774500,3.3037744140625,-8.815756797790527,-2.5298118591308594,-1.587039589881897
1772533400729706800,3.313706787109375,-4.5828537940979,-2.912663459777832,-1.80717933177948
1772533400739638000,3.323637939453125,-1.0007981061935425,-3.4061830043792725,-1.673181176185608
1772533400749570300,3.3335703125,2.6141586303710938,-4.147958278656006,-1.898106575012207
1772533400759511300,3.34351123046875,5.884549140930176,-4.24367094039917,-2.18045973777771
1772533400769444400,3.3534443359375,7.503293514251709,-3.3242287635803223,-0.9308080077171326
1772533400779366100,3.3633662109375,7.283154010772705,-2.122433662414551,0.8027920126914978
1772533400789298200,3.373298095703125,5.932405471801758,-1.3088740110397339,1.6163517236709595
1772533400799238700,3.38323876953125,5.047060966491699,-0.6957131624221802,1.5254244804382324
1772533400809171500,3.39317138671875,4.783252239227295,0.28594231605529785,0.9655039310455322
1772533400819082500,3.40308251953125,4.405186653137207,1.334596872329712,0.5102694034576416
1772533400829013000,3.413012939453125,3.8781673908233643,1.7988044023513794,0.8458628058433533
1772533400838954500,3.42295458984375,3.3613176345825195,2.0482561588287354,1.3914263248443604
1772533400848886000,3.432885986328125,4.5583271980285645,1.4207384586334229,0.1417747437953949
1772533400858795300,3.442795166015625,6.138786315917969,0.8273184299468994,-1.179661512374878
1772533400868724500,3.452724365234375,5.673980712890625,1.4733805656433105,0.11306086927652359
1772533400878681600,3.462681640625,4.194618225097656,2.2779672145843506,2.7415764331817627
1772533400888614000,3.47261376953125,3.600599765777588,2.2923240661621094,3.7902309894561768
1772533400898550500,3.482550537109375,4.0319061279296875,1.6217355728149414,3.005385160446167
1772533400908483300,3.4924833984375,4.764110088348389,0.5252245664596558,1.7407784461975098
1772533400918409000,3.502408935546875,6.473781585693359,-0.5234299302101135,0.6346961855888367
1772533400928341000,3.512341064453125,8.475378036499023,-1.1359925270080566,0.29012975096702576
1772533400938287900,3.522287841796875,9.916455268859863,-0.719641387462616,0.7016952633857727
1772533400948221200,3.53222119140625,10.223334312438965,0.41994038224220276,2.48315167427063
1772533400958149400,3.5421494140625,8.044071197509766,2.1583259105682373,5.882754325866699
1772533400968082400,3.55208251953125,3.8979079723358154,5.165505886077881,8.8707914352417
1772533400978002200,3.562002197265625,2.1403799057006836,6.955935478210449,9.373882293701172
1772533400987933700,3.57193359375,6.220142364501953,6.573083877563477,8.253443717956543
1772533400997863400,3.581863525390625,15.624533653259277,5.663212776184082,5.763113498687744
1772533401007795000,3.591794921875,28.026533126831055,5.715855121612549,1.109073281288147
1772533401017729800,3.601729736328125,36.65983581542969,2.8187451362609863,-1.4291132688522339
1772533401027661600,3.61166162109375,40.634315490722656,-1.179063320159912,-1.7353945970535278
1772533401037595100,3.62159521484375,44.738006591796875,-2.812164783477783,-2.669193744659424
1772533401047527200,3.631527099609375,48.87041091918945,-3.387040376663208,-5.020142078399658
1772533401057457400,3.64145751953125,50.50291442871094,-3.3098719120025635,-5.968297958374023
1772533401067389200,3.65138916015625,44.72843551635742,-3.52103853225708,-5.767300605773926
1772533401077330400,3.661330322265625,35.07938003540039,-5.1774702072143555,-6.959524631500244
1772533401087263200,3.67126318359375,28.117460250854492,-4.8233323097229,-8.108677864074707
1772533401097197800,3.68119775390625,24.320051193237305,-2.510669231414795,-6.068796634674072
1772533401107131000,3.691130859375,21.63410758972168,-0.3367897868156433,-3.166900873184204
1772533401117052200,3.70105224609375,17.961124420166016,1.2005987167358398,-2.0273189544677734
1772533401126984000,3.71098388671875,13.431511878967285,1.7988044023513794,-2.410768747329712
1772533401136916000,3.720916015625,9.490532875061035,1.3489537239074707,-2.779263496398926
1772533401146847700,3.73084765625,7.153941631317139,0.592223584651947,-1.7928223609924316
1772533401156790300,3.740790283203125,5.44426965713501,0.22372891008853912,-0.025722842663526535
1772533401166723300,3.750723388671875,3.662813186645508,0.3242274820804596,1.4536397457122803
1772533401176639700,3.7606396484375,3.79681134223938,0.003589233849197626,1.8610178232192993
1772533401186571000,3.770571044921875,4.66361141204834,-0.8919246196746826,1.0707881450653076
1772533401196514600,3.7805146484375,4.730610370635986,-1.7730815410614014,-0.6245267391204834
1772533401206447000,3.790447021484375,3.6053855419158936,-2.4532413482666016,-2.4777679443359375
1772533401216373200,3.800373291015625,0.6125625967979431,-2.4293131828308105,-2.9180471897125244
1772533401226305000,3.810304931640625,-3.3278181552886963,-1.6965112686157227,-2.0273189544677734
1772533401236233200,3.820233154296875,-7.426723480224609,-1.155135154724121,-0.9116654396057129
1772533401246164700,3.830164794921875,-11.741580963134766,-1.1120643615722656,0.649053156375885
1772533401256073500,3.840073486328125,-15.107684135437012,-1.4380863904953003,2.1672990322113037
1772533401266002700,3.850002685546875,-14.882759094238281,-1.6247265338897705,2.48315167427063
1772533401275956200,3.859956298828125,-10.936994552612305,-1.3088740110397339,1.511067509651184
1772533401285887700,3.8698876953125,-6.009573936462402,-1.3663017749786377,0.1944168359041214
1772533401295799300,3.87979931640625,-2.6051857471466064,-2.347957134246826,-1.2035897970199585
1772533401305739300,3.8897392578125,0.5407779216766357,-3.3577284812927246,-2.0991036891937256
1772533401325598000,3.909597900390625,4.811966419219971,-3.9900317192077637,-1.00259268283844
1772533401335527700,3.919527587890625,6.296712875366211,-3.7507495880126953,0.8793623447418213
1772533401345459700,3.929459716796875,7.560721397399902,-3.195016384124756,2.943171739578247
1772533401355389400,3.939389404296875,8.126026153564453,-2.0171494483947754,4.637888431549072
1772533401365342200,3.94934228515625,7.551149845123291,-0.9876375198364258,5.088337421417236
1772533401375274200,3.959274169921875,5.774479389190674,-0.3320041298866272,4.322035789489746
1772533401385192000,3.96919189453125,3.2895328998565674,0.21415762603282928,3.2829527854919434
1772533401395122400,3.979122314453125,0.6508477330207825,0.6065805554389954,2.373081922531128
1772533401405087700,3.989087646484375,-0.9194421172142029,0.9278169870376587,1.32921302318573
1772533401415021800,3.999021728515625,-0.4504488706588745,1.2149556875228882,0.37148571014404297
1772533401424921000,4.008921142578125,1.709073543548584,1.4973087310791016,0.13220344483852386
1772533401434851600,4.0188515625,3.3708889484405518,1.8083757162094116,1.4009976387023926
1772533401444783600,4.02878369140625,3.8638103008270264,2.392822742462158,2.789433002471924
1772533401454714400,4.03871435546875,3.8883368968963623,2.982055187225342,3.9487555027008057
1772533401464650500,4.048650390625,3.955335855484009,3.503690481185913,4.389034748077393
1772533401474581800,4.058581787109375,3.835096597671509,3.9589250087738037,3.8428730964660645
1772533401484531500,4.068531494140625,4.113262176513672,3.978067636489868,2.991028308868408
1772533401494464800,4.07846484375,5.860620975494385,3.7046875953674316,1.4919248819351196
1772533401504393200,4.088393310546875,8.647661209106445,3.417548894882202,0.36191442608833313
1772533401514325800,4.09832568359375,12.008978843688965,3.393620729446411,0.5246263742446899
1772533401524263000,4.108262939453125,15.768102645874023,3.920639991760254,1.4536397457122803
1772533401534196000,4.118196044921875,18.73221206665039,4.001996040344238,3.9774694442749023
1772533401544126000,4.1281259765625,20.657238006591797,2.8863422870635986,6.553342819213867
1772533401554058800,4.138058837890625,28.758737564086914,3.0251259803771973,3.5365917682647705
1772533401564030700,4.14803076171875,40.05944061279297,2.0817556381225586,-3.789632797241211
1772533401573967400,4.15796728515625,44.053062438964844,-4.2006001472473145,-7.692326545715332
1772533401583855600,4.167855712890625,47.39044952392578,-8.697312355041504,-11.700304985046387
1772533401593787600,4.17778759765625,51.32185745239258,-10.152746200561523,-13.99382495880127
1772533401603712000,4.1877119140625,49.1910514831543,-9.990034103393555,-10.368699073791504
1772533401613643000,4.19764306640625,38.895931243896484,-8.788239479064941,-8.213961601257324
1772533401623609900,4.20760986328125,26.326433181762695,-6.963712215423584,-9.147761344909668
1772533401633544400,4.21754443359375,17.63091468811035,-3.6263227462768555,-8.03210735321045
1772533401643445200,4.2274453125,14.029717445373535,0.3194418251514435,-3.7609190940856934
1772533401653376500,4.23737646484375,13.00499153137207,3.4606196880340576,-0.3517449200153351
1772533401663306500,4.247306396484375,12.368500709533691,4.217350006103516,1.1569297313690186
1772533401673237800,4.25723779296875,11.640483856201172,3.6185460090637207,1.444068431854248
1772533401683178800,4.2671787109375,10.96032428741455,2.5124638080596924,1.1425727605819702
1772533401693110800,4.27711083984375,11.654840469360352,0.8799605369567871,0.3332005441188812
1772533401703036000,4.287035888671875,12.617353439331055,-0.4181457459926605,-0.8015955686569214
1772533401712967400,4.296967529296875,11.92762279510498,-0.8249256014823914,-1.6348960399627686
1772533401722896000,4.306895751953125,9.020941734313965,-0.18305093050003052,-1.3525429964065552
1772533401732827100,4.3168271484375,4.649254322052002,0.7310073375701904,-0.7537391185760498
1772533401742761700,4.32676171875,0.31106695532798767,1.210170030593872,-0.763310432434082
1772533401752693200,4.336693359375,-2.7248268127441406,0.9038887619972229,-1.7736797332763672
1772533401762624500,4.34662451171875,-3.9792640209198,0.1423729509115219,-3.861417531967163
1772533401772555800,4.3565556640625,-4.232903480529785,-0.4660021960735321,-5.436492919921875
1772533401782490000,4.366489990234375,-4.6163530349731445,-0.7627122402191162,-4.828716278076172
1772533401792422000,4.376421875,-4.946562767028809,-0.9732806086540222,-3.1621150970458984
1772533401802351400,4.386351318359375,-4.951348304748535,-1.734796404838562,-2.36291241645813
1772533401812283100,4.396283203125,-4.745565414428711,-2.950948476791382,-2.89890456199646
1772533401822221300,4.40622119140625,-4.314259052276611,-3.583251953125,-4.272983074188232
1772533401832153300,4.4161533203125,-4.501497745513916,-3.865604877471924,-4.934000492095947
1772533401842078000,4.426077880859375,-6.842874526977539,-4.267599105834961,-5.422136306762695
1772533401852009500,4.436009521484375,-9.476176261901855,-4.828117847442627,-4.7234320640563965
1772533401861958100,4.445958251953125,-10.366904258728027,-5.139184951782227,-2.1517457962036133
1772533401871891200,4.45589111328125,-9.203393936157227,-4.281956195831299,2.3300111293792725
1772533401881805000,4.46580517578125,-5.760720729827881,-2.7690939903259277,7.692924976348877
1772533401891736300,4.475736328125,-0.7663014531135559,-2.1032910346984863,10.910673141479492
1772533401901674000,4.485674072265625,5.496912002563477,-1.6055840253829956,10.925029754638672
1772533401911605800,4.495605712890625,11.501700401306152,-1.4620146751403809,8.205587387084961
1772533401921544000,4.5055439453125,15.107086181640625,-1.667797327041626,4.72881555557251
1772533401931476200,4.515476318359375,15.073586463928223,-1.3902299404144287,2.0093727111816406
1772533401941400800,4.52540087890625,11.156535148620605,-0.6813562512397766,1.6307085752487183
1772533401951332600,4.53533251953125,6.239284992218018,0.7938188910484314,2.981456995010376
1772533401961262000,4.545261962890625,1.4937195777893066,3.0825538635253906,4.949553489685059
1772533401971193600,4.555193603515625,-2.0925233364105225,4.753342151641846,6.079564094543457
1772533401981140000,4.565139892578125,-3.5437703132629395,5.222933769226074,4.580460548400879
1772533401991073000,4.575072998046875,-2.6913273334503174,5.26600456237793,1.8562321662902832
1772533402000990500,4.584990478515625,-0.8811569213867188,5.146363258361816,-0.1501496136188507
1772533402010921700,4.594921630859375,1.0055837631225586,5.127220630645752,-1.5056836605072021
1772533402020857900,4.60485791015625,3.6675989627838135,5.189434051513672,-2.2187447547912598
1772533402030789600,4.61478955078125,6.579065799713135,5.438287734985352,-1.098305583000183
1772533402040696000,4.624696044921875,9.605388641357422,6.223731517791748,1.4727823734283447
1772533402050625500,4.63462548828125,12.21057415008545,6.984649181365967,3.326023578643799
1772533402060593400,4.644593505859375,12.335000991821289,7.53559684753418,4.11625337600708
1772533402070526700,4.654526611328125,7.8382887840271,7.913662910461426,4.647459983825684
1772533402080421400,4.66442138671875,0.4163511395454407,10.116255760192871,5.346762180328369
1772533402090350800,4.674350830078125,-6.890730857849121,14.143376350402832,6.773482799530029
1772533402100310500,4.684310546875,-2.4424736499786377,16.715063095092773,12.088540077209473
1772533402110243000,4.6942431640625,18.085552215576172,14.756537437438965,17.53340721130371
1772533402120175900,4.70417578125,40.926239013671875,7.789236068725586,16.633108139038086
1772533402130108400,4.7141083984375,58.98307800292969,-0.48035913705825806,15.766308784484863
1772533402140024600,4.724024658203125,69.51808166503906,-1.5002998113632202,14.880365371704102
1772533402149955300,4.733955322265625,65.40003204345703,-0.19262222945690155,12.950553894042969
1772533402159914000,4.7439140625,51.317073822021484,-0.4995017349720001,8.961718559265137
1772533402169847600,4.75384765625,38.57529067993164,1.0091729164123535,6.108277797698975
1772533402179768000,4.76376806640625,27.825536727905273,4.3896331787109375,7.496713161468506
1772533402189700400,4.773700439453125,19.19641876220703,7.688737392425537,9.416953086853027
1772533402199632100,4.783632080078125,12.818350791931152,9.441479682922363,9.378668785095215
1772533402209564200,4.793564208984375,8.149953842163086,9.465408325195312,8.511868476867676
1772533402219492400,4.803492431640625,6.306283950805664,7.138388156890869,5.274977684020996
1772533402229424000,4.813424072265625,7.4123663902282715,3.0969107151031494,-1.1270195245742798
1772533402239359200,4.823359130859375,10.567901611328125,-0.6430711150169373,-6.250650882720947
1772533402249291300,4.833291259765625,14.432310104370117,-3.449253797531128,-6.772884368896484
1772533402259224000,4.84322412109375,16.265810012817383,-4.358526229858398,-4.54636287689209
1772533402269156400,4.85315625,14.432310104370117,-3.9661035537719727,-2.2857437133789062
1772533402279086600,4.863086669921875,9.902098655700684,-3.180659532546997,0.1178465187549591
1772533402289018600,4.8730185546875,4.783252239227295,-2.5010979175567627,1.200000524520874
1772533402298945300,4.8829453125,-0.06699903309345245,-2.069791555404663,0.6107679605484009
1772533402308876800,4.892876708984375,-4.1659040451049805,-1.4428720474243164,0.026919255033135414
1772533402318815000,4.90281494140625,-7.566105365753174,-0.8153542876243591,0.06041877344250679
1772533402328747000,4.9127470703125,-10.319047927856445,-0.37028929591178894,0.07477571070194244
1772533402338682000,4.92268212890625,-12.205788612365723,-0.5282155871391296,-0.5718846321105957
1772533402348614400,4.932614501953125,-13.398012161254883,-1.552941918373108,-2.1708884239196777
1772533402358550500,4.942550537109375,-14.054244041442871,-1.643869161605835,-2.803191661834717
1772533402368483300,4.9524833984375,-13.656436920166016,-1.0785647630691528,-2.242672920227051
1772533402378404600,4.962404541015625,-11.32941722869873,-1.0785647630691528,-2.3916261196136475
1772533402388336000,4.972336181640625,-7.268796920776367,-1.7060825824737549,-2.1469600200653076
1772533402398269700,4.982269775390625,-2.9928228855133057,-1.97407865524292,-0.22193430364131927
1772533402408201500,4.992201416015625,0.6652047038078308,-1.5912270545959473,2.727219581604004
1772533402418138600,5.002138671875,3.4713873863220215,-1.1359925270080566,5.916254043579102
1772533402428071000,5.01207080078125,6.000002861022949,-0.9924231767654419,7.932207107543945
1772533402437999000,5.0219990234375,7.120441913604736,-1.0402796268463135,7.611568927764893
1772533402447931100,5.03193115234375,6.196214199066162,-1.7874385118484497,6.141777515411377
1772533402457866500,5.041866455078125,4.5822553634643555,-1.954936146736145,4.044468402862549
1772533402467799000,5.051799072265625,2.5902304649353027,-1.5720844268798828,2.454437732696533
1772533402477736700,5.06173681640625,1.0821540355682373,-0.7722834944725037,1.8610178232192993
1772533402487669800,5.071669677734375,0.550349235534668,0.22372891008853912,1.6211373805999756
1772533402497629000,5.08162890625,0.22971096634864807,1.1479566097259521,1.82273268699646
1772533402507564500,5.091564453125,-0.5605186820030212,1.9908283948898315,2.4735803604125977
1772533402517431300,5.101431396484375,-0.8189435601234436,2.7900311946868896,2.1337995529174805
1772533402527359700,5.11135986328125,0.43549370765686035,3.4989049434661865,1.0660024881362915
1772533402537292800,5.121292724609375,2.4370899200439453,3.738187074661255,0.4576273262500763
1772533402547221800,5.1312216796875,6.22492790222168,3.087339401245117,-0.22193430364131927
1772533402557163500,5.14116357421875,12.028120994567871,2.737389087677002,-1.2370892763137817
1772533402567093800,5.15109375,16.869400024414062,3.087339401245117,-1.500898003578186
1772533402577018400,5.161018310546875,19.311275482177734,3.3888349533081055,-0.2315055876970291
1772533402586948000,5.170947998046875,19.938793182373047,3.4271202087402344,2.066800594329834
1772533402596886300,5.18088623046875,18.5838565826416,3.5084762573242188,3.3164522647857666
1772533402606816800,5.190816650390625,14.93001651763916,4.676771640777588,2.028515338897705
1772533402616751000,5.200751220703125,10.620543479919434,6.39601469039917,0.3475574851036072
1772533402626682000,5.21068212890625,8.61894702911377,7.798807144165039,0.37148571014404297
1772533402636613600,5.220613525390625,11.252846717834473,9.3457670211792,0.9272187948226929
1772533402646545000,5.230544921875,17.602201461791992,11.026126861572266,2.0811574459075928
1772533402656474400,5.240474365234375,25.89572525024414,12.410374641418457,1.827518343925476
1772533402666405400,5.2504052734375,32.943782806396484,8.321041107177734,-0.16929219663143158
1772533402676364000,5.260364013671875,38.235511779785156,-0.32243284583091736,-3.1956145763397217
1772533402686297600,5.270297607421875,42.9804801940918,-3.7363924980163574,-4.110270977020264
1772533402696230700,5.280230712890625,44.42634201049805,-3.535395383834839,-0.37088751792907715
1772533402706164200,5.290164306640625,42.94219207763672,-4.334598064422607,1.2957134246826172
1772533402716101400,5.300101318359375,37.8759880065918,-3.5641093254089355,0.09870393574237823
1772533402726035200,5.31003515625,28.950761795043945,-1.1455638408660889,-0.9355936646461487
1772533402735935200,5.319935302734375,20.192432403564453,1.583450436592102,-2.338385820388794
1772533402745865700,5.32986572265625,14.029717445373535,4.289134502410889,-2.779263496398926
1772533402755833000,5.3398330078125,10.141979217529297,5.213362216949463,-1.9555343389511108
1772533402765767400,5.349767333984375,7.819146156311035,4.001996040344238,-1.1270195245742798
1772533402775678200,5.35967822265625,6.502495765686035,1.5451651811599731,-1.0408778190612793
1772533402785610000,5.36960986328125,8.46580696105957,-1.1934202909469604,-2.530410051345825
1772533402795555600,5.3795556640625,12.837493896484375,-3.3003005981445312,-2.8941190242767334
1772533402805489000,5.389489013671875,15.39482307434082,-3.1040892601013184,-0.8877372145652771
1772533402815396400,5.399396240234375,14.024931907653809,-1.0211371183395386,2.454437732696533
1772533402825327000,5.4093271484375,9.122037887573242,0.5252245664596558,5.236692428588867
1772533402835273500,5.4192734375,3.538386583328247,0.966102123260498,3.6323046684265137
1772533402845205800,5.429205810546875,-2.404188632965088,0.5730810165405273,0.0891326442360878
1772533402855142400,5.439142333984375,-8.274380683898926,0.3242274820804596,-2.5734808444976807
1772533402865075200,5.4490751953125,-12.795021057128906,0.43908295035362244,-4.1629133224487305
1772533402875000800,5.459000732421875,-14.633306503295898,0.6113662123680115,-4.272983074188232
1772533402884932900,5.468932861328125,-13.862817764282227,0.39601215720176697,-3.4067811965942383
1772533402894867500,5.478867431640625,-10.50090217590332,-0.24047867953777313,-1.960319995880127
1772533402904799700,5.4887998046875,-6.157928943634033,-0.8057830333709717,0.615553617477417
1772533402914735900,5.49873583984375,-2.0446670055389404,-0.7292127013206482,2.7176482677459717
1772533402924668400,5.50866845703125,0.9720842242240906,-0.8392825126647949,3.5509488582611084
1772533402934593800,5.51859375,2.585444927215576,-0.5377869009971619,4.322035789489746
1772533402944525800,5.52852587890625,3.1794631481170654,0.09930214285850525,3.82373046875
1772533402954457600,5.53845751953125,2.868396043777466,-0.11605189740657806,2.129014015197754
1772533402964389600,5.5483896484375,2.135594129562378,-0.7339983582496643,0.9367900490760803
1772533402974318300,5.558318359375,1.6325032711029053,-1.3615161180496216,1.2813565731048584
1772533402984249900,5.568249755859375,1.795215129852295,-1.7252250909805298,2.5405795574188232
1772533402994194700,5.578194580078125,3.418745279312134,-2.1846470832824707,3.139383316040039
1772533403004127500,5.58812744140625,5.30548620223999,-2.4149563312530518,3.326023578643799
1772533403014047500,5.598047607421875,5.520840167999268,-2.266003131866455,3.5509488582611084
1772533403023979000,5.60797900390625,4.792823791503906,-1.557727575302124,3.9008991718292236
1772533403033914000,5.6179140625,3.1411778926849365,-0.4085744619369507,3.3403804302215576
1772533403043846100,5.62784619140625,1.551147222518921,0.2476571500301361,1.4297115802764893
1772533403053781000,5.637781005859375,1.0151549577713013,0.7262216806411743,-0.23629122972488403
1772533403063713300,5.64771337890625,1.8047864437103271,1.3872389793395996,-0.3517449200153351
1772533403073645300,5.657645263671875,3.4235310554504395,1.828116536140442,0.5150550603866577
1772533403083577300,5.667577392578125,5.683551788330078,1.9381862878799438,1.109073281288147
1772533403093493800,5.67749365234375,7.666005611419678,2.5938198566436768,2.2917258739471436
1772533403103424300,5.68742431640625,8.982656478881836,4.04985237121582,3.82373046875
1772533403113373700,5.697373779296875,11.20499038696289,5.6153564453125,4.101896286010742
1772533403123306200,5.70730615234375,14.048859596252441,7.214958667755127,4.331607341766357
1772533403133232000,5.717232177734375,15.940385818481445,8.746963500976562,7.128218650817871
1772533403143164000,5.727163818359375,20.039291381835938,9.92961597442627,12.184252738952637
1772533403153099500,5.737099609375,26.858238220214844,8.569893836975098,15.637096405029297
1772533403163031800,5.74703173828125,29.927631378173828,5.811567783355713,16.30230140686035
1772533403172970500,5.756970458984375,29.855247497558594,2.6177480220794678,13.396217346191406
1772533403182903300,5.7669033203125,28.47159767150879,-0.3846462368965149,7.759923934936523
1772533403192826000,5.776826171875,27.825536727905273,-3.52103853225708,2.018944025039673
1772533403202758000,5.7867578125,33.504302978515625,-3.070589542388916,-9.736993789672852
1772533403212689000,5.79668896484375,31.25385284423828,-3.5306098461151123,-13.064811706542969
1772533403222620700,5.80662060546875,23.851057052612305,-9.013164520263672,-12.954741477966309
1772533403232551000,5.816551025390625,31.38785171508789,-13.75334644317627,-17.14936065673828
1772533403242482400,5.826482421875,45.14957046508789,-15.601801872253418,-17.32642936706543
1772533403252418300,5.836418212890625,45.33142852783203,-13.174283027648926,-13.409378051757812
1772533403262350300,5.846350341796875,31.091140747070312,-8.907880783081055,-9.756135940551758
1772533403272300000,5.856300048828125,15.15015697479248,-5.72841739654541,-10.747363090515137
1772533403282233900,5.86623388671875,2.843869686126709,-3.3194432258605957,-12.494721412658691
1772533403292122600,5.87612255859375,-4.989633560180664,-0.6382854580879211,-10.65105152130127
1772533403302052000,5.886052001953125,-7.585247993469238,1.5355939865112305,-5.867799282073975
1772533403312005600,5.896005615234375,-6.291927337646484,1.674377679824829,-1.1413763761520386
1772533403321937400,5.9059375,-1.542174220085144,-0.45164528489112854,-0.11186445504426956
1772533403331884800,5.915884765625,7.584649562835693,-3.779463291168213,-3.2721848487854004
1772533403341818000,5.925818115234375,17.8079833984375,-6.5282182693481445,-6.911668300628662
1772533403351745300,5.935745361328125,22.998615264892578,-7.097710132598877,-8.688339233398438
1772533403361678000,5.945677978515625,21.418155670166016,-6.029912948608398,-7.6875410079956055
1772533403371597300,5.955597412109375,14.647664070129395,-4.622334957122803,-4.455435752868652
1772533403381528800,5.96552880859375,5.286343574523926,-3.2476584911346436,-2.779263496398926
1772533403391465000,5.97546484375,-3.3469607830047607,-2.4293131828308105,-4.143770694732666
1772533403401397000,5.98539697265625,-9.437891006469727,-1.423729419708252,-4.977071285247803
1772533403411339500,5.995339599609375,-12.838091850280762,0.12323036789894104,-2.9515466690063477
1772533403421272600,6.0052724609375,-15.193825721740723,1.3728820085525513,0.649053156375885
1772533403431239000,6.015239013671875,-15.610177040100098,1.8424733877182007,3.8811583518981934
1772533403441175300,6.02517529296875,-11.808579444885254,2.0338993072509766,4.283750534057617
1772533403451056600,6.035056640625,-5.645864963531494,1.6648063659667969,2.138585329055786
1772533403460987100,6.044987060546875,-1.6139588356018066,0.8368897438049316,1.1234302520751953
1772533403470920400,6.05492041015625,1.8963119983673096,0.25722843408584595,0.6921239495277405
1772533403480851500,6.0648515625,5.18105936050415,0.4342973232269287,1.195214867591858
1772533403490784800,6.07478466796875,7.063014030456543,0.11844471842050552,2.176870346069336
1772533403500715800,6.0847158203125,8.288737297058105,-1.1312068700790405,2.554936408996582
1772533403510652700,6.094652587890625,9.241679191589355,-2.2851455211639404,2.9718856811523438
1772533403520584400,6.10458447265625,8.662017822265625,-3.0562326908111572,1.9902302026748657
1772533403530521300,6.114521240234375,7.048657417297363,-3.482753276824951,-0.5623133182525635
1772533403540453600,6.12445361328125,5.511268615722656,-3.731606960296631,-0.4713860750198364
1772533403550375000,6.134375,4.237689018249512,-2.606382131576538,6.093921184539795
1772533403560306200,6.14430615234375,4.395615100860596,0.7740781307220459,14.545371055603027
1772533403570238700,6.15423876953125,7.096513748168945,4.882554531097412,18.385251998901367
1772533403580170000,6.164169921875,9.54796028137207,5.86421012878418,15.79980754852295
1772533403590103000,6.17410302734375,10.03131103515625,2.335394859313965,8.325227737426758
1772533403600034600,6.18403466796875,8.073383331298828,-0.8536394834518433,0.9798609018325806
1772533403609963500,6.193963623046875,5.468197822570801,-1.428515076637268,-3.324826955795288
1772533403619894800,6.203894775390625,3.806382656097412,-1.155135154724121,-4.728217601776123
1772533403629828000,6.213828125,3.3230323791503906,-0.13519448041915894,-3.3343982696533203
1772533403639759400,6.22375927734375,3.07417893409729,2.2540390491485596,0.30927231907844543
1772533403649695000,6.233695068359375,3.145963668823242,4.222135543823242,2.114656925201416
1772533403659627000,6.243626953125,3.246462106704712,4.045066833496094,-0.05922235921025276
1772533403669557500,6.2535576171875,3.059821844100952,3.2165517807006836,-3.0520453453063965
1772533403679489300,6.2634892578125,3.490530014038086,2.210968017578125,-4.589433670043945
1772533403689408000,6.273407958984375,4.338187217712402,1.2915260791778564,-4.876572608947754
1772533403699338200,6.283338134765625,4.429114818572998,2.0961127281188965,-3.4498519897460938
1772533403709263600,6.293263671875,5.784050464630127,2.6943182945251465,-1.8550357818603516
1772533403719193300,6.303193359375,10.802397727966309,2.4502503871917725,-0.7680960893630981
1772533403729130200,6.313130126953125,18.21954917907715,3.8291144371032715,0.8315058946609497
1772533403739060700,6.323060791015625,29.19004249572754,3.930211305618286,-0.6149554252624512
1772533403748994600,6.33299462890625,42.72205352783203,0.4103690981864929,-3.4737801551818848
1772533403758925600,6.342925537109375,51.001220703125,-8.208578109741211,-4.8574299812316895
1772533403768890600,6.352890625,53.13681411743164,-14.960525512695312,-11.503495216369629
1772533403778825000,6.362824951171875,54.592247009277344,-15.985251426696777,-17.785850524902344
1772533403788733700,6.372733642578125,53.06981658935547,-13.432707786560059,-17.35514259338379
1772533403798665500,6.38266552734375,43.2580451965332,-8.845666885375977,-12.054442405700684
1772533403808584400,6.39258447265625,30.353553771972656,-4.665405750274658,-8.03210735321045
1772533403818515000,6.402514892578125,18.971494674682617,-1.31365966796875,-5.9922261238098145
1772533403828450300,6.4124501953125,11.151749610900879,1.114457130432129,-4.129413604736328
1772533403838381300,6.42238134765625,8.642875671386719,2.579462766647339,-1.7784653902053833
1772533403848309000,6.43230908203125,9.595816612243652,2.9772696495056152,0.7447660565376282
1772533403858239500,6.442239501953125,11.879766464233398,2.210968017578125,4.408177375793457
1772533403868200400,6.452200439453125,13.71386432647705,2.0721843242645264,7.22871732711792
1772533403878134000,6.462134033203125,13.081561088562012,2.1200408935546875,7.012764930725098
1772533403888061400,6.4720615234375,11.420344352722168,1.2436695098876953,4.288536548614502
1772533403897994500,6.481994384765625,11.094322204589844,-0.4612165689468384,0.37148571014404297
1772533403907929900,6.491929931640625,10.481760025024414,-1.9932212829589844,-3.1860432624816895
1772533403917863200,6.50186328125,6.847062110900879,-3.1136605739593506,-5.398207664489746
1772533403927792600,6.511792724609375,1.9298114776611328,-3.204587697982788,-6.67717170715332
1772533403937725700,6.5217255859375,-2.197807550430298,-2.682952404022217,-6.030511379241943
1772533403947656400,6.531656494140625,-5.574080467224121,-1.3040883541107178,-3.492922782897949
1772533403957589200,6.54158935546875,-8.892327308654785,0.2907279431819916,-0.9020941257476807
1772533403967514400,6.551514404296875,-12.612567901611328,1.3250255584716797,0.8937192559242249
1772533403977446400,6.5614462890625,-14.959328651428223,2.4646072387695312,2.066800594329834
1772533403987383000,6.571383056640625,-15.303894996643066,2.0817556381225586,3.651447296142578
1772533403997315600,6.581315673828125,-12.459427833557129,1.6121642589569092,3.2303106784820557
1772533404007257300,6.59125732421875,-6.737590312957764,1.5451651811599731,2.578864574432373
1772533404017190700,6.601190673828125,-0.7854440212249756,0.3433700501918793,1.6450655460357666
1772533404027086600,6.611086669921875,4.247260093688965,-0.8823533654212952,0.2757728099822998
1772533404037016000,6.62101611328125,8.149953842163086,-1.6534404754638672,-0.5048855543136597
1772533404046985200,6.630985107421875,10.366904258728027,-2.606382131576538,-1.1030912399291992
1772533404056918800,6.640918701171875,10.72582721710205,-3.4444682598114014,0.06041877344250679
1772533404066839800,6.65083984375,10.107880592346191,-3.5545380115509033,1.9806588888168335
1772533404076772000,6.660772216796875,8.054241180419922,-3.0179476737976074,2.9766714572906494
1772533404086676200,6.67067626953125,4.232903480529785,-2.5154547691345215,3.570091485977173
1772533404096605700,6.680605712890625,-0.45523449778556824,-1.9645073413848877,3.3164522647857666
1772533404106571500,6.690571533203125,-4.573282241821289,-1.31365966796875,2.727219581604004
1772533404116504800,6.7005048828125,-6.5318074226379395,-1.0450652837753296,1.9471594095230103
1772533404126427100,6.71042724609375,-5.980860233306885,-1.1838489770889282,1.0133603811264038
1772533404136359400,6.720359375,-3.94097900390625,-1.174277663230896,0.706480860710144
1772533404146290400,6.73029052734375,-1.7718851566314697,-0.906281590461731,0.529412031173706
1772533404156222200,6.74022216796875,0.46899324655532837,-0.355932354927063,-0.10707881301641464
1772533404166136000,6.750135986328125,2.94975209236145,-0.26979073882102966,-1.1892328262329102
1772533404176066000,6.760066162109375,5.0566325187683105,-0.32721850275993347,-2.6021945476531982
1772533404186025500,6.770025390625,6.794419765472412,0.12323036789894104,-4.253840446472168
1772533404195958500,6.77995849609375,7.17786979675293,0.7986045479774475,-4.436293125152588
1772533404205897000,6.78989697265625,6.306283950805664,2.2205393314361572,-3.5359935760498047
1772533404215830500,6.79983056640625,5.50648307800293,3.944568157196045,-3.276970624923706
1772533404225723000,6.809722900390625,5.171487808227539,4.514060020446777,-3.6221351623535156
1772533404235652000,6.819652099609375,4.72582483291626,4.748556613922119,-3.9762730598449707
1772533404245609700,6.829609619140625,4.845465660095215,5.112864017486572,-3.6221351623535156
1772533404255542000,6.8395419921875,7.010372161865234,4.3417768478393555,-2.084746837615967
1772533404265480200,6.849480224609375,9.825528144836426,3.920639991760254,0.37148571014404297
1772533404275413000,6.8594130859375,13.570295333862305,4.959722995758057,2.760719060897827
1772533404285339600,6.869339599609375,19.368703842163086,6.44387149810791,2.492722988128662
1772533404295272000,6.87927197265625,24.095125198364258,7.87059211730957,1.7216359376907349
1772533404305207300,6.889207275390625,28.9124755859375,6.625725746154785,2.688934564590454
1772533404315139600,6.8991396484375,36.525840759277344,2.0338993072509766,3.4169507026672363
1772533404325067500,6.909067626953125,46.41358184814453,-3.8703906536102295,0.44805604219436646
1772533404334999600,6.91899951171875,56.958152770996094,-8.481359481811523,-4.019343852996826
1772533404344937200,6.928937255859375,59.88337707519531,-9.68375301361084,-4.488935470581055
1772533404354869800,6.938869873046875,51.24528884887695,-8.668598175048828,-5.56151819229126
1772533404364783600,6.94878369140625,39.57130432128906,-7.34177827835083,-8.156534194946289
1772533404374714400,6.95871435546875,30.501909255981445,-5.1152567863464355,-8.702695846557617
1772533404384636000,6.968635986328125,25.733013153076172,-2.2085752487182617,-7.634898662567139
1772533404394565600,6.978565673828125,24.12384033203125,-0.39900317788124084,-6.610172748565674
1772533404404521000,6.98852099609375,22.912473678588867,0.4007977843284607,-6.188437461853027
1772533404414453200,6.998453369140625,20.101505279541016,1.6552350521087646,-5.044070243835449
1772533404424400000,7.00839990234375,16.917255401611328,2.8911280632019043,-2.693121910095215
1772533404434333700,7.018333740234375,14.374881744384766,3.197409152984619,-0.9690931439399719
1772533404444255200,7.028255126953125,11.726625442504883,2.775674343109131,-0.9212366938591003
1772533404454187800,7.038187744140625,8.193024635314941,1.94297194480896,-1.4051851034164429
1772533404464094500,7.048094482421875,4.122833251953125,0.5587241053581238,-2.070389747619629
1772533404474024700,7.058024658203125,-0.09092725813388824,-0.6813562512397766,-2.9754750728607178
1772533404483985700,7.067985595703125,-4.659423828125,-0.48514479398727417,-2.42512583732605
1772533404493918700,7.077918701171875,-8.815756797790527,0.30508488416671753,-1.3573286533355713
1772533404503841500,7.087841552734375,-11.664412498474121,0.875174880027771,-0.5814558863639832
1772533404513773600,7.097773681640625,-13.216157913208008,1.0474581718444824,0.49591249227523804
1772533404523703800,7.107703857421875,-13.867603302001953,1.1240284442901611,1.8897316455841064
1772533404533635600,7.117635498046875,-13.853246688842773,1.095314621925354,3.445664644241333
1772533404543569200,7.127569091796875,-12.91466236114502,0.9469595551490784,3.9248273372650146
1772533404553501200,7.137501220703125,-10.017552375793457,0.3529413342475891,2.8905298709869385
1772533404563437800,7.147437744140625,-6.234499454498291,-0.32721850275993347,2.5645077228546143
1772533404573370400,7.157370361328125,-3.1890344619750977,-0.7148557901382446,3.077169895172119
1772533404583299000,7.167299072265625,-0.7040880918502808,-1.337587833404541,2.373081922531128
1772533404593231400,7.1772314453125,0.9864411354064941,-1.9214365482330322,0.9846464991569519
1772533404603141600,7.1871416015625,1.9298114776611328,-2.155933141708374,0.12263216078281403
1772533404613071600,7.197071533203125,2.2025933265686035,-2.5489542484283447,-0.6963114142417908
1772533404623036200,7.2070361328125,1.5607185363769531,-2.9940192699432373,-0.6340979933738708
1772533404632969500,7.216969482421875,0.5455635786056519,-2.8695926666259766,0.6969096064567566
1772533404642892300,7.226892333984375,0.1339980661869049,-2.5154547691345215,2.0620148181915283
1772533404652824800,7.236824951171875,0.5982056856155396,-2.6111676692962646,2.4017956256866455
1772533404662741800,7.24674169921875,1.1443674564361572,-2.9557342529296875,1.5589239597320557
1772533404672672800,7.2566728515625,1.5032907724380493,-3.2093734741210938,0.44805604219436646
1772533404682598000,7.266597900390625,2.8636105060577393,-3.171088218688965,-0.5288137793540955
1772533404692528000,7.276528076171875,4.314259052276611,-2.520240545272827,-0.672383189201355
1772533404702481000,7.28648095703125,4.390829563140869,-1.5050854682922363,0.012562318705022335
1772533404712413400,7.296413330078125,2.8731818199157715,-0.17347964644432068,1.3962119817733765
1772533404722345200,7.30634521484375,1.2687941789627075,1.5978072881698608,2.200798511505127
1772533404732277500,7.316277587890625,0.7082754969596863,2.6943182945251465,2.004587173461914
1772533404742211000,7.326211181640625,1.3310075998306274,2.9006991386413574,1.4632110595703125
1772533404752143400,7.336143310546875,3.835096597671509,2.7804598808288574,-0.054436713457107544
1772533404762071800,7.34607177734375,6.751348972320557,2.550748825073242,-1.2610175609588623
1772533404772004000,7.356004150390625,8.934800148010254,3.077768087387085,-1.4578272104263306
1772533404781942800,7.36594287109375,11.01296615600586,3.8673996925354004,-1.9746768474578857
1772533404791875600,7.37587548828125,11.20499038696289,5.385645389556885,-3.315255880355835
1772533404801842400,7.385842529296875,8.709874153137207,7.2676005363464355,-4.4650068283081055
1772533404811778600,7.395778564453125,7.675576686859131,9.000602722167969,-5.968297958374023
1772533404821670700,7.405670654296875,11.793624877929688,10.547562599182129,-5.800800323486328
1772533404831602400,7.4156025390625,20.604595184326172,11.902498245239258,0.0029910283628851175
1772533404841530000,7.425530029296875,36.463626861572266,11.916854858398438,7.606783390045166
1772533404851461600,7.435461669921875,58.011592864990234,9.809974670410156,12.720843315124512
1772533404861392100,7.44539208984375,66.54439544677734,2.7326035499572754,15.19143295288086
1772533404871323400,7.455323486328125,58.36573028564453,-0.6526423692703247,10.51346492767334
1772533404881271800,7.465271728515625,46.79224395751953,1.6169499158859253,6.457630157470703
1772533404891204900,7.475204833984375,38.1296272277832,4.624129772186279,6.802196502685547
1772533404901134800,7.485134765625,30.047271728515625,5.189434051513672,4.077968120574951
1772533404911067600,7.495067626953125,22.649263381958008,4.116851329803467,-0.8925228714942932
1772533404920997000,7.5049970703125,17.487346649169922,3.5324044227600098,-2.908475875854492
1772533404930929400,7.514929443359375,13.359726905822754,4.695914268493652,-2.2570300102233887
1772533404940825900,7.524825927734375,7.761718273162842,6.1088762283325195,0.9032905697822571
1772533404950754600,7.534754638671875,2.8342983722686768,6.702296257019043,5.073980331420898
1772533404960696300,7.5446962890625,-0.4265206456184387,6.496513366699219,8.042277336120605
1772533404970626300,7.554626220703125,-3.4002010822296143,5.5244293212890625,9.302098274230957
1772533404980554200,7.56455419921875,-4.989633560180664,2.958127021789551,9.023932456970215
1772533404990484200,7.574484130859375,-3.2273194789886475,-0.21176479756832123,6.433701992034912
1772533405000454700,7.58445458984375,1.4123635292053223,-2.630310297012329,2.0093727111816406
1772533405010388700,7.594388671875,5.616552829742432,-4.588835716247559,-1.2083754539489746
1772533405020318000,7.60431787109375,7.522436141967773,-4.928616523742676,-3.521636724472046
1772533405030251300,7.614251220703125,7.0199432373046875,-4.033102512359619,-4.048057556152344
1772533405040144600,7.62414453125,4.481756687164307,-2.888735055923462,-2.812762975692749
1772533405050074000,7.63407421875,0.9385846853256226,-1.7012969255447388,-1.4817553758621216
1772533405060042800,7.644042724609375,-3.2273194789886475,-0.9110672473907471,-0.27038896083831787
1772533405069976300,7.653976318359375,-7.5708909034729,-0.2548356056213379,0.8075776696205139
1772533405079898600,7.663898681640625,-11.061420440673828,0.2189432680606842,1.0612168312072754
1772533405089831000,7.673830810546875,-12.201003074645996,0.0849452018737793,0.09870393574237823
1772533405099759600,7.683759521484375,-10.48654556274414,-0.3798605799674988,-1.49611234664917
1772533405109691600,7.693691650390625,-6.689733982086182,-0.7818548083305359,-3.008974552154541
1772533405119631000,7.703631103515625,-2.475973129272461,-1.2221341133117676,-2.7840490341186523
1772533405129563600,7.713563720703125,1.5990036725997925,-1.1982059478759766,-0.2315055876970291
1772533405139507500,7.723507568359375,5.1188459396362305,-0.7627122402191162,3.7088751792907715
1772533405149441000,7.73344091796875,8.288737297058105,0.013160524889826775,7.18086051940918
1772533405159327700,7.74332763671875,10.472187995910645,0.5874379873275757,7.960920810699463
1772533405169257000,7.753257080078125,10.510473251342773,0.20937198400497437,5.911468505859375
1772533405179219700,7.7632197265625,9.949954986572266,-0.5808576941490173,2.7702903747558594
1772533405189152000,7.773152099609375,9.81117057800293,-1.064207911491394,0.022133609279990196
1772533405199096300,7.783096435546875,9.67238712310791,-1.466800332069397,-1.6396816968917847
1772533405209030100,7.793030029296875,8.973084449768066,-1.6630117893218994,-1.3956137895584106
1772533405218951400,7.802951416015625,6.593422889709473,-2.376671075820923,-2.0368902683258057
1772533405228884000,7.812884033203125,3.686741590499878,-3.0897321701049805,-2.420340061187744
1772533405238807800,7.822807861328125,0.5934200286865234,-1.6582261323928833,-1.1653046607971191
1772533405248739300,7.8327392578125,-0.8668000102043152,0.6352944374084473,0.07477571070194244
1772533405258675700,7.84267578125,-0.7758727669715881,1.334596872329712,-0.5958128571510315
1772533405268607700,7.852607666015625,0.4019941985607147,0.9469595551490784,-1.716252088546753
1772533405278516200,7.86251611328125,2.183450698852539,0.8608179688453674,-2.166102647781372
1772533405288445700,7.87244580078125,3.988835334777832,1.210170030593872,-2.1756739616394043
1772533405298370800,7.882370849609375,5.8749775886535645,1.7461622953414917,-1.5391831398010254
1772533405308300000,7.892300048828125,7.857431411743164,2.469393014907837,-0.9116654396057129
1772533405318268700,7.9022685546875,9.485747337341309,3.675973892211914,-1.0408778190612793
1772533405328201700,7.91220166015625,9.983454704284668,4.638486862182617,-1.673181176185608
1772533405338131700,7.922131591796875,8.312665939331055,5.644070625305176,-2.86061954498291
1772533405348064800,7.932064697265625,5.549553871154785,7.937591075897217,-3.803989887237549
1772533405358001000,7.9420009765625,5.415555953979492,11.433505058288574,-3.2817561626434326
1772533405367934200,7.951934326171875,10.965109825134277,13.841880798339844,-1.8646070957183838
1772533405377862000,7.96186181640625,21.921245574951172,14.818750381469727,-0.42831525206565857
1772533405387794400,7.97179443359375,33.85365295410156,12.170494079589844,2.822932481765747
1772533405397729800,7.981729736328125,41.572898864746094,5.409573554992676,8.50708293914795
1772533405407662600,7.99166259765625,46.00201416015625,4.155136585235596,10.499107360839844
1772533405417589500,8.001589599609375,48.86083984375,4.308277130126953,8.899505615234375
1772533405427521800,8.011521728515625,47.15116882324219,2.172683000564575,6.165705680847168
1772533405437446100,8.021446044921875,40.65345764160156,0.6400800347328186,1.0085747241973877
1772533405447377700,8.031377685546875,32.80978775024414,0.4342973232269287,-2.0273189544677734
1772533405457310700,8.041310791015626,25.74736976623535,1.856830358505249,-0.9451649188995361
1772533405467242200,8.0512421875,18.593427658081055,3.9589250087738037,0.8745766878128052
1772533405477184000,8.06118408203125,10.993824005126953,5.155934810638428,2.569293260574341
1772533405487116800,8.07111669921875,4.716253280639648,5.974279880523682,4.350749969482422
1772533405497050600,8.081050537109375,1.4506487846374512,6.161518096923828,6.979265213012695
1772533405506983400,8.0909833984375,1.7617156505584717,5.199005603790283,9.598808288574219
1772533405516904000,8.100904052734375,3.035893678665161,3.714258909225464,9.656235694885254
1772533405526835700,8.110835693359375,5.721837043762207,1.8759729862213135,6.361917018890381
1772533405536747300,8.120747314453125,9.318249702453613,-0.6382854580879211,1.4249259233474731
1772533405546677000,8.130677001953124,10.984251976013184,-2.7355945110321045,-1.6157535314559937
1772533405556609000,8.140609130859374,9.973882675170898,-2.9700911045074463,-2.970689296722412
1772533405566538800,8.150538818359376,6.502495765686035,-2.203789710998535,-3.0664021968841553
1772533405576501500,8.16050146484375,1.4219348430633545,-1.3950155973434448,-2.358126640319824
1772533405586434600,8.1704345703125,-4.132404804229736,-0.4133601188659668,-1.3908281326293945
1772533405596339700,8.180339599609376,-9.241679191589355,0.4486542344093323,-0.7058826684951782
1772533405606270200,8.190270263671875,-13.398012161254883,0.8560323119163513,-1.1988041400909424
1772533405616225300,8.200225341796875,-15.739389419555664,0.20937198400497437,-2.228316068649292
1772533405626158000,8.210157958984375,-14.389239311218262,-0.9397810697555542,-2.3820550441741943
1772533405636091400,8.22009130859375,-9.993623733520508,-1.212562918663025,-2.606980323791504
1772533405646024400,8.2300244140625,-4.429114818572998,-1.4093725681304932,-2.6739792823791504
1772533405655966700,8.239966796875,0.5312066078186035,-1.5433706045150757,-1.9172492027282715
1772533405665900500,8.249900634765625,4.491328239440918,-1.337587833404541,-0.729810893535614
1772533405675820300,8.2598203125,6.957131862640381,-0.9302098155021667,0.706480860710144
1772533405685752600,8.269752685546875,7.9244303703308105,-0.16869398951530457,1.8945173025131226
1772533405705611500,8.289611572265626,8.274380683898926,-0.1495514214038849,1.2957134246826172
1772533405715524600,8.299524658203126,7.603792190551758,-0.5952146053314209,0.8075776696205139
1772533405725454600,8.30945458984375,7.0199432373046875,-0.7339983582496643,0.3284149169921875
1772533405735392800,8.319392822265625,6.976274490356445,-0.7627122402191162,0.09391828626394272
1772533405745323500,8.329323486328125,7.024729251861572,-1.150349497795105,0.23270200192928314
1772533405755294700,8.339294677734374,6.492924213409424,-1.4524433612823486,0.29012975096702576
1772533405765229600,8.3492294921875,4.802394866943359,-1.1647064685821533,0.4624129831790924
1772533405775142000,8.359141845703125,3.11246395111084,-0.633499801158905,0.8554341197013855
1772533405785074400,8.369074462890625,1.6755740642547607,-0.12083754688501358,0.9702895879745483
1772533405794980400,8.37898046875,0.5982056856155396,0.5539384484291077,1.1234302520751953
1772533405804910300,8.388910400390625,0.38285163044929504,1.296311616897583,0.6825526356697083
1772533405814869200,8.398869140625,0.9337990283966064,1.3824533224105835,-0.3613162338733673
1772533405824802000,8.408802001953125,1.072582721710205,1.669592022895813,-0.519242525100708
1772533405834729700,8.418729736328125,0.6460621356964111,2.383251428604126,0.050847481936216354
1772533405844662000,8.428662109375,-0.17228323221206665,3.0586254596710205,1.0707881450653076
1772533405854593000,8.438593017578125,-0.47916272282600403,3.978067636489868,3.3690943717956543
1772533405864525300,8.448525390625,-1.048654556274414,5.447858810424805,4.585246562957764
1772533405874457900,8.458457763671875,-3.634697675704956,6.678368091583252,4.121038913726807
1772533405884390100,8.46839013671875,-5.760720729827881,7.674380302429199,3.0245277881622314
1772533405894295600,8.478295654296875,-2.6530420780181885,7.396812915802002,3.091526746749878
1772533405904225300,8.488225341796875,11.56869888305664,4.734199523925781,5.940182209014893
1772533405914194400,8.4981943359375,37.98127365112305,2.029113531112671,7.310073375701904
1772533405924128000,8.5081279296875,64.7198715209961,2.100898265838623,4.858027935028076
1772533405934056000,8.518055908203126,71.2271499633789,-1.8113667964935303,5.643472194671631
1772533405943989200,8.5279892578125,57.41757583618164,-7.255636692047119,1.3196417093276978
1772533405953912800,8.537912841796874,46.451866149902344,-5.536991596221924,-4.019343852996826
1772533405963844900,8.547844970703125,43.64149475097656,-3.482753276824951,-3.468994617462158
1772533405973753600,8.557753662109375,41.912681579589844,-3.290729284286499,-0.8398807644844055
1772533405983683300,8.567683349609375,38.78107452392578,-1.734796404838562,0.2231307178735733
1772533405993628200,8.577628173828124,32.943782806396484,0.5635097622871399,1.6546368598937988
1772533406003559400,8.587559326171874,24.799213409423828,3.0011978149414062,2.760719060897827
1772533406013508400,8.59750830078125,17.343177795410156,5.237290382385254,3.9535412788391113
1772533406023441400,8.60744140625,11.003395080566406,6.984649181365967,6.328417778015137
1772533406033367300,8.6173671875,5.592624664306641,7.942376613616943,8.114660263061523
1772533406043299600,8.627299560546875,2.537588357925415,7.152745246887207,8.722436904907227
1772533406053234000,8.63723388671875,5.286343574523926,4.140779495239258,7.774280548095703
1772533406063166500,8.64716650390625,10.864611625671387,0.8464609980583191,5.069194793701172
1772533406073107000,8.65710693359375,13.503296852111816,-0.786640465259552,2.8516464233398438
1772533406083040300,8.667040283203125,12.832707405090332,-1.3615161180496216,1.5302101373672485
1772533406092942000,8.676942138671874,9.715457916259766,-0.9684949517250061,0.4863412082195282
1772533406102872300,8.686872314453124,4.256831645965576,-0.8153542876243591,-0.849452018737793
1772533406112806000,8.696805908203125,-2.820539712905884,-1.0785647630691528,-1.984248161315918
1772533406122736400,8.706736328125,-8.715258598327637,-0.6239284873008728,-2.5782663822174072
1772533406132670500,8.71667041015625,-12.862019538879395,0.5204389095306396,-1.7976080179214478
1772533406142601500,8.7266015625,-12.828520774841309,1.3537393808364868,-0.4570291340351105
1772533406152539100,8.7365390625,-10.663614273071289,1.6360924243927002,0.649053156375885
1772533406162470700,8.746470703125,-6.598806858062744,1.1575279235839844,1.3100703954696655
1772533406172394000,8.75639404296875,-1.8532410860061646,-0.24526432156562805,0.4289134442806244
1772533406182324500,8.766324462890625,0.981655478477478,-0.4181457459926605,-1.4051851034164429
1772533406192254200,8.776254150390624,1.800000786781311,0.5539384484291077,-3.1334011554718018
1772533406202185000,8.78618505859375,3.8015968799591064,0.8225327730178833,-2.812762975692749
1772533406212127700,8.796127685546875,5.219344615936279,0.5108676552772522,-0.849452018737793
1772533406222059800,8.806059814453125,5.971288681030273,0.8081758618354797,1.8705891370773315
1772533406231997700,8.815997802734374,6.545566558837891,1.4350954294204712,4.164109706878662
1772533406241930000,8.825929931640625,6.727420806884766,1.540379524230957,5.289334297180176
1772533406251871000,8.83587109375,7.622934818267822,1.272383451461792,5.136193752288818
1772533406261804300,8.84580419921875,8.384450912475586,0.875174880027771,3.7950167655944824
1772533406271737000,8.855737060546875,7.65164852142334,-0.058624155819416046,1.817348837852478
1772533406281670400,8.86567041015625,6.071787357330322,-0.5617151260375977,0.3284149169921875
1772533406291609300,8.875609375,2.121237277984619,-0.4372883439064026,-0.19322042167186737
1772533406301543200,8.885543212890624,0.5838487148284912,-0.22133609652519226,-0.380458801984787
1772533406311468800,8.89546875,2.757728099822998,-0.32243284583091736,-0.7393822073936462
1772533406321401900,8.90540185546875,5.023132801055908,-1.0019944906234741,-0.7489534616470337
1772533406331309000,8.91530908203125,7.795217990875244,-1.6342978477478027,0.14656038582324982
1772533406341239300,8.9252392578125,9.691530227661133,-2.0027925968170166,1.4967105388641357
1772533406351200000,8.935199951171874,10.424331665039062,-1.5098711252212524,2.4400808811187744
1772533406361133300,8.94513330078125,9.619745254516602,0.20458634197711945,2.1242282390594482
1772533406371062300,8.955062255859374,7.378866672515869,1.6217355728149414,1.6211373805999756
1772533406380995300,8.964995361328125,5.185844898223877,1.5643078088760376,0.7112665176391602
1772533406390918700,8.974918701171875,4.78803825378418,1.2532408237457275,0.0077766734175384045
1772533406400850700,8.9848505859375,5.362913608551025,1.6504493951797485,0.33798620104789734
1772533406410759400,8.994759521484376,7.235297679901123,2.7900311946868896,1.0516455173492432
1772533406420689200,9.004689208984376,10.72582721710205,4.193421840667725,1.659422516822815
1772533406430643500,9.0146435546875,13.938790321350098,4.959722995758057,1.5780665874481201
1772533406440575700,9.02457568359375,15.361323356628418,5.041079044342041,0.7884350419044495
1772533406450516000,9.034515869140625,15.183655738830566,4.671986103057861,-0.18843477964401245
1772533406460448800,9.04444873046875,12.569497108459473,3.723830223083496,-0.3278166949748993
1772533406470380800,9.054380859375,7.895716667175293,3.283550977706909,0.5916253924369812
1772533406480313600,9.064313720703124,4.252045631408691,4.9740800857543945,1.6211373805999756
1772533406490187500,9.0741875,3.4378879070281982,7.655237674713135,2.349153518676758
1772533406500114400,9.084114501953126,4.773681163787842,8.943174362182617,2.0715861320495605
1772533406510098400,9.094098388671876,7.551149845123291,7.229315280914307,0.6634100675582886
1772533406520031200,9.10403125,10.156335830688477,4.480560302734375,-0.39960137009620667
1772533406529972000,9.113971923828124,11.611769676208496,2.6321048736572266,-0.6771687865257263
1772533406539905500,9.123905517578125,12.775279998779297,1.7413766384124756,0.18963119387626648
1772533406549828000,9.133828125,17.25225067138672,2.321038007736206,1.9902302026748657
1772533406559760600,9.1437607421875,21.317657470703125,3.8386857509613037,3.483949661254883
1772533406569689900,9.15368994140625,21.437297821044922,4.633700847625732,3.982254981994629
1772533406579622000,9.163621826171875,18.669998168945312,4.681557655334473,3.675375461578369
1772533406589565400,9.1735654296875,15.059228897094727,4.715056896209717,2.5836503505706787
1772533406599498500,9.18349853515625,12.985848426818848,4.485345840454102,0.706480860710144
1772533406609419800,9.193419677734376,12.933206558227539,3.441477060317993,-0.9882357716560364
1772533406619351800,9.203351806640624,12.971491813659668,2.4598217010498047,-2.3437697887420654
1772533406629291300,9.213291259765626,11.630912780761719,2.0195422172546387,-3.152543783187866
1772533406639224000,9.22322412109375,9.605388641357422,1.114457130432129,-3.4259238243103027
1772533406649158400,9.233158447265625,8.197810173034668,0.6113662123680115,-3.1334011554718018
1772533406659091200,9.24309130859375,7.752147197723389,1.7030915021896362,-1.8167506456375122
1772533406669018400,9.253018310546874,7.40279483795166,2.9246275424957275,-0.2554338276386261
1772533406678950700,9.26295068359375,6.842276573181152,3.039483070373535,1.022931694984436
1772533406688884500,9.272884521484375,8.111668586730957,2.2683959007263184,0.8697910308837891
1772533406698816800,9.282816650390625,12.104691505432129,1.731805443763733,-0.09272187948226929
1772533406708722200,9.29272216796875,16.409976959228516,1.3010972738265991,0.23748764395713806
1772533406718652000,9.30265185546875,17.5017032623291,0.9421738982200623,2.765504837036133
1772533406728606700,9.312606689453125,13.823934555053711,0.9421738982200623,5.054837703704834
1772533406738539000,9.3225390625,10.453045845031738,1.334596872329712,5.303691387176514
1772533406748472600,9.33247265625,8.72901725769043,1.9716858863830566,3.6227335929870605
1772533406758405000,9.342405029296875,6.593422889709473,2.431107759475708,1.089930772781372
1772533406768386600,9.352386474609375,4.701896667480469,2.641676187515259,-0.5144568681716919
1772533406778323700,9.36232373046875,4.256831645965576,2.723032236099243,-0.9308080077171326
1772533406788205800,9.372205810546875,4.453042984008789,2.68953275680542,-0.9547362327575684
1772533406798137600,9.3821376953125,4.515256404876709,2.4741785526275635,-1.2418749332427979
1772533406808059400,9.392059326171875,4.716253280639648,2.282752752304077,-1.1748759746551514
1772533406817990100,9.401990234375,5.343770980834961,2.4598217010498047,-0.4713860750198364
1772533406827903000,9.411903076171875,6.090929985046387,2.87198543548584,0.44805604219436646
1772533406837832000,9.42183203125,6.942774772644043,3.2165517807006836,1.200000524520874
1772533406847804400,9.431804443359376,8.236095428466797,3.2787652015686035,1.3483555316925049
1772533406857737700,9.44173779296875,9.208179473876953,3.0203404426574707,0.8410771489143372
1772533406867655000,9.451655029296875,9.701101303100586,2.517249345779419,0.20877377688884735
1772533406877586700,9.461586669921875,10.199406623840332,2.0482561588287354,-0.1501496136188507
1772533406887518500,9.4715185546875,10.342975616455078,1.7461622953414917,-0.42352959513664246
1772533406897450200,9.4814501953125,9.844670295715332,1.7126628160476685,-0.4666004180908203
1772533406907386000,9.49138623046875,8.992227554321289,1.9860427379608154,-0.3613162338733673
1772533406917318400,9.501318359375,7.919644832611084,2.531606435775757,-0.37088751792907715
1772533406927244800,9.511244873046875,7.015157699584961,3.0442686080932617,-0.3565305769443512
1772533406937176600,9.521176513671875,6.2536420822143555,3.4127633571624756,-0.21714866161346436
1772533406947108000,9.531108154296875,5.6931233406066895,3.690330743789673,-0.26560330390930176
1772533406957039900,9.541039794921875,5.697908878326416,4.078566074371338,-0.39481574296951294
1772533406966972200,9.55097216796875,6.502495765686035,4.5475592613220215,-0.3517449200153351
1772533406976904000,9.560904052734376,7.991429328918457,4.4135613441467285,-0.20757736265659332
1772533406986811000,9.570810791015624,9.22253704071045,3.762115478515625,-0.2554338276386261
1772533406996740000,9.580739990234376,9.44746208190918,3.3409786224365234,-0.4091726839542389
1772533407006680800,9.590680908203124,9.54796028137207,3.3122646808624268,-0.3852444589138031
1772533407016611300,9.600611328125,10.088738441467285,3.417548894882202,-0.1788634955883026
1772533407026543000,9.610543212890626,10.759326934814453,3.604189157485962,0.33798620104789734
1772533407036473600,9.6204736328125,10.811968803405762,3.7669010162353516,0.898504912853241
1772533407046429000,9.630428955078125,10.26640510559082,3.896113395690918,1.1473584175109863
1772533407056362000,9.640362060546876,9.33739185333252,3.7525441646575928,1.046859860420227
1772533407066293200,9.650293212890626,8.6907320022583,3.6472599506378174,0.8602197170257568
1772533407076226000,9.66022607421875,8.824729919433594,3.6568312644958496,0.6873382925987244
1772533407086166500,9.67016650390625,9.107681274414062,3.36969256401062,0.5676971673965454
1772533407096100000,9.68010009765625,9.346963882446289,3.259622573852539,-0.054436713457107544
1772533407106020900,9.690020751953124,8.796015739440918,3.5228331089019775,-1.1318050622940063
1772533407115953200,9.699953125,8.6907320022583,3.0969107151031494,-1.2323036193847656
1772533407135811800,9.719811767578125,9.246464729309082,2.837887763977051,-0.1788634955883026
1772533407145754000,9.729754150390624,9.390034675598145,3.1351959705352783,-0.576670229434967
1772533407155687000,9.73968701171875,8.987442016601562,3.422334671020508,-0.48574298620224
1772533407165575200,9.7495751953125,8.274380683898926,3.685544967651367,-0.13100704550743103
1772533407175503600,9.759503662109376,7.742575645446777,3.896113395690918,0.09870393574237823
1772533407185477400,9.769477294921876,7.661220073699951,4.092923164367676,0.18005990982055664
1772533407195410200,9.77941015625,8.446663856506348,3.9637107849121094,-0.20757736265659332
1772533407205356800,9.789356689453125,9.662816047668457,3.8626139163970947,-1.2275179624557495
