time,seconds_elapsed,z,y,x
1772534686274447600,0.052447509765625,1.0766226853072642,-0.09482187159731983,0.20615166427269577
1772534686284464600,0.062464599609375,1.0759972468852996,-0.10972849495857953,0.25978220523856577
1772534686294481700,0.072481689453125,0.9658364979892968,-0.20735789825730025,-0.09848390123620629
1772534686304498700,0.082498779296875,0.9632306994050741,-0.20269304825142026,-0.06296871654503047
1772534686314515700,0.092515625,1.0974936239004134,-0.33553996846899387,-0.23416480277068913
1772534686324531500,0.102531494140625,1.1033704069793224,-0.5247086414977907,-0.07732377043813467
1772534686334548700,0.112548828125,1.1024661516159773,-0.5205902463935316,-0.07134831275772303
1772534686344565500,0.1225654296875,1.0609878938019275,-0.6304495281249284,0.40026122776977713
1772534686354582500,0.13258251953125,1.0616115786582232,-0.6350938467994331,0.3998424543684348
1772534686364598800,0.142598876953125,0.9799141231805085,-0.511481495656073,0.4512493644680828
1772534686374615600,0.152615478515625,0.9354436978131532,-0.42805721638575195,0.47266606384310866
1772534686384632600,0.162632568359375,0.9368523955672979,-0.4392487647466361,0.4727205339767038
1772534686394649900,0.17264990234375,0.44255204407572746,-0.34275311471819875,0.4540582844089716
1772534686404666600,0.18266650390625,0.04619593398571014,-0.22815635613612828,0.37547618447281417
1772534686414682600,0.1926826171875,-0.3480360235571861,-0.0744366706945002,0.23461269266866147
1772534686424699600,0.20269970703125,-0.590934679338336,0.039396848430112,0.04374159963615239
1772534686434716700,0.212716552734375,-0.5958914249628782,0.07299377840980888,0.05399689006023109
1772534686444733700,0.222733642578125,-0.9509259291052817,0.07202332594245672,-0.16209150020666419
1772534686454749700,0.232749755859375,-0.9233937790572643,-0.004934679923206568,-0.3731844202738255
1772534686464766700,0.2427666015625,-0.7188865209907292,-0.08232128646448254,-0.5358479482147842
1772534686474783700,0.25278369140625,-0.6136714118033647,-0.060368105592578644,-0.6458041875146329
1772534686484800500,0.262800537109375,-0.6233002408921718,-0.014972966595739125,-0.6132472681071609
1772534686494817800,0.27281787109375,-0.9020259968578815,-0.15673632984906435,-0.6288092866372317
1772534686504833800,0.282833740234375,-1.0261942283183336,-0.20015724616348743,-0.6787221222542226
1772534686514850600,0.2928505859375,-1.0625737016886472,-0.27102482619956136,-0.8578061121854931
1772534686524867600,0.30286767578125,-1.0702180789619684,-0.2543842186525464,-0.8074663563933223
1772534686534884600,0.312884521484375,-1.0353624541580677,-0.2862079284146428,-1.1154943408194928
1772534686544900600,0.322900634765625,-1.2648206136077642,-0.17018062557280061,-1.5854221022725103
1772534686554917600,0.332917724609375,-1.2684586778491735,-0.17350538608133792,-1.547690337510407
1772534686564934700,0.3429345703125,-1.9237077161878346,0.07195142975002526,-1.4029407980531454
1772534686574951700,0.35295166015625,-2.1222084273159503,0.15695377199202776,-1.1493920073114334
1772534686584968400,0.362968505859375,-2.127308380803466,0.1780931522630155,-1.137204287520051
1772534686594984400,0.372984375,-2.3095833487957713,-0.008340104452520609,-0.890106572613865
1772534686605001700,0.383001708984375,-2.3174685490876437,0.024729221456497905,-0.873929271729663
1772534686615018500,0.3930185546875,-1.6848656423211097,-0.07512479908913373,-1.003762177888304
1772534686625035500,0.403035400390625,-1.5516156942605972,-0.0002602583713829517,-0.8782740229357033
1772534686635051800,0.4130517578125,-1.5545488251030444,0.020413842475414275,-0.8860889344703405
1772534686645068500,0.423068603515625,-1.7127157722771167,0.19724515810906887,-0.5385179711416364
1772534686655085600,0.43308544921875,-1.6301590696215629,0.21525646948739885,-0.5422094460707158
1772534686665102800,0.443102783203125,-1.6362655698031185,0.2466362348742783,-0.5807387178860605
1772534686675119600,0.45311962890625,-1.7301520602464675,0.3415536758005619,-0.6653432929821312
1772534686685135600,0.463135498046875,-1.7384417496860027,0.3542858777321875,-0.6212110135279596
1772534686695152600,0.473152587890625,-1.5967057128310203,0.4536348713651299,-0.655457274261862
1772534686705169700,0.483169677734375,-1.663333609470725,0.6227408534437417,-0.6040360068432986
1772534686715186700,0.493186767578125,-1.7337345949083565,0.8516760119326412,-0.716168932595104
1772534686725202700,0.50320263671875,-1.5853437763392924,1.0390427501060069,-0.9601512919597327
1772534686735219700,0.5132197265625,-1.6036995172411201,1.0924695121280847,-0.9169457719616592
1772534686745237000,0.523237060546875,-0.7483417480558157,1.2164466049306093,-1.4264151971429586
1772534686755253800,0.533253662109375,-0.38800446133017535,1.3488969270460307,-1.5370974856950341
1772534686765269800,0.543269775390625,-0.3954927712589502,1.3979951583445072,-1.5607022331662475
1772534686775286800,0.553286865234375,0.06668693335056304,1.4785465125270187,-1.1918369182005524
1772534686785303800,0.5633037109375,0.06460077472627163,1.5225323692478239,-1.246557227164507
1772534686795320800,0.57332080078125,0.6105629243940115,1.4893103369951248,-0.5726623789362609
1772534686805337600,0.583337646484375,1.1669862623214722,1.4905727581463752,-0.50551455007568
1772534686815353900,0.593353759765625,1.7100357394129038,1.493281724844128,-0.5598765471212566
1772534686825371000,0.603370849609375,2.0281220303863288,1.4812491956144571,-0.6462459399327636
1772534686835387600,0.6133876953125,2.0296955633133646,1.4954906330652533,-0.6872540960170328
1772534686845405000,0.623405029296875,2.510184247073531,1.264185676705092,-0.7154474864527582
1772534686855421000,0.6334208984375,2.6913813567012546,1.1468111970379948,-0.70324252326563
1772534686865437700,0.643437744140625,2.711833777621388,1.0976014681890607,-0.5920573997579515
1772534686875454700,0.653454833984375,2.6910382423520085,1.15972562366873,-0.42274456999562676
1772534686885471700,0.6634716796875,2.69362767432332,1.1517721804462373,-0.4273078593231737
1772534686895488800,0.67348876953125,2.5415467690646647,1.164513442467153,-0.44111813881509004
1772534686905504800,0.6835048828125,2.4603502488464115,1.163827213768661,-0.5442033963669091
1772534686915521800,0.693521728515625,2.5469892523795363,1.1619397925868629,-0.9844155262529849
1772534686925538800,0.703538818359375,3.9307477955788372,1.2558863426543772,-1.496139598493278
1772534686935555600,0.7135556640625,3.9467408990025517,1.2074779933162032,-1.5314352221496403
1772534686945571600,0.723571533203125,1.249585635074973,1.629320426840335,0.00895816328562796
1772534686955588900,0.7335888671875,1.2557874123245476,1.196693272190541,0.0028861498955637215
1772534686965605600,0.743605712890625,0.9457570020347833,0.8381276713125407,-0.4137969281040132
1772534686975622700,0.75362255859375,0.35651685165464875,0.5345099045440554,-0.8288255168948322
1772534686985639000,0.763638916015625,0.3608504969447851,0.49811128808185456,-0.800798569067195
1772534686995655700,0.77365576171875,0.43220951375961303,0.20588541455194354,-1.5569861352525651
1772534687005672700,0.783672607421875,0.6911322526246308,-0.3360676456049084,-1.6650389520838855
1772534687015689700,0.793689697265625,1.12305067448318,-0.5781736897036432,-2.087414761832356
1772534687025706800,0.803706787109375,1.1170780298143625,-0.5465491557754576,-2.093698664407432
1772534687035722800,0.81372265625,1.632027786102891,-0.43527357750535006,-2.3896929505601525
1772534687045739800,0.82373974609375,2.160700362795591,-0.8931871491029858,-2.1873142289549112
1772534687055756800,0.8337568359375,2.1665169401198625,-1.2040484572589396,-1.983031135033071
1772534687065773800,0.84377392578125,2.017229464972019,-1.3074747833333908,-1.9273110013768076
1772534687075789600,0.85378955078125,1.7577409089177847,-1.3607128909155726,-1.7558229464672506
1772534687085806800,0.863806884765625,1.7737801895707845,-1.4101961760088801,-1.8104986856371164
1772534687095824000,0.873823974609375,0.796540254035592,-1.5851519070290028,-1.0712047519117593
1772534687105840600,0.883840576171875,0.12507540943324566,-1.5923827350653708,-0.731908134322986
1772534687115858000,0.89385791015625,-0.26300270165503026,-1.5525731411159038,-0.5487433048188686
1772534687125874000,0.9038740234375,-0.46232934221327304,-1.5171749338679015,-0.5207449985638261
1772534687135890700,0.913890625,-0.459834018266201,-1.5214894360661506,-0.5414275749780237
1772534687145908000,0.923907958984375,-0.6491746868610382,-1.425259158975631,-0.5329588026445359
1772534687155924700,0.9339248046875,-0.6989356198519467,-1.4543734636485577,-0.5961296906981617
1772534687165940700,0.943940673828125,-0.6942436626434326,-1.36108143196702,-0.7014563705012202
1772534687175957800,0.953957763671875,-0.7908861737966537,-1.1229212028846145,-0.8301997278574854
1772534687185974800,0.963974853515625,-0.7927437843620777,-1.1082833134621382,-0.8445522244673221
1772534687195991800,0.97399169921875,-0.9369149394094943,-0.7214733226135372,-1.221557006746903
1772534687206008600,0.984008544921875,-1.183618832692504,-0.6811709767110645,-1.121500084040314
1772534687216024800,0.99402490234375,-1.4329776243984698,-0.6869524827219545,-1.0496682620819657
1772534687226041900,1.004041748046875,-1.6746844400465488,-0.6404461676128208,-1.1218554733492434
1772534687236058600,1.01405859375,-1.885979750818014,-0.5442182286098599,-1.198591507027298
1772534687246076000,1.024075927734375,-2.022322988718748,-0.4200400602772832,-1.1774924587666988
1772534687256092000,1.034091796875,-2.0184750811189414,-0.4309706196144223,-1.2099484750829637
1772534687266108700,1.044108642578125,-2.1101374657720324,-0.17719181950911878,-0.6067736516462638
1772534687276125700,1.054125732421875,-2.012560888639092,-0.08160495488867163,-0.2767356781270355
1772534687286142700,1.064142822265625,-2.0093828431248664,-0.09328034124374389,-0.2983290857758373
1772534687296159700,1.07415966796875,-1.8243056771934032,0.16559563587009907,0.175948395319283
1772534687306175700,1.08417578125,-1.6250415804773568,0.33678704592064024,0.19192465720605104
1772534687316192800,1.09419287109375,-1.357168642437458,0.3885273161605,0.1704160417638719
1772534687326209800,1.104209716796875,-0.9603864158898592,0.5114167598567902,0.153337736919336
1772534687336226800,1.114226806640625,-0.9565501987278461,0.4965259185865521,0.11857676812894642
1772534687346242600,1.12424267578125,-0.2645674667537212,0.7415364519551396,0.10011988667389378
1772534687356259800,1.134259765625,-0.03862871360182762,0.7069426929578184,0.23754922104459256
1772534687366276900,1.14427685546875,0.25324118609726426,0.7573739264257252,0.21909907985758034
1772534687376293600,1.154293701171875,0.3547591943323612,0.7653921054475009,0.15620859791422262
1772534687386310000,1.164309814453125,0.35766251455843445,0.7495252587519585,0.14360307283587753
1772534687396326700,1.17432666015625,0.4135673571318388,0.7846747519358992,0.061139400492329146
1772534687406343700,1.18434375,0.37973113850355145,0.8340602757431567,0.005224840242508798
1772534687416361000,1.19436083984375,0.39534254913330075,0.9260035231642425,-0.04046398447128013
1772534687426377700,1.204377685546875,0.5309007741361856,0.9992387091144919,-0.10581062739510089
1772534687436393700,1.214393798828125,0.526537902751565,1.0214715837106108,-0.08185492932805791
1772534687446410800,1.22441064453125,0.8296306227326392,1.2235437235847115,-0.21733490146296097
1772534687456427800,1.234427734375,0.9233768279224633,1.3101758589856325,-0.2754970031775534
1772534687466444800,1.24444482421875,0.9009136517018079,1.3938454913191496,-0.3519763221481815
1772534687476460800,1.254460693359375,0.7315127783298492,1.4730658891588448,-0.3979954017296433
1772534687486477800,1.264477783203125,0.6229512813240289,1.5270149214893578,-0.42817430342677976
1772534687496494800,1.274494873046875,0.557727990785241,1.6237126699611544,-0.5215544883158058
1772534687506511600,1.28451171875,0.5524515116870403,1.638580130355805,-0.47097288659177716
1772534687516527600,1.294527587890625,0.445570515114069,1.6429548383086918,-0.4293720618439838
1772534687526545000,1.304544921875,0.4381318895459175,1.6639295295372605,-0.3725976333618164
1772534687536561700,1.314561767578125,0.45123920840024945,1.695441689132154,-0.2526399322684854
1772534687546578700,1.32457861328125,0.6653402242422104,1.7178865990437566,0.09543079727590084
1772534687556595700,1.334595703125,0.6504162113547325,1.7303544509507716,0.06583053571693599
1772534687566611700,1.34461181640625,0.525237926068902,1.62932977919057,-0.04528123029358685
1772534687576628700,1.354628662109375,0.4555114788919687,1.433763660209626,-0.2433309827838093
1772534687586645800,1.364645751953125,0.4566922131091356,1.4153709482982755,-0.21880546720586716
1772534687596662800,1.374662841796875,0.07693009494543075,1.146383619275689,0.0033022564157843587
1772534687606678800,1.3846787109375,0.0570247865140438,1.1155991894334554,0.209231729305163
1772534687616695800,1.39469580078125,0.09710369892418384,1.023018082500249,0.4560793419077992
1772534687626712800,1.404712890625,0.09039631024003028,0.92905735777691,0.6773191235885023
1772534687636729600,1.4147294921875,0.10189444033205508,0.877186008503288,0.6484130548387765
1772534687646747000,1.424746826171875,0.09082827191650866,0.6138799399875104,0.8430019262854009
1772534687656763000,1.434762939453125,0.102107206299901,0.4453087954379618,0.788415911225602
1772534687666779600,1.444779541015625,0.015555881050229071,0.2436680327184498,0.7220105712953955
1772534687676796700,1.454796630859375,0.14814473485350607,0.036473727525025604,0.6118214000225066
1772534687686814000,1.46481396484375,0.1498684899061918,0.023794278693944213,0.6145210874352603
1772534687696829700,1.47482958984375,0.24062661919593809,-0.22324556854516267,0.5114063845932484
1772534687706846700,1.4848466796875,0.3736258073657751,-0.357518868304044,0.4751655890412628
1772534687716863700,1.49486376953125,0.3963134399920702,-0.45001989573836326,0.420028223709017
1772534687726880800,1.504880859375,0.2610913150757551,-0.49827480808049435,0.3899082491248846
1772534687736898300,1.514898193359375,0.2647428233206272,-0.5250054324872792,0.3929706323701888
1772534687746914000,1.5249140625,0.11724983037412166,-0.6464386860258877,0.27431254263333976
1772534687756931300,1.534931396484375,0.12346914328038691,-0.6840520851053297,0.26320443477220834
1772534687766948000,1.544947998046875,0.09537819030582904,-0.7317460025638342,0.2115775617789477
1772534687776965400,1.55496533203125,0.14271744910776615,-0.7368035782143473,0.006828823106735944
1772534687786981400,1.5649814453125,0.15070318716466427,-0.7772634527660905,-0.02912292637079954
1772534687796998100,1.574998046875,0.04840191959738731,-0.863287466206029,-0.08163703052736818
1772534687807015200,1.58501513671875,0.055035658523440355,-0.9145919023118912,-0.13154818564392626
1772534687817032400,1.595032470703125,0.10472001914680004,-0.8656083103690296,-0.20258030859194695
1772534687827048200,1.605048095703125,-0.004112111493945122,-0.813924957948178,-0.24876641530338672
1772534687837065200,1.615065185546875,-0.0013490765213966369,-0.825704243069142,-0.272120914340578
1772534687847082500,1.62508251953125,-0.017884616258740424,-0.9399600061938166,-0.4862139660717919
1772534687857099300,1.635099365234375,-0.18587912996411324,-0.8648468975424766,-0.5162139310054481
1772534687867116300,1.6451162109375,-0.40601182718574996,-0.8122606049325317,-0.5476812285453081
1772534687877132300,1.65513232421875,-0.6571206774294376,-0.8510768039304762,-0.5479188366934656
1772534687887149300,1.6651494140625,-0.6566968990594149,-0.8596655493818223,-0.5394115589804948
1772534687897166300,1.675166259765625,-1.3706418719947338,-0.8033814982324838,-0.5587833815896883
1772534687907183000,1.68518310546875,-1.6316326493054627,-0.715824795332551,-0.5742357292002067
1772534687917199400,1.695199462890625,-1.8338479970425365,-0.7189167699985206,-0.574655525514856
1772534687927216400,1.70521630859375,-1.8156991768896578,-0.786546171830967,-0.6502893701046705
1772534687937233200,1.715233154296875,-1.8211118495881555,-0.7558831764113157,-0.6227144038282334
1772534687947250400,1.72525048828125,-1.7845798160046338,-0.68328000475429,-0.9858849412184209
1772534687957267200,1.73526708984375,-1.842519379276037,-0.6272073313333094,-1.0434610049396753
1772534687967283200,1.745283203125,-1.7773416814446448,-0.5352194410528988,-1.0404551741871981
1772534687977300200,1.75530029296875,-1.6967770293891429,-0.4015294210746884,-1.0438945740513503
1772534687987317200,1.765317138671875,-1.6992676771610975,-0.3782522981226444,-1.050270684954524
1772534687997334300,1.775334228515625,-1.7109586994767187,-0.3807129891477525,-0.6388264574564994
1772534688007350300,1.785350341796875,-1.713266976419091,-0.3621830607227981,-0.640722792597115
1772534688017367300,1.7953671875,-1.7346446954905985,-0.2677997266732156,-0.5359028932724148
1772534688027384300,1.80538427734375,-1.7781196800798176,-0.19123817277923225,-0.3835664058174938
1772534688037401000,1.815401123046875,-1.8302134399324654,-0.05812164184004068,-0.25318682556152344
1772534688047417000,1.8254169921875,-1.7907225565433502,0.24223025500029324,-0.24176475638039407
1772534688057434400,1.835434326171875,-1.6601923888355492,0.44349926179796456,-0.31961101632267236
1772534688067451100,1.845451171875,-1.563331851017475,0.5331183040551841,-0.455741707451269
1772534688077468200,1.85546826171875,-1.358345285001397,0.5849062128290534,-0.5788918479103594
1772534688087485400,1.8654853515625,-0.9498387183904647,0.7831845133781432,-0.7409410433452576
1772534688097501200,1.875501220703125,-0.46922553146779533,1.015498500650376,-0.946053208502382
1772534688107518200,1.885518310546875,0.06855097365677357,1.0803023967333136,-0.970072674254328
1772534688117535200,1.89553515625,0.5983189443707466,1.1649231923118233,-1.0028059000767766
1772534688127552300,1.90555224609375,0.9347165525823831,1.4154418215773998,-1.0841817223846912
1772534688137568300,1.915568359375,1.0717670619696378,1.6006830920293926,-1.047707775663957
1772534688147585300,1.925585205078125,1.1278028374463318,1.663853103300184,-0.9465889228142798
1772534688157602300,1.935602294921875,1.2153139476388692,1.8311270476460455,-0.9685900344811379
1772534688167619300,1.945619384765625,1.3598212027728558,1.8600633654035628,-1.0656869383383543
1772534688177636000,1.955635986328125,1.519565774527192,1.885832451301813,-1.1800674238212405
1772534688187652400,1.96565234375,1.5579934125989674,1.9206201254360378,-1.288297350785136
1772534688197669400,1.97566943359375,1.7642133198022842,1.8778322463281452,-1.3384411456137895
1772534688207686100,1.98568603515625,1.7827420791834592,1.7315112197704612,-1.4512331197962165
1772534688217703400,1.995703369140625,1.7477262953817843,1.5539543663412332,-1.4944801408484578
1772534688227719400,2.005719482421875,1.6432009220242498,1.3775694793008266,-1.5208948311738668
1772534688237736200,2.015736083984375,1.4170681076049805,1.1592850402943788,-1.4856833786696195
1772534688247753500,2.02575341796875,1.1923235326737165,0.9789590144127607,-1.4468598731480538
1772534688257770200,2.035770263671875,1.188202653351426,0.9917398777917027,-1.4215363390602171
1772534688267787300,2.045787353515625,0.5559171419709921,0.6925655002981423,-1.2340733009055256
1772534688277803300,2.05580322265625,0.21434183886051178,0.5806494321674108,-1.1029181331671774
1772534688287820300,2.0658203125,0.08287643612921237,0.44340617668703197,-1.0085426901631056
1772534688297837300,2.07583740234375,0.18440730384588241,0.321511150855571,-0.9062021134987472
1772534688307854000,2.08585400390625,0.31699498860538006,0.31077509117722507,-0.8138964625060557
1772534688317870300,2.095870361328125,0.6007908874422312,0.33460604861974713,-0.6519983659796417
1772534688327887400,2.105887451171875,0.8737281231343745,0.30901290381029245,-0.44683366691768167
1772534688337904000,2.115904052734375,1.126784600314498,0.24131547824293373,-0.24457239767964928
1772534688347921400,2.12592138671875,1.354389825373888,0.1553762935422361,-0.08455543872471899
1772534688357937400,2.1359375,1.5294301659375429,0.025618717642128468,-0.038300321897678076
1772534688367954200,2.1459541015625,1.650931224015355,-0.0770316556237638,-0.10202363793598487
1772534688377971200,2.15597119140625,1.6773948680490254,-0.19333499892801045,-0.18627048563556745
1772534688387988200,2.16598828125,1.770791529148817,-0.4250555503517389,-0.21107993272142483
1772534688398005200,2.176005126953125,1.9026339484989643,-0.5559034057065845,-0.3867394828956574
1772534688408021200,2.186021240234375,1.9463789822012185,-0.6111604518957435,-0.5203045978525653
1772534688418038300,2.196038330078125,1.93503691945374,-0.682948361647129,-0.48545931177958845
1772534688428055300,2.20605517578125,1.8788988526463508,-0.7186587035842239,-0.43841790341306475
1772534688438072300,2.216072265625,1.8809055162936448,-0.7286826694704592,-0.4250561348736286
1772534688448088000,2.226088134765625,0.8634218331754208,-0.7390433199651539,-0.3129089614007622
1772534688458105300,2.236105224609375,0.41545010213851924,-0.8646825007610023,-0.1901100272658281
1772534688468122400,2.246122314453125,0.16165128215849398,-0.9844447523474693,-0.27506807370837777
1772534688478139100,2.25613916015625,0.07940963680148125,-1.0609113214343786,-0.4457592426192015
1772534688488156400,2.266156494140625,0.35354572688937186,-1.1636664702489972,-0.5613621825691312
1772534688498172200,2.276172119140625,0.6089280166685581,-1.1678791195079683,-0.5130733314247802
1772534688508189200,2.286189208984375,0.5997352409094572,-1.1259139549598096,-0.5310295881476252
1772534688518206500,2.29620654296875,1.1093553266078233,-1.0169355477161706,-0.43416488561108707
1772534688528223200,2.30622314453125,1.1437924337387084,-1.0209038668252528,-0.35576208776459095
1772534688538239200,2.3162392578125,0.9849223067313432,-1.0181557371608911,-0.3335653804603964
1772534688548256300,2.32625634765625,0.6776870801180601,-1.0104629907011986,-0.2588400107513182
1772534688558273300,2.336273193359375,0.4206219518184662,-0.9966804029338061,-0.20246521257860584
1772534688568290300,2.346290283203125,0.06735211926102638,-0.9571211304835975,-0.15239632788337767
1772534688578307000,2.35630712890625,-0.1508838044285774,-0.9477448148511349,-0.06693190282126889
1772534688588323300,2.3663232421875,-0.4108165971189737,-0.8481197807557881,0.03381369626922533
1772534688598340400,2.37634033203125,-0.6712076549708843,-0.7290687461785972,0.11011619736822321
1772534688608357000,2.386357177734375,-0.5914525657325983,-0.5693197905100882,-0.021484321251139044
1772534688618374400,2.39637451171875,-0.7280611765712499,-0.34840631817430257,-0.3464798070911318
1772534688628390400,2.406390380859375,-0.919276406866312,-0.3284893193051219,-0.4877833708129823
1772534688638407200,2.4164072265625,-1.0484183350861072,-0.3294751154720783,-0.4986200413215905
1772534688648424200,2.426424072265625,-1.2749451172590256,-0.2198554877154529,-0.5189784272827208
1772534688658441200,2.436441162109375,-1.5252321297258138,-0.2084999809645116,-0.4311935051174834
1772534688668457200,2.446457275390625,-1.7866922781139611,-0.26850086067989465,-0.29436730600539596
1772534688678474200,2.45647412109375,-2.0270745671600103,-0.25733678484782574,-0.18304934989828614
1772534688688491300,2.4664912109375,-2.152699427169561,-0.18121961372047662,-0.10262867289073764
1772534688698508300,2.47650830078125,-1.9796026218891143,-0.08638210616260766,-0.09217636205721647
1772534688708525000,2.486525146484375,-1.5480495262116192,0.12619549950435757,-0.12386954077482223
1772534688718541000,2.496541015625,-1.040216323930025,0.4115846588820219,-0.09604330315105616
1772534688728558300,2.506558349609375,-0.47480771551430223,0.6258509482882917,0.006741290953755378
1772534688738575000,2.5165751953125,-0.03168751616179943,0.81133815632537,0.09785937612969428
1772534688748592000,2.526592041015625,0.2568389183282852,0.9652281568326055,0.23290859216451643
1772534688758608100,2.536608154296875,0.26062603565156456,0.9567037818543612,0.1862840940358117
1772534688768625000,2.546625,0.42850422950088973,1.0856566172428428,0.3565704815380275
1772534688778642200,2.55664208984375,0.23775720123946664,1.1324432105980813,0.4115118493741378
1772534688788659200,2.5666591796875,0.18010522273778914,1.1337807428121567,0.24141398844765496
1772534688798676200,2.57667626953125,0.06907470526993274,1.1937066575951873,0.03069203885104507
1772534688808692200,2.586692138671875,0.07263502810001372,1.1875355677448212,-0.24012604926265774
1772534688818709200,2.596709228515625,0.08752280063033104,1.2118654146201908,-0.46729536712281405
1772534688828726000,2.60672607421875,0.21209435219466685,1.2533904341854154,-0.5787082349717617
1772534688838743300,2.616743408203125,0.3058300359904766,1.226677637696266,-0.6314519831657409
1772534688848759300,2.62675927734375,0.3137380326360464,1.1589712981700897,-0.6369166783124208
1772534688858776000,2.636776123046875,0.2560024675041437,1.1484767921626566,-0.5590240950103849
1772534688868793300,2.64679345703125,0.14618658652305602,1.1389679361917078,-0.43320977684333917
1772534688878810000,2.65681005859375,-0.07236264089941978,1.0915193717963994,-0.2735281873226166
1772534688888827100,2.6668271484375,-0.422602896502614,0.9686546241499483,-0.06418412021677941
1772534688898843100,2.676843017578125,-0.6208738905280828,0.7918287153437733,0.10941259740982204
1772534688908860200,2.686860107421875,-0.6751391492009162,0.6420223308883607,0.32646807914320375
1772534688918877200,2.696877197265625,-0.6498784512162208,0.583555821133405,0.5625003197535872
1772534688928894000,2.70689404296875,-0.4917933371067047,0.5321165796667338,0.615091069342941
1772534688938910200,2.71691015625,-0.3087590751796961,0.4627094275720417,0.5166985727172345
1772534688948927200,2.72692724609375,-0.012280804902315139,0.399093572229892,0.3637975832473486
1772534688958944000,2.736944091796875,0.20795126104056835,0.2516995096132159,0.3572955809421837
1772534688968961300,2.746961181640625,0.32403613928854463,0.1490399301275611,0.35694961704872546
1772534688978978000,2.75697802734375,0.40269817259311674,0.09191431358754634,0.33507710019759834
1772534688988994000,2.766994140625,0.39543431906998155,0.04200505816712975,0.33196474033072587
1772534688999011000,2.777010986328125,0.35355391019582744,-0.015540391220152378,0.34840492993481453
1772534689009028000,2.787028076171875,0.3619084815651178,-0.062237406595796345,0.3522835979990661
1772534689019045000,2.797045166015625,0.08116378699243068,-0.23716434991285204,0.3765631029266864
1772534689029061000,2.80706103515625,-0.024345336705446242,-0.36481019435599443,0.3352591787662357
1772534689039078100,2.817078125,-0.07207096447646617,-0.5224947648406029,0.16927023272961378
1772534689049095200,2.82709521484375,-0.11245558183491229,-0.692114833921194,0.01451966987028718
1772534689059112200,2.8371123046875,0.02756839040517807,-0.8127424701653421,-0.08303878708407282
1772534689069129200,2.847129150390625,0.23569325444698333,-0.8949531358622014,-0.15708528941720723
1772534689079145200,2.857145263671875,0.4787053074747324,-0.9686854576796292,-0.20012531665526329
1772534689089162000,2.867161865234375,0.6713292355239391,-0.9868341317020356,-0.2641355050772428
1772534689099179000,2.877178955078125,0.7128291206479073,-1.034599068570137,-0.2521247492879629
1772534689109196300,2.8871962890625,0.7063929501205682,-1.1502248048737644,-0.24817922653257846
1772534689119212000,2.8972119140625,0.6994757180780172,-1.2198809632934628,-0.2315231291554868
1772534689129229000,2.90722900390625,0.689880791258812,-1.2256256444253026,-0.21034458591789007
1772534689139246300,2.917246337890625,0.6523048015803098,-1.181134322400391,-0.22438860110044478
1772534689149263000,2.92726318359375,0.6627817719310521,-1.150769140883535,-0.15929682798683642
1772534689159279000,2.937279052734375,0.7110919215917587,-1.0951210495501755,-0.12521905568763614
1772534689169296100,2.947296142578125,0.8499906891942024,-1.087133411797136,-0.06724990099556744
1772534689179313200,2.957313232421875,0.9553262098908424,-0.9932302624799311,0.06206592248640954
1772534689189330200,2.967330078125,0.9633300681263208,-0.8021751911826431,0.11549399968273937
1772534689199347000,2.977346923828125,0.8339788810700177,-0.6576411941722035,-0.006287336641177535
1772534689209363200,2.98736328125,0.5733136824518442,-0.6560542172417044,-0.22959004220105705
1772534689219380200,2.997380126953125,0.3511117777407169,-0.7112981116883457,-0.4551093278318643
1772534689229397000,3.00739697265625,0.04063128559589386,-0.6597038257904351,-0.5539934073667973
1772534689239414300,3.017414306640625,-0.20553250946104526,-0.5976460135452449,-0.5450513914983719
1772534689249430300,3.02743017578125,-0.272592952299118,-0.560566721342504,-0.547968521054089
1772534689259447000,3.037447021484375,-0.2816787605524063,-0.5188410646386444,-0.5236613244019448
1772534689269464300,3.04746435546875,-0.5015554371863603,-0.37414077115058897,-0.5249832206554711
1772534689279481000,3.057481201171875,-0.5986041910529136,-0.2860515688091516,-0.5578530054043979
1772534689289498000,3.067498046875,-0.670883829843998,-0.16693360647559166,-0.7604034303147346
1772534689299514000,3.07751416015625,-0.7561825246840715,0.01654635339230299,-0.9497777089182287
1772534689309531100,3.08753125,-0.9093956488430499,0.130023533359915,-1.1072550663929432
1772534689319548200,3.097548095703125,-1.0177402882277964,0.2115842107154429,-1.3184702246002853
1772534689329565000,3.10756494140625,-1.1870359476596117,0.4046459456600249,-1.542146585778147
1772534689339581200,3.117581298828125,-1.381309396481514,0.6027965281762182,-1.6077183974936604
1772534689349598200,3.12759814453125,-1.475546015536785,0.6764794578939676,-1.6166390783131122
1772534689359615000,3.137614990234375,-1.6419751796215771,0.6924480113983154,-1.584890625744313
1772534689369632300,3.14763232421875,-1.887762542581558,0.7150313068673014,-1.6141230038389562
1772534689379649300,3.157649169921875,-2.0531559338778256,0.6701645756587385,-1.6555889866933227
1772534689389665000,3.1676650390625,-2.0644430515676735,0.5687351224899292,-1.6452400266364215
1772534689399682000,3.17768212890625,-2.053817612656951,0.529270980977267,-1.566510919445008
1772534689409699300,3.18769921875,-2.001090231075883,0.5552586780622601,-1.3610960450142622
1772534689419716000,3.197716064453125,-1.7549492323726414,0.6677613139092922,-1.0470273191191255
1772534689429732000,3.207732177734375,-1.4398562779963016,0.9079451577737927,-0.7530942032799124
1772534689439749000,3.2177490234375,-1.4407517655313014,0.9246760739527642,-0.7877554014902561
1772534689449766100,3.22776611328125,-0.7421469850689172,1.2101431208722293,-0.21675971365720031
1772534689459783200,3.237783203125,-0.3591992226064205,1.392518918890506,-0.06823416279256343
1772534689469799200,3.247799072265625,0.019145429974794386,1.6032172866821288,0.022233532183244822
1772534689479816200,3.257816162109375,0.26833178772330285,1.76066366449669,0.09873787599727511
1772534689489833200,3.267833251953125,0.5711696561604738,1.7943872165307402,0.15437204840313642
1772534689499850000,3.27785009765625,0.7950415399104356,1.7513060535646974,0.10715020543579011
1772534689509867300,3.2878671875,0.882582460719347,1.678173451206088,-0.05944474366996437
1772534689519883300,3.29788330078125,1.003600703716278,1.4854618448734282,-0.29090233330857007
1772534689529900000,3.307900146484375,0.9943822089940308,1.25562944528386,-0.4213551614638418
1772534689539917300,3.317917236328125,0.8974176262795924,1.0004925085678695,-0.5087118117470294
1772534689549934000,3.32793408203125,0.7639806312143802,0.735439011862874,-0.6980138288319111
1772534689559950000,3.3379501953125,0.46254503079056736,0.508877012246102,-1.027053548561409
1772534689569967000,3.347967041015625,0.20685235988795755,0.2614233235090971,-1.2238600960575043
1772534689579984100,3.357984130859375,-0.0019429507613182068,-0.026065292365849018,-1.4336504090934992
1772534689590001200,3.368001220703125,-0.09336451239585876,-0.2775198873072863,-1.6416744431093335
1772534689600018000,3.378017822265625,-0.039863808354735374,-0.45782662396654483,-1.7105267378002404
1772534689610034200,3.3880341796875,0.2132774244993925,-0.5414002485796809,-1.7418106415972112
1772534689620051200,3.39805126953125,0.5437076487392187,-0.5644231045097112,-1.6647176111750304
1772534689630068000,3.40806787109375,0.9871528422623872,-0.5129200040265918,-1.4141642028570174
1772534689640085200,3.418085205078125,1.3094324932724237,-0.3350825800903141,-1.0859913290899246
1772534689650101200,3.428101318359375,1.5342933880597351,-0.20539821555688975,-0.6971826387047767
1772534689660118000,3.438117919921875,1.694739970603585,-0.10687135196179151,-0.40076822744384405
1772534689670135000,3.448135009765625,1.7782938676029443,-0.07218669981062412,-0.1613145244847983
1772534689680152000,3.458152099609375,1.8118968619972466,-0.09842135739400983,-0.0006525090919807553
1772534689690169000,3.468169189453125,1.745779837489128,-0.14580796246901154,0.061892502148263154
1772534689700185000,3.47818505859375,1.5498726499855517,-0.24254881943017242,0.07751542055271565
1772534689710202000,3.4882021484375,1.5461165123224259,-0.42970776007175443,-0.0011356164338067174
1772534689720219100,3.49821923828125,1.4815858802229165,-0.550066662377119,-0.10730280218161642
1772534689730236200,3.508236083984375,1.5846131239771841,-0.6267221781648695,-0.3156026574641466
1772534689740252200,3.518252197265625,1.7306652704656122,-0.7207080373294651,-0.515296523899585
1772534689750269200,3.528269287109375,1.8216601311206817,-0.8459880294241011,-0.5415053163893521
1772534689760286200,3.5382861328125,2.046110691541433,-0.9333093161329626,-0.6525515428829938
1772534689770303200,3.54830322265625,2.038114432090521,-0.9005750673972069,-0.6437148870851844
1772534689780320300,3.5583203125,2.2386118699938056,-0.9673130002826452,-0.8474756376333534
1772534689790336300,3.568336181640625,2.124431948584318,-0.9974176311671733,-0.8363085661265999
1772534689800353000,3.57835302734375,1.8936445863574742,-1.0615632094718515,-0.7580429117284715
1772534689810370300,3.588370361328125,1.429896609517932,-1.1510551182180642,-0.6271865808062255
1772534689820387000,3.598386962890625,0.9628495911329984,-1.2492324377231299,-0.4939042283134535
1772534689830403000,3.608403076171875,0.6073971538394689,-1.3652866285718976,-0.37652514553647487
1772534689840420400,3.61842041015625,0.3429512676388025,-1.358423610934615,-0.285962977210246
1772534689850437000,3.62843701171875,0.09290683175623417,-1.3119735560573638,-0.22066662143524735
1772534689860454100,3.6384541015625,-0.03850362591743469,-1.3265281511105596,-0.2041057280609384
1772534689870471200,3.64847119140625,-0.11337035859227179,-1.2830007056817412,-0.268492312047258
1772534689880487200,3.658487060546875,-0.18548983838558195,-1.2574204203538595,-0.3359504124334082
1772534689890504200,3.668504150390625,-0.28964170225560665,-1.2639907386548817,-0.38308150837738064
1772534689900521000,3.67852099609375,-0.33199908099174497,-1.325544400770217,-0.4802235300179571
1772534689910538200,3.688538330078125,-0.33442776944339275,-1.383037097056955,-0.6212332253597677
1772534689920554200,3.69855419921875,-0.2570557759493589,-1.4482427058085798,-0.7261515435576439
1772534689930571000,3.708571044921875,-0.24623802933692931,-1.4545017662033437,-0.7942845840632915
1772534689940588300,3.71858837890625,-0.20900983018279073,-1.3358427996836602,-0.8153514836199581
1772534689950605000,3.72860498046875,-0.14139292250573635,-1.139996256326139,-0.8610382259745151
1772534689960622000,3.7386220703125,-0.07327624861299992,-0.9211983148396015,-0.8835388846613467
1772534689970638000,3.74863818359375,0.017216507738828657,-0.7281402331568301,-0.8383440905421972
1772534689980655000,3.758655029296875,-0.06250467922985553,-0.4870739073693752,-0.7462406841233372
1772534689990672100,3.768672119140625,-0.27260581178069115,-0.2824652347549796,-0.5695380363706499
1772534690000689200,3.778689208984375,-0.6063841774046421,-0.086022479069978,-0.41435510997604574
1772534690010705200,3.788705078125,-1.0680354742258786,0.08558452604413032,-0.4284439506810158
1772534690020722200,3.79872216796875,-1.3959411484241484,0.19376520703881978,-0.5835896138051524
1772534690030739000,3.808739013671875,-1.6600491809725761,0.24766528566107152,-0.8033043413430452
1772534690040756200,3.818756103515625,-1.558953197541833,0.3286661371767521,-0.9948611516173929
1772534690050773200,3.828773193359375,-1.25960609382987,0.45072044522315263,-1.1111616453774273
1772534690060789000,3.8387890625,-0.971151555532217,0.5454308192700147,-1.025670423639938
1772534690070806000,3.848805908203125,-0.638331805807352,0.7244478083796799,-0.8995575609177351
1772534690080823300,3.8588232421875,-0.5499105950325727,0.8807947005197405,-0.703804687193036
1772534690090840000,3.868840087890625,-0.6335439870089292,0.9886026026792823,-0.44232740500699724
1772534690100856000,3.87885595703125,-0.8090946151822805,1.1102424847058951,-0.2275509010562673
1772534690110873300,3.888873291015625,-1.00225396528244,1.1901166702792048,-0.0661269248476252
1772534690120890000,3.89889013671875,-1.0829536418944596,1.2462673043072223,0.004398125361092389
1772534690130907100,3.9089072265625,-1.1236936485618352,1.314147685226053,0.07350041275769471
1772534690140924200,3.918924072265625,-1.200431435805559,1.358308167861402,0.14890052165687084
1772534690150940200,3.928940185546875,-1.2559551701068878,1.361950323756039,0.1551880044285208
1772534690160957200,3.938957275390625,-1.3852993429005145,1.2607086482442915,0.07991696526911109
1772534690170974200,3.94897412109375,-1.4854817186176776,1.0753061958812176,-0.056569663157686585
1772534690180991200,3.9589912109375,-1.5784575239568948,0.9295248291581869,-0.13469722425937652
1772534690191007200,3.96900732421875,-1.6107798308908938,0.8408183717012405,-0.23890746725313364
1772534690201024000,3.97902392578125,-1.5194365951895712,0.727129594809562,-0.37507286436893045
1772534690211041300,3.989041259765625,-1.3612000899106262,0.5902252158947289,-0.5125887262456119
1772534690221058000,3.99905810546875,-0.9889747969925403,0.43754765991717576,-0.5381182312343269
1772534690231075000,4.009074951171875,-0.4142214371263981,0.39054581637606023,-0.463988726792857
1772534690241091300,4.01909130859375,0.07855389675498008,0.39131124779060483,-0.3178910606622696
1772534690251108000,4.029108154296875,0.6388479386359452,0.4025445894666016,-0.08283011276945472
1772534690261125000,4.039125,1.0156816021323203,0.4613084747329354,0.11135814198702573
1772534690271142100,4.04914208984375,1.2851491158872843,0.46419075217097994,0.25039083816744384
1772534690281158100,4.059158203125,1.5136995128422974,0.4084286790691316,0.3680381434265524
1772534690291175200,4.069175048828125,1.5794740075230598,0.3135634067215025,0.42390743976254014
1772534690301192000,4.07919189453125,1.6103940464437008,0.18121800628527998,0.5359420197064056
1772534690311209200,4.089209228515625,1.5985907959252594,0.11153057594448328,0.65413683931306
1772534690321225200,4.09922509765625,1.7268290533035993,0.053053983186930415,0.6960800842903554
1772534690331242000,4.109241943359375,1.7486837422370909,-0.07272475221008062,0.6720841455444693
1772534690341259300,4.11925927734375,1.8075462655723094,-0.07182692658752203,0.568063397240825
1772534690351276000,4.129276123046875,1.6951088039159774,-0.15425532668828965,0.43444837872758507
1772534690361293000,4.13929296875,1.5424597433805465,-0.36315365932062266,0.2792700554428622
1772534690371309000,4.14930908203125,1.3354741125017404,-0.5449404054045677,0.11737349328640848
1772534690381326000,4.159326171875,1.1243138262867927,-0.6993819023147225,-0.09336509691774844
1772534690391343000,4.169343017578125,0.9035738108217716,-0.8616676829844713,-0.2533250649884343
1772534690401360100,4.179360107421875,0.6517980211019515,-1.0163156622521579,-0.32092275650836527
1772534690411376000,4.189376220703125,0.4854489365160465,-1.1106161403238772,-0.28818375853225586
1772534690421393200,4.19939306640625,0.46432431542277336,-1.1843683358855546,-0.1765263413377106
1772534690431410200,4.20941015625,0.5310480736523866,-1.184020545361191,-0.08811156030371785
1772534690441427200,4.21942724609375,0.5306745641648769,-1.1816196216993033,-0.08808905621096491
1772534690451444200,4.2294443359375,0.8005190945386886,-0.9259082460962236,0.027433365848660466
1772534690461460200,4.239460205078125,0.8859797019422053,-0.7816432752855121,0.07311630881093442
1772534690471477000,4.24947705078125,0.8757926544487475,-0.6902591230519115,0.09511756660826504
1772534690481494300,4.259494384765625,0.7743249150961637,-0.6719552584677935,0.10689772851206361
1772534690491511000,4.269510986328125,0.5543582220911979,-0.6474401181533932,0.06622106940448284
1772534690501528000,4.279528076171875,0.2527618781477213,-0.5947308567509054,-0.09698292208872734
1772534690511544300,4.28954443359375,0.08648761236369609,-0.6478929764874279,-0.21540705693922935
1772534690521561000,4.29956103515625,-0.09139876528084277,-0.701463238633424,-0.24651114718988537
1772534690531578000,4.309578125,-0.2877642179459333,-0.7607832964777946,-0.29939072365798053
1772534690541595100,4.31959521484375,-0.3904126915156841,-0.7735385870240629,-0.48483650370612735
1772534690551611100,4.329611083984375,-0.499461679777503,-0.7927109050057828,-0.6235531196746975
1772534690561628200,4.339628173828125,-0.566648379343748,-0.8109289910025894,-0.7240296560328453
1772534690571645000,4.34964501953125,-0.5546709413021803,-0.7316359663181007,-0.9148974611297249
1772534690581662200,4.359662109375,-0.4980763628989458,-0.6067571023702621,-1.0446367707207798
1772534690591679000,4.369678955078125,-0.4292997637927532,-0.46461876832470295,-1.0748335368681698
1772534690601695000,4.379695068359375,-0.3629869244515896,-0.33396073645353314,-0.9694624334014952
1772534690611712300,4.389712158203125,-0.2334942830979824,-0.31423882176503537,-0.7158320287909359
1772534690621729000,4.39972900390625,-0.05980185001194477,-0.3120867582976818,-0.6151681531671435
1772534690631746000,4.40974609375,0.04250234016478061,-0.17292700167149305,-0.6964215912044048
1772534690641762300,4.41976220703125,0.061350833019614213,0.005365180294960737,-0.7043569142483175
1772534690651779000,4.429779052734375,-0.12597966479659078,0.0783089820832014,-0.6114833271745592
1772534690661796000,4.439796142578125,-0.37206864105165005,0.021260522432625294,-0.5014672109136358
1772534690671813400,4.4498134765625,-0.7620423566281795,-0.01896656627655029,-0.4448249574437737
1772534690681830100,4.459830078125,-1.1815946333885192,-0.029227409658581015,-0.43066115180645137
1772534690691846100,4.46984619140625,-1.5945038188725709,-0.08735226636901497,-0.4317154100997373
1772534690701863200,4.47986328125,-1.9399311212360857,-0.12730506818145512,-0.6091412575604394
1772534690711880200,4.489880126953125,-2.065449013739824,-0.07053542547225952,-0.8077944923691451
1772534690721897200,4.499897216796875,-2.0895552809923887,0.04246814563423395,-0.9654426763661205
1772534690731913200,4.509913330078125,-2.0144448026895523,0.2295942069195211,-1.08400665807873
1772534690741929500,4.519929443359375,-1.7182412577003239,0.37710546617507934,-1.1726005950719118
1772534690751946800,4.52994677734375,-1.424256557804346,0.5501340285249054,-1.2021615475337952
1772534690761963500,4.539963623046875,-1.0262263770222664,0.7300009124621748,-1.1302819409109652
1772534690771980500,4.54998046875,-1.0260434216707943,0.7399012519687413,-1.1583557966202498
1772534690781996800,4.559996826171875,-0.4268167148053646,0.9011633886791766,-0.779389139683172
1772534690792013600,4.570013671875,-0.35729718837738034,0.8568421625241637,-0.5649022663287818
1772534690802030600,4.580030517578125,-0.443752067515254,0.7785656214058398,-0.4402982737995684
1772534690812047600,4.590047607421875,-0.5864812070608139,0.5969570083677769,-0.50076099887304
1772534690822063600,4.600063720703125,-0.736515116661787,0.34562618593648076,-0.716032081407681
1772534690832080600,4.61008056640625,-0.7811766806870698,-0.009386690896004439,-0.8469547555644065
1772534690842097400,4.620097412109375,-0.6756248868912458,-0.40924116449579595,-0.8531349055040627
1772534690852114700,4.63011474609375,-0.43932723681032654,-0.6547013413280248,-0.8620585819981992
1772534690862131700,4.640131591796875,-0.18375439289510248,-0.7296534141987562,-0.7947650610566139
1772534690872147500,4.6501474609375,0.16461188552975653,-0.703210666822642,-0.6595186054166406
1772534690882164700,4.660164794921875,0.5996130758345126,-0.6579524520784616,-0.5153381710842252
1772534690892181800,4.670181640625,0.9838006092250347,-0.5768550083205104,-0.4086184294875711
1772534690902198500,4.680198486328125,1.2778034292995928,-0.5267158896669745,-0.2999441197570413
1772534690912214800,4.69021484375,1.5108774411588906,-0.5382639963805675,-0.23025420519821344
1772534690922231600,4.7002314453125,1.6866531102597713,-0.5733052068844438,-0.17911416587382553
1772534690932248600,4.71024853515625,1.8129519240081309,-0.6596892127431929,-0.013866831984743476
1772534690942265900,4.720265869140625,1.8317501479804514,-0.7112972349055111,0.15667999655194578
1772534690952282600,4.73028271484375,1.7943647124379871,-0.7481853884503245,0.2792290293127298
1772534690962298600,4.740298583984375,1.9015701186597347,-0.8609919756799935,0.32420817138720304
1772534690972315600,4.750315673828125,2.020450765106082,-1.0016393405154347,0.20736699487920848
1772534690982332700,4.760332763671875,1.9694903931975363,-1.1283042110972106,-0.0603745718659833
1772534690992349700,4.770349609375,2.029260679027438,-1.3156377776533363,-0.31455950508676467
1772534691002365700,4.78036572265625,1.8745184456050394,-1.4231931663565336,-0.5859616036335006
1772534691012382700,4.7903828125,1.4445809684306383,-1.5524084520734847,-0.6350226812593639
1772534691022399700,4.800399658203125,0.9812608616143464,-1.6818725979849696,-0.48947822856474665
1772534691032416500,4.81041650390625,0.6297516089886427,-1.6595003149181604,-0.500873957728222
1772534691042433800,4.820433837890625,0.4212561580687761,-1.7716358710184692,-0.45775830797068773
1772534691052449800,4.83044970703125,0.3791805188834667,-1.8547797259122132,-0.3539262141069397
1772534691062466600,4.840466552734375,0.4596364498674869,-1.7955841712303457,-0.319416480131261
1772534691072483600,4.850483642578125,0.5289706828564406,-1.6761048282384872,-0.22989863322619347
1772534691082500600,4.86050048828125,0.5376414805680513,-1.5312772551089524,-0.11305888149030506
1772534691092516600,4.8705166015625,0.6106739835530519,-1.3185451895326374,-0.059595732980594035
1772534691102533600,4.88053369140625,0.6595593027532101,-1.095326362863928,0.028166612026654183
1772534691112550700,4.890550537109375,0.7156611292034387,-0.8779016094267368,0.14560217423122376
1772534691122567700,4.900567626953125,0.7316039637446403,-0.6740985541068018,0.256773013485223
1772534691132584400,4.91058447265625,0.6204588799864054,-0.4742464283697307,0.40072380378022787
1772534691142600400,4.920600341796875,0.32715514809191226,-0.2862491372078657,0.401459278447926
1772534691152617700,4.93061767578125,0.010926467683911322,-0.2191352106168866,0.18492385679958387
1772534691162634500,4.940634521484375,-0.14124094681441782,-0.2114228826738894,-0.09860345422895625
1772534691172651500,4.950651611328125,-0.30015023678839203,-0.06118775141239166,-0.36733390414733436
1772534691182668800,4.960668701171875,-0.26016601692438124,0.15796543325260282,-0.518967759758234
1772534691192684500,4.9706845703125,-0.10428805747032165,0.32384923841431734,-0.45064664933457965
1772534691202701600,4.98070166015625,-0.017892799565196037,0.4727539978548884,-0.24118706609029322
1772534691212718800,4.99071875,-0.05782791959047317,0.6681491441830992,-0.08315554533153773
1772534691222735600,5.000735595703125,-0.37817280314564705,0.9634984104305505,-0.19789989569075406
1772534691232751600,5.010751708984375,-0.7213789223283529,1.0975292797356844,-0.486662111698091
1772534691242768600,5.0207685546875,-1.0393202518731355,1.0973849028289318,-0.782977519563958
1772534691252785700,5.03078564453125,-1.390654732453823,1.04120445818454,-0.9955400737922638
1772534691262802700,5.040802734375,-1.6561059963047504,0.7983166160583496,-1.019684700293839
1772534691272819500,5.0508193359375,-2.0422294661939144,0.49310149709582324,-0.9581322072222829
1772534691282835700,5.060835693359375,-2.4730215143710375,0.3013119740441441,-0.7802627807125448
1772534691292852700,5.070852783203125,-2.7262603623807427,0.1346849492996931,-0.6722863170530646
1772534691302869500,5.080869384765625,-2.8517677334904667,0.07182458849996327,-0.7156066225372254
1772534691312886800,5.09088671875,-2.806585360461473,0.257042624206841,-0.7030290997106582
1772534691322902800,5.10090283203125,-2.686274388951063,0.5201175143152476,-0.5514749948050827
1772534691332919600,5.11091943359375,-2.573941556712985,0.7103942947164178,-0.3186466282699257
1772534691342936800,5.120936767578125,-2.3796242687493563,0.8381888999804854,-0.07077858657836913
1772534691352953600,5.13095361328125,-2.0564187350660563,0.9627902621611952,0.09358224679976701
1772534691362970600,5.140970703125,-1.7152128497898578,1.0853165716335176,0.18523885929919778
1772534691372986600,5.150986572265625,-1.323173433855176,1.1379591975405812,0.2479290511637926
1772534691383003600,5.161003662109375,-0.9029027796924114,1.1852172077998517,0.1857028235491365
1772534691393020700,5.171020751953125,-0.606371317923069,1.1890081245154143,0.05223126862719655
1772534691403037400,5.181037353515625,-0.28842414315938947,1.0389747994363308,-0.14592347860746085
1772534691413053700,5.1910537109375,0.06546119094789028,0.8955100390926003,-0.2931080631919205
1772534691423070700,5.20107080078125,0.44186698442101474,0.8776602018862962,-0.32327735681049524
1772534691433087500,5.21108740234375,0.8429232350260019,0.9328016588717698,-0.29940577509663996
1772534691443104800,5.221104736328125,0.84591072640419,0.9182771666958928,-0.28847850369513034
1772534691453121500,5.23112158203125,1.3316063311576842,0.9564245265215635,0.15022877458594738
1772534691463137500,5.241137451171875,1.4216712174862622,1.060731288692355,0.42742746711485086
1772534691473154600,5.251154541015625,1.4419710781931876,1.122472290073335,0.6637685910113156
1772534691483171600,5.261171630859375,1.2858622325927018,1.09367187365517,0.8652235488351434
1772534691493188600,5.271188720703125,1.2129998254776,0.9507951423324644,1.0989706376504151
1772534691503204600,5.28120458984375,1.1009995861947537,0.8285854975938797,1.2663466541312633
1772534691513221600,5.2912216796875,1.116950019520521,0.6801645761474967,1.4034119226962327
1772534691523238700,5.30123876953125,1.0198597645998,0.5273046493403614,1.486077930945158
1772534691533255700,5.311255615234375,1.0582038160413503,0.31399010770097374,1.4956167436629533
1772534691543272700,5.321272705078125,1.2080541857689617,0.10475509046018124,1.358377872096747
1772534691562679600,5.340679443359375,1.3658417782366274,-0.053579906757175916,1.212621712880209
1772534691572696600,5.350696533203125,1.498341784712672,-0.19089301260337233,1.0446041105601935
1772534691582712600,5.360712646484375,1.5161200179874896,-0.275749516633898,0.8562956345573067
1772534691592729600,5.3707294921875,1.3869009328782558,-0.31561668598949905,0.7512353506054729
1772534691602746600,5.38074658203125,1.0976502757668494,-0.36186420403197406,0.7014048595096916
1772534691612763600,5.390763671875,0.7765186257481574,-0.44251419628337024,0.6614595834165811
1772534691622779600,5.400779541015625,0.4009188879609108,-0.5384161182023585,0.6220104933425784
1772534691632796400,5.41079638671875,0.15376549734473227,-0.6349861486412585,0.5826306691125035
1772534691642813700,5.420813720703125,0.27609891459345814,-0.6941755658432841,0.4624518726143986
1772534691652830700,5.430830810546875,0.4438286398828029,-0.7245768415868282,0.35289902648366983
1772534691662847700,5.44084765625,0.7851736413687467,-0.7251182549871504,0.08928155393116176
1772534691672863700,5.45086376953125,1.0110708934664725,-0.69950304447636,-0.07153459257744252
1772534691682880800,5.460880859375,1.2198457458496093,-0.7398556592613458,-0.11667772957459091
1772534691692897500,5.4708974609375,1.3076403491586446,-0.7514270007200539,-0.14870470682382583
1772534691702914800,5.480914794921875,1.372017836523056,-0.7391901810899376,-0.13463847980946303
1772534691712931600,5.490931640625,1.208128420048952,-0.7146497602038085,-0.04807473346963525
1772534691722947600,5.500947509765625,0.929981340754032,-0.6727637983717024,0.03816416482999921
1772534691732964900,5.51096484375,0.628410131251812,-0.6571092792525887,0.04180047550573945
1772534691742981600,5.520981689453125,0.27636545657515527,-0.6726034932434558,0.039785701617226
1772534691752998700,5.53099853515625,0.003856675428152084,-0.6357829981073737,0.03545519813224673
1772534691763014700,5.5410146484375,-0.21896774509549138,-0.5844543774083256,0.0519129964582622
1772534691773031700,5.55103173828125,-0.1472463247090578,-0.5614433580465614,0.09010930999219417
1772534691783048700,5.561048583984375,-0.01657820983529091,-0.468059556428343,0.09654350775815546
1772534691793065500,5.5710654296875,0.10224515346586703,-0.35962957684770225,0.14409465574510394
1772534691803082800,5.581082763671875,0.22878069857954977,-0.3140229870572686,0.09249021377936005
1772534691813098800,5.5910986328125,0.06860474967062473,-0.18132438926920294,0.035121947589889166
1772534691823115500,5.601115478515625,-0.109688455209136,-0.07746113308221102,0.12929865315146744
1772534691833132800,5.6111328125,-0.2418243045479059,-0.09513532146066427,0.220832516054064
1772534691843149600,5.621149658203125,-0.4400660724788904,-0.16367065915688872,0.20391455287039278
1772534691853166600,5.63116650390625,-0.4957879597008228,-0.18518457182869313,0.12527465833239257
1772534691863182600,5.6411826171875,-0.5512438894629478,-0.1981143421590328,0.06650178604200482
1772534691873199600,5.65119970703125,-0.7414689396768808,-0.29467049020305275,0.08631868553757667
1772534691883216600,5.661216552734375,-1.0525281084924936,-0.4497007467865944,0.1586263083141297
1772534691893233700,5.671233642578125,-1.694201041421294,-0.6065570497535169,0.20434286128506063
1772534691903249700,5.681249755859375,-2.4459078819960354,-0.7538342079922556,0.32856720684692264
1772534691913266700,5.6912666015625,-3.0999487135887143,-0.8577819275923073,0.3885181830059737
1772534691923283500,5.701283447265625,-3.5128415324598548,-0.8149002327211201,0.3132917501732707
1772534691933300700,5.71130078125,-3.704727793884277,-0.6297095234125852,0.3577664863895625
1772534691943317800,5.72131787109375,-3.60280003580451,-0.4071386392585933,0.4294423140686005
1772534691953334500,5.73133447265625,-3.2046459363818167,-0.1257879416167736,0.47648551253341137
1772534691963350500,5.7413505859375,-2.661585353374481,0.10935060155689716,0.5140050958495587
1772534691973367800,5.751367919921875,-2.158434755951166,0.2600998198203742,0.5646432500664145
1772534691983384600,5.761384521484375,-1.5930466058015822,0.32066739350780843,0.5787856841221451
1772534691993401600,5.771401611328125,-1.1418190878391266,0.3697209088817239,0.5664098213475197
1772534692003418600,5.781418701171875,-0.8649579567015171,0.39477132511660457,0.5299648815255612
1772534692013434600,5.7914345703125,-0.7270978844970464,0.44067046811282634,0.4260558865007013
1772534692023451600,5.80145166015625,-0.8571335466861725,0.5110216230593622,0.3083455259427428
1772534692033468700,5.81146875,-1.0842612173616886,0.4975596455484628,0.17434651308059693
1772534692043485700,5.821485595703125,-1.3149211538165806,0.44339799338057634,-0.09303769159428775
1772534692053501700,5.831501708984375,-1.5448486843436955,0.3286354497775435,-0.3751698219373822
1772534692063518500,5.8415185546875,-1.5902888315260408,0.21834581380486487,-0.6303283128980547
1772534692073535700,5.85153564453125,-1.4591887549757956,0.12312500601783394,-0.8597979435898363
1772534692083552500,5.861552490234375,-1.1088625746548175,0.022281682173907757,-1.0825369508523492
1772534692093569800,5.87156982421875,-0.7054173830866813,-0.07703384758085012,-1.205590426003933
1772534692103585800,5.881585693359375,-0.16492460474073886,-0.16189122839421033,-1.2544539717637002
1772534692113602600,5.8916025390625,0.48461365473568435,-0.1622346350044012,-1.284797233709693
1772534692123619600,5.90161962890625,1.1459709468215704,-0.15078677379488944,-1.235307226614654
1772534692133636600,5.91163671875,1.8055092067867515,-0.13337649704962967,-1.090882242936641
1772534692143653600,5.921653564453125,2.3801433241873977,-0.12594430122226477,-0.8447258274685591
1772534692153669600,5.931669677734375,2.8705151040583847,-0.12416297076344489,-0.6287254808112979
1772534692163686700,5.941686767578125,3.2876983135998246,-0.12386486459970474,-0.3944969651546329
1772534692173703700,5.95170361328125,3.505789860382676,-0.02565305830314755,-0.1970796836153604
1772534692183720700,5.961720703125,3.5410990741729735,0.13842618165463208,-0.07961168044591323
1772534692193736400,5.971736328125,3.4526451301723715,0.14421134092733262,0.012782288151048123
1772534692203753700,5.981753662109375,3.122553344106674,0.13831994480118154,0.027212023848714306
1772534692213770800,5.991770751953125,2.4629238987267015,-0.022819734573364257,0.03303375227213837
1772534692223787500,6.00178759765625,2.1739766084760426,-0.3741493928484618,-0.041432217582082376
1772534692233804800,6.0118046875,1.9741227291733026,-0.5024946177326143,-0.2630537194562144
1772534692243820500,6.021820556640625,1.9218997899830341,-0.47404506057873363,-0.5569927353132516
1772534692253837600,6.031837646484375,1.9735387918055056,-0.5137608387649059,-0.7044599362313747
1772534692263854800,6.041854736328125,2.042049433451891,-0.48634910022616384,-0.8001116827815771
1772534692273871600,6.05187158203125,2.1498674186140296,-0.49755438485145564,-0.8672434372901916
1772534692283887600,6.0618876953125,2.201020682746172,-0.5532008687496185,-0.9354365374200045
1772534692293904600,6.071904541015625,2.0562311035394667,-0.5992495032191276,-1.0881268067486582
1772534692303921700,6.081921630859375,1.8404846585780381,-0.7331704824090004,-1.2164059806592762
1772534692313938700,6.091938720703125,1.6318939305901528,-0.8938207708314061,-1.2685372960433363
1772534692323955500,6.10195556640625,1.5790683493316173,-0.9092796212479471,-1.238869010749459
1772534692333971700,6.1119716796875,1.5479092409580946,-0.8512994337052107,-1.09923221119605
1772534692343988700,6.12198876953125,1.5012977119088171,-0.8779726288363336,-0.7961180100355297
1772534692354005500,6.132005615234375,1.3917501264750958,-0.8736243704989552,-0.4106845317045226
1772534692364022800,6.142022705078125,1.2702233494341373,-0.7710150598958134,-0.1609700949613005
1772534692374039600,6.15203955078125,0.9869511822104453,-0.7049266769602894,0.02871554201315157
1772534692384055600,6.1620556640625,0.651019437944889,-0.7702429064795374,0.07620761219004635
1772534692394072600,6.172072509765625,0.29830840831398964,-0.8952949350371956,-0.06028854668349959
1772534692404089600,6.182089599609375,-0.11834230178594589,-1.0542445570215582,-0.05753148479401134
1772534692414106600,6.192106689453125,-0.6091133101075887,-1.2567422288313508,-0.04127599497390911
1772534692424123600,6.20212353515625,-1.255854047819972,-1.561080564959347,0.05137708121696487
1772534692434139600,6.2121396484375,-1.7801935637444257,-1.878560706733167,0.20876071425992995
1772534692444156700,6.22215673828125,-2.1565999417394397,-1.9698954668670892,0.30412849276959897
1772534692454173400,6.23217333984375,-2.4708558607697486,-1.820525866393745,0.47299741468932477
1772534692464190700,6.242190673828125,-2.6214982576578856,-1.6378920019611716,0.699597298631072
1772534692474206700,6.252206787109375,-2.646042331805825,-1.457692671199143,0.8059320594981312
1772534692484223500,6.262223388671875,-2.675738966411352,-1.0705948033198713,0.7225399289317429
1772534692494240500,6.272240478515625,-2.7864357218801974,-0.6008811960741878,0.6044781976528465
1772534692504257800,6.2822578125,-2.761124170491099,-0.31348785726726053,0.5165818875350058
1772534692514274600,6.292274658203125,-2.6555519184291363,-0.2092754953816533,0.39328667604941875
1772534692524290600,6.30229052734375,-2.6148440604656935,-0.11145254227221012,0.287844151314348
1772534692534307800,6.312307861328125,-2.6666443903297186,-0.05609568897038698,0.20986049219537525
1772534692544324600,6.32232470703125,-2.7020810298919677,0.036821664179861546,0.07153145077228545
1772534692554341600,6.332341552734375,-2.681401229956746,0.18706950879245995,-0.09079254301600158
1772534692564357600,6.342357666015625,-2.4690748225718737,0.4224640725538134,-0.24288375047296284
1772534692574374700,6.352374755859375,-2.054019857230782,0.7539782926380634,-0.32573527135662733
1772534692584391700,6.3623916015625,-1.6056728631407022,1.0898127140089868,-0.27919403106458485
1772534692594408700,6.37240869140625,-1.029737015491724,1.405406603644788,-0.2162694459222257
1772534692604425700,6.38242578125,-0.4954571203112602,1.6683920619040726,-0.20085290027745067
1772534692614441700,6.392441650390625,-0.08717267201840877,1.8679057494670153,-0.14158267292417584
1772534692624458500,6.40245849609375,0.2239478715956211,2.006642312245071,-0.0935679260134697
1772534692634475800,6.412475830078125,0.2882259902387857,2.1613670100107787,-0.07029599069319666
1772534692644492500,6.422492431640625,0.2448082887947559,2.2013436310902237,-0.04069178361147642
1772534692654509600,6.432509521484375,0.027416999235749244,2.2176626054674387,-0.031351050749048585
1772534692664525800,6.44252587890625,-0.1965460699290037,2.207708197686076,0.008721578050777315
1772534692674542600,6.45254248046875,-0.2051864725023508,2.200457203644514,0.04644939729012549
1772534692684559600,6.4625595703125,-0.2527081021338701,2.179357132470608,0.05106332082636654
1772534692694576600,6.47257666015625,-0.1270294661104679,2.0289020748481152,-0.021081293408200145
1772534692704593700,6.48259375,0.20601649358570576,1.916983668629825,0.0013322715170681475
1772534692714609700,6.492609619140625,0.5789771150410175,1.923824328304827,0.07412870072387158
1772534692724626400,6.50262646484375,0.9342758230775594,1.9251608376055955,0.2195468601576984
1772534692734643700,6.512643798828125,1.1574345901221037,1.8749737881571054,0.45251025124937294
1772534692744660700,6.52266064453125,1.2500251955360173,1.789219458504021,0.7385407042052596
1772534692754676500,6.532676513671875,1.0823714580923318,1.7309040476575492,1.0127547549001872
1772534692764693800,6.54269384765625,0.8777069636374711,1.6635756015330552,1.2460608219496905
1772534692774710500,6.55271044921875,0.8572463594108819,1.5497835103973745,1.4159557624489068
1772534692784727600,6.5627275390625,0.9323428091883659,1.5209016993060707,1.479826177074015
1772534692794744800,6.572744873046875,1.0211731852859258,1.4748070337377488,1.5818733237497509
1772534692804760600,6.582760498046875,1.2247674201607703,1.2917128583170472,1.660069639238715
1772534692814777600,6.592777587890625,1.4051111278295516,1.1597991272963584,1.6162443799071013
1772534692824794600,6.602794677734375,1.6147224310368298,1.0141001781597734,1.5849489318028092
1772534692834811600,6.612811767578125,1.754230270448327,0.7750598052419722,1.5656754915341733
1772534692844828700,6.62282861328125,1.836032939866185,0.5710013138562441,1.4661524565085768
1772534692854844700,6.6328447265625,1.7144892116904258,0.36792964155077934,1.25593237375319
1772534692864861700,6.64286181640625,1.2914385714203118,0.11500175918638705,1.021946800006926
1772534692874878700,6.652878662109375,1.0100772062540053,-0.28120237521231173,0.8796611664451658
1772534692884895500,6.6628955078125,0.8076958543002605,-0.5191602135904133,0.6931338017053902
1772534692894911500,6.672911376953125,0.6088508597791195,-0.5681644829951227,0.48882937273457644
1772534692904928800,6.6829287109375,0.520856934505701,-0.6850310131400823,0.36377339865416286
1772534692914945500,6.692945556640625,0.4855605801969766,-0.9302961057916284,0.34193273824602366
1772534692924962600,6.702962646484375,0.512158664265275,-1.0141542464345692,0.330832521430403
1772534692934979600,6.7129794921875,0.5769961703568697,-0.9535888647042214,0.2616248374305665
1772534692944995600,6.72299560546875,0.5879793366640805,-1.0087966649241744,0.21620178751349448
1772534692955012600,6.7330126953125,0.279420752492547,-1.0306881787367164,0.1820445202372968
1772534692965029600,6.743029541015625,0.13244798402786254,-1.0091720741078256,0.12895926512926817
1772534692975046700,6.753046630859375,-0.08601941033005714,-0.9812142459936439,0.04906272159367799
1772534692985063700,6.763063720703125,-0.2655167303025722,-1.0581307508051394,0.0575816897444427
1772534692995079700,6.77307958984375,-0.4033604358941316,-1.111658488983661,0.10342325733453035
1772534693005096700,6.7830966796875,-0.4745762448459863,-1.009843835889548,0.02640650701895356
1772534693015113500,6.793113525390625,-0.5354629674851894,-0.9581779460601508,-0.04707052486315369
1772534693025130800,6.803130859375,-0.6111965461224317,-1.0167663286291062,-0.16409283009171485
1772534693035146800,6.813146728515625,-0.6492378152251244,-1.0752572421729565,-0.3856465000271797
1772534693045163500,6.82316357421875,-0.7598574138045311,-1.0603158397592602,-0.6360847575329244
1772534693055180500,6.8331806640625,-0.955239116129279,-0.9854492532148956,-0.873100638885796
1772534693065197800,6.84319775390625,-1.0627192476391791,-0.9070118224464356,-0.9167582865655421
1772534693075214600,6.853214599609375,-0.9122580525368451,-0.8490624684333801,-0.8633400001108645
1772534693085230600,6.863230712890625,-0.740213386657834,-0.7451289234891534,-0.8806387793056666
1772534693095248000,6.873247802734375,-0.5277624761104583,-0.6067642627634108,-0.841972948563844
1772534693105264600,6.8832646484375,-0.23895137946009634,-0.4406494253247976,-0.7694675381928682
1772534693115281700,6.89328173828125,-0.16714578792154788,-0.28326179196015,-0.6465785328879952
1772534693125298700,6.903298583984375,-0.21232640738487243,-0.22079642182737588,-0.4175270545430481
1772534693135314700,6.913314697265625,-0.6834452052533626,-0.16425401200279593,-0.2077618759483099
1772534693145331700,6.923331787109375,-1.174142563816905,-0.17288593900874255,-0.0012125906601548194
1772534693155348500,6.933348388671875,-1.6649363684922456,-0.16125746053531764,0.16537950890138745
1772534693165365800,6.94336572265625,-2.0957418606728315,-0.07734992779269814,0.38664515567570923
1772534693175382500,6.953382568359375,-2.2639041321605444,0.01782134176418185,0.5926946747481823
1772534693185398500,6.9633984375,-2.3006407484054563,0.16338614312708377,0.6932344856008887
1772534693195415800,6.973415771484375,-2.153411959353089,0.313734087113291,0.6980028690464795
1772534693205432600,6.9834326171875,-1.9452999547928571,0.42671471573561426,0.581853108868748
1772534693215449600,6.99344970703125,-1.7784259695500135,0.49892874194458126,0.41639395885989067
1772534693225465600,7.003465576171875,-1.6752134323567152,0.5809644894659519,0.2136819136470556
1772534693235482600,7.013482666015625,-1.6688485734999179,0.679426471131295,-0.022452216435223816
1772534693245499600,7.023499755859375,-1.6610715097576378,0.7228045712172985,-0.26172654423937197
1772534693255516400,7.033516357421875,-1.6403858646035194,0.7243094228222966,-0.4360651662744581
1772534693265533700,7.04353369140625,-1.5247838014364241,0.6451052454650402,-0.5487981037460268
1772534693275549700,7.0535498046875,-1.4396043490618466,0.5668544233098626,-0.6063004446439445
1772534693285566500,7.06356640625,-1.516294790032506,0.46308016058057544,-0.6604552286796271
1772534693295583700,7.073583740234375,-1.5862947934538125,0.36069939803630113,-0.7039196918748318
1772534693305600800,7.083600830078125,-1.5994740085005759,0.3632119653791189,-0.830089764676988
1772534693315617500,7.093617431640625,-1.572384926044941,0.2885053917020559,-0.9461310960441828
1772534693325633500,7.103633544921875,-1.4424416183143853,0.15719313370585442,-0.9729844700478016
1772534693335650600,7.113650634765625,-1.1055956818133592,0.12982815691828728,-0.9356069255508482
1772534693345667600,7.12366748046875,-0.6079571258097887,0.18834493555575607,-0.8301185523800552
1772534693355684900,7.133684814453125,-0.06966624142229556,0.20952567075043915,-0.6170302207119762
1772534693365700600,7.14370068359375,0.5195575423449278,0.2673781402602792,-0.3698267073437571
1772534693375717600,7.153717529296875,1.140846443414688,0.34772505791187286,-0.20441168873757123
1772534693385734700,7.163734619140625,1.6870815648049116,0.4192506634652614,-0.08601853354722261
1772534693395751700,7.173751708984375,1.9394775322496889,0.4740075050473213,0.15229476720504462
1772534693405768700,7.183768798828125,2.092314224311709,0.4711027235165238,0.3703119335774332
1772534693415784700,7.19378466796875,2.369817745006084,0.4176636865347624,0.4983544491879642
1772534693425801700,7.2038017578125,2.5334213302761315,0.4452006588883698,0.5648195564813911
1772534693435818800,7.21381884765625,2.4931688148647546,0.4408592686831951,0.5580341341249645
1772534693445835500,7.22383544921875,2.497505382764339,0.3272397576354444,0.4803341507855802
1772534693455852800,7.233852783203125,2.6294857492804526,0.16785291327759622,0.31591091969572005
1772534693465868800,7.243868896484375,2.7503005786597727,0.09243219998180865,0.09186988992393016
1772534693475885600,7.253885498046875,2.8052029661923643,0.016663842292129992,-0.06672215079441667
1772534693485902600,7.263902587890625,2.906998622325063,-0.10116232666522264,-0.2639738117095083
1772534693495919600,7.273919677734375,2.97168181463778,-0.23714491456001996,-0.3073315996598452
1772534693505936600,7.2839365234375,2.885300585258007,-0.3484282377451658,-0.3931770416624844
1772534693515952600,7.29395263671875,2.6125270156949756,-0.4986164611250162,-0.44866906565129755
1772534693525969700,7.3039697265625,2.35673380702734,-0.7121054825484753,-0.4696234447441995
1772534693535986700,7.313986572265625,1.9964847831070422,-0.9082692751616239,-0.7092571804452688
1772534693546003500,7.32400341796875,1.6569044532060622,-1.1978142390444875,-0.9567021744191646
1772534693556019500,7.33401953125,1.2482190228968857,-1.3898612439885736,-1.109031866807118
1772534693566036700,7.34403662109375,0.9392465972274542,-1.4778665674388407,-1.1979183570060878
1772534693576053500,7.354053466796875,0.8841571626901626,-1.6025523930326102,-1.0961707777988166
1772534693586070500,7.364070556640625,0.8387918343096971,-1.6639762912884353,-0.8977445932116359
1772534693596087800,7.374087890625,0.8213385952055454,-1.6325611623272298,-0.7057290793843567
1772534693606103600,7.384103515625,0.6670633947730064,-1.6285741385176777,-0.42194158304966983
1772534693616120600,7.39412060546875,0.3733551737308502,-1.6279288263514637,-0.11540975546538829
1772534693626137900,7.404137939453125,-0.1288333006620407,-1.5300781084522603,0.1267465575158596
1772534693636154600,7.414154541015625,-0.7795289134800434,-1.470889129641652,0.3127483640115708
1772534693646171600,7.424171630859375,-1.2303525268167257,-1.4099398631602524,0.4352029964871704
1772534693656187600,7.434187744140625,-1.746003709372878,-1.26815735681504,0.49002099367193874
1772534693666204700,7.44420458984375,-2.07573309186697,-1.1757187270924447,0.612957929771766
1772534693676221700,7.4542216796875,-1.9952964501053094,-1.051367248019576,0.6991996776156127
1772534693686238500,7.464238525390625,-1.6485697555810213,-0.8336582708135247,0.6565287759508938
1772534693696255700,7.474255859375,-1.2653811700999735,-0.6466606582134962,0.569511732885614
1772534693706271700,7.484271728515625,-0.9062585198611021,-0.51076925573349,0.5462464465018362
1772534693716288500,7.49428857421875,-0.6246656840264797,-0.34632015955001116,0.5342193971648812
1772534693726305800,7.504305908203125,-0.3548632392287254,-0.14976210692226885,0.33930136682912704
1772534693736322300,7.514322265625,-0.47571781609654423,0.129037883323431,0.028850027713552117
1772534693746338300,7.52433837890625,-0.8843588227421045,0.22921119895130396,-0.13142258650287986
1772534693756355600,7.53435546875,-1.4349042085468768,0.13904080642163752,-0.1619578638896346
1772534693766372400,7.544372314453125,-1.9927426739692686,-0.0010004092141985893,-0.1618600295383483
1772534693776389400,7.554389404296875,-2.3211557131677867,-0.0869338948264718,-0.20770985350012777
1772534693786406400,7.564406494140625,-2.5023686048865317,-0.02164294587895274,-0.1712989620782435
1772534693796422400,7.57442236328125,-2.478842767870426,0.10289572632908821,-0.028672259993851184
1772534693806439400,7.584439453125,-2.3055893107235432,0.2034676858857274,0.05010667768865824
1772534693816456200,7.594456298828125,-1.841853608843684,0.3685167937889695,0.03689341424182057
1772534693826473500,7.604473388671875,-1.3379133223474025,0.7118935933634638,0.00045899581387639045
1772534693836490500,7.614490478515625,-0.8104933760643005,1.0233562284134328,0.041921909928321836
1772534693846506200,7.62450634765625,-0.3425648986697197,1.1506634885519742,0.2611433375239372
1772534693856523500,7.6345234375,0.029871406650543213,1.2162306240923701,0.48744244842082257
1772534693866540500,7.64454052734375,0.20813772352337837,1.2582060177735983,0.6013797932460904
1772534693876557300,7.654557373046875,0.3484112866103649,1.1861695400886236,0.7551444868732243
1772534693886574600,7.66457470703125,0.3237368640810251,1.121447038678825,0.853003315013647
1772534693896590600,7.674590576171875,0.14091712168753145,1.0817669163279235,0.9407016914065927
1772534693906607400,7.684607421875,-0.10912497610747814,1.0613600881151855,0.9775428640045225
1772534693916624600,7.694624755859375,-0.20204174473583697,1.0427120862685144,0.8443345631286502
1772534693926641400,7.704641357421875,-0.4878232644319534,1.0206320641465485,0.7588824312925339
1772534693936657400,7.714657470703125,-0.7949760734587907,0.8840130780443549,0.7458297652348875
1772534693946674400,7.72467431640625,-1.3271160340011119,0.7546955009967088,0.7208243571855127
1772534693956691500,7.73469140625,-1.7284610384196042,0.5475545334257185,0.6894440072767436
1772534693966708500,7.74470849609375,-1.872953095984459,0.3503222347982228,0.593488893865794
1772534693976725200,7.754725341796875,-1.985798553919792,0.22906331491321325,0.5777846903860568
1772534693986741500,7.764741455078125,-1.8054735509514808,0.1893361385501921,0.6354080273151397
1772534693996758500,7.774758544921875,-1.2663210812985897,0.19767945787310598,0.7015444871760904
1772534694006775300,7.784775390625,-0.5995955401778221,0.27790464884117244,0.8483874917812645
1772534694016792600,7.79479248046875,0.05664017111063003,0.3421890510946512,1.1349344428919255
1772534694026809300,7.804809326171875,0.7406622994691133,0.4231656449519098,1.2689973147705196
1772534694036825300,7.814825439453125,1.2713836253851651,0.5022235457062721,1.3004736723996697
1772534694046842400,7.82484228515625,1.5622966627508401,0.5554816731631755,1.4514501235477626
1772534694056859400,7.834859375,1.666847170549631,0.565952798295021,1.5787907014340161
1772534694066876400,7.84487646484375,1.7426976535648107,0.5121028424248099,1.6289903181031344
1772534694076893400,7.8548935546875,1.8202946879863737,0.48449412000924347,1.6988101426519453
1772534694086909400,7.864909423828125,1.8427753998637197,0.461142324385792,1.6871065531156957
1772534694096926500,7.874926513671875,1.8297241951107979,0.4525735257439315,1.6158393062375485
1772534694106943500,7.884943603515625,1.6613187625169754,0.3944429699450731,1.5134170426391065
1772534694116960500,7.89496044921875,1.4760878673285245,0.29197891303151846,1.3072354216195643
1772534694126976500,7.9049765625,1.141749529734254,0.13789002895131705,1.0119602435216306
1772534694136993500,7.91499365234375,0.8924602961331606,-0.11824293306469917,0.6667382544718682
1772534694147010300,7.92501025390625,0.5446393766313791,-0.32365883040875193,0.3760470431633293
1772534694157027600,7.935027587890625,0.29771511859595773,-0.5178169822879135,0.1551490606576204
1772534694167044400,7.94504443359375,0.19137597381472587,-0.7196886311538517,0.1003100937500596
1772534694177060400,7.955060302734375,0.12076865215003489,-0.8353225507639348,0.16942118550762533
1772534694187077600,7.96507763671875,0.18619535630643366,-0.7766707475699484,0.25860095956474544
1772534694197094400,7.975094482421875,0.15741934367716312,-0.6465821861498058,0.3684656481236219
1772534694207111400,7.985111328125,0.012793430599570273,-0.5805602925792336,0.5535013130009174
1772534694217128400,7.99512841796875,-0.05717851577103138,-0.5667502322830259,0.6581704787433147
1772534694227144400,8.00514453125,-0.14103519510924814,-0.527932864241302,0.6757970285877585
1772534694237161500,8.015161376953126,-0.31347090613245965,-0.4460407629743218,0.6971687563098967
1772534694247178200,8.02517822265625,-0.43072307459414005,-0.46307416923120615,0.700541009221971
1772534694257195500,8.035195556640625,-0.6405617568165064,-0.517493449421972,0.7107419391103088
1772534694267212300,8.04521240234375,-0.8058475960850715,-0.5568420017309487,0.6054241002008318
1772534694277228300,8.055228271484374,-1.0120265867561102,-0.6704940998740494,0.41525282600075003
1772534694287245600,8.06524560546875,-1.3152104921519756,-0.8512691846974193,0.25606091969311234
1772534694297262300,8.075262451171875,-1.4628279882609843,-0.9586328502207994,0.15342062942981718
1772534694307279400,8.085279296875,-1.584253643015027,-0.9588302724890411,0.13834566376432775
1772534694317296400,8.09529638671875,-1.6467214973658322,-0.9035575903393328,0.23011121653094888
1772534694327312400,8.1053125,-1.5782710614740847,-0.7883842739783227,0.3134080700293183
1772534694337329400,8.115329345703126,-1.5439555348962544,-0.5896173131294549,0.39515155660584567
1772534694347346400,8.125346435546875,-1.4526421098113058,-0.395895068449527,0.41162630606666206
1772534694357363500,8.135363525390625,-1.3500912513971328,-0.29735403019860385,0.435891124881804
1772534694367379500,8.14537939453125,-1.425026957654953,-0.19982582225203513,0.5164475936308502
1772534694377396200,8.155396240234374,-1.501734349760413,-0.1267277066849172,0.7838064446687698
1772534694387413500,8.16541357421875,-1.80996969332695,-0.06494257390126586,1.1166361312657593
1772534694397430500,8.175430419921875,-2.1467811430364847,-0.08268646651506424,1.462977918125689
1772534694407447300,8.185447265625,-2.446196051287651,0.005072188697755336,1.7514055684164165
1772534694417463600,8.195463623046875,-2.714064897674322,0.15228738761618732,1.907546562720835
1772534694427480600,8.20548046875,-2.774623119011521,0.31401085822805763,1.8365014341607688
1772534694437497300,8.215497314453126,-2.5697745001614094,0.6059764733865857,1.5417371281944214
1772534694447514600,8.2255146484375,-2.124807211637497,0.929559900471568,1.1948795007668436
1772534694457531400,8.235531494140625,-1.40252169585824,1.21079910056293,0.7346737265788018
1772534694467547400,8.24554736328125,-0.6682891371756792,1.4318139874465763,0.29623934695497156
1772534694477564400,8.255564453125,-0.07261106270253657,1.6112860268473623,-0.02602481422498822
1772534694487581400,8.26558154296875,0.4586421781331301,1.7206651238463817,-0.3269426743850112
1772534694497598500,8.275598388671876,0.8069634483724832,1.7109072615504264,-0.5659245951138436
1772534694507615200,8.285615234375,0.8710743937551975,1.7125379314921796,-0.880670781879127
1772534694517631500,8.295631591796875,0.747990450400114,1.612495110376179,-1.2775723970226942
1772534694527648500,8.3056484375,0.523449289086461,1.3591013640657066,-1.511226546857506
1772534694537665300,8.315665283203124,0.39869887382388114,1.1748152023814618,-1.6827011577636002
1772534694547682600,8.3256826171875,0.413408367177844,1.0344430012255907,-1.7433442809052764
1772534694557699300,8.33569921875,0.4885509941846132,0.9391421139396726,-1.6949499600924551
1772534694567715300,8.34571533203125,0.5457289254337548,0.8583953833155333,-1.4786789067350328
1772534694577732400,8.355732421875,0.5534855309098958,0.8365938858740031,-1.1412160073794424
1772534694587749400,8.365749267578124,0.40681203765273094,0.8442726038083433,-0.7652088578350842
1772534694597766400,8.375766357421876,0.26199557043910027,0.8574475810714065,-0.36861163246557116
1772534694607782400,8.385782470703125,0.14785890364944934,0.8336258298486471,-0.04646627535969019
1772534694617799400,8.39579931640625,0.12765665809810162,0.8462168697439134,0.3129628104798496
1772534694627816400,8.40581640625,0.15300444984436035,0.862421716222167,0.6880084215156733
1772534694637833500,8.41583349609375,0.2127677214115858,0.8020781605489552,1.0254963091820477
1772534694647850500,8.4258505859375,0.4291799368053674,0.7383591370932757,1.2441095417514443
1772534694657866500,8.435866455078125,0.6106652157247067,0.6483240613810718,1.3091031151875854
1772534694667883500,8.445883544921875,0.757537446424365,0.5071143864877522,1.2536084608502684
1772534694677900300,8.455900390625,0.9142828363627195,0.3579302255839109,1.1266828935056925
1772534694687917600,8.46591748046875,1.0639607721328734,0.23409619451388716,0.9527437921822071
1772534694697934300,8.475934326171876,1.272303662839532,0.10921353117376566,0.7589411757424473
1772534694707950300,8.485950439453125,1.4693284561961888,-0.03183496180847287,0.6208291746035218
1772534694717967600,8.495967529296875,1.553313145828247,-0.19378785726204514,0.5422719168476761
1772534694727984400,8.505984375,1.567020768663287,-0.31993294175341724,0.4943175948873162
1772534694738001400,8.51600146484375,1.5174726016402245,-0.4553165408417582,0.34140418432727454
1772534694748018400,8.526018310546876,1.4358330138295887,-0.6312076530158519,0.23411774875856933
1772534694758034400,8.536034423828125,1.3217635670572518,-0.7417252525255084,0.16290252432860433
1772534694768051500,8.546051513671875,1.2927443933218716,-0.8196366135932505,0.09927351724393665
1772534694778068500,8.556068359375,1.1813175700128078,-0.8869125988781452,0.0798515353500843
1772534694788085500,8.56608544921875,1.1846715566158295,-1.0086255461409688,0.12263283858671783
1772534694798102300,8.576102294921874,1.1767635599702595,-1.0581500400274992,0.19960443458631633
1772534694808118300,8.5861181640625,1.1061252586454153,-1.0109681637443602,0.2663625334769487
1772534694818135600,8.596135498046875,1.050488711619377,-0.9638228200793266,0.3101052290916443
1772534694828152300,8.60615234375,0.9513234039902686,-0.8722839156754314,0.41107612483799455
1772534694838169300,8.61616943359375,0.8031225550353527,-0.7827695028364657,0.5771043069064616
1772534694848186400,8.626186279296874,0.6350432856559753,-0.7079564000450074,0.6480612457264214
1772534694858202400,8.636202392578125,0.4453057266980409,-0.6145769823409617,0.6560816897705197
1772534694868219400,8.646219482421875,-0.008179214802384377,-0.542860384260118,0.6459069172367453
1772534694878236400,8.656236328125,-0.5038707283914089,-0.4936031630076468,0.578064384110272
1772534694888253400,8.66625341796875,-0.9381646472096442,-0.44421778533086176,0.41742739356085656
1772534694898270500,8.6762705078125,-1.1672954744011164,-0.38106837845668196,0.29246216650381684
1772534694908286200,8.6862861328125,-1.1871598663002252,-0.2346405305236578,0.18586466304734348
1772534694918303500,8.696303466796875,-0.9524860180288552,-0.11103826238289474,-0.0037573067069053647
1772534694928320500,8.706320556640625,-0.5901461593091487,0.004428337836265564,-0.18741686092540621
1772534694938337300,8.716337158203125,-0.39646658472716806,0.15830241012200713,-0.25192732701972126
1772534694948353500,8.726353515625,-0.23227263234853743,0.3163938078418374,-0.2319604976594448
1772534694958370600,8.73637060546875,-0.21767127554416654,0.38666780589893457,-0.20695786608904598
1772534694968387300,8.74638720703125,-0.34273265645205975,0.3797827225603163,-0.16133432516381144
1772534694978404600,8.756404541015625,-0.5054927766352891,0.39456206628009677,-0.06738719057440758
1772534694988421400,8.76642138671875,-0.6131237147927284,0.5237463723368943,0.015460019460320471
1772534694998437400,8.776437255859374,-0.9047861092209816,0.6266377147518098,0.06701514239162207
1772534695008454400,8.786454345703126,-1.0355974319577217,0.6654376932673156,0.17526136290319264
1772534695018471400,8.796471435546875,-0.9468687626689672,0.772156485015899,0.24188494869396088
1772534695028488400,8.806488525390625,-0.8732266033530235,1.0155652822762726,0.2703155819516629
1772534695038505200,8.816505126953125,-0.7224187867701053,1.1417533291265367,0.4543874432981014
1772534695048521500,8.826521484375,-0.4279068481296301,1.157571222113818,0.6063563395496457
1772534695058538500,8.83653857421875,-0.275468799996376,1.211529314533621,0.6876250482212751
1772534695068555300,8.84655517578125,-0.27298458196520803,1.1784463984906672,0.746270056348294
1772534695078572500,8.856572509765625,-0.4389239167064428,1.0594500167101621,0.7484425050165504
1772534695088589300,8.86658935546875,-0.8353981002181768,0.8757289415627717,0.7993608644142747
1772534695098605300,8.876605224609374,-1.2860948723047971,0.7695983249656856,0.8450385466795414
1772534695108622300,8.886622314453126,-1.7100304787158964,0.7275884444929659,0.8960574438422918
1772534695118639400,8.896639404296875,-2.000751792901754,0.6959054583758115,0.9183187408152967
1772534695128656400,8.906656494140625,-2.100055047696829,0.742784260059148,0.910288067638129
1772534695138673700,8.916673583984375,-1.9523381828665731,0.8871794331207871,0.8755632296070456
1772534695148689400,8.926689453125,-1.7175258029073477,1.0014053856290877,0.8622444599591195
1772534695158706400,8.93670654296875,-1.3403992939442395,1.074315139017254,0.8848153343379497
1772534695168723500,8.946723388671876,-0.9179916277527809,1.1441299951300024,0.9052559186898171
1772534695178740500,8.956740478515625,-0.6338356634318828,1.1612485954523086,1.0060175555996596
1772534695188756500,8.966756591796875,-0.42344986872076984,1.095577268885076,1.0732320199556649
1772534695198773500,8.9767734375,-0.3408721232771873,1.0458150207199155,1.0509702115260064
1772534695208790500,8.98679052734375,-0.3209522017985582,0.9923825596094131,0.9449889402717352
1772534695218807600,8.9968076171875,-0.29958909577429294,0.8418310558751225,0.7884313279904425
1772534695228824300,9.00682421875,-0.1944844612240791,0.7440677239984274,0.6748857589617371
1772534695238840300,9.01684033203125,-0.02452536944746971,0.6944288099519909,0.5562434513159096
1772534695248857600,9.026857666015625,0.16962532977759837,0.6392072734676301,0.4902772334553301
1772534695258874400,9.036874267578124,0.35113983479142186,0.5783664357967674,0.49314212136715646
1772534695268891400,9.046891357421876,0.4111398377239704,0.5811826622612773,0.5214318117842078
1772534695278908400,9.056908447265625,0.5230471380263567,0.5860049678511917,0.3890647840380668
1772534695288924400,9.06692431640625,0.6130190853744745,0.5215970853485167,0.2498456984400749
1772534695298941400,9.07694140625,0.711863490486145,0.4459570302136242,0.2738704248890281
1772534695308958500,9.08695849609375,0.9076999508410691,0.3957955535978079,0.25964842279106376
1772534695318975500,9.0969755859375,1.120602112287283,0.3266675107054412,0.20156521326527
1772534695328992300,9.1069921875,1.2760264827549457,0.2648753636591136,0.2559600896671414
1772534695339008300,9.11700830078125,1.35280051035583,0.2565545484289527,0.33106516114249823
1772534695349025500,9.127025634765625,1.3146324000030756,0.2561091427490115,0.3463428828384727
1772534695359042300,9.137042236328124,1.0880044955432415,0.24548472675159572,0.35705475792363284
1772534695369059300,9.147059326171876,0.9001555268108844,0.18809870570972562,0.4435665548805147
1772534695379076600,9.15707666015625,0.6770932058781385,0.17230200164094567,0.5297645366478712
1772534695389092400,9.16709228515625,0.4735176757037639,0.21730010414421558,0.5636046277336776
1772534695399109400,9.177109375,0.3087619977891445,0.19012977314591406,0.5700009046420454
1772534695409126400,9.18712646484375,0.231467745706439,0.16589973338320851,0.44974166331887244
1772534695419143400,9.197143310546876,0.1885071403801441,0.14785598104000092,0.3166945443540811
1772534695429160400,9.207160400390626,0.20792203494608402,0.14532982356324792,0.21709486389569937
1772534695439176400,9.217176513671875,0.10849076985716818,0.17134616222083568,0.16808876786008475
1772534695449193500,9.227193359375,-0.01749649372398853,0.19480667891576886,0.21720972244702277
1772534695459210500,9.23721044921875,-0.02897475007176399,0.25778569765910503,0.2094152691785246
1772534695469227300,9.247227294921874,0.03470189554691314,0.29778087730854746,0.10559139515385031
1772534695479244500,9.25724462890625,0.21998130605220792,0.2991338993526995,0.004699044536426663
1772534695489260500,9.267260498046875,0.4405541482567787,0.30014804483130575,-0.058745984283462165
1772534695499277300,9.27727734375,0.6527174740344286,0.2924370320625603,-0.059421983848884696
1772534695509294600,9.287294677734375,0.7475818695992231,0.28576939086690545,0.028748393969982862
1772534695519311400,9.297311279296874,0.7312392220854759,0.22789193304628133,0.156806910867244
1772534695529327400,9.307327392578125,0.7566174089699983,0.22088336945846676,0.2030976835295558
1772534695539344400,9.317344482421875,0.66112582141757,0.2166894248999655,0.1573869027122855
1772534695549361400,9.327361328125,0.24752690010368822,0.1490900528796017,0.09203253313973546
1772534695560630300,9.33863037109375,0.08514788819253444,-0.021614158175885675,-0.03451251045465469
1772534695570646500,9.348646484375,0.04379822519421577,-0.1287482527270913,-0.06458272761292755
1772534695580663600,9.35866357421875,-0.023697686451673507,-0.08355594282597303,-0.02980557487271726
1772534695590680300,9.368680419921875,-0.09874912804365157,-0.08304857782572507,0.07879070118553937
1772534695600697600,9.378697509765624,-0.26685820803940297,-0.13578238914757967,0.2277926373902708
1772534695610714400,9.38871435546875,-0.6139928988426924,-0.10079714661464094,0.2970633766889572
1772534695620730400,9.39873046875,-0.7974889330625533,-0.12430033340752124,0.2828575950734317
1772534695630747400,9.408747314453125,-0.9705623574674129,-0.26214783839136363,0.2174785294510424
1772534695640764400,9.418764404296875,-0.9206459416538476,-0.3693953301891684,0.09509535477645695
1772534695650781400,9.428781494140624,-0.3138420775324106,0.5088944017723203,-0.8336210075430571
1772534695660798200,9.438798095703126,-0.09207447258532046,0.24627573099881409,-0.8577094468779861
1772534695670814500,9.448814453125,-0.5318085366308689,-1.1155173563688994,0.3491647353261709
1772534695680831500,9.45883154296875,-0.5209101259976625,-1.581454075424373,0.7930392601773142
1772534695690848300,9.46884814453125,-0.3692272801458835,-1.415887227257341,0.4991058886097744
1772534695700865500,9.478865478515624,-0.3913350670576095,-0.8903289831928908,-0.11253292138744145
1772534695710882300,9.48888232421875,-0.36181028188765046,-0.523663808619976,-0.41569110782016067
1772534695720898300,9.498898193359375,-0.2929360676258802,-0.46404681365564465,-0.3680919559730217
1772534695730915600,9.50891552734375,-0.20420739833712576,-0.5900260400608182,-0.2557256963893771
1772534695740932400,9.518932373046875,-0.21629414197206495,-0.5860846089586615,-0.2721483868693933
1772534695750949400,9.528949462890624,-0.24062369658648966,-0.40399318083971736,-0.30458073004912584
1772534695760966400,9.53896630859375,-0.4180670066386461,-0.22591697971150276,-0.2293094351613894
1772534695770982100,9.548982177734375,-0.6189344468981027,-0.07704305380061269,-0.1492817395268008
1772534695780999400,9.55899951171875,-0.7219985155314207,0.017680398923531175,-0.13902480513490736
1772534695791016400,9.569016357421875,-0.8175520624041557,0.05622537976466119,-0.2044316355470568
1772534695801033200,9.579033203125,-1.0152192453175783,-0.0098022859595716,-0.17680877500828354
1772534695811050500,9.589050537109374,-1.5759563547909259,-0.24320501831658184,-0.0762877053886652
1772534695821066500,9.59906640625,-1.8543974485963581,-0.4151418399069458,0.05931099775508046
1772534695831083300,9.609083251953125,-1.6648837615221739,-0.4676518524102866,0.1509896394232288
1772534695841100300,9.619100341796875,-1.4444067809075116,-0.39225795405618846,0.08594364168010651
1772534695851117300,9.629117431640625,-1.0803799920141697,-0.1934941350124776,0.04676562363244593
1772534695861134300,9.63913427734375,-0.7143097145944833,-0.00255487211458385,0.2083350727263838
1772534695871150300,9.649150390625,-0.5311041877537965,0.19028956681750714,0.2677652398817241
1772534695881167400,9.65916748046875,-0.2326882274121046,0.29895415887162086,0.097196637904644
1772534695891184400,9.669184326171875,0.21205869635939598,0.2959676904067397,-0.0890956029050052
1772534695901201200,9.679201171875,0.42872284068763256,0.23514679954536258,-0.2870134726438671
1772534695911217200,9.689217041015626,0.39187458076179027,0.11809709485322237,-0.30767537159621716
1772534695921234400,9.699234375,0.4753273554742336,0.08065817555785179,-0.1936708798188716
1772534695931251200,9.709251220703125,0.27684885617792604,0.17950258066952227,-0.011126593365892768
1772534695941268200,9.719268310546875,0.2818418421596289,0.1376939218573272,-0.019048691602051256
1772534695951285200,9.72928515625,0.17117489730715751,0.24389760369062422,-0.2545519764348864
1772534695961301200,9.73930126953125,0.19130933831930158,0.2827040119469166,-0.6135878982383758
1772534695971318300,9.749318359375,0.01530453663766384,0.2306043338101357,-0.7931954005870968
1772534695981335300,9.759335205078125,-0.32700551048815246,0.3827107388362288,-0.8967449146497994
1772534695991352300,9.769352294921875,-0.35877310614883895,0.620807766489312,-0.7501881065748631
1772534696001369300,9.779369384765625,-0.08261924649775028,0.8132691974531858,-0.6119223761789501
1772534696011385000,9.789385009765626,0.3087146515160799,0.9047728844132273,-0.6262056800100952
1772534696021402400,9.79940234375,0.5236509491384029,0.876739652975276,-0.6202336198631674
1772534696031419400,9.80941943359375,0.6058610303133726,0.6659734806444495,-0.5032498930793255
1772534696041436200,9.819436279296875,0.4425017751932144,0.3300764423660934,-0.2873606055811047
1772534696051453400,9.829453369140625,0.44797114651501174,0.02293824638649821,-0.04873392803072929
1772534696061469400,9.839469482421874,0.8559627493411303,-0.02173274305425584,0.04923617846444249
1772534696071486200,9.849486328125,1.1795821245223284,0.07996383661814034,-0.03401552071794867
1772534696081503500,9.85950341796875,1.2433575543403625,0.10986118142753838,-0.11809103043861686
1772534696091520300,9.869520263671875,1.2034522449314593,0.04918948977850377,-0.04509571765884757
1772534696101537300,9.879537353515625,1.1184762061744928,-0.14404402153640986,0.08677607391625643
1772534696111553300,9.88955322265625,1.0500415523737667,-0.3515537493545562,0.18218641292601823
1772534696121570300,9.8995703125,1.0152005406171083,-0.47550687675960357,0.25596578875556586
1772534696131587300,9.90958740234375,1.049072999602556,-0.5036788590811193,0.2560654497377574
1772534696141604400,9.919604248046875,1.0504302594304085,-0.5076749429799616,0.2767372855622321
1772534696151621400,9.929621337890625,0.9420429499477148,-0.5602048292275518,0.43820546623878176
1772534696161637400,9.939637451171874,0.9425035531967878,-0.6749649616777896,0.6879103679686784
1772534696171654100,9.949654052734376,1.1240379319548606,-0.8502421066720038,0.8611308726940303
1772534696181671400,9.95967138671875,1.3265642453372477,-1.0275769879136234,0.766456446743384
1772534696191688200,9.969688232421875,1.345855221262574,-1.1592432469792664,0.5103576061926782
1772534696201705200,9.979705322265625,1.403536425858736,-1.314866501019895,0.3567311519924551
1772534696211721500,9.989721435546874,1.454149007242918,-1.481295957365632,0.32111418742723763
1772534696221738200,9.99973828125,1.4867466239869593,-1.6097686080217362,0.31066936578042803
1772534696231755300,10.00975537109375,1.561914385434985,-1.6909297646656631,0.3582939443297684
1772534696241772300,10.019772216796875,1.5963579223066569,-1.7178759315192698,0.42360842028334733
1772534696251789300,10.029789306640625,1.4451888711959122,-1.6938886144712566,0.5172257383964955
1772534696261805300,10.039805419921874,1.0502899741768836,-1.6727074408851563,0.4651816629044711
1772534696271822300,10.049822265625,0.5282967291176319,-1.605178211491555,0.3799873052217066
1772534696281839400,10.05983935546875,0.13653554560244083,-1.451279735416919,0.2934746314819902
1772534696291856400,10.0698564453125,-0.26437399000823497,-1.3098390282467007,0.25505817239135503
1772534696301873200,10.079873046875,-0.6857692642867564,-1.1907619824454188,0.2212070484548807
1772534696311889400,10.089889404296875,-1.0749041909515857,-1.0775800590973348,0.17074739261008798
1772534696321906400,10.099906494140624,-1.3078379175573587,-0.9816247995559125,0.1315531540799886
1772534696331923200,10.109923095703126,-1.4666794029921293,-0.9019389761615544,0.01310198509208858
1772534696341940500,10.1199404296875,-1.682095593085885,-0.8701523104742169,-0.2159365607060492
1772534696351957200,10.129957275390625,-1.8431337117820976,-0.7511204189889132,-0.38487566178515553
1772534696361973200,10.13997314453125,-1.942517630597949,-0.5717085853427648,-0.4179020984005183
1772534696371990300,10.149990234375,-1.8720768976718187,-0.4855171063814312,-0.3541306141052395
1772534696382007300,10.16000732421875,-1.7495950118631123,-0.4247712535176426,-0.2636951408986002
1772534696392024300,10.1700244140625,-1.7401468000382183,-0.23258337879814206,-0.24916290380768477
1772534696402041000,10.180041015625,-1.7286767269968986,-0.010525558732822536,-0.2894726292990148
1772534696412057300,10.190057373046875,-1.5460206507325172,-0.0400368268340826,-0.4243280397947877
1772534696422074400,10.200074462890624,-1.2274316709339619,-0.1494329480331391,-0.5348671204838902
1772534696432091100,10.210091064453126,-1.1062725581616162,-0.1323586252439767,-0.5280472113359719
1772534696442108400,10.2201083984375,-1.3947043001055717,0.021946093543991445,-0.35228199056386944
1772534696452125200,10.230125244140625,-1.746102493572235,0.3599877426356077,-0.051186362684145566
1772534696462141200,10.24014111328125,-1.8455653228431939,0.5863639373566955,0.43005438155233855
1772534696472158200,10.250158203125,-1.724977872478962,0.5527386580653488,0.7507263051047921
1772534696482175200,10.26017529296875,-1.4553338331133125,0.4315124714061618,0.8463055709406733
1772534696492192300,10.270192138671876,-1.114950954657793,0.4492707578714937,0.7863931001611053
1772534696502209300,10.280209228515625,-0.8360147708117961,0.6525136950906366,0.5783405707031488
1772534696512225300,10.290225341796875,-0.4569505717843771,0.9552297637790441,0.3579658083539456
1772534696522242300,10.3002421875,-0.04802957915365696,1.1732032371401786,0.2238148928657174
1772534696532259300,10.31025927734375,0.23219839806854722,1.2129599318586288,0.2932559472300112
1772534696542276400,10.3202763671875,0.47107145159542557,1.1706778103157878,0.41628509165793653
1772534696552293400,10.33029345703125,0.4932867905348539,1.0439208775363862,0.41709443527944384
1772534696562309400,10.340309326171875,0.3965291285693645,0.9298375483691692,0.29023002353757615
1772534696572326400,10.350326416015625,0.29104747740030285,1.077941951212287,0.2193931309007108
1772534696582343400,10.360343505859374,0.19026304413676262,1.2805214560866356,0.26891886689625677
1772534696592360200,10.370360107421876,0.14775076709985732,1.3518861719898878,0.33408370524607595
1772534696602376200,10.380376220703125,0.13117255726456642,1.2302565190963446,0.37668417202308774
1772534696612393500,10.3903935546875,0.2059890210568905,1.028525447744876,0.2646099907211959
1772534696622410200,10.40041015625,0.3282236541062593,0.878527924631536,0.050373292735591525
1772534696632427300,10.41042724609375,0.24860592751204966,0.84611589358747,-0.16626586328186094
1772534696642444300,10.4204443359375,0.2159831763267517,0.8389563772216438,-0.347806890976429
1772534696652460300,10.430460205078125,0.20738369028568265,0.7980999045677483,-0.44504481073953206
1772534696662477300,10.440477294921875,0.2085632554590702,0.7348655958890914,-0.2539757109168917
1772534696672494300,10.450494384765625,0.29519641377329825,0.7100288224048912,0.025412600610777734
1772534696682511400,10.460511474609374,0.33405659804344173,0.5996051847890019,0.10367284818142652
1772534696692528000,10.470528076171876,0.34641572887897487,0.4778570200823247,0.20328641103468834
1772534696702544100,10.480544189453125,0.43454234062135216,0.4748191136911511,0.4516580913994461
1772534696712561400,10.4905615234375,0.5878554180234671,0.5855172573994845,0.6356265654366463
1772534696722578200,10.500578125,0.7704273231357336,0.6515499646250158,0.8267821744989603
1772534696732595200,10.51059521484375,0.9410603686511516,0.654190907587856,1.0095179649360477
1772534696742612500,10.520612548828124,1.0164572626799344,0.6078234164275229,1.085481260675937
1772534696752628200,10.530628173828125,1.0026759900867939,0.5013164407987147,1.1444900606140493
1772534696762645200,10.540645263671875,0.9817822551399469,0.4809892536934465,1.2960406583882869
1772534696772662500,10.55066259765625,0.990961586895585,0.4182315495505929,1.408978324651718
1772534696782679300,10.56067919921875,1.0211708471983671,0.3351424205187708,1.373994689553976
1772534696792696300,10.5706962890625,1.0499725787907839,0.2207898459561169,1.1086857567831874
1772534696802712300,10.58071240234375,1.025077791509032,0.04011858683340251,0.8242812975939363
1772534696812729300,10.590729248046875,0.8979577245056629,-0.11753040088117123,0.5595095404397696
1772534696822746400,10.600746337890625,0.7087690316021442,-0.18579042876735327,0.36534883127734064
1772534696832763100,10.61076318359375,0.4388029206752777,-0.18083507138229907,0.40051827127076683
1772534696842780400,10.620780517578124,0.08128127589225768,-0.23261903463341294,0.7052383732579648
1772534696852796400,10.63079638671875,-0.016451953107118604,-0.29921595161296427,0.95615367369093
1772534696862813200,10.640813232421875,-0.05378244359195232,-0.3109305009346455,1.1269324112873524
1772534696872830500,10.65083056640625,0.02208499055802822,-0.2732962051976472,1.3012703757353126
1772534696882847200,10.66084716796875,0.4018231433242559,-0.19563501949869094,1.3582868328124285
1772534696892864300,10.6708642578125,0.8216980761677026,-0.12168978558294474,1.2647341043680906
1772534696902880300,10.68088037109375,0.9071990155816078,0.052859556593373415,1.0730775600463152
1772534696912897300,10.690897216796875,0.7955833917021751,0.1950338387351483,0.9803266495041548
1772534696922914300,10.700914306640625,0.7571142525762319,0.05474851214513182,0.9613396249614655
1772534696932931300,10.710931396484375,0.8862094190448522,-0.24606888331510124,0.7724277031727135
1772534696942948400,10.7209482421875,0.922385478797555,-0.4127905275404453,0.5306180116720497
1772534696952964400,10.73096435546875,0.5737602571755648,-0.4562796137202531,0.3800669463291764
1772534696962981000,10.740981201171875,0.06871463978588581,-0.3526196250203997,0.28598186457380653
