time,seconds_elapsed,z,y,x
1772534686269439700,0.047439697265625,-0.847259521484375,-0.1320953369140625,-0.0159454345703125
1772534686279456500,0.05745654296875,-0.876434326171875,-0.135406494140625,-0.02093505859375
1772534686289473500,0.0674736328125,-0.8977508544921875,-0.14117431640625,-0.0363006591796875
1772534686299489800,0.07748974609375,-0.8935699462890625,-0.1454925537109375,-0.0611572265625
1772534686309506600,0.087506591796875,-0.887420654296875,-0.150360107421875,-0.0794219970703125
1772534686319523600,0.097523681640625,-0.878753662109375,-0.158905029296875,-0.085235595703125
1772534686329540600,0.10754052734375,-0.8770599365234375,-0.17779541015625,-0.0719451904296875
1772534686339557600,0.1175576171875,-0.878631591796875,-0.1920318603515625,-0.04217529296875
1772534686349573600,0.12757373046875,-0.88092041015625,-0.1916656494140625,-0.0225982666015625
1772534686359590700,0.137590576171875,-0.8884735107421875,-0.188262939453125,-0.019622802734375
1772534686369607700,0.147607666015625,-0.889404296875,-0.1795806884765625,-0.0168914794921875
1772534686379624700,0.157624755859375,-0.89300537109375,-0.1702880859375,-0.0144805908203125
1772534686389640400,0.167640380859375,-0.91259765625,-0.166534423828125,-0.0150909423828125
1772534686399657700,0.17765771484375,-0.9417724609375,-0.159942626953125,-0.01629638671875
1772534686409674800,0.1876748046875,-0.9808502197265625,-0.147186279296875,-0.0230865478515625
1772534686419691500,0.19769140625,-1.021759033203125,-0.1322021484375,-0.0370025634765625
1772534686429707500,0.20770751953125,-1.0485076904296875,-0.121826171875,-0.0568084716796875
1772534686439724800,0.217724853515625,-1.06982421875,-0.1194915771484375,-0.069793701171875
1772534686449741600,0.227741455078125,-1.0849456787109375,-0.12469482421875,-0.081207275390625
1772534686459758600,0.237758544921875,-1.0838470458984375,-0.13714599609375,-0.1038665771484375
1772534686469775600,0.247775634765625,-1.06231689453125,-0.1523284912109375,-0.1254730224609375
1772534686479791600,0.25779150390625,-1.0491180419921875,-0.155914306640625,-0.140625
1772534686489808600,0.26780859375,-1.0474700927734375,-0.1616973876953125,-0.1472930908203125
1772534686499825700,0.27782568359375,-1.0725250244140625,-0.173065185546875,-0.1471405029296875
1772534686509842700,0.2878427734375,-1.0863800048828125,-0.1811065673828125,-0.15411376953125
1772534686519858700,0.297858642578125,-1.0901031494140625,-0.19140625,-0.17578125
1772534686529875700,0.307875732421875,-1.0877838134765625,-0.1964569091796875,-0.2108306884765625
1772534686539892700,0.317892822265625,-1.0771026611328125,-0.1909332275390625,-0.2476654052734375
1772534686549909500,0.327909423828125,-1.1026611328125,-0.185089111328125,-0.26849365234375
1772534686559926800,0.3379267578125,-1.148101806640625,-0.176605224609375,-0.2715911865234375
1772534686569942800,0.34794287109375,-1.1724700927734375,-0.1602020263671875,-0.2589111328125
1772534686579959600,0.35795947265625,-1.193359375,-0.1537628173828125,-0.2359771728515625
1772534686589976600,0.3679765625,-1.21026611328125,-0.150909423828125,-0.2118377685546875
1772534686599993600,0.37799365234375,-1.214508056640625,-0.1715087890625,-0.2077178955078125
1772534686610009600,0.388009521484375,-1.1897430419921875,-0.1842498779296875,-0.21588134765625
1772534686620026600,0.398026611328125,-1.151641845703125,-0.187347412109375,-0.2235870361328125
1772534686630043600,0.408043701171875,-1.1339263916015625,-0.1842193603515625,-0.212615966796875
1772534686640060700,0.418060791015625,-1.1454010009765625,-0.173065185546875,-0.19091796875
1772534686650077700,0.42807763671875,-1.1502838134765625,-0.166015625,-0.17535400390625
1772534686660093400,0.438093505859375,-1.141815185546875,-0.1641387939453125,-0.1749420166015625
1772534686670110700,0.44811083984375,-1.1407928466796875,-0.16302490234375,-0.1807708740234375
1772534686680127700,0.458127685546875,-1.1501617431640625,-0.15399169921875,-0.192718505859375
1772534686690144500,0.46814453125,-1.144927978515625,-0.1483001708984375,-0.2005157470703125
1772534686700160800,0.478160888671875,-1.134796142578125,-0.14666748046875,-0.202484130859375
1772534686710177500,0.488177490234375,-1.1389007568359375,-0.1335906982421875,-0.2027740478515625
1772534686720194600,0.498194580078125,-1.1461181640625,-0.11456298828125,-0.2162017822265625
1772534686730211800,0.5082119140625,-1.131988525390625,-0.0988311767578125,-0.2462921142578125
1772534686740228600,0.518228515625,-1.099365234375,-0.093780517578125,-0.2785186767578125
1772534686750244900,0.528244873046875,-1.046173095703125,-0.091888427734375,-0.302886962890625
1772534686760262000,0.538261962890625,-1.0046234130859375,-0.0840606689453125,-0.31597900390625
1772534686770278700,0.548278564453125,-0.9855499267578125,-0.078765869140625,-0.3150787353515625
1772534686780296000,0.5582958984375,-0.957244873046875,-0.078887939453125,-0.2811737060546875
1772534686790312000,0.56831201171875,-0.93267822265625,-0.084014892578125,-0.23175048828125
1772534686800328700,0.57832861328125,-0.904083251953125,-0.0863800048828125,-0.20257568359375
1772534686810345700,0.588345703125,-0.8489532470703125,-0.089813232421875,-0.1875152587890625
1772534686820362800,0.59836279296875,-0.7923126220703125,-0.09320068359375,-0.186431884765625
1772534686830378800,0.608378662109375,-0.75750732421875,-0.0965118408203125,-0.190887451171875
1772534686840395800,0.618395751953125,-0.733642578125,-0.10595703125,-0.1874237060546875
1772534686850412800,0.628412841796875,-0.70831298828125,-0.11956787109375,-0.1901702880859375
1772534686860429800,0.638429931640625,-0.6878662109375,-0.132415771484375,-0.18780517578125
1772534686870446600,0.648446533203125,-0.685302734375,-0.139190673828125,-0.1746063232421875
1772534686880462600,0.658462646484375,-0.68670654296875,-0.132781982421875,-0.1551971435546875
1772534686890479900,0.66847998046875,-0.69976806640625,-0.1296844482421875,-0.1452789306640625
1772534686900496600,0.67849658203125,-0.7038726806640625,-0.1298828125,-0.154449462890625
1772534686910514000,0.688513916015625,-0.70904541015625,-0.127410888671875,-0.1651458740234375
1772534686920530000,0.698530029296875,-0.7154083251953125,-0.125457763671875,-0.206146240234375
1772534686930546700,0.708546630859375,-0.5662078857421875,-0.11187744140625,-0.2655487060546875
1772534686940563700,0.718563720703125,-0.7150421142578125,-0.0931854248046875,-0.1967620849609375
1772534686950580700,0.728580810546875,-0.837890625,-0.0602264404296875,-0.112518310546875
1772534686960597800,0.73859765625,-0.84002685546875,-0.094146728515625,-0.105712890625
1772534686970613800,0.74861376953125,-0.8665313720703125,-0.1245269775390625,-0.1473846435546875
1772534686980630800,0.758630859375,-0.92938232421875,-0.15032958984375,-0.195068359375
1772534686990647800,0.768647705078125,-0.94207763671875,-0.1656341552734375,-0.2296600341796875
1772534687000664800,0.778664794921875,-0.9288177490234375,-0.17938232421875,-0.2743072509765625
1772534687010680600,0.7886806640625,-0.9058074951171875,-0.2298126220703125,-0.290679931640625
1772534687020697900,0.79869775390625,-0.8616790771484375,-0.265228271484375,-0.3298797607421875
1772534687030714600,0.808714599609375,-0.8098907470703125,-0.256805419921875,-0.3623199462890625
1772534687040731600,0.818731689453125,-0.7740325927734375,-0.263763427734375,-0.367095947265625
1772534687050749000,0.8287490234375,-0.7514801025390625,-0.3002471923828125,-0.3439178466796875
1772534687060764700,0.8387646484375,-0.7484588623046875,-0.33367919921875,-0.31689453125
1772534687070781700,0.84878173828125,-0.7630157470703125,-0.344329833984375,-0.306243896484375
1772534687080799000,0.858799072265625,-0.7890777587890625,-0.3458251953125,-0.2861480712890625
1772534687090815700,0.868815673828125,-0.8292083740234375,-0.3514251708984375,-0.2487640380859375
1772534687100831700,0.878831787109375,-0.886138916015625,-0.35833740234375,-0.2061309814453125
1772534687110848800,0.888848876953125,-0.957061767578125,-0.35479736328125,-0.165283203125
1772534687120865800,0.89886572265625,-1.00225830078125,-0.347412109375,-0.1403656005859375
1772534687130882800,0.9088828125,-1.0238189697265625,-0.340972900390625,-0.134429931640625
1772534687140898800,0.91889892578125,-1.0352020263671875,-0.3372802734375,-0.13104248046875
1772534687150915800,0.928915771484375,-1.0443572998046875,-0.3316802978515625,-0.131134033203125
1772534687160932900,0.938932861328125,-1.0509490966796875,-0.3374176025390625,-0.1352081298828125
1772534687170949600,0.94894970703125,-1.048828125,-0.33270263671875,-0.14459228515625
1772534687180967000,0.958966796875,-1.058746337890625,-0.3115386962890625,-0.156036376953125
1772534687190983000,0.96898291015625,-1.0612945556640625,-0.287384033203125,-0.1768951416015625
1772534687200999700,0.978999755859375,-1.07171630859375,-0.2711639404296875,-0.1945648193359375
1772534687211016700,0.9890166015625,-1.0948944091796875,-0.2652435302734375,-0.1830902099609375
1772534687221033700,0.99903369140625,-1.123016357421875,-0.263641357421875,-0.17083740234375
1772534687231049700,1.0090498046875,-1.14788818359375,-0.257537841796875,-0.1749420166015625
1772534687241066800,1.019066650390625,-1.1703338623046875,-0.246429443359375,-0.1797943115234375
1772534687251083800,1.029083740234375,-1.1855010986328125,-0.2318878173828125,-0.1772613525390625
1772534687261100800,1.039100830078125,-1.1905059814453125,-0.219085693359375,-0.15521240234375
1772534687271117600,1.04911767578125,-1.195953369140625,-0.2052154541015625,-0.1156005859375
1772534687281133600,1.059133544921875,-1.1886138916015625,-0.193267822265625,-0.0786895751953125
1772534687291150800,1.06915087890625,-1.1785430908203125,-0.1833038330078125,-0.046142578125
1772534687301167600,1.079167724609375,-1.1702117919921875,-0.1671295166015625,-0.02471923828125
1772534687311184600,1.0891845703125,-1.1506805419921875,-0.1471405029296875,-0.0216064453125
1772534687321201000,1.099200927734375,-1.1259765625,-0.139251708984375,-0.02117919921875
1772534687331217700,1.1092177734375,-1.086822509765625,-0.12506103515625,-0.020233154296875
1772534687341234700,1.119234619140625,-1.0460205078125,-0.107269287109375,-0.0213470458984375
1772534687351252000,1.129251953125,-1.013397216796875,-0.096710205078125,-0.019378662109375
1772534687361268700,1.139268798828125,-0.9926605224609375,-0.0988922119140625,-0.001708984375
1772534687371284700,1.14928466796875,-0.96258544921875,-0.0920257568359375,0.00177001953125
1772534687381301800,1.1593017578125,-0.950469970703125,-0.089080810546875,-0.00225830078125
1772534687391318800,1.16931884765625,-0.9457244873046875,-0.0879974365234375,-0.0054473876953125
1772534687401335800,1.179335693359375,-0.9432373046875,-0.0846710205078125,-0.010498046875
1772534687411351800,1.189351806640625,-0.94696044921875,-0.07904052734375,-0.0172271728515625
1772534687421368800,1.199368896484375,-0.9471435546875,-0.0704803466796875,-0.0236968994140625
1772534687431385900,1.2093857421875,-0.93408203125,-0.0647735595703125,-0.03387451171875
1772534687441402600,1.219402587890625,-0.918182373046875,-0.05596923828125,-0.042724609375
1772534687451419000,1.2294189453125,-0.90216064453125,-0.046844482421875,-0.0500335693359375
1772534687461436000,1.239435791015625,-0.8921051025390625,-0.040679931640625,-0.057891845703125
1772534687471452700,1.24945263671875,-0.8903656005859375,-0.0332489013671875,-0.068511962890625
1772534687481470000,1.259469970703125,-0.9071502685546875,-0.0270538330078125,-0.0775909423828125
1772534687491486700,1.26948681640625,-0.9189605712890625,-0.0222015380859375,-0.08477783203125
1772534687501502700,1.279502685546875,-0.924224853515625,-0.0147705078125,-0.0988006591796875
1772534687511519700,1.289519775390625,-0.9358673095703125,-0.0099334716796875,-0.1034698486328125
1772534687521536800,1.299536865234375,-0.9365997314453125,-0.0134429931640625,-0.1024932861328125
1772534687531553800,1.3095537109375,-0.935150146484375,-0.0139312744140625,-0.09808349609375
1772534687541569800,1.31956982421875,-0.927398681640625,-0.010223388671875,-0.078521728515625
1772534687551586800,1.3295869140625,-0.9127960205078125,-0.0133514404296875,-0.067047119140625
1772534687561603800,1.339603759765625,-0.9099884033203125,-0.01361083984375,-0.0740966796875
1772534687571620600,1.34962060546875,-0.9223785400390625,-0.0229034423828125,-0.090057373046875
1772534687581638000,1.359637939453125,-0.9299774169921875,-0.0408172607421875,-0.115478515625
1772534687591654000,1.36965380859375,-0.9456787109375,-0.0611419677734375,-0.1197052001953125
1772534687601670700,1.379670654296875,-0.9673919677734375,-0.06817626953125,-0.0994415283203125
1772534687611687700,1.389687744140625,-0.973297119140625,-0.0671539306640625,-0.076873779296875
1772534687621704700,1.39970458984375,-0.9694671630859375,-0.072174072265625,-0.04876708984375
1772534687631720700,1.409720703125,-0.971435546875,-0.0765228271484375,-0.022979736328125
1772534687641737700,1.41973779296875,-0.976043701171875,-0.08111572265625,-0.0023956298828125
1772534687651754800,1.429754638671875,-0.9742279052734375,-0.096160888671875,0.00262451171875
1772534687661771800,1.439771728515625,-0.972503662109375,-0.1109619140625,-0.0027008056640625
1772534687671788800,1.449788818359375,-0.9831695556640625,-0.126708984375,-0.0090179443359375
1772534687681804500,1.459804443359375,-0.9724273681640625,-0.1464996337890625,-0.018646240234375
1772534687691821800,1.46982177734375,-0.9607086181640625,-0.1603546142578125,-0.029998779296875
1772534687701838800,1.4798388671875,-0.96099853515625,-0.1711273193359375,-0.0315093994140625
1772534687711855600,1.489855712890625,-0.9486236572265625,-0.1836090087890625,-0.0351715087890625
1772534687721872000,1.499871826171875,-0.943267822265625,-0.1933441162109375,-0.0416107177734375
1772534687731889000,1.509888916015625,-0.9581298828125,-0.19671630859375,-0.046356201171875
1772534687741906200,1.51990625,-0.9665374755859375,-0.20050048828125,-0.047576904296875
1772534687751923200,1.529923095703125,-0.9741668701171875,-0.2059478759765625,-0.0569915771484375
1772534687761939200,1.539939208984375,-0.9785003662109375,-0.2058258056640625,-0.06097412109375
1772534687771956200,1.549956298828125,-0.975738525390625,-0.2075347900390625,-0.067230224609375
1772534687781973200,1.55997314453125,-0.97418212890625,-0.2034454345703125,-0.0794677734375
1772534687791990300,1.569990234375,-0.9748992919921875,-0.2038726806640625,-0.079071044921875
1772534687802007300,1.58000732421875,-0.9840545654296875,-0.2065582275390625,-0.080810546875
1772534687812023000,1.59002294921875,-0.985321044921875,-0.2098846435546875,-0.0820465087890625
1772534687822040300,1.600040283203125,-0.980926513671875,-0.2038116455078125,-0.0853271484375
1772534687832057300,1.610057373046875,-0.990020751953125,-0.1949462890625,-0.088165283203125
1772534687842074000,1.62007421875,-0.9922332763671875,-0.20123291015625,-0.09271240234375
1772534687852090400,1.63009033203125,-0.9922943115234375,-0.20648193359375,-0.106475830078125
1772534687862107400,1.640107421875,-1.00799560546875,-0.1983795166015625,-0.109619140625
1772534687872124200,1.650124267578125,-1.0305023193359375,-0.1905517578125,-0.1115570068359375
1772534687882141400,1.660141357421875,-1.0561981201171875,-0.1921844482421875,-0.1127166748046875
1772534687892158200,1.670158203125,-1.0936737060546875,-0.1920928955078125,-0.11248779296875
1772534687902174200,1.68017431640625,-1.1291351318359375,-0.188323974609375,-0.115936279296875
1772534687912191200,1.690191162109375,-1.15478515625,-0.1804962158203125,-0.1198272705078125
1772534687922208300,1.700208251953125,-1.178741455078125,-0.180023193359375,-0.1235198974609375
1772534687932225300,1.710225341796875,-1.1769866943359375,-0.1898193359375,-0.1325836181640625
1772534687942241300,1.7202412109375,-1.1746826171875,-0.193603515625,-0.1522674560546875
1772534687952258300,1.73025830078125,-1.1719818115234375,-0.1875762939453125,-0.1721649169921875
1772534687962275300,1.740275390625,-1.1778411865234375,-0.1841583251953125,-0.1810760498046875
1772534687972292000,1.7502919921875,-1.17266845703125,-0.178985595703125,-0.181121826171875
1772534687982308000,1.76030810546875,-1.16259765625,-0.1674041748046875,-0.1821136474609375
1772534687992325400,1.770325439453125,-1.1648406982421875,-0.1675872802734375,-0.1655120849609375
1772534688002342100,1.780342041015625,-1.163177490234375,-0.16900634765625,-0.141204833984375
1772534688012359400,1.790359375,-1.1652984619140625,-0.1609039306640625,-0.1297607421875
1772534688022376200,1.800376220703125,-1.1687774658203125,-0.1555328369140625,-0.1176605224609375
1772534688032392200,1.81039208984375,-1.1727447509765625,-0.14471435546875,-0.1060028076171875
1772534688042409200,1.8204091796875,-1.1781463623046875,-0.130767822265625,-0.1043243408203125
1772534688052426200,1.83042626953125,-1.1708526611328125,-0.117156982421875,-0.1060638427734375
1772534688062443300,1.840443359375,-1.156585693359375,-0.0984954833984375,-0.11553955078125
1772534688072459300,1.850459228515625,-1.14642333984375,-0.091278076171875,-0.1312713623046875
1772534688082476300,1.860476318359375,-1.127349853515625,-0.0900726318359375,-0.1473541259765625
1772534688092493300,1.870493408203125,-1.087371826171875,-0.074462890625,-0.163177490234375
1772534688102510300,1.88051025390625,-1.03704833984375,-0.0541229248046875,-0.1841888427734375
1772534688112527400,1.89052734375,-0.98419189453125,-0.0482177734375,-0.1837005615234375
1772534688122543400,1.90054345703125,-0.9283599853515625,-0.044281005859375,-0.181304931640625
1772534688132560100,1.91056005859375,-0.8917083740234375,-0.022552490234375,-0.184661865234375
1772534688142577200,1.9205771484375,-0.875091552734375,-0.0040283203125,-0.1763153076171875
1772534688152594400,1.930594482421875,-0.870269775390625,0.001220703125,-0.159637451171875
1772534688162610200,1.940610107421875,-0.8610382080078125,0.015228271484375,-0.154541015625
1772534688172627200,1.950627197265625,-0.8473968505859375,0.0174713134765625,-0.1602935791015625
1772534688182644500,1.96064453125,-0.8297882080078125,0.01458740234375,-0.1678466796875
1772534688192661200,1.9706611328125,-0.824432373046875,0.0133209228515625,-0.1772613525390625
1772534688202678300,1.98067822265625,-0.8038482666015625,0.0050201416015625,-0.1805267333984375
1772534688212694300,1.9906943359375,-0.7978515625,-0.0153350830078125,-0.1912384033203125
1772534688222711300,2.000711181640625,-0.800445556640625,-0.040130615234375,-0.1961822509765625
1772534688232728300,2.010728271484375,-0.808746337890625,-0.0620269775390625,-0.2004547119140625
1772534688242745000,2.0207451171875,-0.829010009765625,-0.0873260498046875,-0.1997528076171875
1772534688252761300,2.03076123046875,-0.85186767578125,-0.1082763671875,-0.19805908203125
1772534688262778400,2.0407783203125,-0.87689208984375,-0.126678466796875,-0.1954803466796875
1772534688272795100,2.050795166015625,-0.913909912109375,-0.140777587890625,-0.183624267578125
1772534688282812400,2.0608125,-0.949249267578125,-0.1533966064453125,-0.17034912109375
1772534688292828400,2.070828369140625,-0.96612548828125,-0.1673583984375,-0.1625213623046875
1772534688302845200,2.08084521484375,-0.9575347900390625,-0.1824951171875,-0.1516571044921875
1772534688312862200,2.0908623046875,-0.944580078125,-0.186676025390625,-0.1407470703125
1772534688322879200,2.100879150390625,-0.9168853759765625,-0.186065673828125,-0.1223297119140625
1772534688332896300,2.110896240234375,-0.8878021240234375,-0.188690185546875,-0.0957489013671875
1772534688342912300,2.120912353515625,-0.8630523681640625,-0.1956329345703125,-0.068634033203125
1772534688352929300,2.13092919921875,-0.8392333984375,-0.203125,-0.0452117919921875
1772534688362946300,2.1409462890625,-0.8210601806640625,-0.215362548828125,-0.0315093994140625
1772534688372963000,2.150963134765625,-0.8083038330078125,-0.2248992919921875,-0.0330352783203125
1772534688382979000,2.16097900390625,-0.8058929443359375,-0.2344512939453125,-0.0370330810546875
1772534688392996400,2.170996337890625,-0.79742431640625,-0.25592041015625,-0.0369873046875
1772534688403013000,2.18101318359375,-0.7839813232421875,-0.271270751953125,-0.0521240234375
1772534688413030100,2.191030029296875,-0.77801513671875,-0.277099609375,-0.066650390625
1772534688423047400,2.20104736328125,-0.77880859375,-0.2844390869140625,-0.063079833984375
1772534688433063200,2.211063232421875,-0.783782958984375,-0.287933349609375,-0.0581817626953125
1772534688443080200,2.221080078125,-0.8110198974609375,-0.2887420654296875,-0.0596160888671875
1772534688453097200,2.23109716796875,-0.88043212890625,-0.286956787109375,-0.051055908203125
1772534688463114200,2.2411142578125,-0.930572509765625,-0.297882080078125,-0.0406036376953125
1772534688473130200,2.251130126953125,-0.957000732421875,-0.3119659423828125,-0.0515594482421875
1772534688483147300,2.261147216796875,-0.970428466796875,-0.32147216796875,-0.073272705078125
1772534688493164300,2.271164306640625,-0.94384765625,-0.336212158203125,-0.088775634765625
1772534688503181300,2.281181396484375,-0.91510009765625,-0.3435516357421875,-0.08575439453125
1772534688513197000,2.291197021484375,-0.8887786865234375,-0.3411712646484375,-0.0779571533203125
1772534688523214300,2.30121435546875,-0.8611602783203125,-0.33538818359375,-0.0730133056640625
1772534688533231400,2.3112314453125,-0.8553314208984375,-0.3357391357421875,-0.0627288818359375
1772534688543248100,2.321248046875,-0.86944580078125,-0.33575439453125,-0.0579833984375
1772534688553265400,2.331265380859375,-0.89996337890625,-0.33349609375,-0.04864501953125
1772534688563281400,2.341281494140625,-0.9274139404296875,-0.33050537109375,-0.0423583984375
1772534688573298200,2.351298095703125,-0.9632568359375,-0.323638916015625,-0.0374603271484375
1772534688583315500,2.3613154296875,-0.986602783203125,-0.323028564453125,-0.0293121337890625
1772534688593332200,2.371332275390625,-1.0108489990234375,-0.314208984375,-0.022308349609375
1772534688603348200,2.38134814453125,-1.040863037109375,-0.3035888671875,-0.0160980224609375
1772534688613365200,2.391365234375,-1.0343780517578125,-0.2918243408203125,-0.02886962890625
1772534688623382300,2.40138232421875,-1.0424346923828125,-0.271453857421875,-0.0660858154296875
1772534688633399300,2.4113994140625,-1.0625762939453125,-0.2698211669921875,-0.087921142578125
1772534688643416000,2.421416015625,-1.0745697021484375,-0.2757568359375,-0.0926055908203125
1772534688653432300,2.431432373046875,-1.0956878662109375,-0.2658843994140625,-0.097900390625
1772534688663449300,2.441449462890625,-1.1201324462890625,-0.263214111328125,-0.094207763671875
1772534688673466000,2.451466064453125,-1.1489410400390625,-0.2672882080078125,-0.082977294921875
1772534688683483400,2.4614833984375,-1.1738433837890625,-0.2659759521484375,-0.073333740234375
1772534688693499400,2.47149951171875,-1.1902008056640625,-0.256622314453125,-0.0671539306640625
1772534688703516200,2.48151611328125,-1.1762847900390625,-0.2450408935546875,-0.0659637451171875
1772534688713533200,2.491533203125,-1.13531494140625,-0.2250823974609375,-0.068511962890625
1772534688723550200,2.50155029296875,-1.0832977294921875,-0.195220947265625,-0.065155029296875
1772534688733567200,2.511567138671875,-1.0263214111328125,-0.1737518310546875,-0.0516357421875
1772534688743583200,2.521583251953125,-0.9792633056640625,-0.1554107666015625,-0.0360565185546875
1772534688753600000,2.53160009765625,-0.9485931396484375,-0.1383056640625,-0.0175018310546875
1772534688763617000,2.541616943359375,-0.9281768798828125,-0.1248931884765625,0.0041351318359375
1772534688773634300,2.55163427734375,-0.9371490478515625,-0.111602783203125,0.0132598876953125
1772534688783650000,2.561650146484375,-0.94793701171875,-0.1166229248046875,0.0143585205078125
1772534688793667000,2.5716669921875,-0.9530029296875,-0.1172943115234375,-0.00201416015625
1772534688803684400,2.581684326171875,-0.9640045166015625,-0.1116943359375,-0.0243988037109375
1772534688813701000,2.591701171875,-0.9637908935546875,-0.113006591796875,-0.0551605224609375
1772534688823718100,2.60171826171875,-0.96221923828125,-0.113311767578125,-0.0822906494140625
1772534688833734100,2.611734130859375,-0.950958251953125,-0.112335205078125,-0.096527099609375
1772534688843751200,2.621751220703125,-0.9387664794921875,-0.11517333984375,-0.1054534912109375
1772534688853768200,2.631768310546875,-0.9370574951171875,-0.121826171875,-0.1089019775390625
1772534688863785000,2.641784912109375,-0.9417572021484375,-0.12255859375,-0.103973388671875
1772534688873801200,2.65180126953125,-0.953704833984375,-0.1197967529296875,-0.0950927734375
1772534688883818200,2.661818359375,-0.975616455078125,-0.119049072265625,-0.081573486328125
1772534688893835000,2.6718349609375,-1.0105438232421875,-0.1257781982421875,-0.0630950927734375
1772534688903852300,2.681852294921875,-1.0350799560546875,-0.138916015625,-0.0468902587890625
1772534688913868300,2.691868408203125,-1.0415802001953125,-0.1504974365234375,-0.0294036865234375
1772534688923885000,2.701885009765625,-1.042938232421875,-0.1538848876953125,-0.0073699951171875
1772534688933902000,2.711902099609375,-1.0277862548828125,-0.1553955078125,-0.0010986328125
1772534688943919000,2.721919189453125,-1.0113372802734375,-0.159912109375,-0.010406494140625
1772534688953936100,2.73193603515625,-0.98162841796875,-0.16302490234375,-0.027740478515625
1772534688963952000,2.7419521484375,-0.957977294921875,-0.174346923828125,-0.02862548828125
1772534688973969200,2.75196923828125,-0.9468536376953125,-0.182098388671875,-0.028167724609375
1772534688983986200,2.761986083984375,-0.9383697509765625,-0.1835784912109375,-0.0298004150390625
1772534688994003000,2.7720029296875,-0.939483642578125,-0.1834564208984375,-0.0299224853515625
1772534689004019000,2.78201904296875,-0.9443206787109375,-0.1844635009765625,-0.0282745361328125
1772534689014036200,2.7920361328125,-0.9537811279296875,-0.19049072265625,-0.027862548828125
1772534689024053000,2.802052978515625,-0.9725799560546875,-0.198394775390625,-0.0269622802734375
1772534689034070300,2.8120703125,-0.9845123291015625,-0.20654296875,-0.031951904296875
1772534689044087300,2.82208740234375,-0.990631103515625,-0.2199249267578125,-0.0508880615234375
1772534689054103000,2.83210302734375,-0.9945220947265625,-0.23590087890625,-0.0708770751953125
1772534689064120000,2.8421201171875,-0.98321533203125,-0.249176025390625,-0.0848846435546875
1772534689074137000,2.85213720703125,-0.961090087890625,-0.256866455078125,-0.095306396484375
1772534689084154000,2.862154052734375,-0.9372406005859375,-0.2650909423828125,-0.1013336181640625
1772534689094170000,2.872170166015625,-0.9157257080078125,-0.2669830322265625,-0.1089935302734375
1772534689104187100,2.882187255859375,-0.9095306396484375,-0.2709503173828125,-0.1092987060546875
1772534689114204200,2.8922041015625,-0.910430908203125,-0.2799530029296875,-0.109161376953125
1772534689124221200,2.90222119140625,-0.9125823974609375,-0.285888671875,-0.108001708984375
1772534689134238200,2.91223828125,-0.9131622314453125,-0.285125732421875,-0.1059417724609375
1772534689144254200,2.922254150390625,-0.9178924560546875,-0.2783355712890625,-0.1074676513671875
1772534689154271200,2.932271240234375,-0.9161834716796875,-0.2740325927734375,-0.0998382568359375
1772534689164288000,2.9422880859375,-0.91278076171875,-0.267730712890625,-0.0942840576171875
1772534689174305300,2.95230517578125,-0.9005279541015625,-0.265350341796875,-0.0867156982421875
1772534689184321300,2.9623212890625,-0.8890228271484375,-0.257354736328125,-0.0701751708984375
1772534689194338000,2.972338134765625,-0.8870849609375,-0.2386322021484375,-0.059661865234375
1772534689204355300,2.982355224609375,-0.89776611328125,-0.2242889404296875,-0.0680084228515625
1772534689214372000,2.9923720703125,-0.9226837158203125,-0.222869873046875,-0.0896759033203125
1772534689224389000,3.00238916015625,-0.9461517333984375,-0.2306060791015625,-0.11224365234375
1772534689234405000,3.012405029296875,-0.976165771484375,-0.22967529296875,-0.1257171630859375
1772534689244422100,3.022422119140625,-1.002410888671875,-0.22552490234375,-0.126129150390625
1772534689254439200,3.032439208984375,-1.009674072265625,-0.2261810302734375,-0.127349853515625
1772534689264456000,3.0424560546875,-1.0202484130859375,-0.2226409912109375,-0.1322174072265625
1772534689274472200,3.05247216796875,-1.0310516357421875,-0.2171173095703125,-0.131256103515625
1772534689284489200,3.0624892578125,-1.040008544921875,-0.212646484375,-0.135589599609375
1772534689294506000,3.072506103515625,-1.045654296875,-0.20672607421875,-0.1570892333984375
1772534689304523300,3.082523193359375,-1.053619384765625,-0.1927490234375,-0.1795501708984375
1772534689314539300,3.092539306640625,-1.0678253173828125,-0.1849365234375,-0.1983489990234375
1772534689324556000,3.10255615234375,-1.0768890380859375,-0.1827239990234375,-0.2205047607421875
1772534689334573000,3.112572998046875,-1.0921630859375,-0.168212890625,-0.24603271484375
1772534689344590000,3.122590087890625,-1.11138916015625,-0.1512603759765625,-0.256561279296875
1772534689354607000,3.132607177734375,-1.120574951171875,-0.14691162109375,-0.25885009765625
1772534689364623000,3.142623046875,-1.1352691650390625,-0.1492767333984375,-0.2567596435546875
1772534689374640000,3.15264013671875,-1.1591033935546875,-0.149658203125,-0.2579193115234375
1772534689384657200,3.1626572265625,-1.178070068359375,-0.155914306640625,-0.2626800537109375
1772534689394674200,3.172674072265625,-1.1803436279296875,-0.1664276123046875,-0.2627716064453125
1772534689404690000,3.18268994140625,-1.179168701171875,-0.17279052734375,-0.2550506591796875
1772534689414707200,3.192707275390625,-1.1746978759765625,-0.173095703125,-0.2355194091796875
1772534689424724200,3.20272412109375,-1.15167236328125,-0.164154052734375,-0.202911376953125
1772534689434741000,3.212740966796875,-1.1196136474609375,-0.14300537109375,-0.1698150634765625
1772534689444758300,3.22275830078125,-1.087860107421875,-0.124786376953125,-0.1409454345703125
1772534689454774000,3.23277392578125,-1.04949951171875,-0.1137542724609375,-0.1067352294921875
1772534689464791000,3.242791015625,-1.0099945068359375,-0.0965118408203125,-0.0859375
1772534689474808300,3.252808349609375,-0.9716033935546875,-0.0762481689453125,-0.070098876953125
1772534689484825000,3.2628251953125,-0.945556640625,-0.05889892578125,-0.05511474609375
1772534689494841000,3.272841064453125,-0.91546630859375,-0.0527496337890625,-0.0432586669921875
1772534689504858400,3.2828583984375,-0.890869140625,-0.0558929443359375,-0.0391845703125
1772534689514875100,3.292875244140625,-0.882415771484375,-0.0625762939453125,-0.04962158203125
1772534689524892200,3.30289208984375,-0.86981201171875,-0.079010009765625,-0.0695953369140625
1772534689534909200,3.3129091796875,-0.8692626953125,-0.10296630859375,-0.0824127197265625
1772534689544925200,3.32292529296875,-0.8796234130859375,-0.1282958984375,-0.0924530029296875
1772534689554942200,3.332942138671875,-0.8908843994140625,-0.1553192138671875,-0.1134185791015625
1772534689564959000,3.342958984375,-0.91986083984375,-0.1807861328125,-0.1521148681640625
1772534689574976300,3.352976318359375,-0.946441650390625,-0.207305908203125,-0.1826934814453125
1772534689584992300,3.3629921875,-0.9663238525390625,-0.2394561767578125,-0.2122650146484375
1772534689595009000,3.373009033203125,-0.97637939453125,-0.2682952880859375,-0.2432861328125
1772534689605026300,3.3830263671875,-0.9715423583984375,-0.29046630859375,-0.26092529296875
1772534689615043000,3.39304296875,-0.9459381103515625,-0.303802490234375,-0.27020263671875
1772534689625060000,3.40306005859375,-0.9127349853515625,-0.30810546875,-0.26763916015625
1772534689635076000,3.413076171875,-0.868408203125,-0.3058013916015625,-0.2426605224609375
1772534689645093000,3.423093017578125,-0.8334808349609375,-0.28546142578125,-0.205780029296875
1772534689655110100,3.433110107421875,-0.811798095703125,-0.2669830322265625,-0.160614013671875
1772534689665127000,3.443126953125,-0.79730224609375,-0.250885009765625,-0.12030029296875
1772534689675143200,3.45314306640625,-0.78955078125,-0.2401275634765625,-0.0879669189453125
1772534689685160200,3.46316015625,-0.788116455078125,-0.2348785400390625,-0.06243896484375
1772534689695177000,3.473177001953125,-0.794036865234375,-0.23345947265625,-0.04888916015625
1772534689705194200,3.4831943359375,-0.8161468505859375,-0.2359619140625,-0.04248046875
1772534689715211300,3.493211181640625,-0.8184814453125,-0.2528228759765625,-0.0472564697265625
1772534689725227000,3.50322705078125,-0.8248443603515625,-0.26416015625,-0.0565948486328125
1772534689735244000,3.513244140625,-0.816253662109375,-0.2746734619140625,-0.0758209228515625
1772534689745261300,3.52326123046875,-0.8007659912109375,-0.2855682373046875,-0.0987091064453125
1772534689755278000,3.533278076171875,-0.7907257080078125,-0.302337646484375,-0.1038665771484375
1772534689765294000,3.543294189453125,-0.7685089111328125,-0.3163299560546875,-0.113922119140625
1772534689775311000,3.55331103515625,-0.7439117431640625,-0.3245391845703125,-0.13043212890625
1772534689785328000,3.563328125,-0.7431488037109375,-0.3265380859375,-0.13787841796875
1772534689795345200,3.57334521484375,-0.7534332275390625,-0.3284759521484375,-0.1366119384765625
1772534689805361200,3.583361083984375,-0.7757110595703125,-0.3327789306640625,-0.12896728515625
1772534689815378200,3.593378173828125,-0.821533203125,-0.3389892578125,-0.1153411865234375
1772534689825395200,3.603395263671875,-0.8714599609375,-0.344390869140625,-0.1009063720703125
1772534689835412000,3.613411865234375,-0.90875244140625,-0.3532562255859375,-0.0894317626953125
1772534689845429200,3.62342919921875,-0.938262939453125,-0.3508758544921875,-0.0794525146484375
1772534689855445200,3.6334453125,-0.9638519287109375,-0.344329833984375,-0.073577880859375
1772534689865462000,3.6434619140625,-0.979583740234375,-0.3451995849609375,-0.0699615478515625
1772534689875479300,3.653479248046875,-0.9880828857421875,-0.3418121337890625,-0.0757293701171875
1772534689885496000,3.66349609375,-0.9947967529296875,-0.339111328125,-0.0837860107421875
1772534689895513000,3.67351318359375,-1.00439453125,-0.3381500244140625,-0.0896148681640625
1772534689905529000,3.683529052734375,-1.0101470947265625,-0.343780517578125,-0.099273681640625
1772534689915546000,3.693546142578125,-1.010040283203125,-0.349273681640625,-0.11370849609375
1772534689925563100,3.703563232421875,-1.004638671875,-0.35479736328125,-0.12615966796875
1772534689935580200,3.713580078125,-1.001495361328125,-0.3561553955078125,-0.132232666015625
1772534689945596200,3.72359619140625,-0.9990997314453125,-0.345794677734375,-0.132537841796875
1772534689955613200,3.73361328125,-0.9924468994140625,-0.3265838623046875,-0.1336212158203125
1772534689965630000,3.7436298828125,-0.9867401123046875,-0.3041229248046875,-0.1338043212890625
1772534689975647200,3.753647216796875,-0.9756317138671875,-0.28497314453125,-0.1264495849609375
1772534689985664300,3.763664306640625,-0.981658935546875,-0.2595367431640625,-0.1142425537109375
1772534689995680000,3.773679931640625,-1.0019683837890625,-0.2389068603515625,-0.094390869140625
1772534690005697300,3.783697265625,-1.0338134765625,-0.2177886962890625,-0.07647705078125
1772534690015714000,3.793714111328125,-1.081512451171875,-0.1998291015625,-0.0768585205078125
1772534690025731000,3.80373095703125,-1.1161651611328125,-0.189361572265625,-0.09478759765625
1772534690035747000,3.8137470703125,-1.1436767578125,-0.1852569580078125,-0.1221160888671875
1772534690045764000,3.82376416015625,-1.1382904052734375,-0.1825408935546875,-0.146514892578125
1772534690055781000,3.833781005859375,-1.1059417724609375,-0.1736602783203125,-0.1651153564453125
1772534690065798100,3.843798095703125,-1.0763702392578125,-0.16961669921875,-0.15924072265625
1772534690075814100,3.853814208984375,-1.040557861328125,-0.15606689453125,-0.1470489501953125
1772534690085831200,3.8638310546875,-1.026763916015625,-0.141082763671875,-0.12701416015625
1772534690095848200,3.87384814453125,-1.0352325439453125,-0.130615234375,-0.0970916748046875
1772534690105865200,3.883865234375,-1.052154541015625,-0.116851806640625,-0.072723388671875
1772534690115882200,3.89388232421875,-1.073760986328125,-0.1054229736328125,-0.0527801513671875
1772534690125898200,3.903898193359375,-1.0844573974609375,-0.095367431640625,-0.0428619384765625
1772534690135915000,3.9139150390625,-1.08917236328125,-0.086883544921875,-0.0351715087890625
1772534690145932300,3.923932373046875,-1.0971527099609375,-0.0802154541015625,-0.0267791748046875
1772534690155949000,3.933948974609375,-1.1021881103515625,-0.0762481689453125,-0.0281829833984375
1772534690165965000,3.943965087890625,-1.1148223876953125,-0.084320068359375,-0.0383758544921875
1772534690175982300,3.953982421875,-1.1252593994140625,-0.1029510498046875,-0.0579376220703125
1772534690185999000,3.9639990234375,-1.1344757080078125,-0.1174774169921875,-0.0742034912109375
1772534690196016000,3.97401611328125,-1.1390380859375,-0.12677001953125,-0.091949462890625
1772534690206033200,3.984033203125,-1.1306915283203125,-0.136932373046875,-0.1132049560546875
1772534690216049200,3.994049072265625,-1.1142730712890625,-0.1500091552734375,-0.1354827880859375
1772534690226066200,4.004066162109375,-1.0821685791015625,-0.1646728515625,-0.143524169921875
1772534690236083000,4.0140830078125,-1.02215576171875,-0.1704254150390625,-0.13836669921875
1772534690246100200,4.024100341796875,-0.9730987548828125,-0.16802978515625,-0.1224517822265625
1772534690256116200,4.0341162109375,-0.9169464111328125,-0.1647491455078125,-0.0946197509765625
1772534690266133000,4.044133056640625,-0.877655029296875,-0.1540374755859375,-0.0681915283203125
1772534690276150300,4.054150390625,-0.850006103515625,-0.1473236083984375,-0.048248291015625
1772534690286167000,4.0641669921875,-0.8269195556640625,-0.1462860107421875,-0.0287322998046875
1772534690296184000,4.07418408203125,-0.82122802734375,-0.148223876953125,-0.0188751220703125
1772534690306200000,4.084199951171875,-0.817230224609375,-0.15643310546875,-0.0041046142578125
1772534690316217000,4.094217041015625,-0.821929931640625,-0.16119384765625,0.012481689453125
1772534690326234000,4.104234130859375,-0.8091888427734375,-0.1630401611328125,0.01910400390625
1772534690336251100,4.114251220703125,-0.806671142578125,-0.1735382080078125,0.0181427001953125
1772534690346267100,4.12426708984375,-0.800018310546875,-0.1735992431640625,0.0085296630859375
1772534690356284200,4.1342841796875,-0.80987548828125,-0.177978515625,-0.00689697265625
1772534690366301200,4.14430126953125,-0.8256378173828125,-0.1974334716796875,-0.0247802734375
1772534690376318200,4.154318115234375,-0.8468170166015625,-0.2144775390625,-0.0450897216796875
1772534690386335200,4.164335205078125,-0.8682708740234375,-0.2282257080078125,-0.071563720703125
1772534690396351000,4.17435107421875,-0.890350341796875,-0.2418060302734375,-0.092529296875
1772534690406368300,4.1843681640625,-0.91619873046875,-0.2567901611328125,-0.1064453125
1772534690416385300,4.19438525390625,-0.933441162109375,-0.2650146484375,-0.108489990234375
1772534690426402000,4.204402099609375,-0.938262939453125,-0.271759033203125,-0.1013336181640625
1772534690436418000,4.21441796875,-0.932159423828125,-0.273712158203125,-0.09307861328125
1772534690446435300,4.224435302734375,-0.9178924560546875,-0.2664337158203125,-0.0881195068359375
1772534690456452000,4.2344521484375,-0.904388427734375,-0.248626708984375,-0.0802764892578125
1772534690466469000,4.24446923828125,-0.8953094482421875,-0.2324066162109375,-0.0726470947265625
1772534690476486100,4.254486083984375,-0.8953399658203125,-0.22174072265625,-0.0668182373046875
1772534690486502100,4.264502197265625,-0.90509033203125,-0.2176971435546875,-0.063018798828125
1772534690496519200,4.274519287109375,-0.9257049560546875,-0.214080810546875,-0.06390380859375
1772534690506536200,4.2845361328125,-0.957916259765625,-0.205810546875,-0.07916259765625
1772534690516553200,4.29455322265625,-0.9754638671875,-0.20892333984375,-0.093994140625
1772534690526569200,4.3045693359375,-0.9937591552734375,-0.216339111328125,-0.10113525390625
1772534690536586000,4.3145859375,-1.0137176513671875,-0.2228546142578125,-0.109375
1772534690546603300,4.324603271484375,-1.0247802734375,-0.228515625,-0.13018798828125
1772534690556620000,4.3346201171875,-1.033538818359375,-0.2327423095703125,-0.1505584716796875
1772534690566637000,4.344636962890625,-1.04071044921875,-0.239410400390625,-0.16259765625
1772534690576653300,4.3546533203125,-1.0394744873046875,-0.235321044921875,-0.1833343505859375
1772534690586670000,4.364670166015625,-1.033447265625,-0.226470947265625,-0.1976470947265625
1772534690596687000,4.37468701171875,-1.0269622802734375,-0.215087890625,-0.19805908203125
1772534690606704000,4.3847041015625,-1.0205078125,-0.2024078369140625,-0.1847686767578125
1772534690616720100,4.39472021484375,-1.00921630859375,-0.1990509033203125,-0.15484619140625
1772534690626737200,4.404737060546875,-0.99139404296875,-0.2000732421875,-0.134735107421875
1772534690636754000,4.41475390625,-0.9802093505859375,-0.188232421875,-0.1349334716796875
1772534690646771200,4.424771240234375,-0.977325439453125,-0.1686553955078125,-0.1302642822265625
1772534690656788200,4.434788330078125,-0.99432373046875,-0.1591033935546875,-0.1147308349609375
1772534690666804000,4.444803955078125,-1.0192108154296875,-0.16278076171875,-0.0981597900390625
1772534690676821200,4.4548212890625,-1.0577239990234375,-0.167938232421875,-0.089874267578125
1772534690686838300,4.46483837890625,-1.1009063720703125,-0.167694091796875,-0.08905029296875
1772534690696855000,4.47485498046875,-1.1428070068359375,-0.174407958984375,-0.0919952392578125
1772534690706871000,4.48487109375,-1.178009033203125,-0.1808013916015625,-0.11273193359375
1772534690716888000,4.49488818359375,-1.1930084228515625,-0.1782989501953125,-0.14105224609375
1772534690726905000,4.504905029296875,-1.1948089599609375,-0.1706695556640625,-0.1639251708984375
1772534690736922000,4.514922119140625,-1.189300537109375,-0.1570892333984375,-0.180206298828125
1772534690746938600,4.524938720703125,-1.1590423583984375,-0.145843505859375,-0.192291259765625
1772534690756954600,4.53495458984375,-1.1290130615234375,-0.1328887939453125,-0.1986846923828125
1772534690766971600,4.5449716796875,-1.088958740234375,-0.1167755126953125,-0.191650390625
1772534690776988700,4.55498876953125,-1.048980712890625,-0.1035614013671875,-0.1761016845703125
1772534690787005700,4.565005615234375,-1.0247039794921875,-0.09869384765625,-0.1506195068359375
1772534690797021700,4.575021728515625,-1.016510009765625,-0.1009521484375,-0.1256561279296875
1772534690807038500,4.58503857421875,-1.024322509765625,-0.10455322265625,-0.1090240478515625
1772534690817055700,4.5950556640625,-1.038360595703125,-0.118865966796875,-0.1121826171875
1772534690827072500,4.605072509765625,-1.0547027587890625,-0.1417388916015625,-0.1357879638671875
1772534690837089500,4.615089599609375,-1.0616912841796875,-0.174224853515625,-0.1558990478515625
1772534690847105800,4.625105712890625,-1.0512847900390625,-0.215362548828125,-0.1610107421875
1772534690857122600,4.63512255859375,-1.0286407470703125,-0.2440643310546875,-0.167510986328125
1772534690867139600,4.6451396484375,-1.001617431640625,-0.25567626953125,-0.16534423828125
1772534690877156600,4.655156494140625,-0.967864990234375,-0.2547760009765625,-0.1561126708984375
1772534690887172600,4.665172607421875,-0.923828125,-0.2528228759765625,-0.142242431640625
1772534690897189600,4.675189697265625,-0.8834075927734375,-0.2442474365234375,-0.131256103515625
1772534690907206700,4.68520654296875,-0.851837158203125,-0.2365264892578125,-0.118408203125
1772534690917223700,4.6952236328125,-0.828216552734375,-0.235504150390625,-0.10760498046875
1772534690927240700,4.70524072265625,-0.8103790283203125,-0.2357635498046875,-0.098785400390625
1772534690937256400,4.71525634765625,-0.7978668212890625,-0.2406158447265625,-0.0768585205078125
1772534690947273700,4.725273681640625,-0.7953338623046875,-0.244110107421875,-0.0534515380859375
1772534690957290800,4.735290771484375,-0.8002471923828125,-0.24481201171875,-0.0352020263671875
1772534690967307500,4.7453076171875,-0.791900634765625,-0.2544403076171875,-0.026611328125
1772534690977323500,4.755323486328125,-0.7777557373046875,-0.2702484130859375,-0.032989501953125
1772534690987340800,4.7653408203125,-0.78240966796875,-0.2845001220703125,-0.058197021484375
1772534690997357600,4.775357666015625,-0.777679443359375,-0.307464599609375,-0.085174560546875
1772534691007374600,4.78537451171875,-0.7869415283203125,-0.3242645263671875,-0.113739013671875
1772534691017391600,4.7953916015625,-0.828338623046875,-0.3413848876953125,-0.1233367919921875
1772534691027407600,4.80540771484375,-0.8739471435546875,-0.36126708984375,-0.110198974609375
1772534691037424600,4.815424560546875,-0.911468505859375,-0.3654327392578125,-0.1095428466796875
1772534691047441700,4.825441650390625,-0.9338226318359375,-0.3783721923828125,-0.10687255859375
1772534691057458700,4.835458740234375,-0.9389495849609375,-0.392791748046875,-0.0955352783203125
1772534691067474700,4.845474609375,-0.9312896728515625,-0.3908843994140625,-0.090667724609375
1772534691077491500,4.855491455078125,-0.923126220703125,-0.3813629150390625,-0.079986572265625
1772534691087508700,4.8655087890625,-0.92156982421875,-0.36962890625,-0.0622406005859375
1772534691097525500,4.875525390625,-0.913665771484375,-0.350128173828125,-0.0516357421875
1772534691107542800,4.885542724609375,-0.9091796875,-0.3277587890625,-0.039215087890625
1772534691117558800,4.895558837890625,-0.904205322265625,-0.3071136474609375,-0.02105712890625
1772534691127575600,4.905575439453125,-0.901336669921875,-0.2872772216796875,-0.0054473876953125
1772534691137592600,4.915592529296875,-0.9101104736328125,-0.268035888671875,0.01153564453125
1772534691147609600,4.925609619140625,-0.9373779296875,-0.2502899169921875,0.016754150390625
1772534691157626600,4.935626708984375,-0.9707183837890625,-0.2453460693359375,-0.0053253173828125
1772534691167642600,4.945642578125,-0.9857177734375,-0.2494049072265625,-0.0370025634765625
1772534691177659600,4.95565966796875,-1.0010833740234375,-0.24176025390625,-0.06787109375
1772534691187676700,4.9656767578125,-0.9990081787109375,-0.226837158203125,-0.088165283203125
1772534691197693700,4.975693603515625,-0.980560302734375,-0.2172088623046875,-0.0848541259765625
1772534691207709400,4.98570947265625,-0.968658447265625,-0.208984375,-0.06292724609375
1772534691217726700,4.995726806640625,-0.96875,-0.1968231201171875,-0.0442962646484375
1772534691227743700,5.00574365234375,-0.9979705810546875,-0.170013427734375,-0.0516204833984375
1772534691237760500,5.015760498046875,-1.032440185546875,-0.156768798828125,-0.08062744140625
1772534691247777800,5.02577783203125,-1.0640411376953125,-0.1569366455078125,-0.1134033203125
1772534691257793800,5.035793701171875,-1.0999298095703125,-0.16253662109375,-0.140228271484375
1772534691267810600,5.045810546875,-1.1261444091796875,-0.186920166015625,-0.1504364013671875
1772534691277827800,5.055827880859375,-1.1627044677734375,-0.22088623046875,-0.152862548828125
1772534691287844600,5.0658447265625,-1.2060089111328125,-0.2433013916015625,-0.1443939208984375
1772534691297860600,5.075860595703125,-1.233551025390625,-0.2645111083984375,-0.140960693359375
1772534691307877600,5.085877685546875,-1.2449493408203125,-0.2750396728515625,-0.1544189453125
1772534691317894700,5.095894775390625,-1.2424774169921875,-0.26214599609375,-0.163238525390625
1772534691327911700,5.10591162109375,-1.228485107421875,-0.2375640869140625,-0.15460205078125
1772534691337928400,5.115928466796875,-1.21710205078125,-0.21942138671875,-0.132843017578125
1772534691347944700,5.12594482421875,-1.1984100341796875,-0.2045440673828125,-0.1067657470703125
1772534691357961700,5.135961669921875,-1.16815185546875,-0.189361572265625,-0.0868682861328125
1772534691367978500,5.145978515625,-1.1336212158203125,-0.17266845703125,-0.074066162109375
1772534691377995800,5.155995849609375,-1.09674072265625,-0.1631317138671875,-0.063201904296875
1772534691388012500,5.166012451171875,-1.05377197265625,-0.154937744140625,-0.06451416015625
1772534691398028500,5.176028564453125,-1.023590087890625,-0.1495361328125,-0.0771636962890625
1772534691408045600,5.186045654296875,-0.9936370849609375,-0.16119384765625,-0.0973358154296875
1772534691418062600,5.1960625,-0.9577484130859375,-0.1750030517578125,-0.1150054931640625
1772534691428079600,5.20607958984375,-0.9193267822265625,-0.1786346435546875,-0.121307373046875
1772534691438095600,5.216095703125,-0.87884521484375,-0.1712646484375,-0.1203765869140625
1772534691448112600,5.226112548828125,-0.8443603515625,-0.1696929931640625,-0.107574462890625
1772534691458129700,5.236129638671875,-0.8254547119140625,-0.1651458740234375,-0.08001708984375
1772534691468146700,5.246146728515625,-0.8173828125,-0.151458740234375,-0.0508270263671875
1772534691478163700,5.256163818359375,-0.8158416748046875,-0.138092041015625,-0.0260467529296875
1772534691488179700,5.2661796875,-0.8321533203125,-0.13189697265625,-0.0055999755859375
1772534691498196500,5.276196533203125,-0.8417816162109375,-0.14013671875,0.0191650390625
1772534691508213500,5.286213623046875,-0.8551483154296875,-0.14495849609375,0.03759765625
1772534691518230800,5.296230712890625,-0.856353759765625,-0.1534423828125,0.0519256591796875
1772534691528246500,5.30624658203125,-0.866851806640625,-0.16265869140625,0.0607452392578125
1772534691538263600,5.316263671875,-0.8653717041015625,-0.179962158203125,0.0611572265625
1772534691552036600,5.33003662109375,-0.850006103515625,-0.1997528076171875,0.04571533203125
1772534691562679600,5.340679443359375,-0.8345794677734375,-0.2114715576171875,0.027923583984375
1772534691572696600,5.350696533203125,-0.8214263916015625,-0.22314453125,0.00946044921875
1772534691582712600,5.360712646484375,-0.820098876953125,-0.2287750244140625,-0.0111541748046875
1772534691592729600,5.3707294921875,-0.833892822265625,-0.22894287109375,-0.0236053466796875
1772534691602746600,5.38074658203125,-0.8640289306640625,-0.2291717529296875,-0.0311279296875
1772534691612763600,5.390763671875,-0.8972930908203125,-0.2329864501953125,-0.03839111328125
1772534691622779600,5.400779541015625,-0.93585205078125,-0.2392425537109375,-0.0461578369140625
1772534691632796400,5.41079638671875,-0.96099853515625,-0.2471466064453125,-0.053863525390625
1772534691642813700,5.420813720703125,-0.9482269287109375,-0.2530670166015625,-0.0688323974609375
1772534691652830700,5.430830810546875,-0.9306793212890625,-0.2575531005859375,-0.08154296875
1772534691662847700,5.44084765625,-0.8954010009765625,-0.2597808837890625,-0.108917236328125
1772534691672863700,5.45086376953125,-0.8719635009765625,-0.2593231201171875,-0.1252288818359375
1772534691682880800,5.460880859375,-0.85040283203125,-0.2649993896484375,-0.12957763671875
1772534691692897500,5.4708974609375,-0.8413238525390625,-0.266998291015625,-0.132568359375
1772534691702914800,5.480914794921875,-0.8347625732421875,-0.26593017578125,-0.1308135986328125
1772534691712931600,5.490931640625,-0.851531982421875,-0.263214111328125,-0.121856689453125
1772534691722947600,5.500947509765625,-0.8798828125,-0.258758544921875,-0.11346435546875
1772534691732964900,5.51096484375,-0.91046142578125,-0.25750732421875,-0.1139678955078125
1772534691742981600,5.520981689453125,-0.94598388671875,-0.260345458984375,-0.115234375
1772534691752998700,5.53099853515625,-0.9731903076171875,-0.2589111328125,-0.116668701171875
1772534691763014700,5.5410146484375,-0.995147705078125,-0.256988525390625,-0.11578369140625
1772534691773031700,5.55103173828125,-0.986968994140625,-0.25872802734375,-0.1121063232421875
1772534691783048700,5.561048583984375,-0.9727783203125,-0.2537078857421875,-0.1108245849609375
1772534691793065500,5.5710654296875,-0.959869384765625,-0.2471466064453125,-0.104583740234375
1772534691803082800,5.581082763671875,-0.946319580078125,-0.246551513671875,-0.1078643798828125
1772534691813098800,5.5910986328125,-0.962127685546875,-0.2364044189453125,-0.1118011474609375
1772534691823115500,5.601115478515625,-0.9798736572265625,-0.22857666015625,-0.1005859375
1772534691833132800,5.6111328125,-0.993011474609375,-0.23272705078125,-0.0895233154296875
1772534691843149600,5.621149658203125,-1.012969970703125,-0.24188232421875,-0.089111328125
1772534691853166600,5.63116650390625,-1.0184783935546875,-0.24615478515625,-0.0943450927734375
1772534691863182600,5.6411826171875,-1.0240478515625,-0.249267578125,-0.0972442626953125
1772534691873199600,5.65119970703125,-1.043426513671875,-0.2603302001953125,-0.092681884765625
1772534691883216600,5.661216552734375,-1.075164794921875,-0.276611328125,-0.08404541015625
1772534691893233700,5.671233642578125,-1.1405487060546875,-0.29248046875,-0.08013916015625
1772534691903249700,5.681249755859375,-1.2169647216796875,-0.3072509765625,-0.0702667236328125
1772534691913266700,5.6912666015625,-1.283172607421875,-0.3180999755859375,-0.06805419921875
1772534691923283500,5.701283447265625,-1.324615478515625,-0.3148040771484375,-0.07928466796875
1772534691933300700,5.71130078125,-1.3434906005859375,-0.297760009765625,-0.0768890380859375
1772534691943317800,5.72131787109375,-1.332550048828125,-0.2773284912109375,-0.069549560546875
1772534691953334500,5.73133447265625,-1.2917633056640625,-0.2506866455078125,-0.0620269775390625
1772534691963350500,5.7413505859375,-1.2366790771484375,-0.2279510498046875,-0.0528411865234375
1772534691973367800,5.751367919921875,-1.1861114501953125,-0.212677001953125,-0.0404205322265625
1772534691983384600,5.761384521484375,-1.129547119140625,-0.205413818359375,-0.030517578125
1772534691993401600,5.771401611328125,-1.084808349609375,-0.19842529296875,-0.0228271484375
1772534692003418600,5.781418701171875,-1.05780029296875,-0.193511962890625,-0.018280029296875
1772534692013434600,5.7914345703125,-1.044708251953125,-0.186676025390625,-0.0225830078125
1772534692023451600,5.80145166015625,-1.0585174560546875,-0.1780853271484375,-0.0313873291015625
1772534692033468700,5.81146875,-1.0817108154296875,-0.179229736328125,-0.045379638671875
1772534692043485700,5.821485595703125,-1.104705810546875,-0.18603515625,-0.075958251953125
1772534692053501700,5.831501708984375,-1.1270751953125,-0.20062255859375,-0.1101226806640625
1772534692063518500,5.8415185546875,-1.13018798828125,-0.2161102294921875,-0.142425537109375
1772534692073535700,5.85153564453125,-1.11505126953125,-0.23089599609375,-0.1718292236328125
1772534692083552500,5.861552490234375,-1.07757568359375,-0.24639892578125,-0.199249267578125
1772534692093569800,5.87156982421875,-1.03497314453125,-0.2611846923828125,-0.2144622802734375
1772534692103585800,5.881585693359375,-0.9789276123046875,-0.2733306884765625,-0.2194976806640625
1772534692113602600,5.8916025390625,-0.9124298095703125,-0.2753448486328125,-0.2197418212890625
1772534692123619600,5.90161962890625,-0.84539794921875,-0.2745513916015625,-0.2089996337890625
1772534692133636600,5.91163671875,-0.7790985107421875,-0.2717132568359375,-0.1861114501953125
1772534692143653600,5.921653564453125,-0.7218017578125,-0.268798828125,-0.1510162353515625
1772534692153669600,5.931669677734375,-0.673248291015625,-0.265716552734375,-0.117828369140625
1772534692163686700,5.941686767578125,-0.6321563720703125,-0.2623291015625,-0.0823211669921875
1772534692173703700,5.95170361328125,-0.6112518310546875,-0.24871826171875,-0.0512542724609375
1772534692183720700,5.961720703125,-0.608795166015625,-0.228424072265625,-0.0303497314453125
1772534692193736400,5.971736328125,-0.618743896484375,-0.224578857421875,-0.0148162841796875
1772534692203753700,5.981753662109375,-0.6530609130859375,-0.222686767578125,-0.010284423828125
1772534692213770800,5.991770751953125,-0.720611572265625,-0.2379302978515625,-0.0098114013671875
1772534692223787500,6.00178759765625,-0.7498931884765625,-0.274383544921875,-0.0194854736328125
1772534692233804800,6.0118046875,-0.769561767578125,-0.290191650390625,-0.04473876953125
1772534692243820500,6.021820556640625,-0.773712158203125,-0.2918243408203125,-0.0771331787109375
1772534692253837600,6.031837646484375,-0.766998291015625,-0.3014068603515625,-0.094085693359375
1772534692263854800,6.041854736328125,-0.758544921875,-0.3040924072265625,-0.105560302734375
1772534692273871600,6.05187158203125,-0.746307373046875,-0.3097381591796875,-0.1142120361328125
1772534692283887600,6.0618876953125,-0.740234375,-0.3184051513671875,-0.1229400634765625
1772534692293904600,6.071904541015625,-0.754547119140625,-0.3246002197265625,-0.139984130859375
1772534692303921700,6.081921630859375,-0.7763824462890625,-0.3387908935546875,-0.1536712646484375
1772534692313938700,6.091938720703125,-0.7976226806640625,-0.3553924560546875,-0.157989501953125
1772534692323955500,6.10195556640625,-0.803009033203125,-0.357269287109375,-0.1520538330078125
1772534692333971700,6.1119716796875,-0.8061981201171875,-0.3516998291015625,-0.13348388671875
1772534692343988700,6.12198876953125,-0.81103515625,-0.354461669921875,-0.09771728515625
1772534692354005500,6.132005615234375,-0.822418212890625,-0.353485107421875,-0.0539703369140625
1772534692364022800,6.142022705078125,-0.83514404296875,-0.3419342041015625,-0.025177001953125
1772534692374039600,6.15203955078125,-0.864410400390625,-0.3338470458984375,-0.0041656494140625
1772534692384055600,6.1620556640625,-0.8990020751953125,-0.339263916015625,0.0005950927734375
1772534692394072600,6.172072509765625,-0.9351959228515625,-0.3511199951171875,-0.0150146484375
1772534692404089600,6.182089599609375,-0.977783203125,-0.3668212890625,-0.01800537109375
1772534692414106600,6.192106689453125,-1.027801513671875,-0.3872833251953125,-0.021392822265625
1772534692424123600,6.20212353515625,-1.093536376953125,-0.4185791015625,-0.018707275390625
1772534692434139600,6.2121396484375,-1.14654541015625,-0.451873779296875,-0.0100250244140625
1772534692444156700,6.22215673828125,-1.1842498779296875,-0.4628143310546875,-0.006927490234375
1772534692454173400,6.23217333984375,-1.215484619140625,-0.44970703125,0.00482177734375
1772534692464190700,6.242190673828125,-1.2300872802734375,-0.4331512451171875,0.0239105224609375
1772534692474206700,6.252206787109375,-1.2320709228515625,-0.4162445068359375,0.03253173828125
1772534692484223500,6.262223388671875,-1.2349090576171875,-0.3773040771484375,0.023223876953125
1772534692494240500,6.272240478515625,-1.2462921142578125,-0.329010009765625,0.010894775390625
1772534692504257800,6.2822578125,-1.2439727783203125,-0.298675537109375,0.0014801025390625
1772534692514274600,6.292274658203125,-1.2334747314453125,-0.286865234375,-0.01220703125
1772534692524290600,6.30229052734375,-1.2294158935546875,-0.276092529296875,-0.0252532958984375
1772534692534307800,6.312307861328125,-1.234466552734375,-0.2704925537109375,-0.0369415283203125
1772534692544324600,6.32232470703125,-1.2374114990234375,-0.2623138427734375,-0.05596923828125
1772534692554341600,6.332341552734375,-1.2341461181640625,-0.2498321533203125,-0.0778656005859375
1772534692564357600,6.342357666015625,-1.2109527587890625,-0.23004150390625,-0.09814453125
1772534692574374700,6.352374755859375,-1.16693115234375,-0.2011566162109375,-0.110198974609375
1772534692584391700,6.3623916015625,-1.11962890625,-0.1716156005859375,-0.1079559326171875
1772534692594408700,6.37240869140625,-1.0596771240234375,-0.14312744140625,-0.102996826171875
1772534692604425700,6.38242578125,-1.0044708251953125,-0.118560791015625,-0.1019744873046875
1772534692614441700,6.392441650390625,-0.9626007080078125,-0.0989837646484375,-0.095977783203125
1772534692624458500,6.40245849609375,-0.930999755859375,-0.0843963623046875,-0.0911865234375
1772534692634475800,6.412475830078125,-0.924713134765625,-0.067474365234375,-0.0897216796875
1772534692644492500,6.422492431640625,-0.929351806640625,-0.0620880126953125,-0.0887908935546875
1772534692654509600,6.432509521484375,-0.9514923095703125,-0.0594482421875,-0.09136962890625
1772534692664525800,6.44252587890625,-0.97393798828125,-0.0601654052734375,-0.09234619140625
1772534692674542600,6.45254248046875,-0.9740753173828125,-0.06134033203125,-0.094573974609375
1772534692684559600,6.4625595703125,-0.9779510498046875,-0.0644378662109375,-0.1004791259765625
1772534692694576600,6.47257666015625,-0.9641876220703125,-0.0807647705078125,-0.1135406494140625
1772534692704593700,6.48259375,-0.9296417236328125,-0.092498779296875,-0.1153411865234375
1772534692714609700,6.492609619140625,-0.891693115234375,-0.0906829833984375,-0.1100006103515625
1772534692724626400,6.50262646484375,-0.85638427734375,-0.0873870849609375,-0.0953826904296875
1772534692734643700,6.512643798828125,-0.8353729248046875,-0.0870819091796875,-0.0704498291015625
1772534692744660700,6.52266064453125,-0.8282928466796875,-0.0884552001953125,-0.0392913818359375
1772534692754676500,6.532676513671875,-0.847991943359375,-0.085906982421875,-0.00933837890625
1772534692764693800,6.54269384765625,-0.871337890625,-0.084228515625,0.0159759521484375
1772534692774710500,6.55271044921875,-0.87554931640625,-0.0881805419921875,0.03448486328125
1772534692784727600,6.5627275390625,-0.8695831298828125,-0.0848388671875,0.04193115234375
1772534692794744800,6.572744873046875,-0.8617706298828125,-0.084686279296875,0.05279541015625
1772534692804760600,6.582760498046875,-0.841888427734375,-0.0996551513671875,0.060638427734375
1772534692814777600,6.592777587890625,-0.824127197265625,-0.110076904296875,0.05535888671875
1772534692824794600,6.602794677734375,-0.8032684326171875,-0.1220245361328125,0.0507049560546875
1772534692834811600,6.612811767578125,-0.7895355224609375,-0.14312744140625,0.0464630126953125
1772534692844828700,6.62282861328125,-0.781707763671875,-0.15997314453125,0.033050537109375
1772534692854844700,6.6328447265625,-0.7946014404296875,-0.175994873046875,0.007171630859375
1772534692864861700,6.64286181640625,-0.8380889892578125,-0.1967620849609375,-0.02252197265625
1772534692874878700,6.652878662109375,-0.866912841796875,-0.2324676513671875,-0.043487548828125
1772534692884895500,6.6628955078125,-0.887481689453125,-0.2528839111328125,-0.068695068359375
1772534692894911500,6.672911376953125,-0.9075469970703125,-0.2550506591796875,-0.0949249267578125
1772534692904928800,6.6829287109375,-0.916290283203125,-0.2649688720703125,-0.1118621826171875
1772534692914945500,6.692945556640625,-0.9197998046875,-0.288360595703125,-0.11676025390625
1772534692924962600,6.702962646484375,-0.9172515869140625,-0.295196533203125,-0.1190185546875
1772534692934979600,6.7129794921875,-0.911102294921875,-0.286895751953125,-0.12579345703125
1772534692944995600,6.72299560546875,-0.9107208251953125,-0.2899322509765625,-0.1289215087890625
1772534692955012600,6.7330126953125,-0.94305419921875,-0.2893218994140625,-0.1302947998046875
1772534692965029600,6.743029541015625,-0.9589385986328125,-0.284423828125,-0.133148193359375
1772534692975046700,6.753046630859375,-0.9820404052734375,-0.27935791015625,-0.138519287109375
1772534692985063700,6.763063720703125,-1.0010223388671875,-0.2856292724609375,-0.134979248046875
1772534692995079700,6.77307958984375,-1.015533447265625,-0.2902679443359375,-0.128173828125
1772534693005096700,6.7830966796875,-1.0229644775390625,-0.2798919677734375,-0.13482666015625
1772534693015113500,6.793113525390625,-1.029022216796875,-0.2755126953125,-0.142242431640625
1772534693025130800,6.803130859375,-1.0362701416015625,-0.2833099365234375,-0.1551666259765625
1772534693035146800,6.813146728515625,-1.039398193359375,-0.29205322265625,-0.1793975830078125
1772534693045163500,6.82316357421875,-1.0496826171875,-0.29425048828125,-0.206939697265625
1772534693055180500,6.8331806640625,-1.0683746337890625,-0.291259765625,-0.2333526611328125
1772534693065197800,6.84319775390625,-1.0778961181640625,-0.2887725830078125,-0.2400665283203125
1772534693075214600,6.853214599609375,-1.0610504150390625,-0.2890167236328125,-0.236175537109375
1772534693085230600,6.863230712890625,-1.0420989990234375,-0.28472900390625,-0.238372802734375
1772534693095248000,6.873247802734375,-1.019287109375,-0.2764739990234375,-0.233551025390625
1772534693105264600,6.8832646484375,-0.989105224609375,-0.2642974853515625,-0.2239227294921875
1772534693115281700,6.89328173828125,-0.9814910888671875,-0.2514495849609375,-0.20843505859375
1772534693125298700,6.903298583984375,-0.986175537109375,-0.246551513671875,-0.182220458984375
1772534693135314700,6.913314697265625,-1.034454345703125,-0.24090576171875,-0.1589813232421875
1772534693145331700,6.923331787109375,-1.084686279296875,-0.2414398193359375,-0.137115478515625
1772534693155348500,6.933348388671875,-1.134735107421875,-0.2404022216796875,-0.119873046875
1772534693165365800,6.94336572265625,-1.1783447265625,-0.23321533203125,-0.097320556640625
1772534693175382500,6.953382568359375,-1.194854736328125,-0.226287841796875,-0.076202392578125
1772534693185398500,6.9633984375,-1.1977081298828125,-0.2153472900390625,-0.065673828125
1772534693195415800,6.973415771484375,-1.1816864013671875,-0.204437255859375,-0.0647125244140625
1772534693205432600,6.9834326171875,-1.15948486328125,-0.1971893310546875,-0.07598876953125
1772534693215449600,6.99344970703125,-1.1416015625,-0.193511962890625,-0.0924072265625
1772534693225465600,7.003465576171875,-1.130340576171875,-0.1881103515625,-0.1129150390625
1772534693235482600,7.013482666015625,-1.1290435791015625,-0.1804962158203125,-0.1371307373046875
1772534693245499600,7.023499755859375,-1.1276397705078125,-0.17828369140625,-0.1617584228515625
1772534693255516400,7.033516357421875,-1.1249237060546875,-0.1803131103515625,-0.17974853515625
1772534693265533700,7.04353369140625,-1.1125335693359375,-0.190521240234375,-0.1914825439453125
1772534693275549700,7.0535498046875,-1.1032867431640625,-0.200347900390625,-0.1977996826171875
1772534693285566500,7.06356640625,-1.1105804443359375,-0.212310791015625,-0.2043914794921875
1772534693295583700,7.073583740234375,-1.1172027587890625,-0.2236785888671875,-0.2106475830078125
1772534693305600800,7.083600830078125,-1.1180419921875,-0.22406005859375,-0.22576904296875
1772534693315617500,7.093617431640625,-1.1148529052734375,-0.2321624755859375,-0.2395782470703125
1772534693325633500,7.103633544921875,-1.101348876953125,-0.2459869384765625,-0.2432098388671875
1772534693335650600,7.113650634765625,-1.0670166015625,-0.2491455078125,-0.238616943359375
1772534693345667600,7.12366748046875,-1.0166473388671875,-0.243255615234375,-0.225189208984375
1772534693355684900,7.133684814453125,-0.9625396728515625,-0.24053955078125,-0.1991119384765625
1772534693365700600,7.14370068359375,-0.9036407470703125,-0.2332000732421875,-0.1682281494140625
1772534693375717600,7.153717529296875,-0.8418426513671875,-0.22259521484375,-0.144561767578125
1772534693385734700,7.163734619140625,-0.7879638671875,-0.212005615234375,-0.124969482421875
1772534693395751700,7.173751708984375,-0.7641143798828125,-0.20257568359375,-0.0931854248046875
1772534693405768700,7.183768798828125,-0.7502899169921875,-0.199005126953125,-0.063995361328125
1772534693415784700,7.19378466796875,-0.7235107421875,-0.201080322265625,-0.0444793701171875
1772534693425801700,7.2038017578125,-0.707977294921875,-0.19580078125,-0.0321807861328125
1772534693435818800,7.21381884765625,-0.7127532958984375,-0.1949462890625,-0.0290374755859375
1772534693445835500,7.22383544921875,-0.7124786376953125,-0.2066192626953125,-0.0348052978515625
1772534693455852800,7.233852783203125,-0.6987762451171875,-0.2242584228515625,-0.0503997802734375
1772534693465868800,7.243868896484375,-0.6859283447265625,-0.2342987060546875,-0.0725250244140625
1772534693475885600,7.253885498046875,-0.6796417236328125,-0.2448577880859375,-0.0883331298828125
1772534693485902600,7.263902587890625,-0.668548583984375,-0.259674072265625,-0.108367919921875
1772534693495919600,7.273919677734375,-0.6613006591796875,-0.2759552001953125,-0.1130828857421875
1772534693505936600,7.2839365234375,-0.6695556640625,-0.2891845703125,-0.1225433349609375
1772534693515952600,7.29395263671875,-0.6968841552734375,-0.305938720703125,-0.1294403076171875
1772534693525969700,7.3039697265625,-0.7224884033203125,-0.3289947509765625,-0.133148193359375
1772534693535986700,7.313986572265625,-0.758697509765625,-0.350433349609375,-0.1591796875
1772534693546003500,7.32400341796875,-0.7927703857421875,-0.3816070556640625,-0.185638427734375
1772534693556019500,7.33401953125,-0.833892822265625,-0.402984619140625,-0.2018890380859375
1772534693566036700,7.34403662109375,-0.864898681640625,-0.41375732421875,-0.2110595703125
1772534693576053500,7.354053466796875,-0.8701629638671875,-0.4280242919921875,-0.19989013671875
1772534693586070500,7.364070556640625,-0.8746795654296875,-0.4352264404296875,-0.178009033203125
1772534693596087800,7.374087890625,-0.8766632080078125,-0.431976318359375,-0.156280517578125
1772534693606103600,7.384103515625,-0.892913818359375,-0.430328369140625,-0.12530517578125
1772534693616120600,7.39412060546875,-0.9236297607421875,-0.427886962890625,-0.092681884765625
1772534693626137900,7.404137939453125,-0.9756927490234375,-0.4147796630859375,-0.067901611328125
1772534693636154600,7.414154541015625,-1.04278564453125,-0.405487060546875,-0.0504608154296875
1772534693646171600,7.424171630859375,-1.0892181396484375,-0.3966064453125,-0.0407562255859375
1772534693656187600,7.434187744140625,-1.1418609619140625,-0.3806610107421875,-0.0388031005859375
1772534693666204700,7.44420458984375,-1.1750946044921875,-0.3712921142578125,-0.030242919921875
1772534693676221700,7.4542216796875,-1.1661224365234375,-0.3602752685546875,-0.0248565673828125
1772534693686238500,7.464238525390625,-1.1298065185546875,-0.340911865234375,-0.031280517578125
1772534693696255700,7.474255859375,-1.0897979736328125,-0.32501220703125,-0.040985107421875
1772534693706271700,7.484271728515625,-1.052459716796875,-0.313690185546875,-0.0436553955078125
1772534693716288500,7.49428857421875,-1.02337646484375,-0.2981109619140625,-0.0453033447265625
1772534693726305800,7.504305908203125,-0.9958953857421875,-0.27764892578125,-0.06597900390625
1772534693736322600,7.514322509765625,-1.0085601806640625,-0.247283935546875,-0.099395751953125
1772534693746338300,7.52433837890625,-1.050689697265625,-0.233978271484375,-0.1191864013671875
1772534693756355600,7.53435546875,-1.1071624755859375,-0.23956298828125,-0.1278533935546875
1772534693766372400,7.544372314453125,-1.1639862060546875,-0.2506256103515625,-0.1353912353515625
1772534693776389400,7.554389404296875,-1.1969146728515625,-0.2573699951171875,-0.148529052734375
1772534693786406400,7.564406494140625,-1.21441650390625,-0.250213623046875,-0.15289306640625
1772534693796422400,7.57442236328125,-1.2108612060546875,-0.238250732421875,-0.14501953125
1772534693806439400,7.584439453125,-1.1921844482421875,-0.2292633056640625,-0.1414947509765625
1772534693816456200,7.594456298828125,-1.1444091796875,-0.2133636474609375,-0.1444244384765625
1772534693826473500,7.604473388671875,-1.093292236328125,-0.1781463623046875,-0.146728515625
1772534693836490500,7.614490478515625,-1.04058837890625,-0.144500732421875,-0.1386260986328125
1772534693846506200,7.62450634765625,-0.994598388671875,-0.1278533935546875,-0.110931396484375
1772534693856523500,7.6345234375,-0.958709716796875,-0.116119384765625,-0.0820465087890625
1772534693866540500,7.64454052734375,-0.9426727294921875,-0.106109619140625,-0.0649871826171875
1772534693876557300,7.654557373046875,-0.9303131103515625,-0.1077117919921875,-0.0449066162109375
1772534693886574600,7.66457470703125,-0.9343719482421875,-0.1091156005859375,-0.0323028564453125
1772534693896590600,7.674590576171875,-0.954010009765625,-0.10894775390625,-0.023101806640625
1772534693906607400,7.684607421875,-0.9799041748046875,-0.1080322265625,-0.021575927734375
1772534693916624600,7.694624755859375,-0.9892730712890625,-0.1080169677734375,-0.039337158203125
1772534693926641400,7.704641357421875,-1.017913818359375,-0.1089630126953125,-0.0540008544921875
1772534693936657400,7.714657470703125,-1.0484619140625,-0.12152099609375,-0.063018798828125
1772534693946674400,7.72467431640625,-1.1017608642578125,-0.1328277587890625,-0.0748138427734375
1772534693956691500,7.73469140625,-1.14166259765625,-0.1515045166015625,-0.087799072265625
1772534693966708500,7.74470849609375,-1.1555023193359375,-0.1688385009765625,-0.106414794921875
1772534693976725200,7.754725341796875,-1.1664276123046875,-0.178375244140625,-0.11468505859375
1772534693986741500,7.764741455078125,-1.1479949951171875,-0.1797027587890625,-0.1121673583984375
1772534693996758500,7.774758544921875,-1.09368896484375,-0.1761322021484375,-0.10479736328125
1772534694006775300,7.784775390625,-1.027069091796875,-0.1648712158203125,-0.085693359375
1772534694016792600,7.79479248046875,-0.9620361328125,-0.15447998046875,-0.0500335693359375
1772534694026809300,7.804809326171875,-0.8945159912109375,-0.141387939453125,-0.028594970703125
1772534694036825300,7.814825439453125,-0.8427734375,-0.12762451171875,-0.017120361328125
1772534694046842400,7.82484228515625,-0.815399169921875,-0.1160125732421875,0.0061187744140625
1772534694056859400,7.834859375,-0.806732177734375,-0.1088714599609375,0.0257110595703125
1772534694066876400,7.84487646484375,-0.800567626953125,-0.1090240478515625,0.035797119140625
1772534694076893400,7.8548935546875,-0.7937469482421875,-0.107757568359375,0.046173095703125
1772534694086909400,7.864909423828125,-0.79205322265625,-0.1075286865234375,0.0464019775390625
1772534694096926500,7.874926513671875,-0.79351806640625,-0.1070404052734375,0.03851318359375
1772534694106943500,7.884943603515625,-0.8104095458984375,-0.1122894287109375,0.0251007080078125
1772534694116960500,7.89496044921875,-0.828704833984375,-0.1222076416015625,-0.000946044921875
1772534694126976500,7.9049765625,-0.8620147705078125,-0.1372833251953125,-0.0373382568359375
1772534694136993500,7.91499365234375,-0.8866424560546875,-0.1626739501953125,-0.078704833984375
1772534694147010300,7.92501025390625,-0.921417236328125,-0.18292236328125,-0.11358642578125
1772534694157027600,7.935027587890625,-0.9460906982421875,-0.2020721435546875,-0.13995361328125
1772534694167044400,7.94504443359375,-0.9566802978515625,-0.222015380859375,-0.147735595703125
1772534694177060400,7.955060302734375,-0.9638824462890625,-0.2330780029296875,-0.141357421875
1772534694187077600,7.96507763671875,-0.9574432373046875,-0.2261810302734375,-0.131683349609375
1772534694197094400,7.975094482421875,-0.96075439453125,-0.2117767333984375,-0.11920166015625
1772534694207111400,7.985111328125,-0.9759063720703125,-0.203857421875,-0.098907470703125
1772534694217128400,7.99512841796875,-0.9834136962890625,-0.2015380859375,-0.08673095703125
1772534694227144400,8.00514453125,-0.9922332763671875,-0.197235107421875,-0.0835418701171875
1772534694237161500,8.015161376953126,-1.0098724365234375,-0.189300537109375,-0.0806121826171875
1772534694247178200,8.02517822265625,-1.021636962890625,-0.19219970703125,-0.0803985595703125
1772534694257195500,8.035195556640625,-1.042572021484375,-0.1995697021484375,-0.0805816650390625
1772534694267212300,8.04521240234375,-1.0587310791015625,-0.2060089111328125,-0.0933990478515625
1772534694277228300,8.055228271484374,-1.0789031982421875,-0.22052001953125,-0.11529541015625
1772534694287245600,8.06524560546875,-1.108856201171875,-0.2421722412109375,-0.1343231201171875
1772534694297262300,8.075262451171875,-1.1229095458984375,-0.2563323974609375,-0.1476898193359375
1772534694307279400,8.085279296875,-1.1342926025390625,-0.25921630859375,-0.15234375
1772534694317296400,8.09529638671875,-1.139678955078125,-0.2558746337890625,-0.146453857421875
1772534694327312400,8.1053125,-1.13177490234375,-0.245880126953125,-0.141510009765625
1772534694337329400,8.115329345703126,-1.127471923828125,-0.22698974609375,-0.136322021484375
1772534694347346400,8.125346435546875,-1.1175689697265625,-0.2083282470703125,-0.1368408203125
1772534694357363500,8.135363525390625,-1.1068267822265625,-0.1989593505859375,-0.1352691650390625
1772534694367379500,8.14537939453125,-1.114471435546875,-0.1890869140625,-0.1269683837890625
1772534694377396200,8.155396240234374,-1.122528076171875,-0.18096923828125,-0.09906005859375
1772534694387413500,8.16541357421875,-1.154266357421875,-0.1732940673828125,-0.0647430419921875
1772534694397430500,8.175430419921875,-1.1887969970703125,-0.17340087890625,-0.029998779296875
1772534694407447300,8.185447265625,-1.2192230224609375,-0.1631622314453125,-0.0023345947265625
1772534694417463600,8.195463623046875,-1.2460784912109375,-0.1481475830078125,0.011138916015625
1772534694427480600,8.20548046875,-1.25152587890625,-0.1335601806640625,0.00177001953125
1772534694437497300,8.215497314453126,-1.229766845703125,-0.107696533203125,-0.029296875
1772534694447514600,8.2255146484375,-1.1834716796875,-0.0801544189453125,-0.0644073486328125
1772534694457531400,8.235531494140625,-1.1089324951171875,-0.0576324462890625,-0.11004638671875
1772534694467547400,8.24554736328125,-1.03326416015625,-0.0411224365234375,-0.1529083251953125
1772534694477564400,8.255564453125,-0.971771240234375,-0.0282135009765625,-0.1841278076171875
1772534694487581400,8.26558154296875,-0.9168243408203125,-0.021697998046875,-0.2139434814453125
1772534694497598500,8.275598388671876,-0.8803863525390625,-0.026763916015625,-0.2387237548828125
1772534694507615200,8.285615234375,-0.8726348876953125,-0.0305328369140625,-0.2728424072265625
1772534694517631500,8.295631591796875,-0.883636474609375,-0.0449981689453125,-0.31658935546875
1772534694527648500,8.3056484375,-0.90472412109375,-0.0756988525390625,-0.3441619873046875
1772534694537665300,8.315665283203124,-0.91552734375,-0.09991455078125,-0.365081787109375
1772534694547682600,8.3256826171875,-0.9122467041015625,-0.119781494140625,-0.3736572265625
1772534694557699300,8.33569921875,-0.903228759765625,-0.13446044921875,-0.3695526123046875
1772534694567715300,8.34571533203125,-0.896697998046875,-0.14630126953125,-0.3466339111328125
1772534694577732400,8.355732421875,-0.895965576171875,-0.1502838134765625,-0.309814453125
1772534694587749400,8.365749267578124,-0.91168212890625,-0.149383544921875,-0.2678375244140625
1772534694597766400,8.375766357421876,-0.927764892578125,-0.146514892578125,-0.2226104736328125
1772534694607782400,8.385782470703125,-0.9410858154296875,-0.1467437744140625,-0.183746337890625
1772534694617799400,8.39579931640625,-0.9449920654296875,-0.143218994140625,-0.1399688720703125
1772534694627816400,8.40581640625,-0.9442138671875,-0.1396484375,-0.094024658203125
1772534694637833500,8.41583349609375,-0.9397125244140625,-0.1443939208984375,-0.05206298828125
1772534694647850500,8.4258505859375,-0.9189605712890625,-0.150054931640625,-0.022735595703125
1772534694657866500,8.435866455078125,-0.9014739990234375,-0.1589202880859375,-0.0098876953125
1772534694667883500,8.445883544921875,-0.88720703125,-0.17352294921875,-0.0103607177734375
1772534694677900300,8.455900390625,-0.87164306640625,-0.189483642578125,-0.0190887451171875
1772534694687917600,8.46591748046875,-0.8565521240234375,-0.20343017578125,-0.0333099365234375
1772534694697934300,8.475934326171876,-0.8353118896484375,-0.2178955078125,-0.0499725341796875
1772534694707950300,8.485950439453125,-0.8151397705078125,-0.2341156005859375,-0.0613250732421875
1772534694717967600,8.495967529296875,-0.80645751953125,-0.252197265625,-0.06732177734375
1772534694727984400,8.505984375,-0.8049468994140625,-0.2660675048828125,-0.0711822509765625
1772534694738001400,8.51600146484375,-0.809906005859375,-0.2802734375,-0.0867462158203125
1772534694748018400,8.526018310546876,-0.818145751953125,-0.2982025146484375,-0.0983734130859375
1772534694758034400,8.536034423828125,-0.8296661376953125,-0.3094024658203125,-0.1066436767578125
1772534694768051500,8.546051513671875,-0.832489013671875,-0.3174591064453125,-0.113983154296875
1772534694778068500,8.556068359375,-0.84368896484375,-0.32464599609375,-0.116607666015625
1772534694788085500,8.56608544921875,-0.84320068359375,-0.3374481201171875,-0.112640380859375
1772534694798102300,8.576102294921874,-0.84393310546875,-0.3427581787109375,-0.1048736572265625
1772534694808118300,8.5861181640625,-0.851165771484375,-0.3379058837890625,-0.0979156494140625
1772534694818135600,8.596135498046875,-0.85699462890625,-0.332611083984375,-0.093170166015625
1772534694828152300,8.60615234375,-0.8673858642578125,-0.322265625,-0.082611083984375
1772534694838169300,8.61616943359375,-0.88287353515625,-0.31158447265625,-0.065673828125
1772534694848186400,8.626186279296874,-0.900421142578125,-0.302032470703125,-0.058837890625
1772534694858202400,8.636202392578125,-0.9201202392578125,-0.290496826171875,-0.058990478515625
1772534694868219400,8.646219482421875,-0.9665069580078125,-0.2814788818359375,-0.061981201171875
1772534694878236400,8.656236328125,-1.0168609619140625,-0.275604248046875,-0.0718231201171875
1772534694888253400,8.66625341796875,-1.0605621337890625,-0.2711029052734375,-0.091552734375
1772534694898270500,8.6762705078125,-1.0829925537109375,-0.2668304443359375,-0.1073150634765625
1772534694908286200,8.6862861328125,-1.083831787109375,-0.25555419921875,-0.1203765869140625
1772534694918303500,8.696303466796875,-1.05865478515625,-0.24749755859375,-0.14068603515625
1772534694928320500,8.706320556640625,-1.020660400390625,-0.240264892578125,-0.1588592529296875
1772534694938337300,8.716337158203125,-1.0002593994140625,-0.2281494140625,-0.1636962890625
1772534694948353500,8.726353515625,-0.983367919921875,-0.213958740234375,-0.15924072265625
1772534694958370600,8.73637060546875,-0.982208251953125,-0.206939697265625,-0.1540679931640625
1772534694968387300,8.74638720703125,-0.9956207275390625,-0.2064056396484375,-0.14691162109375
1772534694978404600,8.756404541015625,-1.0130157470703125,-0.2030029296875,-0.134979248046875
1772534694988421400,8.76642138671875,-1.024749755859375,-0.18798828125,-0.124298095703125
1772534694998437400,8.776437255859374,-1.055023193359375,-0.1763153076171875,-0.117218017578125
1772534695008454400,8.786454345703126,-1.0685882568359375,-0.172271728515625,-0.104583740234375
1772534695018471400,8.796471435546875,-1.05950927734375,-0.1624755859375,-0.09588623046875
1772534695028488400,8.806488525390625,-1.05181884765625,-0.139495849609375,-0.0907135009765625
1772534695038505200,8.816505126953125,-1.0362701416015625,-0.12847900390625,-0.069488525390625
1772534695048521500,8.826521484375,-1.006256103515625,-0.127960205078125,-0.0514984130859375
1772534695058538500,8.83653857421875,-0.990997314453125,-0.122314453125,-0.04107666015625
1772534695068555300,8.84655517578125,-0.9912872314453125,-0.1241455078125,-0.033782958984375
1772534695078572500,8.856572509765625,-1.008941650390625,-0.13348388671875,-0.0333099365234375
1772534695088589300,8.86658935546875,-1.0501556396484375,-0.1485595703125,-0.029205322265625
1772534695098605300,8.876605224609374,-1.0967864990234375,-0.1553955078125,-0.0271453857421875
1772534695108622300,8.886622314453126,-1.1404266357421875,-0.155975341796875,-0.0259552001953125
1772534695118639400,8.896639404296875,-1.170166015625,-0.1562042236328125,-0.028656005859375
1772534695128656400,8.906656494140625,-1.1800994873046875,-0.14935302734375,-0.0347137451171875
1772534695138673700,8.916673583984375,-1.1646881103515625,-0.1334991455078125,-0.0428009033203125
1772534695148689400,8.926689453125,-1.140380859375,-0.121429443359375,-0.0474853515625
1772534695158706400,8.93670654296875,-1.1016998291015625,-0.1137847900390625,-0.047119140625
1772534695168723500,8.946723388671876,-1.058685302734375,-0.10601806640625,-0.0456695556640625
1772534695178740500,8.956740478515625,-1.03009033203125,-0.1027069091796875,-0.035247802734375
1772534695188756500,8.966756591796875,-1.009307861328125,-0.1068267822265625,-0.027801513671875
1772534695198773500,8.9767734375,-1.0017547607421875,-0.10858154296875,-0.029205322265625
1772534695208790500,8.98679052734375,-1.0006561279296875,-0.1103973388671875,-0.0390777587890625
1772534695218807600,8.9968076171875,-0.999359130859375,-0.12225341796875,-0.0541534423828125
1772534695228824300,9.00682421875,-0.9894256591796875,-0.1291351318359375,-0.0648193359375
1772534695238840300,9.01684033203125,-0.9727630615234375,-0.131591796875,-0.0760345458984375
1772534695248857600,9.026857666015625,-0.953521728515625,-0.134979248046875,-0.08209228515625
1772534695258874400,9.036874267578124,-0.9354705810546875,-0.13916015625,-0.08148193359375
1772534695268891400,9.046891357421876,-0.9297027587890625,-0.137054443359375,-0.0787353515625
1772534695278908400,9.056908447265625,-0.9185791015625,-0.1349945068359375,-0.092437744140625
1772534695288924400,9.06692431640625,-0.90966796875,-0.14031982421875,-0.1065216064453125
1772534695298941400,9.07694140625,-0.899871826171875,-0.1470794677734375,-0.1033782958984375
1772534695308958500,9.08695849609375,-0.8802642822265625,-0.1513671875,-0.1033477783203125
1772534695318975500,9.0969755859375,-0.8590850830078125,-0.157379150390625,-0.1067962646484375
1772534695328992300,9.1069921875,-0.8439788818359375,-0.16204833984375,-0.09796142578125
1772534695339008300,9.11700830078125,-0.83709716796875,-0.1604156494140625,-0.0865631103515625
1772534695349025500,9.127025634765625,-0.842071533203125,-0.157135009765625,-0.0812835693359375
1772534695359042300,9.137042236328124,-0.8662872314453125,-0.1543731689453125,-0.0768585205078125
1772534695369059300,9.147059326171876,-0.886474609375,-0.156402587890625,-0.0650787353515625
1772534695379076600,9.15707666015625,-0.9100799560546875,-0.1547088623046875,-0.0538482666015625
1772534695389092400,9.16709228515625,-0.9314422607421875,-0.147705078125,-0.048736572265625
1772534695399109400,9.177109375,-0.948577880859375,-0.1490325927734375,-0.0472869873046875
1772534695409126400,9.18712646484375,-0.956573486328125,-0.1508941650390625,-0.0594635009765625
1772534695419143400,9.197143310546876,-0.960906982421875,-0.1526947021484375,-0.0735321044921875
1772534695429160400,9.207160400390626,-0.95880126953125,-0.1531524658203125,-0.08453369140625
1772534695439176400,9.217176513671875,-0.9687957763671875,-0.15069580078125,-0.090545654296875
1772534695449193500,9.227193359375,-0.9815216064453125,-0.148468017578125,-0.0863800048828125
1772534695459210500,9.23721044921875,-0.982635498046875,-0.1422576904296875,-0.0873565673828125
1772534695469227300,9.247227294921874,-0.9761810302734375,-0.1384429931640625,-0.0971832275390625
1772534695479244500,9.25724462890625,-0.95745849609375,-0.1385345458984375,-0.1055450439453125
1772534695489260500,9.267260498046875,-0.9352874755859375,-0.138427734375,-0.1090087890625
1772534695499277300,9.27727734375,-0.9141082763671875,-0.13873291015625,-0.10546875
1772534695509294600,9.287294677734375,-0.9049835205078125,-0.1382904052734375,-0.0928955078125
1772534695519311400,9.297311279296874,-0.9072418212890625,-0.142425537109375,-0.0767974853515625
1772534695529327400,9.307327392578125,-0.905242919921875,-0.1410064697265625,-0.0695953369140625
1772534695539344400,9.317344482421875,-0.9155120849609375,-0.139312744140625,-0.072265625
1772534695549361400,9.327361328125,-0.9580841064453125,-0.1446075439453125,-0.0774078369140625
1772534695559378400,9.33737841796875,-0.97491455078125,-0.161407470703125,-0.08831787109375
1772534695569394400,9.34739453125,-0.9792327880859375,-0.17291259765625,-0.089080810546875
1772534695579411500,9.357411376953126,-0.986083984375,-0.169586181640625,-0.0833892822265625
1772534695589428500,9.367428466796875,-0.99359130859375,-0.171142578125,-0.0708465576171875
1772534695599445200,9.3774453125,-1.010498046875,-0.1782684326171875,-0.054962158203125
1772534695609462500,9.387462646484375,-1.045562744140625,-0.1766815185546875,-0.0478973388671875
1772534695619478500,9.397478515625,-1.0638580322265625,-0.1815032958984375,-0.04937744140625
1772534695629495300,9.407495361328126,-1.081024169921875,-0.198516845703125,-0.0556640625
1772534695639512600,9.4175126953125,-1.075439453125,-0.2127685546875,-0.066986083984375
1772534695649529300,9.427529296875,-1.0131988525390625,-0.12664794921875,-0.1583404541015625
1772534695659545300,9.43754541015625,-0.9904327392578125,-0.156341552734375,-0.155487060546875
1772534695669562400,9.447562255859374,-1.0352935791015625,-0.29681396484375,-0.02764892578125
1772534695679579400,9.457579345703126,-1.0344085693359375,-0.3443603515625,0.021331787109375
1772534695689596400,9.467596435546875,-1.0194091796875,-0.3260345458984375,-0.0052490234375
1772534695699613400,9.477613525390625,-1.02239990234375,-0.2694854736328125,-0.064117431640625
1772534695709629400,9.48762939453125,-1.0204010009765625,-0.227508544921875,-0.0913848876953125
1772534695719646500,9.497646484375,-1.0146331787109375,-0.2151641845703125,-0.0830535888671875
1772534695729663500,9.50766357421875,-1.00701904296875,-0.2202606201171875,-0.068359375
1772534695739680500,9.517680419921875,-1.009735107421875,-0.2111663818359375,-0.0673370361328125
1772534695749697300,9.527697265625,-1.013641357421875,-0.183502197265625,-0.068756103515625
1772534695759713500,9.537713623046875,-1.0330047607421875,-0.15643310546875,-0.060333251953125
1772534695769730300,9.547730224609374,-1.0545196533203125,-0.1331939697265625,-0.052703857421875
1772534695779747300,9.557747314453126,-1.0657806396484375,-0.11688232421875,-0.0533905029296875
1772534695789764400,9.567764404296875,-1.07598876953125,-0.1080169677734375,-0.062835693359375
1772534695799781400,9.577781494140625,-1.0963592529296875,-0.1114501953125,-0.0636138916015625
1772534695809797400,9.58779736328125,-1.15350341796875,-0.133514404296875,-0.0580596923828125
1772534695819814100,9.597814208984374,-1.1816253662109375,-0.150787353515625,-0.049835205078125
1772534695829831400,9.60783154296875,-1.161865234375,-0.157073974609375,-0.046112060546875
1772534695839848200,9.61784814453125,-1.1388702392578125,-0.15106201171875,-0.05780029296875
1772534695849865200,9.627865234375,-1.101226806640625,-0.13275146484375,-0.0661468505859375
1772534695859881500,9.637881591796875,-1.06341552734375,-0.115081787109375,-0.0534210205078125
1772534695869898200,9.647898193359374,-1.0443115234375,-0.0968780517578125,-0.050628662109375
1772534695879915300,9.657915283203126,-1.0135650634765625,-0.086761474609375,-0.070556640625
1772534695889932300,9.667932373046876,-0.9680938720703125,-0.087188720703125,-0.0908355712890625
1772534695899949300,9.67794921875,-0.9461517333984375,-0.09228515625,-0.1107635498046875
1772534695909965300,9.68796533203125,-0.9503021240234375,-0.101837158203125,-0.1114501953125
1772534695919982000,9.697982177734374,-0.942352294921875,-0.1021728515625,-0.097747802734375
1772534695929999400,9.707999267578124,-0.945770263671875,-0.0961761474609375,-0.08050537109375
1772534695940016400,9.718016357421876,-0.96319580078125,-0.087921142578125,-0.0772247314453125
1772534695950033200,9.728033203125,-0.9748077392578125,-0.0732574462890625,-0.102020263671875
1772534695960049400,9.73804931640625,-0.972900390625,-0.0662994384765625,-0.1405181884765625
1772534695970066400,9.74806640625,-0.9908447265625,-0.0695953369140625,-0.1612701416015625
1772534695980083200,9.758083251953124,-1.025604248046875,-0.053009033203125,-0.1748199462890625
1772534695990100500,9.7681005859375,-1.028533935546875,-0.0286865234375,-0.1635284423828125
1772534696000117200,9.7781171875,-0.99993896484375,-0.010162353515625,-0.15313720703125
1772534696010133200,9.78813330078125,-0.959564208984375,-0.0030059814453125,-0.1574249267578125
1772534696020150500,9.798150634765625,-0.937225341796875,-0.0086669921875,-0.1583709716796875
1772534696030167300,9.808167236328124,-0.9285430908203125,-0.0328216552734375,-0.1467742919921875
1772534696040184300,9.818184326171876,-0.9450225830078125,-0.068817138671875,-0.124755859375
1772534696050201300,9.828201416015625,-0.9444427490234375,-0.100311279296875,-0.1004638671875
1772534696060217300,9.83821728515625,-0.903045654296875,-0.103363037109375,-0.089935302734375
1772534696070234400,9.848234375,-0.870513916015625,-0.0900726318359375,-0.096588134765625
1772534696080251100,9.858251220703124,-0.86468505859375,-0.0830230712890625,-0.1020660400390625
1772534696090268400,9.868268310546876,-0.869537353515625,-0.0844879150390625,-0.090728759765625
1772534696100285200,9.87828515625,-0.8789825439453125,-0.099212646484375,-0.0732269287109375
1772534696110301200,9.88830126953125,-0.88665771484375,-0.1156768798828125,-0.0596771240234375
1772534696120318500,9.898318359375,-0.8907928466796875,-0.1243133544921875,-0.0486602783203125
1772534696130335200,9.908335205078124,-0.8878021240234375,-0.1240997314453125,-0.0454864501953125
1772534696140352300,9.918352294921876,-0.88800048828125,-0.122344970703125,-0.0408172607421875
1772534696150369300,9.928369384765626,-0.89923095703125,-0.12646484375,-0.0230255126953125
1772534696160385300,9.93838525390625,-0.899169921875,-0.137908935546875,0.0019683837890625
1772534696170402300,9.94840234375,-0.8804779052734375,-0.15655517578125,0.0178070068359375
1772534696180419300,9.95841943359375,-0.8595428466796875,-0.1763458251953125,0.005889892578125
1772534696190436400,9.968436279296874,-0.85723876953125,-0.192169189453125,-0.0224151611328125
1772534696200453400,9.978453369140626,-0.85101318359375,-0.21075439453125,-0.0399017333984375
1772534696210469000,9.98846923828125,-0.8455352783203125,-0.230438232421875,-0.0448760986328125
1772534696220486400,9.998486328125,-0.8419342041015625,-0.2460479736328125,-0.046875
1772534696230503400,10.00850341796875,-0.8340301513671875,-0.256500244140625,-0.0427398681640625
1772534696240520200,10.018520263671874,-0.8303070068359375,-0.2610626220703125,-0.036773681640625
1772534696250537500,10.028537353515626,-0.8455352783203125,-0.260040283203125,-0.0279998779296875
1772534696260553500,10.038553466796875,-0.8856201171875,-0.2588653564453125,-0.03448486328125
1772534696270570200,10.0485703125,-0.9386444091796875,-0.25250244140625,-0.0450592041015625
1772534696280587300,10.058587158203125,-0.978363037109375,-0.236968994140625,-0.056396484375
1772534696290604300,10.068604248046874,-1.0189666748046875,-0.222686767578125,-0.0633087158203125
1772534696300621300,10.078621337890626,-1.06158447265625,-0.211090087890625,-0.070068359375
1772534696310637300,10.08863720703125,-1.100799560546875,-0.2008819580078125,-0.078826904296875
1772534696320654300,10.098654296875,-1.12396240234375,-0.193359375,-0.0866546630859375
1772534696330671400,10.10867138671875,-1.139495849609375,-0.1883087158203125,-0.102325439453125
1772534696340688100,10.118688232421874,-1.160797119140625,-0.1886138916015625,-0.128631591796875
1772534696350705400,10.128705322265626,-1.1766357421875,-0.179931640625,-0.14794921875
1772534696360721400,10.138721435546875,-1.1863250732421875,-0.164398193359375,-0.1526947021484375
1772534696370738200,10.14873828125,-1.1788787841796875,-0.157440185546875,-0.1467742919921875
1772534696380755200,10.158755126953125,-1.1663360595703125,-0.15228271484375,-0.1370086669921875
1772534696390772200,10.168772216796874,-1.1654815673828125,-0.1332855224609375,-0.133941650390625
1772534696400789200,10.178789306640626,-1.1645050048828125,-0.111236572265625,-0.1356658935546875
1772534696410805200,10.18880517578125,-1.14617919921875,-0.1146697998046875,-0.1461334228515625
1772534696420822300,10.198822265625,-1.11419677734375,-0.125335693359375,-0.152984619140625
1772534696430839300,10.20883935546875,-1.1025543212890625,-0.121856689453125,-0.14691162109375
1772534696440856300,10.218856201171874,-1.1327362060546875,-0.103729248046875,-0.123382568359375
1772534696450873300,10.228873291015624,-1.1691741943359375,-0.067535400390625,-0.0877532958984375
1772534696460889300,10.238889404296875,-1.1795806884765625,-0.0446014404296875,-0.035247802734375
1772534696470906400,10.24890625,-1.1671600341796875,-0.050262451171875,-0.0011138916015625
1772534696480923400,10.25892333984375,-1.1392059326171875,-0.066436767578125,0.00811767578125
1772534696490940400,10.2689404296875,-1.10382080078125,-0.0692596435546875,0.000152587890625
1772534696500957200,10.278957275390624,-1.0746307373046875,-0.0532379150390625,-0.0233612060546875
1772534696510973200,10.28897314453125,-1.035308837890625,-0.026641845703125,-0.047515869140625
1772534696520990500,10.298990478515625,-0.9931182861328125,-0.0078887939453125,-0.0617828369140625
1772534696531007200,10.30900732421875,-0.9642791748046875,-0.0061798095703125,-0.0542144775390625
1772534696541024300,10.319024169921875,-0.9398651123046875,-0.0115966796875,-0.0406036376953125
1772534696551041300,10.329041259765624,-0.93768310546875,-0.024505615234375,-0.03955078125
1772534696561057300,10.339057373046876,-0.947723388671875,-0.035308837890625,-0.0517120361328125
1772534696571074300,10.34907421875,-0.9586944580078125,-0.018951416015625,-0.058319091796875
1772534696581091300,10.35909130859375,-0.969146728515625,0.0030364990234375,-0.0532379150390625
1772534696591108400,10.3691083984375,-0.9735260009765625,0.011444091796875,-0.047821044921875
1772534696601124400,10.379124267578124,-0.9750518798828125,-0.00030517578125,-0.046417236328125
1772534696611141000,10.38914111328125,-0.967041015625,-0.02081298828125,-0.0622711181640625
1772534696621158400,10.399158447265625,-0.95404052734375,-0.036468505859375,-0.089385986328125
1772534696631175200,10.409175048828125,-0.9615631103515625,-0.0401153564453125,-0.1170806884765625
1772534696641192200,10.419192138671875,-0.96435546875,-0.0406494140625,-0.140960693359375
1772534696651208400,10.42920849609375,-0.964874267578125,-0.0437774658203125,-0.155364990234375
1772534696661225200,10.43922509765625,-0.9646453857421875,-0.0482940673828125,-0.1389923095703125
1772534696671242200,10.4492421875,-0.95599365234375,-0.048095703125,-0.111846923828125
1772534696681259500,10.459259521484375,-0.9524993896484375,-0.05584716796875,-0.1034698486328125
1772534696691276300,10.4692763671875,-0.951904296875,-0.06427001953125,-0.0915679931640625
1772534696701292300,10.479292236328124,-0.94366455078125,-0.06048583984375,-0.063690185546875
1772534696711309300,10.489309326171876,-0.928741455078125,-0.0453643798828125,-0.042236328125
1772534696721326300,10.499326416015625,-0.9107208251953125,-0.0352935791015625,-0.0204315185546875
1772534696731343400,10.50934326171875,-0.893768310546875,-0.0323028564453125,-0.0001678466796875
1772534696741360000,10.519360107421875,-0.8863525390625,-0.035003662109375,0.008270263671875
1772534696751376400,10.52937646484375,-0.8878326416015625,-0.044586181640625,0.0138092041015625
1772534696761393400,10.539393310546876,-0.8898468017578125,-0.046112060546875,0.02764892578125
1772534696771410200,10.54941015625,-0.8886260986328125,-0.052490234375,0.0364837646484375
1772534696781427500,10.559427490234375,-0.8851318359375,-0.0611724853515625,0.0293426513671875
1772534696791444200,10.5694443359375,-0.881744384765625,-0.07281494140625,-0.001678466796875
1772534696801460200,10.579460205078124,-0.8839111328125,-0.090606689453125,-0.0343475341796875
1772534696811477500,10.5894775390625,-0.8966827392578125,-0.105377197265625,-0.0639495849609375
1772534696821494300,10.599494384765626,-0.9160308837890625,-0.110565185546875,-0.0846405029296875
1772534696831511300,10.60951123046875,-0.9438323974609375,-0.1080474853515625,-0.0803375244140625
1772534696841528300,10.6195283203125,-0.98065185546875,-0.11126708984375,-0.0478057861328125
1772534696851544300,10.62954443359375,-0.990936279296875,-0.1164398193359375,-0.020751953125
1772534696861561300,10.639561279296874,-0.9948883056640625,-0.116851806640625,-0.002685546875
1772534696871578000,10.649578125,-0.9870758056640625,-0.1130523681640625,0.0144805908203125
1772534696881595400,10.659595458984375,-0.9481201171875,-0.1058349609375,0.01885986328125
1772534696891612400,10.6696123046875,-0.905029296875,-0.0994110107421875,0.0078582763671875
1772534696901628200,10.679628173828124,-0.89599609375,-0.0830535888671875,-0.0131988525390625
1772534696911645400,10.6896455078125,-0.9069366455078125,-0.0701141357421875,-0.025054931640625
1772534696921662200,10.699662109375,-0.9102935791015625,-0.0853729248046875,-0.0307159423828125
1772534696931679200,10.70967919921875,-0.896575927734375,-0.1154022216796875,-0.054595947265625
1772534696941696500,10.719696533203125,-0.892486572265625,-0.12957763671875,-0.084014892578125
1772534696951712300,10.729712158203125,-0.9278106689453125,-0.1290740966796875,-0.10394287109375
1772534696961729300,10.739729248046874,-0.9791412353515625,-0.11236572265625,-0.1180572509765625
