time,seconds_elapsed,z,y,x
1772534686269439700,0.047439697265625,0.024510668590664864,-0.5322316884994507,-0.22905687987804413
1772534686279456500,0.05745654296875,0.04313521832227707,-0.5477254390716553,-0.1567629873752594
1772534686289473500,0.0674736328125,0.03844406083226204,-0.49479323625564575,-0.053649645298719406
1772534686299489800,0.07748974609375,0.007818241603672504,-0.361968070268631,0.04771958664059639
1772534686309506600,0.087506591796875,-0.05049646273255348,-0.22170336544513702,0.10247204452753067
1772534686319523600,0.097523681640625,-0.1161002442240715,-0.12756727635860443,0.08625419437885284
1772534686329540600,0.10754052734375,-0.1677951216697693,-0.0792575404047966,0.028015920892357826
1772534686339557600,0.1175576171875,-0.19193455576896667,-0.04224972054362297,-0.02743721753358841
1772534686349573600,0.12757373046875,-0.1908370554447174,-0.016505207866430283,-0.06459976732730865
1772534686359590700,0.137590576171875,-0.18176154792308807,-0.006097573786973953,-0.08218807727098465
1772534686369607700,0.147607666015625,-0.16767475008964539,-0.00800386443734169,-0.10405343025922775
1772534686379624700,0.157624755859375,-0.1423422247171402,-0.014547783881425858,-0.12906743586063385
1772534686389640400,0.167640380859375,-0.08984813094139099,-0.0271325521171093,-0.12997370958328247
1772534686399657700,0.17765771484375,-0.019775303080677986,-0.030409570783376694,-0.07660609483718872
1772534686409674800,0.1876748046875,0.034263432025909424,-0.028960278257727623,0.03285754844546318
1772534686419691500,0.19769140625,0.06258215755224228,-0.04438743740320206,0.18215329945087433
1772534686429707500,0.20770751953125,0.097038134932518,-0.0879807248711586,0.34879687428474426
1772534686439724800,0.217724853515625,0.1341833770275116,-0.17047080397605896,0.5137397646903992
1772534686449741600,0.227741455078125,0.15185211598873138,-0.2625671625137329,0.6206883192062378
1772534686459758600,0.237758544921875,0.1358070969581604,-0.3217090666294098,0.6243586540222168
1772534686469775600,0.247775634765625,0.11690584570169449,-0.3263040781021118,0.5605559945106506
1772534686479791600,0.25779150390625,0.10962769389152527,-0.31582772731781006,0.4741119146347046
1772534686489808600,0.26780859375,0.11262055486440659,-0.3288050591945648,0.38724225759506226
1772534686499825700,0.27782568359375,0.10342598706483841,-0.38117772340774536,0.31984245777130127
1772534686509842700,0.2878427734375,0.07037003338336945,-0.4456872045993805,0.2524825930595398
1772534686519858700,0.297858642578125,0.011775965802371502,-0.5201819539070129,0.17105937004089355
1772534686529875700,0.307875732421875,-0.05476843938231468,-0.5552757382392883,0.07380977272987366
1772534686539892700,0.317892822265625,-0.12633264064788818,-0.5108158588409424,-0.02323048748075962
1772534686549909500,0.327909423828125,-0.18506279587745667,-0.42309534549713135,-0.06440215557813644
1772534686559926800,0.3379267578125,-0.23393286764621735,-0.30661797523498535,-0.021469073370099068
1772534686569942800,0.34794287109375,-0.27158090472221375,-0.21167762577533722,0.0771682858467102
1772534686579959600,0.35795947265625,-0.307234525680542,-0.17400109767913818,0.18104781210422516
1772534686589976600,0.3679765625,-0.33828404545783997,-0.2052684724330902,0.2547752857208252
1772534686599993600,0.37799365234375,-0.37779122591018677,-0.23860804736614227,0.29769691824913025
1772534686610009600,0.388009521484375,-0.42384448647499084,-0.1846582591533661,0.2987542152404785
1772534686620026600,0.398026611328125,-0.4697616398334503,-0.06094084680080414,0.24264726042747498
1772534686630043600,0.408043701171875,-0.5125203132629395,-0.004191815387457609,0.150107741355896
1772534686640060700,0.418060791015625,-0.5405548810958862,-0.06417366117238998,0.05393566936254501
1772534686650077700,0.42807763671875,-0.550437867641449,-0.1930280476808548,-0.00768774701282382
1772534686660093400,0.438093505859375,-0.5492852330207825,-0.3273070156574249,-0.026559172198176384
1772534686670110700,0.44811083984375,-0.553875744342804,-0.4561789929866791,-0.005920473486185074
1772534686680127700,0.458127685546875,-0.5807640552520752,-0.5740270614624023,0.050396859645843506
1772534686690144500,0.46814453125,-0.630923867225647,-0.6593906879425049,0.13943858444690704
1772534686700160800,0.478160888671875,-0.6867451071739197,-0.7073579430580139,0.23948156833648682
1772534686710177500,0.488177490234375,-0.742912769317627,-0.7230884432792664,0.32859519124031067
1772534686720194600,0.498194580078125,-0.805302619934082,-0.7170526385307312,0.39174991846084595
1772534686730211800,0.5082119140625,-0.8649675250053406,-0.6426665782928467,0.42263567447662354
1772534686740228600,0.518228515625,-0.9122895002365112,-0.4879222810268402,0.41819244623184204
1772534686750244900,0.528244873046875,-0.9528073668479919,-0.22949950397014618,0.3844558000564575
1772534686760262000,0.538261962890625,-1.0075324773788452,0.023909859359264374,0.35008662939071655
1772534686770278700,0.548278564453125,-1.075782060623169,0.20043429732322693,0.3178570568561554
1772534686780296000,0.5582958984375,-1.1516141891479492,0.3089146912097931,0.2819483280181885
1772534686790312000,0.56831201171875,-1.2339650392532349,0.3340512216091156,0.24421320855617523
1772534686800328700,0.57832861328125,-1.2951841354370117,0.2836149334907532,0.18831372261047363
1772534686810345700,0.588345703125,-1.305295705795288,0.23498748242855072,0.12237544357776642
1772534686820362800,0.59836279296875,-1.2795071601867676,0.1871429979801178,0.05504647269845009
1772534686830378800,0.608378662109375,-1.2208186388015747,0.12204734236001968,-0.010116550140082836
1772534686840395800,0.618395751953125,-1.1574214696884155,0.05343899130821228,-0.05956638976931572
1772534686850412800,0.628412841796875,-1.1235018968582153,0.01347666047513485,-0.08922841399908066
1772534686860429800,0.638429931640625,-1.1307425498962402,-0.024330640211701393,-0.1178310289978981
1772534686870446600,0.648446533203125,-1.1715312004089355,-0.122003935277462,-0.16276681423187256
1772534686880462600,0.658462646484375,-1.2280051708221436,-0.2661653757095337,-0.22772903740406036
1772534686890479900,0.66847998046875,-1.2786915302276611,-0.4216012954711914,-0.30460864305496216
1772534686900496600,0.67849658203125,-1.311801791191101,-0.5024425983428955,-0.3829284608364105
1772534686910514000,0.688513916015625,-1.3172990083694458,-0.5088526010513306,-0.43936723470687866
1772534686920530000,0.698530029296875,-1.2984992265701294,-0.2901199758052826,-0.497579425573349
1772534686930546700,0.708546630859375,-1.263413429260254,0.11329832673072815,-0.6606460809707642
1772534686940563700,0.718563720703125,-1.2249268293380737,-0.10191544890403748,-0.8298817276954651
1772534686950580700,0.728580810546875,-1.2011959552764893,-0.42364421486854553,-0.9237996935844421
1772534686960597800,0.73859765625,-1.1451603174209595,-0.5323459506034851,-0.8886449337005615
1772534686970613800,0.74861376953125,-1.0744518041610718,-0.5226336717605591,-0.7386772632598877
1772534686980630800,0.758630859375,-1.014737844467163,-0.5107793807983398,-0.5087178349494934
1772534686990647800,0.768647705078125,-0.978496253490448,-0.44123971462249756,-0.25105807185173035
1772534687000664800,0.778664794921875,-0.9633092880249023,-0.36110520362854004,-0.017724135890603065
1772534687010680600,0.7886806640625,-0.922544538974762,-0.2632228434085846,0.14118988811969757
1772534687020697900,0.79869775390625,-0.9538489580154419,-0.13841433823108673,0.21426568925380707
1772534687030714600,0.808714599609375,-1.0717811584472656,0.005967078730463982,0.17186017334461212
1772534687040731600,0.818731689453125,-1.2325674295425415,0.10476556420326233,0.030128074809908867
1772534687050749000,0.8287490234375,-1.3674561977386475,0.1442362666130066,-0.17830422520637512
1772534687060764700,0.8387646484375,-1.4682317972183228,0.1581326425075531,-0.39342400431632996
1772534687070781700,0.84878173828125,-1.547688364982605,0.18887218832969666,-0.5747554302215576
1772534687080799000,0.858799072265625,-1.5955495834350586,0.24011112749576569,-0.6890236735343933
1772534687090815700,0.868815673828125,-1.5988833904266357,0.25586214661598206,-0.7260866165161133
1772534687100831700,0.878831787109375,-1.567938208580017,0.1822587549686432,-0.6773521304130554
1772534687110848800,0.888848876953125,-1.5357650518417358,0.06310200691223145,-0.5538650751113892
1772534687120865800,0.89886572265625,-1.4899070262908936,-0.013099290430545807,-0.36959749460220337
1772534687130882800,0.9088828125,-1.412449598312378,-0.05132737010717392,-0.16091963648796082
1772534687140898800,0.91889892578125,-1.298735499382019,-0.06640272587537766,0.028498485684394836
1772534687150915800,0.928915771484375,-1.171428918838501,-0.09051445126533508,0.16249357163906097
1772534687160932900,0.938932861328125,-1.052085518836975,-0.09191074967384338,0.21799038350582123
1772534687170949600,0.94894970703125,-0.9529043436050415,-0.07396051287651062,0.18205581605434418
1772534687180967000,0.958966796875,-0.8773136734962463,-0.02574717439711094,0.08471915125846863
1772534687190983000,0.96898291015625,-0.8300567269325256,0.05549867823719978,-0.039794016629457474
1772534687200999700,0.978999755859375,-0.7971919775009155,0.12515072524547577,-0.1625998318195343
1772534687211016700,0.9890166015625,-0.7666348814964294,0.14931970834732056,-0.2558671832084656
1772534687221033700,0.99903369140625,-0.7518764138221741,0.15226596593856812,-0.29251840710639954
1772534687231049700,1.0090498046875,-0.767723023891449,0.1655237227678299,-0.2832375764846802
1772534687241066800,1.019066650390625,-0.7963948845863342,0.1801529973745346,-0.22820892930030823
1772534687251083800,1.029083740234375,-0.8319414258003235,0.18247073888778687,-0.16057050228118896
1772534687261100800,1.039100830078125,-0.8622950911521912,0.16398094594478607,-0.12152723222970963
1772534687271117600,1.04911767578125,-0.8735083341598511,0.11027031391859055,-0.12414591759443283
1772534687281133600,1.059133544921875,-0.8595003485679626,0.06663095951080322,-0.16304270923137665
1772534687291150800,1.06915087890625,-0.8159509897232056,0.023450996726751328,-0.21772460639476776
1772534687301167600,1.079167724609375,-0.7606752514839172,0.02773895300924778,-0.2592321038246155
1772534687311184600,1.0891845703125,-0.6967146396636963,0.09349692612886429,-0.26225051283836365
1772534687321201000,1.099200927734375,-0.630760908126831,0.18417862057685852,-0.22354866564273834
1772534687331217700,1.1092177734375,-0.5608188509941101,0.2637658715248108,-0.1754320114850998
1772534687341234700,1.119234619140625,-0.5007187724113464,0.32262465357780457,-0.16220727562904358
1772534687351252000,1.129251953125,-0.4461686909198761,0.3061407506465912,-0.18851985037326813
1772534687361268700,1.139268798828125,-0.3843199610710144,0.2615210711956024,-0.2114752233028412
1772534687371284700,1.14928466796875,-0.31584450602531433,0.20188625156879425,-0.20581761002540588
1772534687381301800,1.1593017578125,-0.22892984747886658,0.0952460914850235,-0.1722940057516098
1772534687391318800,1.16931884765625,-0.12607458233833313,-0.02539217472076416,-0.12596938014030457
1772534687401335800,1.179335693359375,-0.039438217878341675,-0.13805879652500153,-0.05811629816889763
1772534687411351800,1.189351806640625,0.01426655426621437,-0.2222040444612503,0.03885924816131592
1772534687421368800,1.199368896484375,0.025302959606051445,-0.2549814283847809,0.1487617790699005
1772534687431385900,1.2093857421875,0.02407284639775753,-0.23942270874977112,0.22956235706806183
1772534687441402600,1.219402587890625,0.030366694554686546,-0.2339637577533722,0.261063814163208
1772534687451419000,1.2294189453125,0.053639259189367294,-0.2581084966659546,0.23905785381793976
1772534687461436000,1.239435791015625,0.073792465031147,-0.30052199959754944,0.19230899214744568
1772534687471452700,1.24945263671875,0.0736241564154625,-0.3542843163013458,0.14591433107852936
1772534687481470000,1.259469970703125,0.04942107945680618,-0.4300411343574524,0.12312565743923187
1772534687491486700,1.26948681640625,0.01266679260879755,-0.4755050241947174,0.12805810570716858
1772534687501502700,1.279502685546875,-0.03407381474971771,-0.5271468758583069,0.14863048493862152
1772534687511519700,1.289519775390625,-0.08700653910636902,-0.5857266187667847,0.17648635804653168
1772534687521536800,1.299536865234375,-0.15130643546581268,-0.6130836606025696,0.20568472146987915
1772534687531553800,1.3095537109375,-0.2217707484960556,-0.6529330611228943,0.2217145562171936
1772534687541569800,1.31956982421875,-0.2941778302192688,-0.7002270817756653,0.20444607734680176
1772534687551586800,1.3295869140625,-0.38540494441986084,-0.7182316184043884,0.12657365202903748
1772534687561603800,1.339603759765625,-0.5024610161781311,-0.7140158414840698,0.008467254228889942
1772534687571620600,1.34962060546875,-0.6351106762886047,-0.618738055229187,-0.13026240468025208
1772534687581638000,1.359637939453125,-0.7786552906036377,-0.40426039695739746,-0.2719028890132904
1772534687591654000,1.36965380859375,-0.9027378559112549,-0.17983047664165497,-0.4029485285282135
1772534687601670700,1.379670654296875,-0.987542450428009,-0.01793159544467926,-0.5113924145698547
1772534687611687700,1.389687744140625,-1.007786512374878,0.11633460223674774,-0.5899756550788879
1772534687621704700,1.39970458984375,-0.9406085014343262,0.1847512125968933,-0.6298953890800476
1772534687631720700,1.409720703125,-0.8204248547554016,0.16695916652679443,-0.6178525686264038
1772534687641737700,1.41973779296875,-0.6880968809127808,0.07797922194004059,-0.5592076182365417
1772534687651754800,1.429754638671875,-0.5785664319992065,0.011112572625279427,-0.4648294746875763
1772534687661771800,1.439771728515625,-0.5013411641120911,-0.03593749552965164,-0.3553865849971771
1772534687671788800,1.449788818359375,-0.4522430896759033,-0.08558467775583267,-0.24975763261318207
1772534687681804500,1.459804443359375,-0.41992858052253723,-0.08933413773775101,-0.16903136670589447
1772534687691821800,1.46982177734375,-0.4006267786026001,-0.10272344946861267,-0.12150140106678009
1772534687701838800,1.4798388671875,-0.40764740109443665,-0.14370577037334442,-0.12099806219339371
1772534687711855600,1.489855712890625,-0.43602123856544495,-0.14261546730995178,-0.17544984817504883
1772534687721872000,1.499871826171875,-0.48122575879096985,-0.13470135629177094,-0.2549454867839813
1772534687731889000,1.509888916015625,-0.5259812474250793,-0.10884419083595276,-0.32492828369140625
1772534687741906200,1.51990625,-0.5624793171882629,-0.04176076129078865,-0.394840806722641
1772534687751923200,1.529923095703125,-0.5749312043190002,0.03570127114653587,-0.44284987449645996
1772534687761939200,1.539939208984375,-0.5683513283729553,0.1316690742969513,-0.4639554023742676
1772534687771956200,1.549956298828125,-0.553889274597168,0.22936341166496277,-0.47038108110427856
1772534687781973200,1.55997314453125,-0.5406358242034912,0.30713358521461487,-0.4643794000148773
1772534687791990300,1.569990234375,-0.5291866064071655,0.33080214262008667,-0.44239845871925354
1772534687802007300,1.58000732421875,-0.528107225894928,0.3039276599884033,-0.3855876326560974
1772534687812023000,1.59002294921875,-0.5550544261932373,0.2817493975162506,-0.30553436279296875
1772534687822040300,1.600040283203125,-0.6080958247184753,0.2567859888076782,-0.2245846390724182
1772534687832057300,1.610057373046875,-0.6728209853172302,0.16455192863941193,-0.1633005142211914
1772534687842074000,1.62007421875,-0.7345818281173706,0.09336084127426147,-0.14332839846611023
1772534687852090400,1.63009033203125,-0.7858945727348328,0.03608396649360657,-0.16116784512996674
1772534687862107400,1.640107421875,-0.8328090906143188,-0.03771328926086426,-0.18249285221099854
1772534687872124200,1.650124267578125,-0.8705071806907654,-0.10862395167350769,-0.18077483773231506
1772534687882141400,1.660141357421875,-0.888241708278656,-0.17694547772407532,-0.14529594779014587
1772534687892158200,1.670158203125,-0.8997564315795898,-0.26493391394615173,-0.07413335144519806
1772534687902174200,1.68017431640625,-0.9143335223197937,-0.33715805411338806,0.024205470457673073
1772534687912191200,1.690191162109375,-0.9327090382575989,-0.40447476506233215,0.12284203618764877
1772534687922208300,1.700208251953125,-0.9565430283546448,-0.42796438932418823,0.2002556025981903
1772534687932225300,1.710225341796875,-0.994045615196228,-0.3945491909980774,0.24370959401130676
1772534687942241300,1.7202412109375,-1.0450395345687866,-0.327006071805954,0.24575890600681305
1772534687952258300,1.73025830078125,-1.1165717840194702,-0.27080780267715454,0.21138522028923035
1772534687962275300,1.740275390625,-1.199797511100769,-0.22279925644397736,0.1738591492176056
1772534687972292000,1.7502919921875,-1.280585765838623,-0.15719148516654968,0.1508379876613617
1772534687982308000,1.76030810546875,-1.3655917644500732,-0.10196951031684875,0.13271915912628174
1772534687992325400,1.770325439453125,-1.439521074295044,-0.10976111888885498,0.10708943754434586
1772534688002342100,1.780342041015625,-1.4964478015899658,-0.17367805540561676,0.07408221811056137
1772534688012359400,1.790359375,-1.5368319749832153,-0.270923376083374,0.058218300342559814
1772534688022376200,1.800376220703125,-1.5511454343795776,-0.37942561507225037,0.060141634196043015
1772534688032392200,1.81039208984375,-1.5392245054244995,-0.46674081683158875,0.07728812843561172
1772534688042409200,1.8204091796875,-1.503226637840271,-0.5122371912002563,0.1058792918920517
1772534688052426200,1.83042626953125,-1.4590444564819336,-0.5043990015983582,0.1368209719657898
1772534688062443300,1.840443359375,-1.3991843461990356,-0.4679730534553528,0.16711574792861938
1772534688072459300,1.850459228515625,-1.3294439315795898,-0.4048990309238434,0.201641246676445
1772534688082476300,1.860476318359375,-1.2839456796646118,-0.25349190831184387,0.2323208600282669
1772534688092493300,1.870493408203125,-1.2769972085952759,-0.026386866346001625,0.24832618236541748
1772534688102510300,1.88051025390625,-1.2876298427581787,0.1664547622203827,0.23294083774089813
1772534688112527400,1.89052734375,-1.2886828184127808,0.30544647574424744,0.18614856898784637
1772534688122543400,1.90054345703125,-1.3011749982833862,0.3997015953063965,0.12239328771829605
1772534688132560100,1.91056005859375,-1.3229742050170898,0.4322853684425354,0.08323922753334045
1772534688142577200,1.9205771484375,-1.3257029056549072,0.3797371983528137,0.08739642053842545
1772534688152594400,1.930594482421875,-1.3051646947860718,0.2901279628276825,0.14916259050369263
1772534688162610200,1.940610107421875,-1.2726367712020874,0.19147196412086487,0.25382348895072937
1772534688172627200,1.950627197265625,-1.2161785364151,0.13093990087509155,0.37710919976234436
1772534688182644500,1.96064453125,-1.1456021070480347,0.05314098298549652,0.48567137122154236
1772534688192661200,1.9706611328125,-1.0788910388946533,-0.04724101349711418,0.5692237615585327
1772534688202678300,1.98067822265625,-1.0309536457061768,-0.12161671370267868,0.5911344289779663
1772534688212694300,1.9906943359375,-1.0090147256851196,-0.23220127820968628,0.5314476490020752
1772534688222711300,2.000711181640625,-1.0079172849655151,-0.3493063449859619,0.4108826220035553
1772534688232728300,2.010728271484375,-1.019230604171753,-0.4517751932144165,0.2691041827201843
1772534688242745000,2.0207451171875,-1.0426400899887085,-0.5149810314178467,0.14712180197238922
1772534688252761300,2.03076123046875,-1.091456651687622,-0.4995379149913788,0.06821127980947495
1772534688262778400,2.0407783203125,-1.15191650390625,-0.45139914751052856,0.028796760365366936
1772534688272795100,2.050795166015625,-1.2182295322418213,-0.40930867195129395,0.025379393249750137
1772534688282812400,2.0608125,-1.2810978889465332,-0.3703969717025757,0.049126531928777695
1772534688292828400,2.070828369140625,-1.339968204498291,-0.26319941878318787,0.07691981643438339
1772534688302845200,2.08084521484375,-1.3723399639129639,-0.101259246468544,0.08749256283044815
1772534688312862200,2.0908623046875,-1.3703463077545166,0.07139775156974792,0.07130240648984909
1772534688322879200,2.100879150390625,-1.3326764106750488,0.2389952689409256,0.026919232681393623
1772534688332896300,2.110896240234375,-1.2669349908828735,0.3581016957759857,-0.04030507802963257
1772534688342912300,2.120912353515625,-1.1790770292282104,0.41139551997184753,-0.11162479966878891
1772534688352929300,2.13092919921875,-1.0855787992477417,0.3958967328071594,-0.16039526462554932
1772534688362946300,2.1409462890625,-1.0024806261062622,0.31831857562065125,-0.17793697118759155
1772534688372963000,2.150963134765625,-0.9416500926017761,0.19214440882205963,-0.16236920654773712
1772534688382979000,2.16097900390625,-0.9070811867713928,0.05168689787387848,-0.11335372179746628
1772534688392996400,2.170996337890625,-0.8924529552459717,-0.030549652874469757,-0.05758153647184372
1772534688403013000,2.18101318359375,-0.9061136841773987,-0.06795322149991989,-0.023872043937444687
1772534688413030100,2.191030029296875,-0.9271558523178101,-0.12627165019512177,-0.034448254853487015
1772534688423047400,2.20104736328125,-0.9320347309112549,-0.2255348563194275,-0.07401777058839798
1772534688433063200,2.211063232421875,-0.9203112125396729,-0.3360661566257477,-0.12303537875413895
1772534688443080200,2.221080078125,-0.8931145071983337,-0.47864407300949097,-0.14294463396072388
1772534688453097200,2.23109716796875,-0.8638700842857361,-0.6343902945518494,-0.0846799984574318
1772534688463114200,2.2411142578125,-0.8426968455314636,-0.6571943759918213,0.05566006526350975
1772534688473130200,2.251130126953125,-0.8419557213783264,-0.5751932859420776,0.23895958065986633
1772534688483147300,2.261147216796875,-0.8689798712730408,-0.3839476704597473,0.40260788798332214
1772534688493164300,2.271164306640625,-0.9115595817565918,-0.16041576862335205,0.4684913158416748
1772534688503181300,2.281181396484375,-0.9430309534072876,-0.022878417745232582,0.4114663600921631
1772534688513197000,2.291197021484375,-0.9639926552772522,0.02008795738220215,0.25906431674957275
1772534688523214300,2.30121435546875,-0.9706127643585205,0.00700864102691412,0.06468632072210312
1772534688533231400,2.3112314453125,-0.9618855714797974,-0.024147680029273033,-0.10680288076400757
1772534688543248100,2.321248046875,-0.9398226141929626,-0.07607026398181915,-0.20749273896217346
1772534688553265400,2.331265380859375,-0.9098284840583801,-0.14082050323486328,-0.22868910431861877
1772534688563281400,2.341281494140625,-0.8765291571617126,-0.20374061167240143,-0.1825042963027954
1772534688573298200,2.351298095703125,-0.8315611481666565,-0.29963862895965576,-0.08667950332164764
1772534688583315500,2.3613154296875,-0.7740352749824524,-0.39126282930374146,0.03508901223540306
1772534688593332200,2.371332275390625,-0.7072383761405945,-0.4968201518058777,0.16103841364383698
1772534688603348200,2.38134814453125,-0.635332465171814,-0.5670000314712524,0.2764611542224884
1772534688613365200,2.391365234375,-0.5875409841537476,-0.5361198782920837,0.35222941637039185
1772534688623382300,2.40138232421875,-0.5825275778770447,-0.5023691058158875,0.35943859815597534
1772534688633399300,2.4113994140625,-0.609846293926239,-0.46048903465270996,0.26985064148902893
1772534688643416000,2.421416015625,-0.6461566686630249,-0.46069517731666565,0.10645986348390579
1772534688653432300,2.431432373046875,-0.6688632965087891,-0.48646339774131775,-0.07959895581007004
1772534688663449300,2.441449462890625,-0.659456193447113,-0.4985083341598511,-0.2254006266593933
1772534688673466000,2.451466064453125,-0.6229493021965027,-0.4405750036239624,-0.29130107164382935
1772534688683483400,2.4614833984375,-0.5807952284812927,-0.3465590178966522,-0.2702794373035431
1772534688693499400,2.47149951171875,-0.5381425619125366,-0.22374121844768524,-0.18457277119159698
1772534688703516200,2.48151611328125,-0.5253695249557495,-0.043777842074632645,-0.08248689025640488
1772534688713533200,2.491533203125,-0.5267722010612488,0.15973347425460815,-0.0013941648649051785
1772534688723550200,2.50155029296875,-0.518531858921051,0.33861640095710754,0.032582178711891174
1772534688733567200,2.511567138671875,-0.47630050778388977,0.4601241946220398,0.011204184964299202
1772534688743583200,2.521583251953125,-0.4012789726257324,0.483495831489563,-0.04945410043001175
1772534688753600000,2.53160009765625,-0.3021872937679291,0.423569917678833,-0.10617011040449142
1772534688763617000,2.541616943359375,-0.1959732323884964,0.28326019644737244,-0.12933827936649323
1772534688773634300,2.55163427734375,-0.10211332142353058,0.09639844298362732,-0.1018960028886795
1772534688783650000,2.561650146484375,-0.0227362047880888,-0.047197338193655014,-0.03212011978030205
1772534688793667000,2.5716669921875,0.03951545059680939,-0.15694008767604828,0.07265502959489822
1772534688803684400,2.581684326171875,0.07896778732538223,-0.2262784093618393,0.17640672624111176
1772534688813701000,2.591701171875,0.09603199362754822,-0.23611879348754883,0.2384413331747055
1772534688823718100,2.60171826171875,0.09234511107206345,-0.23478907346725464,0.22755086421966553
1772534688833734100,2.611734130859375,0.07234396785497665,-0.2248924970626831,0.13695038855075836
1772534688843751200,2.621751220703125,0.04837924987077713,-0.23992151021957397,-0.02635490894317627
1772534688853768200,2.631768310546875,0.015633821487426758,-0.2519147992134094,-0.20576594769954681
1772534688863785000,2.641784912109375,-0.02509629912674427,-0.25590500235557556,-0.359394371509552
1772534688873801200,2.65180126953125,-0.06630152463912964,-0.2596147954463959,-0.46273940801620483
1772534688883818200,2.661818359375,-0.10386780649423599,-0.2818508446216583,-0.5127213597297668
1772534688893835000,2.6718349609375,-0.12396881729364395,-0.3325936496257782,-0.5140010118484497
1772534688903852300,2.681852294921875,-0.13194231688976288,-0.32270509004592896,-0.47364479303359985
1772534688913868300,2.691868408203125,-0.12656459212303162,-0.2732006311416626,-0.40433257818222046
1772534688923885000,2.701885009765625,-0.11020506918430328,-0.2027222216129303,-0.33357957005500793
1772534688933902000,2.711902099609375,-0.09316962212324142,-0.1353072226047516,-0.28518006205558777
1772534688943919000,2.721919189453125,-0.0915251225233078,-0.07094075530767441,-0.2833923101425171
1772534688953936100,2.73193603515625,-0.09716516733169556,0.011083809658885002,-0.32551470398902893
1772534688963952000,2.7419521484375,-0.08027246594429016,0.060091033577919006,-0.4016105532646179
1772534688973969200,2.75196923828125,-0.056107211858034134,0.06980358064174652,-0.4770083725452423
1772534688983986200,2.761986083984375,-0.039735160768032074,0.06608553975820541,-0.519727885723114
1772534688994003000,2.7720029296875,-0.026085928082466125,0.038657113909721375,-0.5239553451538086
1772534689004019000,2.78201904296875,0.0010191916953772306,-0.03494307026267052,-0.4898701012134552
1772534689014036200,2.7920361328125,0.03105458803474903,-0.14853833615779877,-0.42845389246940613
1772534689024053000,2.802052978515625,0.05937064811587334,-0.2722206115722656,-0.3407543897628784
1772534689034070300,2.8120703125,0.06944724917411804,-0.3421802520751953,-0.2365422397851944
1772534689044087300,2.82208740234375,0.05446430668234825,-0.33940017223358154,-0.1263613998889923
1772534689054103000,2.83210302734375,0.0162452831864357,-0.2939053773880005,-0.0358155220746994
1772534689064120000,2.8421201171875,-0.037344176322221756,-0.22297635674476624,0.009212139993906021
1772534689074137000,2.85213720703125,-0.09668952226638794,-0.15758377313613892,0.0005217132274992764
1772534689084154000,2.862154052734375,-0.16329331696033478,-0.11082424968481064,-0.05479826778173447
1772534689094170000,2.872170166015625,-0.22840121388435364,-0.1096082553267479,-0.13898877799510956
1772534689104187100,2.882187255859375,-0.29039669036865234,-0.11884569376707077,-0.21581751108169556
1772534689114204200,2.8922041015625,-0.3568931519985199,-0.107481449842453,-0.2677648663520813
1772534689124221200,2.90222119140625,-0.43127498030662537,-0.05806197226047516,-0.2753114700317383
1772534689134238200,2.91223828125,-0.5115487575531006,-0.010029198601841927,-0.2523273229598999
1772534689144254200,2.922254150390625,-0.5948486924171448,0.036385972052812576,-0.2113114446401596
1772534689154271200,2.932271240234375,-0.6557781100273132,0.0779896080493927,-0.1694747805595398
1772534689164288000,2.9422880859375,-0.6870745420455933,0.14193210005760193,-0.1239088922739029
1772534689174305300,2.95230517578125,-0.6885941028594971,0.20926401019096375,-0.071681909263134
1772534689184321300,2.9623212890625,-0.6658211350440979,0.22031372785568237,-0.017899904400110245
1772534689194338000,2.972338134765625,-0.6316602826118469,0.13990703225135803,0.041131190955638885
1772534689204355300,2.982355224609375,-0.6048339605331421,0.007978297770023346,0.10585479438304901
1772534689214372000,2.9923720703125,-0.5915139317512512,-0.10382679849863052,0.17375528812408447
1772534689224389000,3.00238916015625,-0.5911032557487488,-0.16405311226844788,0.2257670760154724
1772534689234405000,3.012405029296875,-0.5897237062454224,-0.23093947768211365,0.27801698446273804
1772534689244422100,3.022422119140625,-0.5884369015693665,-0.2990005612373352,0.33296650648117065
1772534689254439200,3.032439208984375,-0.5905567407608032,-0.3520917296409607,0.38395458459854126
1772534689264456000,3.0424560546875,-0.6114513874053955,-0.3935489058494568,0.42547354102134705
1772534689274472200,3.05247216796875,-0.6509492993354797,-0.39697983860969543,0.45089685916900635
1772534689284489200,3.0624892578125,-0.7007892727851868,-0.3712821900844574,0.4631343483924866
1772534689294506000,3.072506103515625,-0.7609149217605591,-0.36058828234672546,0.4588860869407654
1772534689304523300,3.082523193359375,-0.8321028351783752,-0.3750612437725067,0.4354609251022339
1772534689314539300,3.092539306640625,-0.9121263027191162,-0.38315775990486145,0.40227046608924866
1772534689324556000,3.10255615234375,-0.9834800958633423,-0.3756742775440216,0.37193015217781067
1772534689334573000,3.112572998046875,-1.037605881690979,-0.36835139989852905,0.34815743565559387
1772534689344590000,3.122590087890625,-1.0626883506774902,-0.3513447046279907,0.3202880024909973
1772534689354607000,3.132607177734375,-1.0876864194869995,-0.29851531982421875,0.26762184500694275
1772534689364623000,3.142623046875,-1.135931134223938,-0.26773664355278015,0.18646441400051117
1772534689374640000,3.15264013671875,-1.207728624343872,-0.2894973158836365,0.09394992887973785
1772534689384657200,3.1626572265625,-1.291258692741394,-0.314371258020401,0.024835575371980667
1772534689394674200,3.172674072265625,-1.3789030313491821,-0.29146939516067505,-0.009149023331701756
1772534689404690000,3.18268994140625,-1.4618991613388062,-0.25221386551856995,-0.012799951247870922
1772534689414707200,3.192707275390625,-1.5395419597625732,-0.193685844540596,0.004177967086434364
1772534689424724200,3.20272412109375,-1.6012487411499023,-0.10425769537687302,0.0222065020352602
1772534689434741000,3.212740966796875,-1.634069800376892,-0.02381771430373192,0.027345336973667145
1772534689444758300,3.22275830078125,-1.618445873260498,0.04475442320108414,0.008437160402536392
1772534689454774000,3.23277392578125,-1.564942479133606,0.1363210827112198,-0.03123808093369007
1772534689464791000,3.242791015625,-1.4794576168060303,0.2486918419599533,-0.07243718206882477
1772534689474808300,3.252808349609375,-1.3563703298568726,0.3511923849582672,-0.10755335539579391
1772534689484825000,3.2628251953125,-1.1947017908096313,0.4010970890522003,-0.1343093365430832
1772534689494841000,3.272841064453125,-1.0019781589508057,0.4116283059120178,-0.14617665112018585
1772534689504858400,3.2828583984375,-0.7948784828186035,0.3431752026081085,-0.13887719810009003
1772534689514875100,3.292875244140625,-0.6008408069610596,0.20197492837905884,-0.10238416492938995
1772534689524892200,3.30289208984375,-0.4304909408092499,0.024761006236076355,-0.056419335305690765
1772534689534909200,3.3129091796875,-0.29362282156944275,-0.1974712610244751,-0.0029606360476464033
1772534689544925200,3.32292529296875,-0.19990432262420654,-0.43160173296928406,0.06131129339337349
1772534689554942200,3.332942138671875,-0.15655551850795746,-0.6489340662956238,0.12659601867198944
1772534689564959000,3.342958984375,-0.16398121416568756,-0.862378716468811,0.19501982629299164
1772534689574976300,3.352976318359375,-0.1998569220304489,-1.0241657495498657,0.24962420761585236
1772534689584992300,3.3629921875,-0.27209916710853577,-1.0659490823745728,0.28703150153160095
1772534689595009000,3.373009033203125,-0.39288097620010376,-0.9651514291763306,0.28934526443481445
1772534689605026300,3.3830263671875,-0.5564781427383423,-0.7411361336708069,0.23546817898750305
1772534689615043000,3.39304296875,-0.7471597194671631,-0.42617180943489075,0.11024288088083267
1772534689625060000,3.40306005859375,-0.9378947615623474,-0.10211758315563202,-0.08709735423326492
1772534689635076000,3.413076171875,-1.0952098369598389,0.1907491832971573,-0.3346877098083496
1772534689645093000,3.423093017578125,-1.197267770767212,0.38543450832366943,-0.5673062801361084
1772534689655110100,3.433110107421875,-1.2448227405548096,0.49773654341697693,-0.7351834774017334
1772534689665127000,3.443126953125,-1.2335727214813232,0.5362852811813354,-0.8163486123085022
1772534689675143200,3.45314306640625,-1.1667848825454712,0.48967596888542175,-0.803217887878418
1772534689685160200,3.46316015625,-1.0598230361938477,0.383562296628952,-0.7119638919830322
1772534689695177000,3.473177001953125,-0.9332510232925415,0.21908974647521973,-0.5544528365135193
1772534689705194200,3.4831943359375,-0.8043561577796936,0.051303401589393616,-0.34541651606559753
1772534689715211300,3.493211181640625,-0.6685035228729248,-0.07123503088951111,-0.12165240198373795
1772534689725227000,3.50322705078125,-0.5698291063308716,-0.1414564698934555,0.10781248658895493
1772534689735244000,3.513244140625,-0.5047699809074402,-0.16288559138774872,0.29233652353286743
1772534689745261300,3.52326123046875,-0.4666598439216614,-0.18468143045902252,0.3942309319972992
1772534689755278000,3.533278076171875,-0.44382432103157043,-0.22103331983089447,0.40070852637290955
1772534689765294000,3.543294189453125,-0.4527648091316223,-0.19624221324920654,0.3207356631755829
1772534689775311000,3.55331103515625,-0.4925777316093445,-0.13832537829875946,0.16121205687522888
1772534689785328000,3.563328125,-0.5519579648971558,-0.09880034625530243,-0.033738523721694946
1772534689795345200,3.57334521484375,-0.6128144264221191,-0.07740264385938644,-0.22546960413455963
1772534689805361200,3.583361083984375,-0.6643921136856079,-0.07941652834415436,-0.37303057312965393
1772534689815378200,3.593378173828125,-0.6941398978233337,-0.1194254606962204,-0.450167179107666
1772534689825395200,3.603395263671875,-0.693516731262207,-0.15730705857276917,-0.43557223677635193
1772534689835412000,3.613411865234375,-0.669236958026886,-0.1577872335910797,-0.34261035919189453
1772534689845429200,3.62342919921875,-0.632103681564331,-0.1467636078596115,-0.20412251353263855
1772534689855445200,3.6334453125,-0.5802655220031738,-0.14394785463809967,-0.07770038396120071
1772534689865462000,3.6434619140625,-0.5157133936882019,-0.13438603281974792,-0.002065015025436878
1772534689875479300,3.653479248046875,-0.44680413603782654,-0.13619032502174377,0.009282980114221573
1772534689885496000,3.66349609375,-0.3701990842819214,-0.14531777799129486,-0.03148255869746208
1772534689895513000,3.67351318359375,-0.2815469801425934,-0.14784884452819824,-0.08563607186079025
1772534689905529000,3.683529052734375,-0.18944555521011353,-0.1028885617852211,-0.11054861545562744
1772534689915546000,3.693546142578125,-0.12179780751466751,-0.007355650886893272,-0.09632840007543564
1772534689925563100,3.703563232421875,-0.09760511666536331,0.10585186630487442,-0.05375457555055618
1772534689935580200,3.713580078125,-0.12320049107074738,0.19443659484386444,-0.013774934224784374
1772534689945596200,3.72359619140625,-0.1829058974981308,0.25795483589172363,0.005225388333201408
1772534689955613200,3.73361328125,-0.24836240708827972,0.2908475399017334,-0.002356631215661764
1772534689965630000,3.7436298828125,-0.2794952988624573,0.3052150309085846,-0.023036876693367958
1772534689975647200,3.753647216796875,-0.2658918797969818,0.2868237793445587,-0.05145706608891487
1772534689985664300,3.763664306640625,-0.2265857458114624,0.20293687283992767,-0.06866960972547531
1772534689995680000,3.773679931640625,-0.17180877923965454,0.046896401792764664,-0.05702999606728554
1772534690005697300,3.783697265625,-0.10486489534378052,-0.17290785908699036,0.008153533563017845
1772534690015714000,3.793714111328125,-0.046550456434488297,-0.395891398191452,0.12496563792228699
1772534690025731000,3.80373095703125,-0.01817474327981472,-0.5159671902656555,0.274400919675827
1772534690035747000,3.8137470703125,-0.026680346578359604,-0.5252153277397156,0.4124424159526825
1772534690045764000,3.82376416015625,-0.06977561861276627,-0.38369226455688477,0.4985344409942627
1772534690055781000,3.833781005859375,-0.13246509432792664,-0.18448355793952942,0.48674407601356506
1772534690065798100,3.843798095703125,-0.2043834924697876,-0.006385461427271366,0.37181776762008667
1772534690075814100,3.853814208984375,-0.2961392402648926,0.12889805436134338,0.1828118860721588
1772534690085831200,3.8638310546875,-0.38921859860420227,0.18309286236763,-0.030241258442401886
1772534690095848200,3.87384814453125,-0.46112075448036194,0.16178171336650848,-0.21626172959804535
1772534690105865200,3.883865234375,-0.4946155846118927,0.11315079033374786,-0.3340117931365967
1772534690115882200,3.89388232421875,-0.4789141118526459,0.05345204100012779,-0.35927027463912964
1772534690125898200,3.903898193359375,-0.4121233820915222,-0.005461610853672028,-0.31168651580810547
1772534690135915000,3.9139150390625,-0.32789692282676697,-0.10923168063163757,-0.23274323344230652
1772534690145932300,3.923932373046875,-0.24204298853874207,-0.27645474672317505,-0.15344229340553284
1772534690155949000,3.933948974609375,-0.16920846700668335,-0.4723169505596161,-0.10044191777706146
1772534690165965000,3.943965087890625,-0.11817724257707596,-0.650040328502655,-0.07754991948604584
1772534690175982300,3.953982421875,-0.0893905982375145,-0.7700029611587524,-0.07568623870611191
1772534690185999000,3.9639990234375,-0.08768564462661743,-0.8362618684768677,-0.08446827530860901
1772534690196016000,3.97401611328125,-0.10965592414140701,-0.829290509223938,-0.09037144482135773
1772534690206033200,3.984033203125,-0.16067516803741455,-0.7038396596908569,-0.09101459383964539
1772534690216049200,3.994049072265625,-0.2502897381782532,-0.47576308250427246,-0.0995742604136467
1772534690226066200,4.004066162109375,-0.3581395149230957,-0.15645138919353485,-0.1421603411436081
1772534690236083000,4.0140830078125,-0.4625346064567566,0.13673201203346252,-0.24029329419136047
1772534690246100200,4.024100341796875,-0.5435516834259033,0.34246841073036194,-0.3876611888408661
1772534690256116200,4.0341162109375,-0.5897407531738281,0.4711664617061615,-0.535423755645752
1772534690266133000,4.044133056640625,-0.5989348292350769,0.5032631158828735,-0.6474788784980774
1772534690276150300,4.054150390625,-0.5688059329986572,0.4818609058856964,-0.6966685652732849
1772534690286167000,4.0641669921875,-0.5025597810745239,0.4285750687122345,-0.6729112863540649
1772534690296184000,4.07418408203125,-0.42752736806869507,0.34870606660842896,-0.5860626697540283
1772534690306200000,4.084199951171875,-0.34048834443092346,0.2456989735364914,-0.46079185605049133
1772534690316217000,4.094217041015625,-0.26846209168434143,0.13204431533813477,-0.32124432921409607
1772534690326234000,4.104234130859375,-0.194060817360878,0.034752123057842255,-0.2109239548444748
1772534690336251100,4.114251220703125,-0.1189572811126709,-0.07874967157840729,-0.14859826862812042
1772534690346267100,4.12426708984375,-0.05476737394928932,-0.17340268194675446,-0.13711871206760406
1772534690356284200,4.1342841796875,0.011610583402216434,-0.2817632257938385,-0.1721981316804886
1772534690366301200,4.14430126953125,0.07604070752859116,-0.3821750581264496,-0.21590939164161682
1772534690376318200,4.154318115234375,0.1150221899151802,-0.4573822021484375,-0.24075189232826233
1772534690386335200,4.164335205078125,0.1064625233411789,-0.4860103726387024,-0.23200340569019318
1772534690396351000,4.17435107421875,0.049276202917099,-0.48182815313339233,-0.1940152794122696
1772534690406368300,4.1843681640625,-0.05726488679647446,-0.4433790445327759,-0.13886894285678864
1772534690416385300,4.19438525390625,-0.19603341817855835,-0.3547876477241516,-0.07792861759662628
1772534690426402000,4.204402099609375,-0.3276684284210205,-0.21400949358940125,-0.02833869680762291
1772534690436418000,4.21441796875,-0.4290831983089447,-0.06372731178998947,-0.011930961161851883
1772534690446435300,4.224435302734375,-0.49868276715278625,0.08072387427091599,-0.035232555121183395
1772534690456452000,4.2344521484375,-0.5388738512992859,0.1783958375453949,-0.09357389062643051
1772534690466469000,4.24446923828125,-0.5400840044021606,0.2144518494606018,-0.16901326179504395
1772534690476486100,4.254486083984375,-0.5081233978271484,0.18664205074310303,-0.23085452616214752
1772534690486502100,4.264502197265625,-0.45412036776542664,0.09839874505996704,-0.24987508356571198
1772534690496519200,4.274519287109375,-0.4057435095310211,-0.0432601235806942,-0.21434424817562103
1772534690506536200,4.2845361328125,-0.38572320342063904,-0.20047104358673096,-0.11608612537384033
1772534690516553200,4.29455322265625,-0.3951638340950012,-0.31764906644821167,0.0164218507707119
1772534690526569200,4.3045693359375,-0.4240764379501343,-0.4248221218585968,0.14777188003063202
1772534690536586000,4.3145859375,-0.4813264012336731,-0.49182647466659546,0.25174516439437866
1772534690546603300,4.324603271484375,-0.5650191903114319,-0.4785495400428772,0.30754584074020386
1772534690556620000,4.3346201171875,-0.6665090322494507,-0.4061621427536011,0.3155007064342499
1772534690566637000,4.344636962890625,-0.7687405943870544,-0.2527526319026947,0.28319042921066284
1772534690576653300,4.3546533203125,-0.8702424764633179,-0.04493285343050957,0.22251322865486145
1772534690586670000,4.364670166015625,-0.9611691832542419,0.1594407856464386,0.13801832497119904
1772534690596687000,4.37468701171875,-1.0328681468963623,0.2970987856388092,0.041671015322208405
1772534690606704000,4.3847041015625,-1.0749943256378174,0.38959649205207825,-0.04343189671635628
1772534690616720100,4.39472021484375,-1.0826207399368286,0.4741462767124176,-0.0945773720741272
1772534690626737200,4.404737060546875,-1.072795033454895,0.5564494132995605,-0.1084630936384201
1772534690636754000,4.41475390625,-1.0648540258407593,0.5836384296417236,-0.09637606889009476
1772534690646771200,4.424771240234375,-1.0655666589736938,0.5063475966453552,-0.09322049468755722
1772534690656788200,4.434788330078125,-1.049095630645752,0.2854061722755432,-0.10267524421215057
1772534690666804000,4.444803955078125,-1.0242834091186523,-0.002255164785310626,-0.10846815258264542
1772534690676821200,4.4548212890625,-0.9951543211936951,-0.3110460340976715,-0.08545470982789993
1772534690686838300,4.46483837890625,-0.9410184025764465,-0.5708256959915161,-0.010205233469605446
1772534690696855000,4.47485498046875,-0.8730129599571228,-0.7394604682922363,0.10515065491199493
1772534690706871000,4.48487109375,-0.8122169971466064,-0.7874096632003784,0.23820830881595612
1772534690716888000,4.49488818359375,-0.7745955586433411,-0.7178223133087158,0.34782135486602783
1772534690726905000,4.504905029296875,-0.7535454034805298,-0.6023172736167908,0.40665802359580994
1772534690736922000,4.514922119140625,-0.7534061074256897,-0.44196251034736633,0.39701420068740845
1772534690746938600,4.524938720703125,-0.7638920545578003,-0.24046958982944489,0.32224568724632263
1772534690756954600,4.53495458984375,-0.764580488204956,-0.034740936011075974,0.1938517540693283
1772534690766971600,4.5449716796875,-0.7505533695220947,0.15380340814590454,0.04446733370423317
1772534690776988700,4.55498876953125,-0.7089757919311523,0.259458988904953,-0.11749280989170074
1772534690787005700,4.565005615234375,-0.6274945735931396,0.23976865410804749,-0.25673753023147583
1772534690797021700,4.575021728515625,-0.5135176181793213,0.10157402604818344,-0.33958712220191956
1772534690807038500,4.58503857421875,-0.3936631381511688,-0.1039610207080841,-0.3476322591304779
1772534690817055700,4.5950556640625,-0.28988561034202576,-0.3156631588935852,-0.27654290199279785
1772534690827072500,4.605072509765625,-0.2247588038444519,-0.469192773103714,-0.14587491750717163
1772534690837089500,4.615089599609375,-0.21360868215560913,-0.5332740545272827,-0.0015182681381702423
1772534690847105800,4.625105712890625,-0.2499144971370697,-0.5229702591896057,0.1118335872888565
1772534690857122600,4.63512255859375,-0.3396766185760498,-0.4650081694126129,0.15848204493522644
1772534690867139600,4.6451396484375,-0.47886672616004944,-0.395436555147171,0.13011085987091064
1772534690877156600,4.655156494140625,-0.6286567449569702,-0.2808188796043396,0.03704670071601868
1772534690887172600,4.665172607421875,-0.7457631230354309,-0.13020966947078705,-0.09675157815217972
1772534690897189600,4.675189697265625,-0.801720917224884,0.032711341977119446,-0.23209048807621002
1772534690907206700,4.68520654296875,-0.8015105724334717,0.18829907476902008,-0.3391580879688263
1772534690917223700,4.6952236328125,-0.7707286477088928,0.3287595212459564,-0.39815643429756165
1772534690927240700,4.70524072265625,-0.7110320329666138,0.4427531957626343,-0.3970288336277008
1772534690937256400,4.71525634765625,-0.6235208511352539,0.4930456578731537,-0.3378925621509552
1772534690947273700,4.725273681640625,-0.5078842639923096,0.4332481026649475,-0.23069153726100922
1772534690957290800,4.735290771484375,-0.37943974137306213,0.29901066422462463,-0.08924306184053421
1772534690967307500,4.7453076171875,-0.23857422173023224,0.16832536458969116,0.07193011790513992
1772534690977323500,4.755323486328125,-0.10756214708089828,0.03989122435450554,0.23586872220039368
1772534690987340800,4.7653408203125,-0.02219877950847149,-0.05522703751921654,0.38906973600387573
1772534690997357600,4.775357666015625,-0.00035739620216190815,-0.06763283908367157,0.49887239933013916
1772534691007374600,4.78537451171875,-0.053156960755586624,-0.0667545273900032,0.5416927933692932
1772534691017391600,4.7953916015625,-0.1457686573266983,-0.08521449565887451,0.5293126106262207
1772534691027407600,4.80540771484375,-0.23984268307685852,-0.10409870743751526,0.47623470425605774
1772534691037424600,4.815424560546875,-0.3004314601421356,-0.08231671154499054,0.4035551846027374
1772534691047441700,4.825441650390625,-0.29494109749794006,-0.00794341042637825,0.3331678509712219
1772534691057458700,4.835458740234375,-0.2522146701812744,0.11974158138036728,0.27586379647254944
1772534691067474700,4.845474609375,-0.22530315816402435,0.2776361405849457,0.2277926802635193
1772534691077491500,4.855491455078125,-0.2248469591140747,0.40245184302330017,0.18052849173545837
1772534691087508700,4.8655087890625,-0.23461197316646576,0.4632781744003296,0.13850781321525574
1772534691097525500,4.875525390625,-0.23377521336078644,0.48143133521080017,0.11135528981685638
1772534691107542800,4.885542724609375,-0.190511092543602,0.4775654971599579,0.10272105038166046
1772534691117558800,4.895558837890625,-0.09218771755695343,0.4337218701839447,0.11652661114931107
1772534691127575600,4.905575439453125,0.05570880323648453,0.3334088623523712,0.1533847600221634
1772534691137592600,4.915592529296875,0.23854252696037292,0.15291817486286163,0.21877895295619965
1772534691147609600,4.925609619140625,0.41648775339126587,-0.07395332306623459,0.32915419340133667
1772534691157626600,4.935626708984375,0.5638841390609741,-0.20626822113990784,0.48022225499153137
1772534691167642600,4.945642578125,0.6606881618499756,-0.175137460231781,0.6446397304534912
1772534691177659600,4.95565966796875,0.7002806067466736,-0.044617801904678345,0.7821962237358093
1772534691187676700,4.9656767578125,0.7033230066299438,0.13734720647335052,0.8325558304786682
1772534691197693700,4.975693603515625,0.7018492221832275,0.27269303798675537,0.7669693231582642
1772534691207709400,4.98570947265625,0.7115635871887207,0.3223426342010498,0.6033961176872253
1772534691217726700,4.995726806640625,0.7308214902877808,0.27262115478515625,0.4071102440357208
1772534691227743700,5.00574365234375,0.7530927062034607,0.13721458613872528,0.25100505352020264
1772534691237760500,5.015760498046875,0.7895579934120178,-0.005661081522703171,0.1746959090232849
1772534691247777800,5.02577783203125,0.8265639543533325,-0.15610624849796295,0.17736493051052094
1772534691257793800,5.035793701171875,0.8526421785354614,-0.3478817939758301,0.21780076622962952
1772534691267810600,5.045810546875,0.8425256013870239,-0.5479224920272827,0.26379328966140747
1772534691277827800,5.055827880859375,0.7606717944145203,-0.7618198394775391,0.29509609937667847
1772534691287844600,5.0658447265625,0.5953938364982605,-0.9191506505012512,0.32399752736091614
1772534691297860600,5.075860595703125,0.37817925214767456,-0.909537672996521,0.34189316630363464
1772534691307877600,5.085877685546875,0.14389005303382874,-0.7417494654655457,0.3214520514011383
1772534691317894700,5.095894775390625,-0.06755081564188004,-0.4807879328727722,0.23078368604183197
1772534691327911700,5.10591162109375,-0.2021259367465973,-0.22883930802345276,0.07042329758405685
1772534691337928400,5.115928466796875,-0.2453242689371109,-0.02076147124171257,-0.12474219501018524
1772534691347944700,5.12594482421875,-0.21723325550556183,0.16691415011882782,-0.2938358783721924
1772534691357961700,5.135961669921875,-0.1516566425561905,0.30199262499809265,-0.40270164608955383
1772534691367978500,5.145978515625,-0.07775019109249115,0.33877912163734436,-0.43633416295051575
1772534691377995800,5.155995849609375,-0.003853327827528119,0.28194326162338257,-0.4036467969417572
1772534691388012500,5.166012451171875,0.0448918417096138,0.14462162554264069,-0.33610397577285767
1772534691398028500,5.176028564453125,0.05768992751836777,-0.03295741602778435,-0.23805144429206848
1772534691408045600,5.186045654296875,0.018968630582094193,-0.1450197696685791,-0.14441470801830292
1772534691418062600,5.1960625,-0.06303063035011292,-0.19488346576690674,-0.08904039114713669
1772534691428079600,5.20607958984375,-0.17018744349479675,-0.20112645626068115,-0.09716276824474335
1772534691438095600,5.216095703125,-0.2842455804347992,-0.19273535907268524,-0.18110160529613495
1772534691448112600,5.226112548828125,-0.3841215670108795,-0.16256654262542725,-0.3266124725341797
1772534691458129700,5.236129638671875,-0.4592812955379486,-0.1418876349925995,-0.5026453137397766
1772534691468146700,5.246146728515625,-0.5046679377555847,-0.11373694986104965,-0.6597848534584045
1772534691478163700,5.256163818359375,-0.5134246945381165,-0.08569839596748352,-0.7674580216407776
1772534691488179700,5.2661796875,-0.4867877662181854,-0.06245831772685051,-0.8083351850509644
1772534691498196500,5.276196533203125,-0.4250096082687378,-0.04537467285990715,-0.7870461344718933
1772534691508213500,5.286213623046875,-0.3369479179382324,-0.05447256192564964,-0.7109140753746033
1772534691518230800,5.296230712890625,-0.23532143235206604,-0.08893439918756485,-0.6016360521316528
1772534691528246500,5.30624658203125,-0.14038294553756714,-0.14857429265975952,-0.47275424003601074
1772534691538263600,5.316263671875,-0.05716768279671669,-0.1723209023475647,-0.34844478964805603
1772534691552036600,5.33003662109375,0.012147476896643639,-0.15282230079174042,-0.22938312590122223
1772534691562679600,5.340679443359375,0.046540603041648865,-0.12647618353366852,-0.21698930859565735
1772534691572696600,5.350696533203125,0.06516861915588379,-0.11898018419742584,-0.2663800120353699
1772534691582712600,5.360712646484375,0.07081478089094162,-0.13839809596538544,-0.3525223731994629
1772534691592729600,5.3707294921875,0.06980171799659729,-0.18955981731414795,-0.43723511695861816
1772534691602746600,5.38074658203125,0.07088162750005722,-0.27513834834098816,-0.46675440669059753
1772534691612763600,5.390763671875,0.07999709993600845,-0.3407709002494812,-0.4162779152393341
1772534691622779600,5.400779541015625,0.08959619700908661,-0.3787726163864136,-0.28523412346839905
1772534691632796400,5.41079638671875,0.08584140241146088,-0.32248803973197937,-0.09785039722919464
1772534691642813700,5.420813720703125,0.06861208379268646,-0.19743157923221588,0.07912784069776535
1772534691652830700,5.430830810546875,0.03948482498526573,-0.09165029227733612,0.19988621771335602
1772534691662847700,5.44084765625,-0.00833809096366167,-0.003305249148979783,0.22973838448524475
1772534691672863700,5.45086376953125,-0.06846081465482712,0.011562646366655827,0.18469421565532684
1772534691682880800,5.460880859375,-0.14061783254146576,0.001859685406088829,0.09905894100666046
1772534691692897500,5.4708974609375,-0.22932159900665283,-0.010152502916753292,0.017788849771022797
1772534691702914800,5.480914794921875,-0.3181838393211365,-0.029138177633285522,-0.050582483410835266
1772534691712931600,5.490931640625,-0.4004907011985779,-0.08457906544208527,-0.08276305347681046
1772534691722947600,5.500947509765625,-0.4724506437778473,-0.15981443226337433,-0.0632796362042427
1772534691732964900,5.51096484375,-0.5350130796432495,-0.20753508806228638,0.008325840346515179
1772534691742981600,5.520981689453125,-0.5816900134086609,-0.21776294708251953,0.10700048506259918
1772534691752998700,5.53099853515625,-0.6198188066482544,-0.21538394689559937,0.21069678664207458
1772534691763014700,5.5410146484375,-0.6406380534172058,-0.1891944259405136,0.30135637521743774
1772534691773031700,5.55103173828125,-0.6611667275428772,-0.11286210268735886,0.3616192042827606
1772534691783048700,5.561048583984375,-0.6866316199302673,-0.03906884044408798,0.3820600211620331
1772534691793065500,5.5710654296875,-0.717732310295105,0.02899942733347416,0.35490402579307556
1772534691803082800,5.581082763671875,-0.7557699680328369,0.050029344856739044,0.2897047996520996
1772534691813098800,5.5910986328125,-0.7886072397232056,0.0021917815320193768,0.21475757658481598
1772534691823115500,5.601115478515625,-0.8020058870315552,-0.01637098379433155,0.15990018844604492
1772534691833132800,5.6111328125,-0.7849331498146057,0.016499614343047142,0.13449202477931976
1772534691843149600,5.621149658203125,-0.7563039064407349,0.07871078699827194,0.12980113923549652
1772534691853166600,5.63116650390625,-0.726557731628418,0.15040628612041473,0.12074212729930878
1772534691863182600,5.6411826171875,-0.7076849937438965,0.14015311002731323,0.08095770329236984
1772534691873199600,5.65119970703125,-0.6931009888648987,0.051714058965444565,0.01062361616641283
1772534691883216600,5.661216552734375,-0.6782599687576294,-0.12437894195318222,-0.06266923993825912
1772534691893233700,5.671233642578125,-0.6753888130187988,-0.3495388329029083,-0.10706653445959091
1772534691903249700,5.681249755859375,-0.7015352249145508,-0.5358535647392273,-0.08962735533714294
1772534691913266700,5.6912666015625,-0.757030725479126,-0.5898619294166565,-0.02291836589574814
1772534691923283500,5.701283447265625,-0.8137187361717224,-0.5023238658905029,0.056227054446935654
1772534691933300700,5.71130078125,-0.8329036235809326,-0.3210661709308624,0.11670264601707458
1772534691943317800,5.72131787109375,-0.8006463646888733,-0.05615274980664253,0.13106773793697357
1772534691953334500,5.73133447265625,-0.710717499256134,0.255678653717041,0.09116319566965103
1772534691963350500,5.7413505859375,-0.5770974159240723,0.527588427066803,0.00615163566544652
1772534691973367800,5.751367919921875,-0.42309239506721497,0.7212303280830383,-0.10350881516933441
1772534691983384600,5.761384521484375,-0.27314046025276184,0.8527367115020752,-0.19567681849002838
1772534691993401600,5.771401611328125,-0.13038437068462372,0.8836269974708557,-0.25156378746032715
1772534692003418600,5.781418701171875,0.008171909488737583,0.7781708836555481,-0.24681910872459412
1772534692013434600,5.7914345703125,0.13336950540542603,0.5428028106689453,-0.1869368702173233
1772534692023451600,5.80145166015625,0.2399449497461319,0.2027464509010315,-0.08226530998945236
1772534692033468700,5.81146875,0.32889506220817566,-0.12100525200366974,0.0678299143910408
1772534692043485700,5.821485595703125,0.40132346749305725,-0.3706084191799164,0.2392599880695343
1772534692053501700,5.831501708984375,0.464294970035553,-0.5106092095375061,0.4041959345340729
1772534692063518500,5.8415185546875,0.49572426080703735,-0.5305943489074707,0.5298071503639221
1772534692073535700,5.85153564453125,0.4787716567516327,-0.44701212644577026,0.5826780796051025
1772534692083552500,5.861552490234375,0.4131103456020355,-0.2856197655200958,0.5595921874046326
1772534692093569800,5.87156982421875,0.31122925877571106,-0.06557794660329819,0.4576919376850128
1772534692103585800,5.881585693359375,0.1981857866048813,0.2001325637102127,0.30283069610595703
1772534692113602600,5.8916025390625,0.09066039323806763,0.4740498661994934,0.12519706785678864
1772534692123619600,5.90161962890625,-0.0008468852029182017,0.7316808700561523,-0.04577281326055527
1772534692133636600,5.91163671875,-0.08455376327037811,0.9353730082511902,-0.18390938639640808
1772534692143653600,5.921653564453125,-0.14804698526859283,1.0708203315734863,-0.28381040692329407
1772534692153669600,5.931669677734375,-0.1927872896194458,1.1456942558288574,-0.3430092930793762
1772534692163686700,5.941686767578125,-0.21994541585445404,1.1367756128311157,-0.37726420164108276
1772534692173703700,5.95170361328125,-0.2290632724761963,0.9928746223449707,-0.3867306709289551
1772534692183720700,5.961720703125,-0.20362982153892517,0.7298025488853455,-0.3670293986797333
1772534692193736400,5.971736328125,-0.14256539940834045,0.44904303550720215,-0.31622347235679626
1772534692203753700,5.981753662109375,-0.07634031027555466,0.12664316594600677,-0.21209228038787842
1772534692213770800,5.991770751953125,0.017716147005558014,-0.13771551847457886,-0.04507959261536598
1772534692223787500,6.00178759765625,0.12029658257961273,-0.23125213384628296,0.16776396334171295
1772534692233804800,6.0118046875,0.19201897084712982,-0.2230895459651947,0.3820831775665283
1772534692243820500,6.021820556640625,0.2275758981704712,-0.16115613281726837,0.5384339094161987
1772534692253837600,6.031837646484375,0.24884790182113647,-0.10896988958120346,0.588100790977478
1772534692263854800,6.041854736328125,0.253851979970932,-0.11371298134326935,0.532143771648407
1772534692273871600,6.05187158203125,0.2552187144756317,-0.11746431142091751,0.3951292037963867
1772534692283887600,6.0618876953125,0.24960742890834808,-0.1034715324640274,0.22905422747135162
1772534692293904600,6.071904541015625,0.22010760009288788,-0.059660132974386215,0.09442397207021713
1772534692303921700,6.081921630859375,0.1649540662765503,0.056777793914079666,0.02851419895887375
1772534692313938700,6.091938720703125,0.09425992518663406,0.23209048807621002,0.020770259201526642
1772534692323955500,6.10195556640625,0.02377030998468399,0.3998435437679291,0.03596918657422066
1772534692333971700,6.1119716796875,-0.014943795278668404,0.49517911672592163,0.022755378857254982
1772534692343988700,6.12198876953125,-0.006903712637722492,0.4967762231826782,-0.027532292529940605
1772534692354005500,6.132005615234375,0.03244156390428543,0.42603811621665955,-0.0906263068318367
1772534692364022800,6.142022705078125,0.0996517613530159,0.29647746682167053,-0.137444406747818
1772534692374039600,6.15203955078125,0.19755834341049194,0.13716743886470795,-0.1436501145362854
1772534692384055600,6.1620556640625,0.3077825903892517,-0.0073378076776862144,-0.11453882604837418
1772534692394072600,6.172072509765625,0.4193671643733978,-0.13829396665096283,-0.07091651856899261
1772534692404089600,6.182089599609375,0.5289437174797058,-0.28014296293258667,-0.03400137647986412
1772534692414106600,6.192106689453125,0.6209716796875,-0.4485578238964081,0.00567066902294755
1772534692424123600,6.20212353515625,0.6729834675788879,-0.5789640545845032,0.07153889536857605
1772534692434139600,6.2121396484375,0.6696675419807434,-0.5575128197669983,0.15072692930698395
1772534692444156700,6.22215673828125,0.6213570237159729,-0.45773452520370483,0.22082266211509705
1772534692454173400,6.23217333984375,0.5699617266654968,-0.3387785851955414,0.2503613829612732
1772534692464190700,6.242190673828125,0.5543031692504883,-0.17142555117607117,0.21466809511184692
1772534692474206700,6.252206787109375,0.5847111344337463,0.02474263124167919,0.13232901692390442
1772534692484223500,6.262223388671875,0.6366142630577087,0.14145086705684662,0.03199921175837517
1772534692494240500,6.272240478515625,0.6914639472961426,0.16720284521579742,-0.05024852231144905
1772534692504257800,6.2822578125,0.7675166130065918,0.1448996663093567,-0.09073416143655777
1772534692514274600,6.292274658203125,0.8610271215438843,0.07581726461648941,-0.0756622701883316
1772534692524290600,6.30229052734375,0.9444820880889893,-0.04754647985100746,-0.0073386067524552345
1772534692534307800,6.312307861328125,0.9879030585289001,-0.18354399502277374,0.11230816692113876
1772534692544324600,6.32232470703125,0.97110515832901,-0.2790049910545349,0.26898059248924255
1772534692554341600,6.332341552734375,0.89280104637146,-0.2925410568714142,0.43345582485198975
1772534692564357600,6.342357666015625,0.7899846434593201,-0.2088773101568222,0.5499110817909241
1772534692574374700,6.352374755859375,0.7057778835296631,-0.10704629123210907,0.570767879486084
1772534692584391700,6.3623916015625,0.6528283953666687,-0.010688064619898796,0.5005483031272888
1772534692594408700,6.37240869140625,0.6294082999229431,0.0932077094912529,0.363575279712677
1772534692604425700,6.38242578125,0.6243469715118408,0.17043165862560272,0.2045387625694275
1772534692614441700,6.392441650390625,0.6390483975410461,0.202053502202034,0.06018663942813873
1772534692624458500,6.40245849609375,0.6448282599449158,0.15839363634586334,-0.042758915573358536
1772534692634475800,6.412475830078125,0.635919451713562,0.0412779301404953,-0.0878736600279808
1772534692644492500,6.422492431640625,0.6100825071334839,-0.10039105266332626,-0.07847855985164642
1772534692654509600,6.432509521484375,0.575473427772522,-0.27897703647613525,-0.022491460666060448
1772534692664525800,6.44252587890625,0.5366277694702148,-0.4328504800796509,0.05684623867273331
1772534692674542600,6.45254248046875,0.49322834610939026,-0.5164945125579834,0.12588869035243988
1772534692684559600,6.4625595703125,0.4296160936355591,-0.5213910341262817,0.15589852631092072
1772534692694576600,6.47257666015625,0.3394622206687927,-0.42199864983558655,0.11875887215137482
1772534692704593700,6.48259375,0.23697766661643982,-0.251272976398468,-0.0027710190042853355
1772534692714609700,6.492609619140625,0.1413251757621765,-0.06650792062282562,-0.20196987688541412
1772534692724626400,6.50262646484375,0.06618274748325348,0.083328977227211,-0.44777804613113403
1772534692734643700,6.512643798828125,0.014165087603032589,0.18794140219688416,-0.684111475944519
1772534692744660700,6.52266064453125,-0.009816678240895271,0.22691702842712402,-0.8544890880584717
1772534692754676500,6.532676513671875,-0.00490154791623354,0.1884990781545639,-0.9160683155059814
1772534692764693800,6.54269384765625,0.025522936135530472,0.14996233582496643,-0.8605008721351624
1772534692774710500,6.55271044921875,0.0807821974158287,0.13754534721374512,-0.7237435579299927
1772534692784727600,6.5627275390625,0.16192765533924103,0.12177703529596329,-0.5624428391456604
1772534692794744800,6.572744873046875,0.2622830271720886,0.08528240770101547,-0.4095267951488495
1772534692804760600,6.582760498046875,0.37475043535232544,0.045219674706459045,-0.29859256744384766
1772534692814777600,6.592777587890625,0.47493988275527954,-0.0007150587625801563,-0.24675758183002472
1772534692824794600,6.602794677734375,0.5607221722602844,-0.05357321351766586,-0.2509842813014984
1772534692834811600,6.612811767578125,0.6335561871528625,-0.13633573055267334,-0.2993667423725128
1772534692844828700,6.62282861328125,0.6903805732727051,-0.22984625399112701,-0.36933571100234985
1772534692854844700,6.6328447265625,0.7138922810554504,-0.3741387128829956,-0.4261273443698883
1772534692864861700,6.64286181640625,0.6904548406600952,-0.5027371644973755,-0.4266916811466217
1772534692874878700,6.652878662109375,0.6336658596992493,-0.5260424613952637,-0.3647947311401367
1772534692884895500,6.6628955078125,0.5459416508674622,-0.49056118726730347,-0.2688429057598114
1772534692894911500,6.672911376953125,0.42829570174217224,-0.4103952646255493,-0.1806832253932953
1772534692904928800,6.6829287109375,0.30429917573928833,-0.2933991253376007,-0.13347390294075012
1772534692914945500,6.692945556640625,0.1961285024881363,-0.15060095489025116,-0.13668860495090485
1772534692924962600,6.702962646484375,0.09894096106290817,-0.020494889467954636,-0.1825447827577591
1772534692934979600,6.7129794921875,0.014348579570651054,0.10564999282360077,-0.24625451862812042
1772534692944995600,6.72299560546875,-0.0635392963886261,0.18706895411014557,-0.29984050989151
1772534692955012600,6.7330126953125,-0.14704111218452454,0.21290108561515808,-0.3197910487651825
1772534692965029600,6.743029541015625,-0.2317141890525818,0.2422690987586975,-0.29629504680633545
1772534692975046700,6.753046630859375,-0.2908344864845276,0.23423007130622864,-0.2429300844669342
1772534692985063700,6.763063720703125,-0.3083826005458832,0.20203858613967896,-0.17282956838607788
1772534692995079700,6.77307958984375,-0.30534499883651733,0.1247752234339714,-0.08986011147499084
1772534693005096700,6.7830966796875,-0.297933429479599,0.012983709573745728,0.0002364887041039765
1772534693015113500,6.793113525390625,-0.29284119606018066,-0.10261106491088867,0.0915466919541359
1772534693025130800,6.803130859375,-0.3051500618457794,-0.1960403472185135,0.18926872313022614
1772534693035146800,6.813146728515625,-0.3472924530506134,-0.2523568868637085,0.28030142188072205
1772534693045163500,6.82316357421875,-0.42612308263778687,-0.2985267639160156,0.3635838031768799
1772534693055180500,6.8331806640625,-0.5325219631195068,-0.3433680236339569,0.4404335916042328
1772534693065197800,6.84319775390625,-0.6462833881378174,-0.3395434617996216,0.5065289735794067
1772534693075214600,6.853214599609375,-0.7487623691558838,-0.2587791085243225,0.5341965556144714
1772534693085230600,6.863230712890625,-0.8321360945701599,-0.15963999927043915,0.5090389847755432
1772534693095248000,6.873247802734375,-0.8918697237968445,-0.028064390644431114,0.4184049665927887
1772534693105264600,6.8832646484375,-0.9403656125068665,0.0723988339304924,0.2730749547481537
1772534693115281700,6.89328173828125,-0.9679884910583496,0.09825386852025986,0.09400772303342819
1772534693125298700,6.903298583984375,-0.978351354598999,0.03486024588346481,-0.07740957289934158
1772534693135314700,6.913314697265625,-0.9803583025932312,-0.10100650787353516,-0.1759428083896637
1772534693145331700,6.923331787109375,-0.9721336960792542,-0.1723046600818634,-0.1703091561794281
1772534693155348500,6.933348388671875,-0.9399898648262024,-0.2101188749074936,-0.06889224797487259
1772534693165365800,6.94336572265625,-0.8708848357200623,-0.19935758411884308,0.08859457820653915
1772534693175382500,6.953382568359375,-0.7654396295547485,-0.15801332890987396,0.24033670127391815
1772534693185398500,6.9633984375,-0.6309470534324646,-0.11035154014825821,0.3467603623867035
1772534693195415800,6.973415771484375,-0.4834819734096527,-0.05567871034145355,0.3853839039802551
1772534693205432600,6.9834326171875,-0.3362392783164978,-0.02582387439906597,0.36725443601608276
1772534693215449600,6.99344970703125,-0.1885576695203781,-0.010577010922133923,0.3138103783130646
1772534693225465600,7.003465576171875,-0.054730623960494995,-0.012131497263908386,0.263190358877182
1772534693235482600,7.013482666015625,0.0591522678732872,-0.006150304339826107,0.24138545989990234
1772534693245499600,7.023499755859375,0.14686614274978638,0.01896223984658718,0.2436494082212448
1772534693255516400,7.033516357421875,0.22017498314380646,0.0369257926940918,0.2550746500492096
1772534693265533700,7.04353369140625,0.2717795670032501,0.04959950968623161,0.2477714568376541
1772534693275549700,7.0535498046875,0.2960242033004761,0.009530387818813324,0.20886293053627014
1772534693285566500,7.06356640625,0.28206416964530945,-0.07213278114795685,0.15558212995529175
1772534693295583700,7.073583740234375,0.23812095820903778,-0.1572876274585724,0.10918161273002625
1772534693305600800,7.083600830078125,0.17061355710029602,-0.18736083805561066,0.07672140747308731
1772534693315617500,7.093617431640625,0.09991567581892014,-0.13601882755756378,0.05835385248064995
1772534693325633500,7.103633544921875,0.026149578392505646,-0.0033814155030995607,0.044558413326740265
1772534693335650600,7.113650634765625,-0.054790545254945755,0.1692473441362381,0.016411731019616127
1772534693345667600,7.12366748046875,-0.13656742870807648,0.3392214775085449,-0.0422971248626709
1772534693355684900,7.133684814453125,-0.2072053849697113,0.4750962257385254,-0.1349591463804245
1772534693365700600,7.14370068359375,-0.2583490014076233,0.5863729119300842,-0.24024376273155212
1772534693375717600,7.153717529296875,-0.2838711440563202,0.6839010715484619,-0.34205135703086853
1772534693385734700,7.163734619140625,-0.2871913015842438,0.7211941480636597,-0.4188593029975891
1772534693395751700,7.173751708984375,-0.2812042534351349,0.6807205080986023,-0.4458025097846985
1772534693405768700,7.183768798828125,-0.2643964886665344,0.6295481324195862,-0.41555166244506836
1772534693415784700,7.19378466796875,-0.22739560902118683,0.5818309187889099,-0.3348720073699951
1772534693425801700,7.2038017578125,-0.1726415455341339,0.4538809359073639,-0.2203102707862854
1772534693435818800,7.21381884765625,-0.1066817045211792,0.2751133143901825,-0.076922208070755
1772534693445835500,7.22383544921875,-0.033116407692432404,0.14993835985660553,0.07320603728294373
1772534693455852800,7.233852783203125,0.04893159121274948,0.10941091179847717,0.20159809291362762
1772534693465868800,7.243868896484375,0.12517203390598297,0.08839617669582367,0.2825573980808258
1772534693475885600,7.253885498046875,0.1939963698387146,0.07690490037202835,0.31144362688064575
1772534693485902600,7.263902587890625,0.25850266218185425,0.06112433969974518,0.2907026708126068
1772534693495919600,7.273919677734375,0.3097970187664032,0.032460737973451614,0.24550244212150574
1772534693505936600,7.2839365234375,0.3479720950126648,-0.005298092495650053,0.19349995255470276
1772534693515952600,7.29395263671875,0.3670387268066406,-0.05215854197740555,0.16117636859416962
1772534693525969700,7.3039697265625,0.3538012206554413,-0.07408594340085983,0.1660827100276947
1772534693535986700,7.313986572265625,0.3023894131183624,-0.06933566182851791,0.18352802097797394
1772534693546003500,7.32400341796875,0.2333746701478958,-0.035652536898851395,0.19867713749408722
1772534693556019500,7.33401953125,0.1630091667175293,0.00038269624928943813,0.20037756860256195
1772534693566036700,7.34403662109375,0.10658050328493118,0.06250731647014618,0.18689212203025818
1772534693576053500,7.354053466796875,0.07035592198371887,0.1534058004617691,0.13934777677059174
1772534693586070500,7.364070556640625,0.051589157432317734,0.22471539676189423,0.0543186329305172
1772534693596087800,7.374087890625,0.03520645573735237,0.24105070531368256,-0.06611324101686478
1772534693606103600,7.384103515625,0.026806846261024475,0.19888193905353546,-0.1940709352493286
1772534693616120600,7.39412060546875,0.03921531140804291,0.10203316062688828,-0.2968601584434509
1772534693626137900,7.404137939453125,0.07927537709474564,-0.05120087042450905,-0.3423765301704407
1772534693636154600,7.414154541015625,0.145065575838089,-0.191481813788414,-0.3122497797012329
1772534693646171600,7.424171630859375,0.22678707540035248,-0.2770920693874359,-0.2090807855129242
1772534693656187600,7.434187744140625,0.31940728425979614,-0.32185447216033936,-0.05306774377822876
1772534693666204700,7.44420458984375,0.4355735778808594,-0.28535717725753784,0.12868741154670715
1772534693676221700,7.4542216796875,0.5640942454338074,-0.14126311242580414,0.29916006326675415
1772534693686238500,7.464238525390625,0.6899270415306091,0.046778690069913864,0.3972477614879608
1772534693696255700,7.474255859375,0.8042315244674683,0.1758599728345871,0.39222824573516846
1772534693706271700,7.484271728515625,0.8940814733505249,0.21860557794570923,0.29147711396217346
1772534693716288500,7.49428857421875,0.9590058922767639,0.20465460419654846,0.13416872918605804
1772534693726305800,7.504305908203125,0.9982424974441528,0.1601121723651886,-0.028793297708034515
1772534693736322600,7.514322509765625,1.0100829601287842,0.017111342400312424,-0.16745983064174652
1772534693746338300,7.52433837890625,0.9999077916145325,-0.18965941667556763,-0.2597769796848297
1772534693756355600,7.53435546875,0.9763478636741638,-0.43275460600852966,-0.2640436291694641
1772534693766372400,7.544372314453125,0.9324544668197632,-0.6099320650100708,-0.17720194160938263
1772534693776389400,7.554389404296875,0.8612516522407532,-0.6559144854545593,-0.0269453302025795
1772534693786406400,7.564406494140625,0.7691624760627747,-0.5788679122924805,0.12490198761224747
1772534693796422400,7.57442236328125,0.6748274564743042,-0.42031392455101013,0.21650780737400055
1772534693806439400,7.584439453125,0.5901799201965332,-0.1709032952785492,0.21701593697071075
1772534693816456200,7.594456298828125,0.5181379318237305,0.13633812963962555,0.1282471865415573
1772534693826473500,7.604473388671875,0.4766717553138733,0.42084816098213196,-0.03262505307793617
1772534693836490500,7.614490478515625,0.4843709468841553,0.6298474669456482,-0.22475002706050873
1772534693846506200,7.62450634765625,0.5383950471878052,0.7388074994087219,-0.39266711473464966
1772534693856523500,7.6345234375,0.6026960015296936,0.7511943578720093,-0.49632561206817627
1772534693866540500,7.64454052734375,0.65086829662323,0.6856241822242737,-0.5245247483253479
1772534693876557300,7.654557373046875,0.6947652101516724,0.5438177585601807,-0.49195241928100586
1772534693886574600,7.66457470703125,0.7252101898193359,0.3300769627094269,-0.40696215629577637
1772534693896590600,7.674590576171875,0.741873562335968,0.06167614832520485,-0.2853132486343384
1772534693906607400,7.684607421875,0.733954131603241,-0.17389509081840515,-0.16029059886932373
1772534693916624600,7.694624755859375,0.7121322154998779,-0.35986924171447754,-0.0656069740653038
1772534693926641400,7.704641357421875,0.7041667103767395,-0.5471935868263245,-0.033956900238990784
1772534693936657400,7.714657470703125,0.7063044309616089,-0.7243710160255432,-0.06550630182027817
1772534693946674400,7.72467431640625,0.6902886629104614,-0.8586137890815735,-0.12386814504861832
1772534693956691500,7.73469140625,0.6532427668571472,-0.8474937677383423,-0.1724998652935028
1772534693966708500,7.74470849609375,0.6018813252449036,-0.6929640769958496,-0.1955985277891159
1772534693976725200,7.754725341796875,0.5287221670150757,-0.42641231417655945,-0.19769230484962463
1772534693986741500,7.764741455078125,0.44137048721313477,-0.052018992602825165,-0.19950352609157562
1772534693996758500,7.774758544921875,0.35905855894088745,0.3438316583633423,-0.22912107408046722
1772534694006775300,7.784775390625,0.3018392026424408,0.6322360634803772,-0.3010554313659668
1772534694016792600,7.79479248046875,0.2782718241214752,0.8061724305152893,-0.40375837683677673
1772534694026809300,7.804809326171875,0.2849512994289398,0.8972136378288269,-0.5039348006248474
1772534694036825300,7.814825439453125,0.3223649859428406,0.9074215292930603,-0.5737879276275635
1772534694046842400,7.82484228515625,0.38889580965042114,0.8250156044960022,-0.5873966813087463
1772534694056859400,7.834859375,0.4856146275997162,0.6785460114479065,-0.5312734842300415
1772534694066876400,7.84487646484375,0.6072894334793091,0.5249383449554443,-0.41099685430526733
1772534694076893400,7.8548935546875,0.7322089672088623,0.35880663990974426,-0.25075259804725647
1772534694086909400,7.864909423828125,0.849096417427063,0.185674786567688,-0.08871309459209442
1772534694096926500,7.874926513671875,0.9547768235206604,-0.029637521132826805,0.027169035747647285
1772534694106943500,7.884943603515625,1.0680948495864868,-0.2486708015203476,0.08211111277341843
1772534694116960500,7.89496044921875,1.1763662099838257,-0.4148547053337097,0.09836678206920624
1772534694126976500,7.9049765625,1.2439481019973755,-0.46807610988616943,0.10291839390993118
1772534694136993500,7.91499365234375,1.2448078393936157,-0.39497634768486023,0.1079496368765831
1772534694147010300,7.92501025390625,1.1762138605117798,-0.29066404700279236,0.11049295216798782
1772534694157027600,7.935027587890625,1.0510807037353516,-0.14569701254367828,0.10008265823125839
1772534694167044400,7.94504443359375,0.8983606696128845,-0.003566771512851119,0.0730222761631012
1772534694177060400,7.955060302734375,0.7519493699073792,0.11906540393829346,0.03519127517938614
1772534694187077600,7.96507763671875,0.6372246742248535,0.2060021609067917,-0.0073623089119791985
1772534694197094400,7.975094482421875,0.5771967768669128,0.23341114819049835,-0.0359199158847332
1772534694207111400,7.985111328125,0.5640361905097961,0.23199328780174255,-0.027643878012895584
1772534694217128400,7.99512841796875,0.5810316801071167,0.24497993290424347,0.01810550130903721
1772534694227144400,8.00514453125,0.6105198264122009,0.2099449783563614,0.09204097837209702
1772534694237161500,8.015161376953126,0.64354407787323,0.13046880066394806,0.17872101068496704
1772534694247178200,8.02517822265625,0.6801984906196594,0.03817135468125343,0.25492310523986816
1772534694257195500,8.035195556640625,0.7131348848342896,-0.07277194410562515,0.32470059394836426
1772534694267212300,8.04521240234375,0.707577109336853,-0.12757766246795654,0.38419854640960693
1772534694277228300,8.055228271484374,0.6625263094902039,-0.16907823085784912,0.41968223452568054
1772534694287245600,8.06524560546875,0.5839385390281677,-0.20027397572994232,0.4265079200267792
1772534694297262300,8.075262451171875,0.47118696570396423,-0.223626971244812,0.39090731739997864
1772534694307279400,8.085279296875,0.3476722240447998,-0.2806473672389984,0.3216025233268738
1772534694317296400,8.09529638671875,0.23808367550373077,-0.32609447836875916,0.24295832216739655
1772534694327312400,8.1053125,0.14680808782577515,-0.3272007703781128,0.17984725534915924
1772534694337329400,8.115329345703126,0.06253501772880554,-0.2729271352291107,0.13572508096694946
1772534694347346400,8.125346435546875,-0.007182811852544546,-0.15892334282398224,0.089922696352005
1772534694357363500,8.135363525390625,-0.0718424990773201,-0.04378849267959595,0.023958595469594002
1772534694367379500,8.14537939453125,-0.1203831359744072,0.03133422136306763,-0.05450159311294556
1772534694377396200,8.155396240234374,-0.13162274658679962,0.049604836851358414,-0.1374438852071762
1772534694387413500,8.16541357421875,-0.08282005041837692,-0.01275627501308918,-0.18903276324272156
1772534694397430500,8.175430419921875,0.03852555528283119,-0.11138005554676056,-0.1686936765909195
1772534694407447300,8.185447265625,0.20427857339382172,-0.19360381364822388,-0.047450605779886246
1772534694417463600,8.195463623046875,0.3778937757015228,-0.19152867794036865,0.15823277831077576
1772534694427480600,8.20548046875,0.5427200198173523,-0.07508969306945801,0.4034808874130249
1772534694437497300,8.215497314453126,0.7103697061538696,0.09035918861627579,0.6299883127212524
1772534694447514600,8.2255146484375,0.8954101204872131,0.2500956058502197,0.785955011844635
1772534694457531400,8.235531494140625,1.07845139503479,0.3817489445209503,0.8467842936515808
1772534694467547400,8.24554736328125,1.2333415746688843,0.4351775646209717,0.8287370800971985
1772534694477564400,8.255564453125,1.3451213836669922,0.4101089537143707,0.7666431069374084
1772534694487581400,8.26558154296875,1.416424036026001,0.3259621262550354,0.7062492966651917
1772534694497598500,8.275598388671876,1.4535967111587524,0.1822582185268402,0.6750175952911377
1772534694507615200,8.285615234375,1.4219168424606323,0.016276707872748375,0.6851008534431458
1772534694517631500,8.295631591796875,1.3096765279769897,-0.0921296626329422,0.7228647470474243
1772534694527648500,8.3056484375,1.1352648735046387,-0.13287335634231567,0.7637519836425781
1772534694537665300,8.315665283203124,0.9187617897987366,-0.10375569015741348,0.7666828036308289
1772534694547682600,8.3256826171875,0.6733142137527466,-0.013257482089102268,0.6998984217643738
1772534694557699300,8.33569921875,0.40465107560157776,0.10495437681674957,0.5420414209365845
1772534694567715300,8.34571533203125,0.15254878997802734,0.21711499989032745,0.3147832453250885
1772534694577732400,8.355732421875,-0.06628873944282532,0.3088420033454895,0.06562162190675735
1772534694587749400,8.365749267578124,-0.2316923439502716,0.38291117548942566,-0.15017777681350708
1772534694597766400,8.375766357421876,-0.33252760767936707,0.48645299673080444,-0.2776619791984558
1772534694607782400,8.385782470703125,-0.3790096342563629,0.6025082468986511,-0.31673240661621094
1772534694617799400,8.39579931640625,-0.37613847851753235,0.7015336155891418,-0.2931242883205414
1772534694627816400,8.40581640625,-0.32747960090637207,0.7278757691383362,-0.23549507558345795
1772534694637833500,8.41583349609375,-0.2352553904056549,0.7088895440101624,-0.1571725755929947
1772534694647850500,8.4258505859375,-0.106780506670475,0.6721144914627075,-0.07931745797395706
1772534694657866500,8.435866455078125,0.05040831118822098,0.6055535674095154,-0.0022626216523349285
1772534694667883500,8.445883544921875,0.20312994718551636,0.533257782459259,0.0730568990111351
1772534694677900300,8.455900390625,0.32846468687057495,0.471993088722229,0.1498507410287857
1772534694687917600,8.46591748046875,0.41830751299858093,0.4383765459060669,0.21534506976604462
1772534694697934300,8.475934326171876,0.4793679416179657,0.42221248149871826,0.2510833442211151
1772534694707950300,8.485950439453125,0.5164409875869751,0.379154771566391,0.24599511921405792
1772534694717967600,8.495967529296875,0.5426896214485168,0.2935671806335449,0.20162898302078247
1772534694727984400,8.505984375,0.5753322839736938,0.1936512291431427,0.14031103253364563
1772534694738001400,8.51600146484375,0.6103019714355469,0.10749902576208115,0.08800149708986282
1772534694748018400,8.526018310546876,0.6344144940376282,0.05884813517332077,0.06547354906797409
1772534694758034400,8.536034423828125,0.6356382369995117,0.055142346769571304,0.07650888711214066
1772534694768051500,8.546051513671875,0.6160706281661987,0.07517437636852264,0.09985895454883575
1772534694778068500,8.556068359375,0.5885953307151794,0.08867686986923218,0.11376145482063293
1772534694788085500,8.56608544921875,0.5603176355361938,0.1121734082698822,0.10586118698120117
1772534694798102300,8.576102294921874,0.5331358313560486,0.13604038953781128,0.07954435795545578
1772534694808118300,8.5861181640625,0.5207590460777283,0.15176929533481598,0.03736415132880211
1772534694818135600,8.596135498046875,0.523241400718689,0.158905491232872,-0.012828446924686432
1772534694828152300,8.60615234375,0.5414949655532837,0.14909493923187256,-0.07068268954753876
1772534694838169300,8.61616943359375,0.5898938775062561,0.1235232725739479,-0.11411165446043015
1772534694848186400,8.626186279296874,0.6634301543235779,0.09642080962657928,-0.12801681458950043
1772534694858202400,8.636202392578125,0.7414384484291077,0.03002181462943554,-0.10977842658758163
1772534694868219400,8.646219482421875,0.8104411959648132,-0.06653987616300583,-0.040889907628297806
1772534694878236400,8.656236328125,0.8614777326583862,-0.13725745677947998,0.08725101500749588
1772534694888253400,8.66625341796875,0.9054704904556274,-0.12937822937965393,0.2602004110813141
1772534694898270500,8.6762705078125,0.952346682548523,-0.050877027213573456,0.4393469989299774
1772534694908286200,8.6862861328125,0.9951213002204895,0.06639367341995239,0.5787459015846252
1772534694918303500,8.696303466796875,1.0324406623840332,0.23174028098583221,0.6354973316192627
1772534694928320500,8.706320556640625,1.0363534688949585,0.38980475068092346,0.5850166082382202
1772534694938337300,8.716337158203125,1.010414719581604,0.48437732458114624,0.4350854158401489
1772534694948353500,8.726353515625,0.981865406036377,0.5225638747215271,0.23852361738681793
1772534694958370600,8.73637060546875,0.9634408354759216,0.520183265209198,0.06068039312958717
1772534694968387300,8.74638720703125,0.9611545205116272,0.4965927302837372,-0.05233830586075783
1772534694978404600,8.756404541015625,0.9598501324653625,0.48476243019104004,-0.08289515227079391
1772534694988421400,8.76642138671875,0.9534060955047607,0.4572301208972931,-0.047918789088726044
1772534694998437400,8.776437255859374,0.9472741484642029,0.4038529396057129,0.046001847833395004
1772534695008454400,8.786454345703126,0.9361053705215454,0.41022294759750366,0.17097973823547363
1772534695018471400,8.796471435546875,0.9317226409912109,0.4572050869464874,0.27683746814727783
1772534695028488400,8.806488525390625,0.9376643896102905,0.48599013686180115,0.3191111385822296
1772534695038505200,8.816505126953125,0.9734735488891602,0.5107008218765259,0.27933257818222046
1772534695048521500,8.826521484375,1.0292893648147583,0.5155826807022095,0.17308177053928375
1772534695058538500,8.83653857421875,1.0801637172698975,0.46321558952331543,0.03182503953576088
1772534695068555300,8.84655517578125,1.1068742275238037,0.36897537112236023,-0.10724496096372604
1772534695078572500,8.856572509765625,1.1022170782089233,0.2392040640115738,-0.22216568887233734
1772534695088589300,8.86658935546875,1.0770100355148315,0.07905806601047516,-0.2877335250377655
1772534695098605300,8.876605224609374,1.0362279415130615,-0.09449880570173264,-0.2909655272960663
1772534695108622300,8.886622314453126,1.007198452949524,-0.23247505724430084,-0.2345414012670517
1772534695118639400,8.896639404296875,1.0020673274993896,-0.3070440888404846,-0.14061890542507172
1772534695128656400,8.906656494140625,1.0148459672927856,-0.2838388979434967,-0.033303361386060715
1772534695138673700,8.916673583984375,1.0363723039627075,-0.16838182508945465,0.0641677975654602
1772534695148689400,8.926689453125,1.0571916103363037,-0.02876932919025421,0.12415576726198196
1772534695158706400,8.93670654296875,1.0673339366912842,0.12391795217990875,0.11641129851341248
1772534695168723500,8.946723388671876,1.0654937028884888,0.2335222065448761,0.04006832465529442
1772534695178740500,8.956740478515625,1.0647975206375122,0.2878219187259674,-0.06710926443338394
1772534695188756500,8.966756591796875,1.0564045906066895,0.3206280767917633,-0.16492131352424622
1772534695198773500,8.9767734375,1.0424171686172485,0.3310173451900482,-0.2242879569530487
1772534695208790500,8.98679052734375,1.022418737411499,0.3199521601200104,-0.23524074256420135
1772534695218807600,8.9968076171875,0.9918360114097595,0.305255264043808,-0.20912738144397736
1772534695228824300,9.00682421875,0.9551680088043213,0.30004239082336426,-0.16331861913204193
1772534695238840300,9.01684033203125,0.9062252640724182,0.27437588572502136,-0.12504605948925018
1772534695248857600,9.026857666015625,0.8567692637443542,0.23518428206443787,-0.10469285398721695
1772534695258874400,9.036874267578124,0.8045374751091003,0.17229506373405457,-0.09243059903383255
1772534695268891400,9.046891357421876,0.7418810129165649,0.12500372529029846,-0.07911745458841324
1772534695278908400,9.056908447265625,0.6714547872543335,0.1255432814359665,-0.05712134391069412
1772534695288924400,9.06692431640625,0.6167590618133545,0.16197025775909424,-0.031211448833346367
1772534695298941400,9.07694140625,0.5666791200637817,0.22016991674900055,-0.012320049107074738
1772534695308958500,9.08695849609375,0.49380677938461304,0.30053800344467163,-0.025483256205916405
1772534695318975500,9.0969755859375,0.3996368646621704,0.3824882507324219,-0.0817481279373169
1772534695328992300,9.1069921875,0.3083418607711792,0.4290594756603241,-0.1723155826330185
1772534695339008300,9.11700830078125,0.22916874289512634,0.43919867277145386,-0.2749183773994446
1772534695349025500,9.127025634765625,0.16957145929336548,0.39651939272880554,-0.3585941195487976
1772534695359042300,9.137042236328124,0.12987729907035828,0.3453507423400879,-0.39028093218803406
1772534695369059300,9.147059326171876,0.11734367161989212,0.3041478991508484,-0.36249271035194397
1772534695379076600,9.15707666015625,0.12937556207180023,0.23818300664424896,-0.28582483530044556
1772534695389092400,9.16709228515625,0.15711718797683716,0.15050774812698364,-0.1807338297367096
1772534695399109400,9.177109375,0.1931750476360321,0.07726283371448517,-0.08391860127449036
1772534695409126400,9.18712646484375,0.22696736454963684,0.014783473685383797,-0.006499977316707373
1772534695419143400,9.197143310546876,0.23263564705848694,-0.035243209451436996,0.03508315235376358
1772534695429160400,9.207160400390626,0.20952792465686798,-0.06006253883242607,0.041722413152456284
1772534695439176400,9.217176513671875,0.1624906361103058,-0.07921146601438522,0.031615715473890305
1772534695449193500,9.227193359375,0.12089552730321884,-0.03696148097515106,0.028479045256972313
1772534695459210500,9.23721044921875,0.0901583880186081,0.038486137986183167,0.03237445279955864
1772534695469227300,9.247227294921874,0.06325700134038925,0.14462348818778992,0.03080877847969532
1772534695479244500,9.25724462890625,0.02792963571846485,0.2612113654613495,0.01624581590294838
1772534695489260500,9.267260498046875,-0.011814847588539124,0.3452892303466797,-0.023370036855340004
1772534695499277300,9.27727734375,-0.05254603177309036,0.37035542726516724,-0.08912667632102966
1772534695509294600,9.287294677734375,-0.09465007483959198,0.3219657838344574,-0.16240328550338745
1772534695519311400,9.297311279296874,-0.12469799071550369,0.2556504011154175,-0.21971797943115234
1772534695529327400,9.307327392578125,-0.1343327760696411,0.20512358844280243,-0.23957344889640808
1772534695539344400,9.317344482421875,-0.1365748941898346,0.15023210644721985,-0.2146877944469452
1772534695549361400,9.327361328125,-0.15315893292427063,0.12264442443847656,-0.13349200785160065
1772534695559378400,9.33737841796875,-0.18973930180072784,0.18181374669075012,-0.02280837669968605
1772534695569394400,9.34739453125,-0.22944863140583038,0.20517125725746155,0.06948906183242798
1772534695579411500,9.357411376953126,-0.26563647389411926,0.15431606769561768,0.12390037626028061
1772534695589428500,9.367428466796875,-0.29211682081222534,0.07184436172246933,0.14268071949481964
1772534695599445200,9.3774453125,-0.3059607148170471,-0.013338708318769932,0.15561676025390625
1772534695609462500,9.387462646484375,-0.3090054988861084,-0.06799370050430298,0.18609583377838135
1772534695619478500,9.397478515625,-0.29787641763687134,-0.044372256845235825,0.2420341968536377
1772534695629495300,9.407495361328126,-0.2878679931163788,0.008676046505570412,0.29286304116249084
1772534695639512600,9.4175126953125,-0.30535218119621277,0.09640137106180191,0.31845226883888245
1772534695649529300,9.427529296875,-0.5209585428237915,0.3643356263637543,0.3048243522644043
1772534695659545300,9.43754541015625,-0.6046445965766907,0.4444115459918976,0.21333996951580048
1772534695669562400,9.447562255859374,-0.5568757653236389,0.32873713970184326,0.06561869382858276
1772534695679579400,9.457579345703126,-0.5169249176979065,0.2585444748401642,-0.09145641326904297
1772534695689596400,9.467596435546875,-0.5826330780982971,0.2369917780160904,-0.23877103626728058
1772534695699613400,9.477613525390625,-0.7630230784416199,0.22817325592041016,-0.40712088346481323
1772534695709629400,9.48762939453125,-0.9717523455619812,0.19618016481399536,-0.5810064077377319
1772534695719646500,9.497646484375,-1.1331965923309326,0.15294614434242249,-0.7561830282211304
1772534695729663500,9.50766357421875,-1.1904356479644775,0.12129047513008118,-0.8868547677993774
1772534695739680500,9.517680419921875,-1.1554028987884521,0.07011224329471588,-0.9534468054771423
1772534695749697300,9.527697265625,-1.0690112113952637,0.0012956279097124934,-0.9682683944702148
1772534695759713500,9.537713623046875,-0.9764200448989868,-0.10652750730514526,-0.9183492660522461
1772534695769730300,9.547730224609374,-0.9085988998413086,-0.21402999758720398,-0.8060498833656311
1772534695779747300,9.557747314453126,-0.8765184879302979,-0.321620911359787,-0.6461135149002075
1772534695789764400,9.567764404296875,-0.8951123952865601,-0.41304829716682434,-0.4725813865661621
1772534695799781400,9.577781494140625,-0.9447616934776306,-0.49755173921585083,-0.31991782784461975
1772534695809797400,9.58779736328125,-0.9799466133117676,-0.6251634955406189,-0.16773121058940887
1772534695819814100,9.597814208984374,-0.9883949756622314,-0.6871927380561829,-0.03166871517896652
1772534695829831400,9.60783154296875,-0.9664180278778076,-0.6533613204956055,0.06840702146291733
1772534695839848200,9.61784814453125,-0.9138914346694946,-0.5815776586532593,0.12402793765068054
1772534695849865200,9.627865234375,-0.8267642259597778,-0.5050621032714844,0.13478603959083557
1772534695859881500,9.637881591796875,-0.717291533946991,-0.43949347734451294,0.11194571107625961
1772534695869898200,9.647898193359374,-0.6114343404769897,-0.3791816830635071,0.08126183599233627
1772534695879915300,9.657915283203126,-0.5275735259056091,-0.28052833676338196,0.026314960792660713
1772534695889932300,9.667932373046876,-0.48104625940322876,-0.12480983883142471,-0.07180175185203552
1772534695899949300,9.67794921875,-0.47701290249824524,0.025529328733682632,-0.2061353176832199
1772534695909965300,9.68796533203125,-0.516964852809906,0.12205134332180023,-0.33165064454078674
1772534695919982000,9.697982177734374,-0.5618321895599365,0.15954464673995972,-0.43624043464660645
1772534695929999400,9.707999267578124,-0.575394868850708,0.10886416584253311,-0.48141029477119446
1772534695940016400,9.718016357421876,-0.5427793860435486,-0.030582409352064133,-0.4674236476421356
1772534695950033200,9.728033203125,-0.4921364486217499,-0.18205875158309937,-0.3999527394771576
1772534695960049400,9.73804931640625,-0.4707515239715576,-0.2579231560230255,-0.3043697476387024
1772534695970066400,9.74806640625,-0.4892120361328125,-0.3062843084335327,-0.2088397592306137
1772534695980083200,9.758083251953124,-0.5333560705184937,-0.375789076089859,-0.12083747237920761
1772534695990100500,9.7681005859375,-0.5569146275520325,-0.43640342354774475,-0.015097193419933319
1772534696000117200,9.7781171875,-0.5524128675460815,-0.4039842188358307,0.10200466215610504
1772534696010133200,9.78813330078125,-0.5304127335548401,-0.28912821412086487,0.19975972175598145
1772534696020150500,9.798150634765625,-0.5065513253211975,-0.1513863205909729,0.24068690836429596
1772534696030167300,9.808167236328124,-0.4931654930114746,-0.04848764091730118,0.1964091956615448
1772534696040184300,9.818184326171876,-0.4886644780635834,-0.05416256934404373,0.07545960694551468
1772534696050201300,9.828201416015625,-0.48472222685813904,-0.04462898522615433,-0.10002326965332031
1772534696060217300,9.83821728515625,-0.4931183457374573,0.04493524879217148,-0.26180604100227356
1772534696070234400,9.848234375,-0.49926573038101196,0.19209806621074677,-0.3909757435321808
1772534696080251100,9.858251220703124,-0.4947977364063263,0.30700841546058655,-0.4858175814151764
1772534696090268400,9.868268310546876,-0.45852282643318176,0.3694579303264618,-0.5383143424987793
1772534696100285200,9.87828515625,-0.3787505030632019,0.3727799654006958,-0.5348812341690063
1772534696110301200,9.88830126953125,-0.28025108575820923,0.3505963683128357,-0.47747308015823364
1772534696120318500,9.898318359375,-0.2083292305469513,0.32602789998054504,-0.3888220489025116
1772534696130335200,9.908335205078124,-0.16741296648979187,0.29304173588752747,-0.29036471247673035
1772534696140352300,9.918352294921876,-0.13411785662174225,0.21537302434444427,-0.1955615133047104
1772534696150369300,9.928369384765626,-0.07572032511234283,0.06866321712732315,-0.09816038608551025
1772534696160385300,9.93838525390625,0.01960832253098488,-0.11224238574504852,0.010088853538036346
1772534696170402300,9.94840234375,0.12043826282024384,-0.2041696459054947,0.12061189860105515
1772534696180419300,9.95841943359375,0.19762971997261047,-0.2170497626066208,0.21564574539661407
1772534696190436400,9.968436279296874,0.2518679201602936,-0.19201843440532684,0.27442169189453125
1772534696200453400,9.978453369140626,0.28033632040023804,-0.14278244972229004,0.29597705602645874
1772534696210469000,9.98846923828125,0.29714271426200867,-0.09114322811365128,0.28674575686454773
1772534696220486400,9.998486328125,0.3191750645637512,-0.0541473925113678,0.2612084448337555
1772534696230503400,10.00850341796875,0.35510748624801636,-0.037637390196323395,0.23039086163043976
1772534696240520200,10.018520263671874,0.38947904109954834,-0.03411136567592621,0.195237398147583
1772534696250537500,10.028537353515626,0.4238426089286804,-0.044742703437805176,0.15772198140621185
1772534696260553500,10.038553466796875,0.4441191256046295,-0.10271705687046051,0.11369966715574265
1772534696270570200,10.0485703125,0.46022406220436096,-0.1721653789281845,0.07078788429498672
1772534696280587300,10.058587158203125,0.4817783534526825,-0.22910694777965546,0.04585244134068489
1772534696290604300,10.068604248046874,0.5198080539703369,-0.26591289043426514,0.06401573121547699
1772534696300621300,10.078621337890626,0.5663550496101379,-0.2897508442401886,0.12764637172222137
1772534696310637300,10.08863720703125,0.6208438277244568,-0.31669673323631287,0.2253047525882721
1772534696320654300,10.098654296875,0.6704782247543335,-0.3215316832065582,0.3259695768356323
1772534696330671400,10.10867138671875,0.6993405222892761,-0.2753380835056305,0.4045056700706482
1772534696340688100,10.118688232421874,0.6897619366645813,-0.19455589354038239,0.4373094141483307
1772534696350705400,10.128705322265626,0.6487958431243896,-0.11052517592906952,0.39794737100601196
1772534696360721400,10.138721435546875,0.6200017333030701,-0.04911774396896362,0.30754584074020386
1772534696370738200,10.14873828125,0.6163337826728821,0.04621196910738945,0.2140134871006012
1772534696380755200,10.158755126953125,0.6189524531364441,0.16969183087348938,0.14399605989456177
1772534696390772200,10.168772216796874,0.6251967549324036,0.26453739404678345,0.12061216682195663
1772534696400789200,10.178789306640626,0.6328525543212891,0.3419589400291443,0.12613236904144287
1772534696410805200,10.18880517578125,0.6380758285522461,0.44371938705444336,0.08669015020132065
1772534696420822300,10.198822265625,0.64869624376297,0.5678008794784546,-0.036983318626880646
1772534696430839300,10.20883935546875,0.6345577836036682,0.6378731727600098,-0.16091911494731903
1772534696440856300,10.218856201171874,0.5743080377578735,0.6197136044502258,-0.19738763570785522
1772534696450873300,10.228873291015624,0.47526878118515015,0.5059990286827087,-0.08126609027385712
1772534696460889300,10.238889404296875,0.4131540060043335,0.32059532403945923,0.1279347985982895
1772534696470906400,10.24890625,0.43832382559776306,0.11484909057617188,0.3271845281124115
1772534696480923400,10.25892333984375,0.5321158170700073,-0.05680176243185997,0.46821993589401245
1772534696490940400,10.2689404296875,0.6223471760749817,-0.1474379301071167,0.5279328227043152
1772534696500957200,10.278957275390624,0.6723576188087463,-0.14260615408420563,0.5181542038917542
1772534696510973200,10.28897314453125,0.6782221794128418,-0.043908603489398956,0.46222543716430664
1772534696520990500,10.298990478515625,0.6871578693389893,0.07607719302177429,0.36758893728256226
1772534696531007200,10.30900732421875,0.7216711044311523,0.18228565156459808,0.24765746295452118
1772534696541024300,10.319024169921875,0.7945207953453064,0.22036033868789673,0.12937024235725403
1772534696551041300,10.329041259765624,0.8746537566184998,0.20638726651668549,0.03002900443971157
1772534696561057300,10.339057373046876,0.906326174736023,0.1969841718673706,-0.03785097599029541
1772534696571074300,10.34907421875,0.8715695142745972,0.1687842309474945,-0.06812099367380142
1772534696581091300,10.35909130859375,0.8278960585594177,0.07690143585205078,-0.06872367113828659
1772534696591108400,10.3691083984375,0.8312212824821472,-0.07529901713132858,-0.03693538159132004
1772534696601124400,10.379124267578124,0.8835763931274414,-0.248042032122612,0.027888355776667595
1772534696611141000,10.38914111328125,0.9408961534500122,-0.3688187897205353,0.09553398191928864
1772534696621158400,10.399158447265625,0.9329314231872559,-0.4316379427909851,0.13071434199810028
1772534696631175200,10.409175048828125,0.842808723449707,-0.45998889207839966,0.10430483520030975
1772534696641192200,10.419192138671875,0.7016513347625732,-0.4292198121547699,0.0233540590852499
1772534696651208400,10.42920849609375,0.5444212555885315,-0.3379921615123749,-0.08582702279090881
1772534696661225200,10.43922509765625,0.3845178484916687,-0.20236481726169586,-0.18567772209644318
1772534696671242200,10.4492421875,0.2476271092891693,-0.03322133794426918,-0.2832791209220886
1772534696681259500,10.459259521484375,0.15878592431545258,0.12172989547252655,-0.36671140789985657
1772534696691276300,10.4692763671875,0.10015429556369781,0.23206545412540436,-0.4066615104675293
1772534696701292300,10.479292236328124,0.05336202308535576,0.28320133686065674,-0.4079321026802063
1772534696711309300,10.489309326171876,0.010206830687820911,0.2692442536354065,-0.3743203282356262
1772534696721326300,10.499326416015625,-0.016056198626756668,0.21002726256847382,-0.3208717703819275
1772534696731343400,10.50934326171875,-0.016139555722475052,0.13525715470314026,-0.2539140284061432
1772534696741360000,10.519360107421875,0.025312812998890877,0.031438082456588745,-0.17803817987442017
1772534696751376400,10.52937646484375,0.09249824285507202,-0.08044477552175522,-0.09277042001485825
1772534696761393400,10.539393310546876,0.1447148472070694,-0.18684977293014526,-0.019144132733345032
1772534696771410200,10.54941015625,0.1762373447418213,-0.29454535245895386,0.029891852289438248
1772534696781427500,10.559427490234375,0.2006409615278244,-0.36382588744163513,0.03958868980407715
1772534696791444200,10.5694443359375,0.2311626523733139,-0.38012683391571045,0.0033595776185393333
1772534696801460200,10.579460205078124,0.26976144313812256,-0.31731829047203064,-0.06210864335298538
1772534696811477500,10.5894775390625,0.28076696395874023,-0.18028801679611206,-0.12255920469760895
1772534696821494300,10.599494384765626,0.23265774548053741,0.00009267800487577915,-0.16516952216625214
1772534696831511300,10.60951123046875,0.12185852974653244,0.13010020554065704,-0.19602783024311066
1772534696841528300,10.6195283203125,-0.020831778645515442,0.1530822217464447,-0.2116515338420868
1772534696851544300,10.62954443359375,-0.130288764834404,0.12179088592529297,-0.15220524370670319
1772534696861561300,10.639561279296874,-0.17509165406227112,0.0014591459184885025,-0.0702696368098259
1772534696871578000,10.649578125,-0.15641677379608154,-0.11992160975933075,0.012348811142146587
1772534696881595400,10.659595458984375,-0.1062992736697197,-0.17097680270671844,0.07350590825080872
1772534696891612400,10.6696123046875,-0.0664040595293045,-0.14387887716293335,0.11298754066228867
1772534696901628200,10.679628173828124,-0.05736448988318443,-0.1759697049856186,0.1464749276638031
1772534696911645400,10.6896455078125,-0.06975484639406204,-0.29834675788879395,0.1414569914340973
1772534696921662200,10.699662109375,-0.09858542680740356,-0.43223369121551514,0.03654123470187187
1772534696931679200,10.70967919921875,-0.13920342922210693,-0.4964798092842102,-0.16527977585792542
1772534696941696500,10.719696533203125,-0.21053247153759003,-0.4942736327648163,-0.4073067903518677
1772534696951712300,10.729712158203125,-0.31364500522613525,-0.48087048530578613,-0.6138354539871216
1772534696961729300,10.739729248046874,-0.4364587962627411,-0.49522438645362854,-0.7155466675758362
