time,seconds_elapsed,z,y,x
1772534451709781800,0.05378173828125,-0.20649346344768998,-0.15095957307852803,-0.10148377717193216
1772534451719797500,0.063797607421875,-0.22689912261664866,0.03459353980161249,-0.20643892024885863
1772534451729814500,0.073814453125,-0.14404665188491345,0.1679985322933644,-0.23742289125118404
1772534451739830800,0.083830810546875,-0.06134557232260704,0.23022022986337543,-0.16407456378266214
1772534451749847600,0.09384765625,-0.037982816913723946,0.2226652844391763,-0.11224957440141588
1772534451759863600,0.103863525390625,-0.019658640193939207,0.16331746180504558,-0.12445998094864189
1772534451769879600,0.113879638671875,-0.03019698534309864,0.09046762191057205,-0.13131868773698807
1772534451779896800,0.123896728515625,-0.16641922721266744,0.025469372299313543,-0.13979893131256102
1772534451789912600,0.13391259765625,-0.10890285778939723,-0.018515461508184672,-0.1870096683640033
1772534451799929600,0.1439296875,0.17504267865121365,0.02023965495228767,-0.17166998734772204
1772534451809945600,0.153945556640625,0.3929822497427463,0.03382335914671421,-0.10862089904285967
1772534451819962600,0.163962646484375,0.45932489970028395,-0.024327947179228065,-0.05386771072261035
1772534451829978600,0.173978515625,0.5508575204938649,-0.15223127351477742,-0.013492811040580272
1772534451839995600,0.18399560546875,0.5826531732052564,-0.24476605708822607,0.04813260113671422
1772534451850011600,0.19401171875,0.4211421763002872,-0.22783859542384743,0.07382745275497436
1772534451860028700,0.204028564453125,0.28033494472801684,-0.07247180036231875,0.07904431062042713
1772534451870044700,0.214044677734375,0.26829963901937004,0.09443331067115068,0.1542152138736099
1772534451880060700,0.224060791015625,0.26977672583460804,0.15205883955731986,0.20814926783069967
1772534451890077700,0.23407763671875,0.26508769123554227,0.07937865714132786,0.27330555754788216
1772534451900093400,0.244093505859375,0.2947118451267481,-0.041183366520702834,0.43658086071163416
1772534451910110700,0.25411083984375,0.3982762644976377,-0.2259786467708647,0.5762381915964185
1772534451920126700,0.264126708984375,0.5089128142118454,-0.34053470801636576,0.6228763163916766
1772534451930143500,0.2741435546875,0.6632797845810652,-0.3460344744764268,0.545653741305694
1772534451940159500,0.284159423828125,0.672795216423273,-0.3042220162719488,0.3450473631352186
1772534451950176800,0.2941767578125,0.6192120947957038,-0.2293047224536538,0.07193725509420038
1772534451960192800,0.30419287109375,0.5473223321050406,-0.199186355304718,0.1016109472155571
1772534451970209500,0.31420947265625,0.21766952197849748,-0.18963906701952218,0.2846025390446186
1772534451980225500,0.3242255859375,0.010420271727442742,-0.22813290219530463,0.46005847467184063
1772534451990242800,0.334242919921875,0.051553077104687685,-0.3036915626570582,0.7267127576369792
1772534452000258600,0.344258544921875,-0.026201778227090834,-0.3006067483842373,0.9505370759181678
1772534452010274600,0.354274658203125,-0.144640526124835,-0.3957927771188319,1.0272606885060667
1772534452020291600,0.36429150390625,-0.155860423797369,-0.44392537825554607,1.069067009230703
1772534452030307600,0.3743076171875,-0.16025076771080493,-0.3860550808280706,0.9711890379983931
1772534452040324600,0.38432470703125,-0.17387889556884764,-0.2563959968663752,0.7606136389993131
1772534452050340600,0.394340576171875,-0.2306798101991415,-0.1789443622648716,0.5860576478864997
1772534452060357600,0.404357666015625,-0.2891962965756655,-0.19199761284440756,0.4943718092925846
1772534452070373600,0.41437353515625,-0.2847849098742008,-0.2188881039880216,0.459634404040873
1772534452080390700,0.424390625,-0.23601123435497282,-0.20047054989635943,0.6632428866367787
1772534452090406700,0.43440673828125,-0.16825345690250396,-0.12487827942594885,0.974850848441571
1772534452100423700,0.444423583984375,-0.12179565711021423,-0.13844006404951215,1.2553265168145298
1772534452110439400,0.454439453125,-0.15897826355695724,-0.22204525284469126,1.282176822078228
1772534452120456700,0.464456787109375,-0.2037134773403406,-0.31253450206518174,1.0924762341298162
1772534452130472700,0.47447265625,-0.4056003237754106,-0.35861280102059245,0.7640439057089388
1772534452140488700,0.48448876953125,-0.7436193957090378,-0.3754351948752999,0.4548484849385917
1772534452150505500,0.49450537109375,-0.8461527184665203,-0.3746314772769809,0.38537805834934113
1772534452160521700,0.504521728515625,-0.8328905013114214,-0.44256972586289045,0.4495809197992086
1772534452170538800,0.514538818359375,-0.8096487419337034,-0.5341663518033921,0.508646856752038
1772534452180554800,0.5245546875,-0.6704460229486227,-0.5724952056758106,0.4770861087750643
1772534452190571500,0.534571533203125,-0.6761550482451916,-0.43923809722214935,0.3701513361882418
1772534452200587800,0.544587890625,-0.7722282350778579,-0.2634019301056862,0.14126147814579307
1772534452210604500,0.5546044921875,-0.674339523255825,-0.10579612394571304,-0.12251257320791482
1772534452220620500,0.56462060546875,-0.567525162178278,-0.1405507725931704,-0.26773659830912944
1772534452230637600,0.574637451171875,-0.5106529358774423,-0.25113588438108564,-0.1506671660032123
1772534452240653800,0.58465380859375,-0.3669236793786287,-0.42435061695277687,0.13782317426018417
1772534452250669800,0.594669921875,-0.09756079504191875,-0.6544478049583733,0.31367022809684275
1772534452260686600,0.6046865234375,0.2598112121373415,-0.8329740879416465,0.2766947615947574
1772534452270702600,0.61470263671875,0.5019043967545033,-0.8551030637718736,0.14453765027225016
1772534452280720000,0.624719970703125,0.7915507751852273,-0.8300188913978636,0.10877185182087122
1772534452290735600,0.634735595703125,1.095008236825466,-0.8709221258029342,0.17367920827828345
1772534452300752600,0.644752685546875,1.1805606141656637,-1.0031070749804376,0.29336101503968237
1772534452310768600,0.6547685546875,1.1268436370253563,-1.0695822652764617,0.5166525416184217
1772534452320785400,0.664785400390625,0.8735866688370704,-1.0449101808346808,0.5862948176432401
1772534452330801700,0.6748017578125,0.6460615232765674,-0.9562868716165422,0.5982386456761509
1772534452340818700,0.684818603515625,0.6705208417505025,-0.8792220443755387,0.6840542770624161
1772534452350834700,0.694834716796875,0.5425999797582626,-0.9333819429777562,0.7543307593375443
1772534452360851500,0.7048515625,0.46677872283756733,-1.052823876568675,0.9345471873648464
1772534452370867700,0.71486767578125,0.6774339821398258,-1.0506116073466836,0.9681338151462375
1772534452380883700,0.7248837890625,0.8308774079233407,-0.9034684507511556,0.9370650154046714
1772534452390900700,0.734900634765625,0.6523281824558973,-0.9937003642097115,0.9537212589122355
1772534452400916500,0.74491650390625,0.36473581394553184,-1.1871734564341605,0.8761027433112263
1772534452410933800,0.754933837890625,0.1848217298656702,-1.379728703161329,0.8332965978942811
1772534452420949800,0.76494970703125,-0.14506196640729904,-1.2139758309029043,0.5810919152379036
1772534452430966500,0.774966552734375,-0.03136778268814087,-1.144809794087708,0.394712580666691
1772534452440982500,0.784982421875,-0.08683657193183898,-1.3022507650747894,0.5381283873021603
1772534452450999800,0.794999755859375,-0.3140262019276619,-1.3459414382413029,0.8475634620472788
1772534452461015800,0.805015869140625,-0.4597247126728296,-1.2275957754544913,0.90460256934762
1772534452471032600,0.815032470703125,-0.4635106609523296,-1.1322026798404752,0.7738644579775631
1772534452481048600,0.825048583984375,-0.5127893633842467,-1.0985651986546814,0.6351299410261213
1772534452491064600,0.835064697265625,-0.5670645589292049,-1.041235876236111,0.5017588508039713
1772534452501081600,0.84508154296875,-0.7097516128987074,-0.9118218530766665,0.5331425617136061
1772534452511097900,0.855097900390625,-0.8060369811773299,-0.8117793242216109,0.5669846255607902
1772534452521115000,0.865114990234375,-0.8791495636612177,-0.7515092721760273,0.5318222728952765
1772534452531131000,0.875130859375,-0.9360942706763744,-0.7292907183662056,0.4573115140512585
1772534452541148000,0.88514794921875,-0.9663035309791564,-0.597800619585067,0.3269846138305962
1772534452551164000,0.895163818359375,-1.0435001679062843,-0.6002749007441103,0.13406608674898743
1772534452561181000,0.905180908203125,-1.0109195022970436,-0.6999519572876394,0.03524491638243198
1772534452571196700,0.91519677734375,-1.0006675728738308,-0.66024480079934,0.012016747138649225
1772534452581214000,0.9252138671875,-1.0650959136426448,-0.5822580364078282,0.04441168091744184
1772534452591230000,0.93522998046875,-0.9717442607283592,-0.5284234242372214,0.05255421697124839
1772534452601246700,0.945246826171875,-0.8963830225348473,-0.407715562363714,-0.053662032082676885
1772534452611262700,0.9552626953125,-0.9135966076642275,-0.4127862897567451,-0.14734861603975294
1772534452621279000,0.965279052734375,-0.8831371719926595,-0.5090476926378905,-0.2432904315777123
1772534452631296000,0.9752958984375,-0.932706381803751,-0.598301408714056,-0.35564591403901574
1772534452641312000,0.98531201171875,-0.9996709630519152,-0.6076574122108519,-0.3981437241591513
1772534452651328800,0.995328857421875,-1.0692243917495012,-0.5926816691361367,-0.34051118101030586
1772534452661345000,1.005344970703125,-1.3283160574406385,-0.4884150928452611,-0.18928776936382055
1772534452671362000,1.015362060546875,-1.422167476570606,-0.30558015288263557,-0.046370998291671274
1772534452681377800,1.025377685546875,-1.3777198475569485,-0.129176853402704,0.020567425601929423
1772534452691394800,1.035394775390625,-1.1475889034122229,-0.050782531123608345,0.09152662944421172
1772534452701411000,1.0454111328125,-0.814987180352211,0.004273731796443462,0.08787687476500869
1772534452711427800,1.055427734375,-0.4617968427717685,0.051343526007235046,-0.05436112026274204
1772534452721443800,1.06544384765625,-0.07863514529764652,0.061963558090478175,-0.1975438487946987
1772534452731460900,1.0754609375,0.16215397098362444,0.046199879508465526,-0.2135286227814853
1772534452741476900,1.085476806640625,0.3576566693395376,0.07634016622826456,-0.19319573658779263
1772534452751492900,1.095492919921875,0.5595218884646892,0.09937383581325411,-0.2488026191279292
1772534452761510000,1.105510009765625,0.6997200482279062,0.11459230160266161,-0.3891131532244384
1772534452771526000,1.11552587890625,0.8889104946970939,0.11853373270481825,-0.48349414918646216
1772534452781542700,1.125542724609375,0.9618202480852603,0.09206395119130611,-0.5326809355512261
1772534452791559000,1.135558837890625,0.9414175115257502,0.07209639117866753,-0.6000403613358736
1772534452801576000,1.145575927734375,0.9364134196281433,0.04694236843883991,-0.6259270822644233
1772534452811592000,1.155592041015625,0.8015443459331989,0.1301199794717133,-0.6220302209563553
1772534452821608700,1.165608642578125,0.6305401290178299,0.17544672940745948,-0.5755364730678498
1772534452831625000,1.175625,0.5145715706259012,0.14448197456225753,-0.5902439205951988
1772534452841642000,1.18564208984375,0.3251788795828819,0.12853460997641086,-0.7796789894752204
1772534452851658000,1.195657958984375,0.21186346604824066,0.07051759755462407,-1.004898634572327
1772534452861674800,1.2056748046875,0.2373801846206188,-0.04696019635647535,-1.1577898333005607
1772534452871691000,1.21569091796875,0.2719499782204628,-0.06613339112102985,-1.2171388249784707
1772534452881707000,1.22570703125,0.44254327624738216,-0.07398761175274848,-1.1774532958000898
1772534452891723800,1.235723876953125,0.6007330197751521,-0.05641542244404554,-1.1210527786642313
1772534452901739800,1.24573974609375,0.7208990298569202,-0.032713936600089075,-1.0773055530048907
1772534452911757000,1.255757080078125,0.8395511282443999,-0.055165860774368046,-1.0381142370842396
1772534452921773000,1.26577294921875,0.9592033435851335,-0.044714317125827074,-0.9563542377643287
1772534452931789800,1.275789794921875,1.019777931535244,-0.04758183538615703,-0.8110891500003635
1772534452941805800,1.285805908203125,1.0223194327116012,-0.12992197268158195,-0.6232797826260328
1772534452951823000,1.295822998046875,0.961664180740714,-0.21925065369009972,-0.4467250189114362
1772534452961838800,1.3058388671875,0.8250579079896211,-0.2790153865620494,-0.2383941109035164
1772534452971856000,1.31585595703125,0.624579174786806,-0.2816445660218596,-0.10405936328098177
1772534452981871900,1.325871826171875,0.42451428308188915,-0.3138312638774514,-0.04335837247222662
1772534452991888000,1.335887939453125,0.2855564787685871,-0.36193726926818487,-0.07081694582737982
1772534453001905000,1.34590478515625,0.4366074564576149,-0.3943187590435147,-0.066455754943192
1772534453011921000,1.3559208984375,0.6356599562495947,-0.3657584349915385,-0.03635806525610387
1772534453021938000,1.36593798828125,0.9159621677517891,-0.3505000755831599,0.0031532763991504904
1772534453031954000,1.375953857421875,1.1861059733331203,-0.3699373281113803,0.03276763954870403
1772534453041971000,1.385970947265625,1.3369658123642205,-0.42325653810575603,0.023520210992917418
1772534453051987000,1.395987060546875,1.3761106587946415,-0.4978165429189801,0.04531710532456636
1772534453062004000,1.40600390625,1.301824356356263,-0.6003199089296162,0.010616524951905012
1772534453072019700,1.416019775390625,1.065600940555334,-0.7333515380643307,-0.13996464326828717
1772534453082037000,1.426037109375,1.0247785163015126,-0.9001843145139515,-0.20571692611724138
1772534453092053000,1.436052978515625,1.0985609608709812,-0.9586446867890656,-0.25085604452639815
1772534453102069800,1.44606982421875,1.2320704366505146,-0.9859760535679757,-0.24628150315247474
1772534453112085800,1.456085693359375,1.4247089777469635,-1.0149060877151788,-0.22218093498833477
1772534453122101800,1.466101806640625,1.5216788211584091,-1.0167844488076865,-0.22457053353860973
1772534453132119000,1.476119140625,1.3785241496771574,-0.9797074946925044,-0.258792463548854
1772534453142134800,1.486134765625,1.264143737259507,-0.9418031498424708,-0.25031368127800524
1772534453152151800,1.49615185546875,1.1379343553602694,-0.9330635246783494,-0.2424999387871474
1772534453162167800,1.506167724609375,1.0303379039943217,-0.9657106796525419,-0.23016389656625685
1772534453172184800,1.516184814453125,0.9656324998497963,-1.0165833732776344,-0.17004969266951084
1772534453182200800,1.526200927734375,0.9112620272368193,-1.072071451743692,-0.18505510023012756
1772534453192217900,1.5362177734375,0.8068243321627377,-1.1429131666861474,-0.21720263511911034
1772534453202233900,1.54623388671875,0.6881529445528983,-1.1513983786977826,-0.21881438116468488
1772534453212251000,1.5562509765625,0.5086696531057358,-1.1339644288159907,-0.23279015341661868
1772534453222267000,1.566266845703125,0.3694119890630245,-1.1261582851096987,-0.30453283578678964
1772534453232284000,1.576283935546875,0.3184744135081768,-1.1683620807193218,-0.2727885479364544
1772534453242300000,1.5862998046875,0.2430710897386074,-1.1676815511092542,-0.18172829389497636
1772534453252316000,1.59631591796875,0.10640168862342834,-1.1589392955966293,-0.12607106940709054
1772534453262333000,1.6063330078125,-0.03546995730996132,-1.1768117830261586,-0.055012862169742584
1772534453272349000,1.616348876953125,-0.1532803441762924,-1.0764594575695692,0.0511859242927283
1772534453282365700,1.62636572265625,-0.2914765164673328,-1.047209105426818,0.05604739284925162
1772534453292382000,1.6363818359375,-0.39225451999008654,-1.0838022215478123,0.057253919094800945
1772534453302399000,1.64639892578125,-0.6065899291098118,-1.0183239333346485,0.07394019241444766
1772534453312415000,1.6564150390625,-0.7068927163362503,-1.0273569884873925,0.0766881028831005
1772534453322431700,1.666431640625,-0.8386573942750691,-1.0955737617537378,0.15365663014277814
1772534453332448000,1.676447998046875,-1.106194816750288,-1.0851301091507077,0.2878705278646201
1772534453342465000,1.686465087890625,-1.0600661027818918,-1.0235276394575834,0.23975392801463602
1772534453352480800,1.696480712890625,-1.00161975903213,-0.939113472367078,0.20574162216708064
1772534453362497800,1.706497802734375,-0.9674141225695609,-0.8128120282702147,0.1327069272249937
1772534453372514000,1.71651416015625,-0.9688877022534609,-0.6776645760253072,-0.12048735099062323
1772534453382530800,1.72653076171875,-1.2532049946159123,-0.5534400843329728,-0.4458947786323726
1772534453392546800,1.736546875,-1.6878443658709525,-0.6251050983570515,-0.6475131833896041
1772534453402562800,1.746562744140625,-2.185168449097872,-0.7828174336314201,-0.6361502239845692
1772534453412579800,1.756579833984375,-2.599192902347445,-0.8148188380479812,-0.5209266387410462
1772534453422596000,1.76659619140625,-2.808294502466917,-0.7394464939385652,-0.28810996264368294
1772534453432612900,1.77661279296875,-2.8716923311442133,-0.6230109025567769,0.011798135951906442
1772534453442628900,1.78662890625,-2.7476392504960296,-0.46672684651985763,0.2947093609087169
1772534453452646000,1.79664599609375,-2.4696020613163707,-0.2537929747611284,0.5461711162433028
1772534453462662000,1.806661865234375,-2.094050838845968,-0.027564298751950263,0.7036848602056502
1772534453472679000,1.816678955078125,-1.6863789694935083,0.15643822368532417,0.8052990222916007
1772534453482695000,1.82669482421875,-1.229962066194415,0.30949089658558365,0.8947558597244322
1772534453492711700,1.836711669921875,-0.807993375942111,0.47388080992773174,0.9916894627787172
1772534453502728000,1.84672802734375,-0.41277240736186505,0.6014077041663229,1.0176995178259909
1772534453512744400,1.856744384765625,-0.03787351132035255,0.729554922260344,0.9869624342568218
1772534453522760700,1.8667607421875,0.39162674348056314,0.8160543711923063,0.9649497782826423
1772534453532776700,1.876776611328125,0.6770294929921626,0.9281398045405745,0.8839782989919185
1772534453542793500,1.88679345703125,0.8501794897645711,0.9709894968383014,0.7411787245586514
1772534453552809500,1.8968095703125,1.0212690468758343,0.995202585466206,0.5659142198503017
1772534453562826800,1.90682666015625,1.0204162294387817,1.0189856121137737,0.4685415677916258
1772534453572842500,1.916842529296875,0.9519891744226217,1.0528547100983559,0.4099577152673155
1772534453582859500,1.926859619140625,0.9846563492715358,1.0616478190153837,0.3139827281121164
1772534453592875500,1.93687548828125,0.9616361236900091,1.055884433183074,0.20521642924919722
1772534453602892300,1.946892333984375,0.9272878638863563,1.0551531962990761,0.1228809681288898
1772534453612908500,1.956908447265625,0.8464192604482174,1.012728743676096,0.04726911617517471
1772534453622925600,1.966925537109375,0.7120522910565138,0.9201124192990362,-0.013502894043177366
1772534453632941600,1.976941650390625,0.5941302605092526,0.773856128540635,-0.0287270589210093
1772534453642958300,1.986958251953125,0.4973749366313219,0.6433944960243999,-0.023168548011034726
1772534453652974600,1.996974609375,0.45670682615637775,0.5944882801666855,0.006158668760210275
1772534453662990600,2.006990478515625,0.44284488954246043,0.598225859259814,0.09147358408272266
1772534453673007600,2.017007568359375,0.3683674484461546,0.6105512339562177,0.21368556690886614
1772534453683023400,2.0270234375,0.31619302457273,0.5958063770279288,0.3331118645392358
1772534453693040600,2.03704052734375,0.21800737563073633,0.6034579146943986,0.4747862343348562
1772534453703056600,2.047056640625,0.07825871320068836,0.654626522526145,0.6363609441258012
1772534453713073400,2.057073486328125,0.008922726646065712,0.6770657333493232,0.7363590493172407
1772534453723089400,2.06708935546875,0.04399053289592266,0.6490776562273501,0.7940083974704146
1772534453733106700,2.077106689453125,0.12954057214856146,0.6035976154260337,0.8041632962599397
1772534453743122700,2.087122802734375,0.16927344760000704,0.5237678535163403,0.7636115056410432
1772534453753139500,2.097139404296875,0.260061972028017,0.4357143070101738,0.669032502888888
1772534453763155500,2.107155517578125,0.3641816871941089,0.3611616087205708,0.6193344060011208
1772534453773172700,2.1171728515625,0.3956465005159378,0.3159543935112655,0.6121865800730883
1772534453783188500,2.1271884765625,0.5313730678230524,0.2661174726746976,0.6004731997951864
1772534453793205500,2.13720556640625,0.6634019496560096,0.24799670957252382,0.5549405520237982
1772534453803221500,2.147221435546875,0.6559352670371532,0.20568360836952923,0.48171121129244565
1772534453813237500,2.157237548828125,0.5715601167827844,0.13682386102452873,0.4184340863853693
1772534453823254500,2.167254638671875,0.518859623208642,0.029560733266174793,0.33901246688514947
1772534453833270500,2.1772705078125,0.5176987627357245,-0.010153437484800815,0.2982460106022656
1772534453843287600,2.18728759765625,0.5319909074604511,0.02427592473104596,0.2638020353391766
1772534453853303600,2.197303466796875,0.6229582955867051,0.015238047272711991,0.2750486748881638
1772534453863320600,2.207320556640625,0.7118962237119675,-0.001660772819072008,0.33495778466686604
1772534453873336600,2.217336669921875,0.7756868510991335,0.021498715102672577,0.36999548803940413
1772534453883353300,2.227353271484375,0.8385609481632709,0.025359336053580043,0.37849838183820245
1772534453893369300,2.237369384765625,0.8471428985476493,0.03500935406088829,0.37398558058887715
1772534453903386600,2.24738671875,0.7956447665005922,-0.0034666531972587108,0.26792086883485317
1772534453913402600,2.257402587890625,0.7468816123753785,-0.0762310067653656,0.11862126485779881
1772534453923419400,2.26741943359375,0.6607774463713169,-0.15786051157340406,0.11458397216573357
1772534453933435400,2.277435302734375,0.38674773926734923,-0.167951259085536,0.21444953701868652
1772534453943451400,2.287451416015625,0.17818389928638934,-0.18210881764516235,0.25468597807809706
1772534453953468700,2.29746875,0.05788578725755214,-0.13999401549324392,0.21743205996081233
1772534453963484400,2.307484375,-0.08561609022617339,-0.1068112923376262,0.13748758563026786
1772534453973501400,2.31750146484375,-0.16292963153123854,-0.09653305942937732,0.03559256077632308
1772534453983517400,2.327517333984375,-0.2684866860240698,-0.05980301905572414,-0.10624912841022013
1772534453993534500,2.337534423828125,-0.5248690927565097,-0.0836759159438312,-0.23925986088737844
1772534454003550500,2.347550537109375,-0.8967045095741748,-0.22202143357768653,-0.3431562886916101
1772534454013567500,2.3575673828125,-1.021094274830818,-0.43077831191271543,-0.4043567534551024
1772534454023583500,2.36758349609375,-1.0742635549604893,-0.49897828017473217,-0.387199574688077
1772534454033600500,2.3776005859375,-0.9881862769633531,-0.5124767903037369,-0.25851035867184396
1772534454043616500,2.387616455078125,-0.872751971578598,-0.5325108396813273,-0.17533026342093944
1772534454053633500,2.397633544921875,-0.7537304553568362,-0.38277591302692887,-0.16928082718886434
1772534454063649500,2.4076494140625,-0.6927163069456815,-0.16537015655115245,-0.15981968281716108
1772534454073666600,2.41766650390625,-0.6912772140532731,0.01626578288525343,-0.08960406388379633
1772534454083682600,2.4276826171875,-0.8433744859248399,0.11079247092828154,-0.11905023085959256
1772534454093698600,2.437698486328125,-1.02170626924932,0.22190262950360773,-0.19183570028096436
1772534454103715300,2.44771533203125,-0.9650333649128675,0.2982509790383279,-0.22506547744870184
1772534454113731600,2.457731689453125,-0.8634908067584037,0.2849840857081115,-0.2792863855231553
1772534454123748600,2.46774853515625,-0.8340700664848089,0.23536212279647586,-0.3004907938543707
1772534454133764600,2.4777646484375,-0.7623077295660973,0.16925182029008864,-0.3294952084120363
1772534454143781400,2.487781494140625,-0.7286942137777805,0.10417305278852582,-0.3374829192303121
1772534454153797600,2.497797607421875,-0.823655639976263,0.03064443684965372,-0.3540096180740744
1772534454163814700,2.507814697265625,-0.904428966346383,0.00785743550211191,-0.30789076791256664
1772534454173830400,2.517830322265625,-0.9811848737686872,0.0334979265846312,-0.23563991682454943
1772534454183847400,2.527847412109375,-1.2422288425713777,0.1090942887082696,-0.14702785965278745
1772534454193863700,2.53786376953125,-1.540456002342701,0.1299047292858362,-0.08379048223420978
1772534454203880400,2.54788037109375,-1.7107593775123358,0.16981939104497432,-0.07259352704584598
1772534454213896400,2.557896484375,-1.7103157253980636,0.29315950111821293,-0.008290273961424828
1772534454223913500,2.56791357421875,-1.5467957267582415,0.4332927789516747,0.016974077285081147
1772534454233929700,2.5779296875,-1.3208224868148564,0.5454945321559905,0.049397944897413254
1772534454243945500,2.587945556640625,-1.0505518399834632,0.6360077467739582,0.12168182147219776
1772534454253962500,2.59796240234375,-0.6939969944059848,0.7533971317492425,0.1278827219389379
1772534454263978500,2.607978515625,-0.3431862454384565,0.8623172329343854,0.07677629262320697
1772534454273995500,2.61799560546875,-0.040488077732920645,0.9502318093612789,-0.06513714662529528
1772534454284011500,2.628011474609375,0.23790976145267484,0.9952239205151796,-0.2758714625131339
1772534454294028500,2.638028564453125,0.4969675248742103,0.9451410620935261,-0.48164187238328154
1772534454304044500,2.64804443359375,0.837037099596858,0.9007809652328491,-0.7261885145671665
1772534454314061300,2.658061279296875,0.9554074584335088,0.8716123000241816,-0.9034234425656497
1772534454324077600,2.66807763671875,0.9985638785928487,0.7830769613504409,-1.0335917181584984
1772534454334094600,2.678094482421875,1.1064549289911985,0.6103574649497866,-1.1450951869003474
1772534454344110600,2.688110595703125,1.0632049853295087,0.5043387842945755,-1.189946209083125
1772534454354127400,2.69812744140625,0.9702928928762674,0.4424930073648691,-1.1033927649416029
1772534454364143600,2.7081435546875,0.8696849852234124,0.37088834522590036,-0.947399289349094
1772534454374159600,2.71815966796875,0.8100333573371171,0.32586773862987756,-0.7739132655553519
1772534454384176400,2.72817626953125,0.7600842082977295,0.29707594390958547,-0.5483779055725783
1772534454394192400,2.7381923828125,0.6777543001353741,0.24563597179055213,-0.31605310464538633
1772534454404209700,2.748209716796875,0.5886071131736039,0.19605287958458065,-0.1138989855762571
1772534454414225700,2.7582255859375,0.5279454314619303,0.15587079906091092,0.009003536797314882
1772534454424242400,2.768242431640625,0.5178057302415371,0.11468173345178365,0.05412424276694655
1772534454434258400,2.778258544921875,0.6040022507041692,-0.017214315781742335,0.13731069469340146
1772534454444275700,2.788275634765625,0.7311591425865888,-0.1013578492373228,0.2672914118248969
1772534454454291500,2.79829150390625,0.809668031156063,-0.15070640203505753,0.36394670939445495
1772534454464308500,2.80830859375,0.928745076957345,-0.2601760999269783,0.4272799484029412
1772534454474324500,2.818324462890625,1.0287152712285519,-0.35221287085041403,0.447150550847128
1772534454484341500,2.828341552734375,1.0874801794081925,-0.42205505336150523,0.40674854396246374
1772534454494357500,2.838357421875,1.1363041238099336,-0.5789879286959767,0.3824184048261493
1772534454504374500,2.84837451171875,1.16630003362298,-0.7308243576742708,0.3577070843525231
1772534454514390500,2.858390625,0.9980547600269317,-0.7949076843976974,0.3121278940256685
1772534454524406500,2.868406494140625,0.8162807272940874,-0.8881503239795565,0.2524300158448517
1772534454534423600,2.878423583984375,0.7814619273692369,-1.0193391017265616,0.25785781304724514
1772534454544439600,2.888439453125,0.7020955451875924,-1.0552237773172557,0.3286808963544667
1772534454554456600,2.89845654296875,0.6507406210035085,-1.1386232144072652,0.36632315620221195
1772534454564472300,2.908472412109375,0.623646862372756,-1.241992257336527,0.3450702325541526
1772534454574489600,2.918489501953125,0.638292642840743,-1.3586144573315977,0.3255444980248809
1772534454584505600,2.928505615234375,0.639072395041585,-1.4172029860310256,0.35776363684535023
1772534454594522400,2.9385224609375,0.6966536463946104,-1.4412370648302137,0.4197166735418141
1772534454604538400,2.948538330078125,0.7285778939217329,-1.4209358889490364,0.4245333531085402
1772534454614555400,2.958555419921875,0.7648609211802482,-1.4335424186743795,0.4224911797564476
1772534454624571600,2.968571533203125,0.7959493024051189,-1.416268773920834,0.4483800926420837
1772534454634588400,2.97858837890625,0.7360580205440521,-1.364112616356462,0.435733450102061
1772534454644604400,2.9886044921875,0.4942231946021318,-1.294726214788854,0.4261678955078125
1772534454654621400,2.998621337890625,0.27166063988506794,-1.3367194363877177,0.3688259328033775
1772534454664637400,3.008637451171875,0.06236614754199981,-1.252522126918286,0.34669081949330866
1772534454674653400,3.0186533203125,-0.0691290658056736,-1.158248829114437,0.29687815631516273
1772534454684670500,3.02867041015625,-0.1937654992997646,-1.1890103164725006,0.23477518975399433
1772534454694686500,3.0386865234375,-0.335854002854228,-1.1802891037479042,0.13763868453875183
1772534454704703500,3.048703369140625,-0.3789718445688486,-1.128583320299536,-0.03137223966754973
1772534454714719500,3.058719482421875,-0.46567982168495653,-1.0874670276656746,-0.08285393203645944
1772534454724736500,3.068736572265625,-0.5106716405779123,-1.015269368069619,-0.12030454176962375
1772534454734752500,3.07875244140625,-0.5966320141971111,-0.9006545623742044,-0.18431268436498938
1772534454744769500,3.08876953125,-0.6908996129125357,-0.8339756661996245,-0.14807261946536598
1772534454754785500,3.09878564453125,-0.7275210783451795,-0.8039930542595684,-0.0244854758284986
1772534454764802600,3.108802490234375,-0.5920633911073208,-0.7672435785330831,0.05569931006394326
1772534454774818300,3.118818359375,-0.5150649071007967,-0.6516157964028417,-0.03706497141644358
1772534454784835600,3.128835693359375,-0.4770394200891256,-0.47342722094133494,-0.2438810909472406
1772534454794851600,3.1388515625,-0.40999592838585375,-0.3544520280793309,-0.4203778408642858
1772534454804867600,3.14886767578125,-0.33521570495069025,-0.3018485651388764,-0.537375888434425
1772534454814884400,3.15888427734375,-0.30212007555663584,-0.1596308822467923,-0.5952867370679974
1772534454824900400,3.168900390625,-0.2380991465449333,0.007637070749700069,-0.6201920457437634
1772534454834917600,3.178917724609375,-0.22520810078978537,0.07191840426325798,-0.6269175546064972
1772534454844933600,3.18893359375,-0.2720715587735176,0.0949127647511661,-0.7227290948282927
1772534454854950400,3.198950439453125,-0.44207098256051536,0.14708689636364577,-0.8713283685162663
1772534454864966400,3.20896630859375,-0.7697796728819608,0.12270590382292866,-1.0111943737156688
1772534454874983400,3.2189833984375,-1.2337176193356514,0.008102934695780276,-1.0984231598354874
1772534454884999400,3.22899951171875,-1.6576514721810818,-0.1134257420413196,-1.0457383022218942
1772534454895016400,3.239016357421875,-2.0550936239421365,-0.14253916993141175,-0.8739768371984362
1772534454905032400,3.249032470703125,-2.3709160616368052,-0.13948708888441325,-0.6176392925210297
1772534454915049500,3.259049560546875,-2.380256721433997,-0.08202683356255293,-0.4154106469109654
1772534454925065500,3.2690654296875,-2.2480513139903544,0.11486600397750735,-0.1985361477676779
1772534454935082500,3.27908251953125,-1.8088602707803247,0.3139771020889282,0.04368687377423048
1772534454945098500,3.289098388671875,-1.1592015997946261,0.5139228974588215,0.23987032093591987
1772534454955114200,3.2991142578125,-0.36223873643279075,0.7482187061980367,0.4065376046255231
1772534454965131500,3.309131591796875,0.3898854527711868,0.9662249127849936,0.5396443448230623
1772534454975147500,3.3191474609375,0.861895646521449,1.0480030322834848,0.6718295862615108
1772534454985164300,3.329164306640625,1.0997656604856252,1.0280047848716378,0.657199514819309
1772534454995180300,3.33918017578125,1.2213912217259406,1.0760780570365487,0.5418208851445466
1772534455005197600,3.349197509765625,1.1798241165846586,1.0866507428467274,0.43255803493633865
1772534455015213600,3.359213623046875,0.920520269447565,1.0554472108095885,0.2882514169409871
1772534455025230300,3.369230224609375,0.7021072356253862,1.0451312762394547,0.04334390555545688
1772534455035246300,3.379246337890625,0.5297136101782322,1.097044272697717,-0.17232362895086406
1772534455045263600,3.389263671875,0.40265316440761084,1.102504145538807,-0.31357882348634303
1772534455055279600,3.399279541015625,0.18069383628070354,1.04732688658759,-0.45981838230565186
1772534455065296400,3.40929638671875,-0.13145488133728503,0.9905179347813129,-0.5739007616247982
1772534455075312400,3.4193125,-0.5023568166971206,0.924069486361742,-0.5451048752512783
1772534455085328600,3.42932861328125,-0.752692344480753,0.8377781272225081,-0.4300557697918266
1772534455095345400,3.439345458984375,-0.8595715874880552,0.8179043829731643,-0.35880335515663025
1772534455105361400,3.449361328125,-0.7626648724406957,0.8712636327169835,-0.22129048895463346
1772534455115378400,3.45937841796875,-0.5336521186709404,0.9164046508222817,-0.03753872640803456
1772534455125394700,3.469394775390625,-0.34133740270137786,0.9698569856770336,0.09753434542641043
1772534455135411500,3.479411376953125,-0.14426701663732527,0.9706696172341703,0.23080533627495167
1772534455145427500,3.489427490234375,0.08931319117844104,0.9915059229053557,0.4072364736098796
1772534455155444500,3.499444580078125,0.2684194660067558,0.9706263626143335,0.5983573766849934
1772534455165460500,3.50946044921875,0.38910219343900676,0.9695752461262047,0.6875835471671075
1772534455175477500,3.5194775390625,0.4902805944561958,0.9750517778411507,0.7439660171896219
1772534455185493500,3.529493408203125,0.5398550649642944,0.9298664822027086,0.7031475384585559
1772534455195510300,3.53951025390625,0.5984516308397054,0.835509451638162,0.5800657870605588
1772534455205526500,3.549526611328125,0.6326490839958191,0.7350555655032396,0.49504927016273137
1772534455215543600,3.55954345703125,0.6669149262130261,0.6722104022726416,0.4724271770533174
1772534455225559600,3.5695595703125,0.7010860758841038,0.5838081884592771,0.47062305024079976
1772534455235575600,3.579575439453125,0.6394435664415359,0.5409104192361235,0.4577229443963617
1772534455245592300,3.58959228515625,0.5266647440016269,0.44269379063397646,0.3983510832995176
1772534455255608600,3.599608642578125,0.45319618768692016,0.32300928045883776,0.2760211001168936
1772534455265625600,3.60962548828125,0.5060895734846592,0.273961902564764,0.17576763192489742
1772534455275641300,3.619641357421875,0.6858078427314758,0.19637918892949818,0.15485614212565124
1772534455285658400,3.629658447265625,0.8648585879802704,0.09352116426229476,0.18069800099916755
1772534455295674600,3.639674560546875,0.9837637843459844,0.036382395979762075,0.1255470455329865
1772534455305691400,3.64969140625,1.0376491037905216,-0.04784194762706756,0.05114303499907255
1772534455315707400,3.659707275390625,1.0617004259854554,-0.15648264734894035,0.06978453403972089
1772534455325724400,3.669724365234375,1.0462877527981995,-0.21414207850471137,0.20034977306090293
1772534455335740700,3.67974072265625,1.0521586906582117,-0.2453029404439032,0.38659284096658225
1772534455345757400,3.68975732421875,0.9798574245572089,-0.2710702727764845,0.4879650840554386
1772534455355773400,3.6997734375,0.860368290823698,-0.22356164875701068,0.5068021056681871
1772534455365790500,3.70979052734375,0.6963070249140262,-0.20295959023311733,0.4539268400490284
1772534455375806500,3.719806396484375,0.4640811543166637,-0.22110417260229587,0.38374585403762757
1772534455385822500,3.729822509765625,0.37284371707737446,-0.23415508509427307,0.301480024087429
1772534455395839500,3.739839599609375,0.3385468952000141,-0.23254458115771412,0.31715836247354745
1772534455405855500,3.74985546875,0.3169622553795576,-0.253934575188905,0.3866016818601638
1772534455415872500,3.75987255859375,0.29685294880867,-0.233785959520936,0.40238516112118955
1772534455425888500,3.769888427734375,0.25771570116281506,-0.18203195301666855,0.3700068131510168
1772534455435905500,3.779905517578125,0.15588322015106676,-0.17861527644097805,0.24228520005792378
1772534455445921500,3.789921630859375,-0.0001607435196638107,-0.18128800278156995,0.03366100819185376
1772534455455938600,3.7999384765625,-0.24694588534533976,-0.22520035587474702,-0.17856632273271678
1772534455465954600,3.80995458984375,-0.5642752204716205,-0.28248247815072536,-0.3771040048703551
1772534455475971600,3.8199716796875,-0.9062509210765362,-0.3406763084441423,-0.45232451941892504
1772534455485987300,3.8299873046875,-1.1398609395086765,-0.4457023248001933,-0.396420115236938
1772534455496004600,3.840004638671875,-1.263383274281025,-0.5109301453836262,-0.29383710811883207
1772534455506020600,3.8500205078125,-1.2822259219169616,-0.5335078878946602,-0.1170421789728105
1772534455516036900,3.860036865234375,-1.246150399929285,-0.5317448237448931,0.03701002635881304
1772534455526053600,3.8700537109375,-1.190726034349203,-0.4295617757298052,0.06613835955709219
1772534455536069600,3.880069580078125,-1.0621101758301257,-0.274495278789103,0.048963060611486434
1772534455546086700,3.890086669921875,-0.9027969812303781,-0.24602453271672128,0.11629954391196369
1772534455556102700,3.9001025390625,-0.7746738746643066,-0.26142668450996276,0.21504501869380474
1772534455566119700,3.91011962890625,-0.7505944954186677,-0.23363573739528654,0.26367183308824893
1772534455576135700,3.9201357421875,-0.7691904748171567,-0.24459245408698915,0.24436375989764927
1772534455586152400,3.93015234375,-0.8174176223695278,-0.29927959143370386,0.2384406534589827
1772534455596168700,3.940168701171875,-0.9076508510023354,-0.2918243069916963,0.19488047480434179
1772534455606185700,3.950185791015625,-1.0489344679147004,-0.3056314446784556,0.06739741970747709
1772534455616201700,3.96020166015625,-1.2342191391170023,-0.37816052818596363,-0.09397270742207765
1772534455626218500,3.970218505859375,-1.424234345972538,-0.37635347876399755,-0.20662045082822442
1772534455636234500,3.980234375,-1.6109055030971764,-0.3879251124836504,-0.28647505491822955
1772534455646251800,3.990251708984375,-1.6845634445041417,-0.3565678511895239,-0.3615077918097377
1772534455656267500,4.000267578125,-1.6896961312174796,-0.2799707875907421,-0.3802016786247492
1772534455666283500,4.010283447265625,-1.574684435158968,-0.22680998302847147,-0.3539931783959269
1772534455676300500,4.020300537109375,-1.4683084654986858,-0.17423939944431185,-0.36836934814229605
1772534455686316800,4.03031689453125,-1.3462760770231486,-0.13215733051821588,-0.32798429239243265
1772534455696333600,4.04033349609375,-1.0618635075926781,-0.017259616228193043,-0.29959304129704833
1772534455706349600,4.050349609375,-0.6908136881947518,0.18974618065580726,-0.29967976973243055
1772534455716366600,4.06036669921875,-0.32172961591184135,0.3362022317700088,-0.22184724605455994
1772534455726382800,4.0703828125,-0.0818120217680931,0.49339361191019415,-0.11747786697633564
1772534455736399600,4.080399658203125,0.022210662764310836,0.6994877007767558,-0.0646511897392571
1772534455746415600,4.09041552734375,0.08780687826871872,0.8486278764083981,-0.08165515070594846
1772534455756432600,4.1004326171875,0.23622867649793625,0.9568025660537183,-0.1895035310063511
1772534455766448600,4.11044873046875,0.4068868564546108,1.0369232737340033,-0.3186345725059509
1772534455776465700,4.120465576171875,0.4678407991111278,1.0510035292737185,-0.475949579025805
1772534455786481700,4.130481689453125,0.4326286159545183,1.0082340626053512,-0.6659537530306726
1772534455796497700,4.14049755859375,0.3995891006618738,0.9099056441918015,-0.9049345047157257
1772534455806514700,4.1505146484375,0.42352001134753225,0.8091146350570022,-1.1950110912572591
1772534455816530700,4.16053076171875,0.4817623569577932,0.7340424429379403,-1.4050149739786981
1772534455826547700,4.170547607421875,0.5105968217760324,0.680477295358479,-1.4813681458190082
1772534455836563700,4.180563720703125,0.5963298163801432,0.6258833892531692,-1.4604872703537344
1772534455846580700,4.190580810546875,0.652220630428195,0.5926182485111058,-1.3303753280580044
1772534455856596700,4.2005966796875,0.6865133606523275,0.6063944065377116,-1.1815639459893106
1772534455866613500,4.210613525390625,0.764051942884922,0.577885228151083,-0.9927311538513749
1772534455876629500,4.22062939453125,0.8474433427989483,0.5334789540611207,-0.8089625132352113
1772534455886646800,4.230646728515625,0.9054904580980538,0.46362025880664587,-0.6374558266904204
1772534455896662800,4.240662841796875,1.0051835889935492,0.37235549516901373,-0.4740414073169231
1772534455906679600,4.250679443359375,1.0951514446884394,0.27274697381705043,-0.2813535471860319
1772534455916695600,4.260695556640625,1.1323732141017913,0.15162643948942423,-0.1278914897672832
1772534455926711600,4.270711669921875,1.217225918740034,0.027478958556056022,-0.029082740490883587
1772534455936728800,4.280728759765625,1.399454124981165,-0.035473610571771855,0.12793708247467875
1772534455946744600,4.29074462890625,1.4977292057722806,-0.031847967420518396,0.22754048926010725
1772534455956761600,4.30076171875,1.6533388696789741,-0.07119988073036074,0.2614119253322482
1772534455966777600,4.310777587890625,1.8167776197761296,-0.15823957401886582,0.2635499237416312
1772534455976794600,4.320794677734375,1.8719570706844328,-0.21819500715732573,0.28546839862633494
1772534455986810600,4.330810546875,1.9053531443297862,-0.2824909537181258,0.3403117129154503
1772534455996827600,4.34082763671875,1.9626158312529325,-0.3713992173574865,0.3867725449150428
1772534456006843600,4.35084375,1.9580653283417224,-0.49460620257034893,0.37995508345253765
1772534456016860700,4.360860595703125,1.9391928700894117,-0.6204685245975852,0.26059816126395013
1772534456026876700,4.370876708984375,1.8199965818226336,-0.7327852824836969,0.17266995817050337
1772534456036893700,4.380893798828125,1.683598398864269,-0.8676984875813126,0.241182828306593
1772534456046909700,4.39090966796875,1.6814631404012441,-0.9197172825016081,0.31389863002523777
1772534456056925400,4.400925537109375,1.7986217853605746,-0.9555601647771894,0.33081432818658646
1772534456066942700,4.410942626953125,1.8618676383465527,-1.0275517804071306,0.26593751299791035
1772534456076958700,4.420958740234375,1.7662065394461155,-1.1284259377807377,0.2238763772619888
1772534456086975500,4.4309755859375,1.6184247926861046,-1.2748757052846251,0.18478987342268227
1772534456096991500,4.440991455078125,1.4951123012721537,-1.416895381386578,0.04924143916144967
1772534456107008800,4.4510087890625,1.3900865771770476,-1.4958053981028496,0.00012402823846787214
1772534456117024800,4.461024658203125,0.9724801737874745,-1.5804875684797763,0.01502632248448208
1772534456127041500,4.47104150390625,0.5194885687619447,-1.7244370436005294,0.034190658089146016
1772534456137057500,4.4810576171875,0.07526888373494148,-1.8248045666262507,-0.04018007122967392
1772534456147074800,4.49107470703125,-0.3520592877238989,-1.83372510131523,-0.2147383273648098
1772534456157090600,4.501090576171875,-0.7770505406677722,-1.8193625217027962,-0.37542551373150196
1772534456167107600,4.511107666015625,-1.291602237549424,-1.815473989831656,-0.35556714971438047
1772534456177123600,4.52112353515625,-1.8244769421070812,-1.6643410329475998,-0.31420499256066975
1772534456187140600,4.531140625,-2.2411107010722158,-1.5024563804246485,-0.2246362009196542
1772534456197156600,4.541156494140625,-2.482221888914704,-1.3685649195902048,-0.04156010914491489
1772534456207172600,4.551172607421875,-2.6486504684776064,-1.2084088444255292,0.034203554103337225
1772534456217189600,4.561189697265625,-2.734158422154188,-0.9906478447712957,0.03820049651870504
1772534456227205600,4.57120556640625,-2.8089538431584833,-0.8403061843954026,0.2030755447629839
1772534456237222700,4.58122265625,-2.6982261080294845,-0.832148743033409,0.31057584227807816
1772534456247238700,4.59123876953125,-2.3324673807770013,-0.767755035186559,0.20892849030857905
1772534456257255700,4.601255615234375,-1.9935878926217554,-0.6338109673820436,0.10615805259328336
1772534456267271700,4.611271728515625,-1.7593407453298568,-0.571472292368859,-0.04584628029782325
1772534456277288700,4.621288818359375,-1.6344120508909223,-0.501503999260068,-0.3265782980520278
1772534456287304700,4.6313046875,-1.657622830608487,-0.38442572606056924,-0.6414420467823744
1772534456297321500,4.641321533203125,-1.8292524859458208,-0.28732568039819595,-0.7603183093145489
1772534456307337500,4.65133740234375,-1.9862866296976804,-0.12380845823734998,-0.6367182331308722
1772534456317354800,4.661354736328125,-2.144016354498267,0.007014262676239013,-0.38271848375126716
1772534456327370800,4.671370849609375,-2.146711584931612,0.07005962465405463,-0.09323357949256897
1772534456337387500,4.681387451171875,-2.004637109902501,0.22425255363062022,0.05219740289021283
1772534456347403500,4.691403564453125,-1.7716957845121621,0.43384149887561796,0.054510903996974225
1772534456357419800,4.701419677734375,-1.4629367093324661,0.6030694998987018,-0.004196721037477254
1772534456367436500,4.7114365234375,-1.0453700534313917,0.7639639723405242,-0.0890624678203836
1772534456377452500,4.72145263671875,-0.5518406863123179,0.8639287597842514,-0.11333948852997272
1772534456387469600,4.731469482421875,-0.08542612061202526,0.8982038082212209,-0.09808103779004886
1772534456397485800,4.74148583984375,0.33857495225071904,0.9070815266817808,-0.10636150274351239
1772534456407502600,4.751502685546875,0.7414473123669624,0.9820923440024256,-0.08367293853545561
1772534456417518600,4.7615185546875,1.0371756410598754,1.1321788605734706,-0.02686479957993142
1772534456427535600,4.77153564453125,1.281786945977807,1.246110214049369,0.1267772266487591
1772534456437551600,4.781551513671875,1.3681775277078152,1.3610885923601685,0.21508367020376026
1772534456447568600,4.791568603515625,1.2459008090823889,1.463772283373773,0.20699781450694427
1772534456457584600,4.801584716796875,0.9558306522816419,1.472821559008956,0.15754083289867266
1772534456467601700,4.8116015625,0.629165333533287,1.3940814920321105,0.06967866707902867
1772534456477617700,4.82161767578125,0.38086043479442594,1.3199955344714223,0.016189110053004697
1772534456487633700,4.831633544921875,0.22881343180537222,1.3428636382311583,-0.08128172341682947
1772534456497650700,4.841650634765625,0.17473229752779007,1.3596610437750816,-0.1889455500637181
1772534456507666700,4.851666748046875,0.23170564611554145,1.3439926422610877,-0.29135884490441527
1772534456517683700,4.86168359375,0.3450789273172617,1.2896825215332208,-0.37245924780443307
1772534456527700000,4.871699951171875,0.476219920399785,1.2353294384464621,-0.47585554406680164
1772534456537717000,4.881717041015625,0.6495055262506008,1.139540913774073,-0.5090744345143438
1772534456547732700,4.891732666015625,0.8037906635552644,1.0742287759080529,-0.4564574910378083
1772534456557749800,4.901749755859375,0.8710469212263822,0.9855020063154398,-0.34590708523709324
1772534456567766000,4.91176611328125,0.9176157801777124,0.9246230285912752,-0.15976758730374277
1772534456577782800,4.92178271484375,0.9615437692314386,0.8931305966101586,0.09899656346607953
1772534456587798800,4.931798828125,1.0100403813749552,0.8900637563854455,0.35856892534624785
1772534456597815800,4.94181591796875,1.0961878019988536,0.8745812328323721,0.6316627033069729
1772534456607832000,4.95183203125,1.034393901386857,0.8228336560688913,0.8040729876279831
1772534456617847800,4.961847900390625,1.0483920316010713,0.747812317354232,0.9179263074316084
1772534456627864800,4.97186474609375,1.0141069001615046,0.7368063546933233,1.023457862157002
1772534456637880800,4.981880859375,0.950356604784727,0.6929682358801365,1.037098191909492
1772534456647897900,4.99189794921875,0.9908692324370145,0.5679935103423893,0.943871188288182
1772534456657913900,5.001913818359375,1.0788660803198813,0.4899909638598561,0.8113347953245044
1772534456667931000,5.011930908203125,1.1840537169784306,0.405698523452878,0.6175573133260012
1772534456677947000,5.02194677734375,1.0890613111197949,0.29736966615915295,0.4548804509794339
1772534456687964000,5.0319638671875,0.9279846139788627,0.1408221368804574,0.33805290113799275
1772534456697980000,5.04197998046875,0.7222855157792568,0.017640724500268698,0.24994053711667655
1772534456707997000,5.051996826171875,0.4846382046550512,-0.06702361795902252,0.2087685687728226
1772534456718013000,5.062012939453125,0.3142044811040163,-0.12843509512469173,0.18286730786226688
1772534456728030000,5.072030029296875,0.27062720518410205,-0.1741134349770844,0.005597089354693889
1772534456738046000,5.0820458984375,0.31990532309412956,-0.23763065225034952,-0.1498852218452841
1772534456748062000,5.09206201171875,0.39217853214442727,-0.38322482583820816,-0.19013116138540206
1772534456758078700,5.10207861328125,0.535842322191596,-0.45723114229142664,-0.1364152071584016
1772534456768094700,5.1120947265625,0.5803840592294931,-0.39454862227663395,-0.04309278033860028
1772534456778112000,5.122112060546875,0.547327008280158,-0.32755408428162336,0.04333316496573388
1772534456788128000,5.1321279296875,0.30462825898528095,-0.29279972789511083,0.08853475415185093
1772534456798144800,5.142144775390625,-0.021147417446970938,-0.25103476209416986,0.16462664470747113
1772534456808160800,5.152160888671875,-0.47048459161818024,-0.255338889028877,0.12795330295711754
1772534456818178000,5.162177978515625,-0.8268202414870262,-0.322919264087826,-0.028449411023408172
1772534456828193800,5.17219384765625,-1.0267115301907062,-0.3493504671566188,-0.17819171726666388
1772534456838210800,5.1822109375,-1.1384855595022438,-0.4125127335123718,-0.21882680225484072
1772534456848226800,5.192226806640625,-1.2197744341790675,-0.4491150558531284,-0.22766930327154694
1772534456858243800,5.202243896484375,-1.199896598276496,-0.4219317192427814,-0.20700747738443315
1772534456868259800,5.212259765625,-1.2437392471343278,-0.33626828274354337,-0.18071955524384975
1772534456878275800,5.22227587890625,-1.3502666079640389,-0.2769983476512134,-0.23023886149860917
1772534456888292900,5.23229296875,-1.4389689737677573,-0.19384090262353418,-0.39564482001550494
1772534456898308900,5.242308837890625,-1.461830793917179,-0.10521803179681301,-0.5702057064991444
1772534456908326000,5.252325927734375,-1.3537801690429447,-0.0790359811834991,-0.5849490290574729
1772534456918342000,5.262341796875,-1.1365823562294244,-0.06337693201974035,-0.4887624449782073
1772534456928359000,5.27235888671875,-0.9147662359654903,-0.021567250294238328,-0.36676074390187857
1772534456938374700,5.282374755859375,-0.731927204349637,0.007552022814750671,-0.29143070456422865
1772534456948392000,5.292391845703125,-0.6426707117944955,0.09825301508978009,-0.2236954312045127
1772534456958408000,5.302407958984375,-0.5984831950217485,0.15320011854693294,-0.14231829372234642
1772534456968424700,5.3124248046875,-0.6053513272255658,0.20476400930657981,-0.008931932865828275
1772534456979067000,5.32306689453125,-0.6875508870065212,0.2562253164745867,0.09675247433371842
1772534456989083600,5.333083740234375,-0.8527952252209186,0.3057606240160763,0.1858708735924214
1772534456999099600,5.343099609375,-0.989943349763751,0.2861677425347268,0.1831017742052674
1772534457009116000,5.353115966796875,-1.0428045868575573,0.2769432564631104,0.14186346262693406
1772534457019133000,5.3631328125,-1.0424135417133569,0.2601892516694963,-0.038522695944085715
1772534457029149000,5.37314892578125,-1.0075468109935521,0.2316176755711436,-0.18941687563620507
1772534457039165700,5.383165771484375,-0.9074491909503937,0.1764377862714231,-0.21829722542278468
1772534457049182000,5.393181884765625,-0.7784428718090057,0.13354849261566995,-0.1693468050971627
1772534457059199000,5.403198974609375,-0.555189996740222,0.1320459790982306,-0.08668839563280344
1772534457069214700,5.413214599609375,-0.41149347346723075,0.16061404806524515,-0.03321450653336942
1772534457079231700,5.423231689453125,-0.2673293326824903,0.2114870339512825,-0.025040479362756014
1772534457089248000,5.433248046875,-0.13890811995267868,0.3392914299570024,-0.08457279171831905
1772534457099264800,5.4432646484375,0.025768647506833074,0.4490758928865194,-0.2047233119700104
1772534457109280800,5.45328076171875,0.17898469427525995,0.5117693726867437,-0.2933222173992544
1772534457119297800,5.4632978515625,0.2376858895689249,0.5331779252879322,-0.4484810687985271
1772534457129314000,5.47331396484375,0.3043991264045238,0.5546367467716335,-0.7306311731897294
1772534457139329800,5.483329833984375,0.36699616009294983,0.5441241205856203,-0.9780367850013076
1772534457149346800,5.493346923828125,0.4075777613282203,0.5033019885927439,-1.1417149698775262
1772534457159362800,5.50336279296875,0.37286475986540313,0.4348679193139076,-1.2163126032873988
1772534457169379800,5.5133798828125,0.32411914139688014,0.4079543395556509,-1.2691826082095503
1772534457179395800,5.523395751953125,0.37335225112140175,0.4808532792888581,-1.37954472489655
1772534457189412900,5.533412841796875,0.37246728498041626,0.4811923019848764,-1.313459410700947
1772534457199428900,5.543428955078125,0.4188473433613777,0.4559428560465574,-1.2853601282894611
1772534457209446000,5.55344580078125,0.4034849390566349,0.4783462649039924,-1.2361240959554909
1772534457219462000,5.5634619140625,0.38416298347115513,0.48022535664886234,-1.071281981866434
1772534457229479000,5.57347900390625,0.42505788843929765,0.42394378971755503,-0.876983983125165
1772534457239495000,5.583494873046875,0.5631073457360267,0.3230164408519864,-0.61872489580065
1772534457249512000,5.593511962890625,0.6164192492067814,0.2802637791879475,-0.36708033124506473
1772534457259528000,5.60352783203125,0.7244418170303106,0.27931743824854494,-0.1612077031094581
1772534457269544000,5.6135439453125,0.8878004876285791,0.29370296034514903,-0.07211546120531856
1772534457279560700,5.623560791015625,1.0265063630074263,0.263303438167274,0.0064229457195848225
1772534457289576700,5.63357666015625,1.1853881804525852,0.16159896744936703,0.08418035833463072
1772534457299594000,5.643593994140625,1.3239140230894089,0.08423851826265454,0.1035202149029821
1772534457309610000,5.65360986328125,1.372595928671956,-0.013815028732270002,0.06231858207322657
1772534457319626800,5.663626708984375,1.4720798007309437,-0.15473901855200528,-0.025096812659874557
1772534457329642800,5.673642822265625,1.6332079357981681,-0.27363734678551555,-0.13296243635602295
1772534457339660000,5.683659912109375,1.8083336165577173,-0.36442470216974615,-0.1933597680430859
1772534457349675800,5.69367578125,1.915391138741374,-0.4661360410198569,-0.11000066296346485
1772534457359692800,5.70369287109375,2.003350577223301,-0.5662250393651426,-0.045463893384113906
1772534457369708800,5.713708740234375,2.07644211691916,-0.6479580045476555,0.04938355104587972
1772534457379725800,5.723725830078125,2.070811417555809,-0.783376090427488,0.12003851124458015
1772534457389741800,5.733741943359375,2.0343436813801525,-0.9184697666585445,0.047321138623356816
1772534457399758800,5.7437587890625,2.007520556384325,-1.0769392039105294,0.018869097251445054
1772534457409774800,5.75377490234375,1.9010569084405897,-1.2251682560466228,-0.007377689161151647
1772534457419792000,5.7637919921875,1.6512608943611382,-1.3445818403258918,0.01928688427209854
1772534457429807900,5.773807861328125,1.2821814982533455,-1.497626037658751,0.12683145932033657
1772534457439825000,5.783824951171875,0.9706558809697627,-1.603495957493037,0.18910006477199492
1772534457449841000,5.7938408203125,0.7009931369036436,-1.5968004053771494,0.2802995811536908
1772534457459856600,5.803856689453125,0.4416998111605644,-1.564659592489898,0.3598615589726716
1772534457469874000,5.8138740234375,0.2691951265543699,-1.5365955275222658,0.27995624760873616
1772534457479890000,5.823889892578125,0.09201426683068276,-1.4646948050461708,0.1726479655344039
1772534457489906700,5.83390673828125,-0.0948398456454277,-1.391162097454071,0.1679337964940816
1772534457499922700,5.843922607421875,-0.3447726378470659,-1.348647190068662,0.16116181814111769
1772534457509940000,5.85393994140625,-0.5766811130583286,-1.2784132317610084,0.09900902108885347
1772534457519955500,5.86395556640625,-0.7790273936986922,-1.1625861276663838,0.036218145328760144
1772534457529972200,5.87397216796875,-0.9598223522663116,-1.0934256438091396,-0.00022379881851375101
1772534457539988200,5.88398828125,-1.08817517593503,-1.0806824820920824,-0.046180078829452395
1772534457550005500,5.894005615234375,-1.2139198629319667,-0.9899072555370628,-0.12005261283516883
1772534457560021500,5.904021484375,-1.3881693453788757,-0.7791127338945865,-0.15859204071834682
1772534457570038300,5.914038330078125,-1.6813649407237767,-0.6339022989273071,-0.08615984171405434
1772534457580054300,5.92405419921875,-1.9263778121799229,-0.5858928857788444,-0.12437003764286636
1772534457590070300,5.9340703125,-2.0025322465777395,-0.48534284579306836,-0.22680172665677964
1772534457600087300,5.94408740234375,-1.8576345308214426,-0.3507930671803653,-0.27591515552438795
1772534457610103300,5.954103271484375,-1.4889339048981665,-0.27875001362413165,-0.29989048987366257
1772534457620120300,5.964120361328125,-1.0484154124766587,-0.16313918262869118,-0.3228599351160228
1772534457630136300,5.97413623046875,-0.5597621269613504,-0.05584902073293924,-0.3606244331039488
1772534457640153300,5.9841533203125,-0.1575292337924242,0.05823679265230894,-0.39879027843438086
1772534457650169300,5.99416943359375,0.18902444225251674,0.11143383757174015,-0.2826367188643664
1772534457660186400,6.004186279296875,0.4185235182344913,0.1302232937157154,-0.0819591751538217
1772534457670202400,6.014202392578125,0.4316366823077202,0.18536475070118902,0.054076823428645726
1772534457680219400,6.024219482421875,0.21378069784641265,0.24219518368691204,0.23024134571664034
1772534457690235400,6.0342353515625,-0.2311632098019123,0.24456863481998442,0.4393118200454861
1772534457700252400,6.04425244140625,-0.830112268769741,0.20363982758224008,0.5358404955606907
1772534457710268200,6.05426806640625,-1.3732944323301315,0.27122254072874785,0.4863425974201411
1772534457720284400,6.064284423828125,-1.7909107725918292,0.3847305542260408,0.4200396949511021
1772534457730301400,6.074301513671875,-2.040618523865938,0.43732495707720515,0.3783507900610566
1772534457740317400,6.0843173828125,-2.131753669774532,0.5084276610434055,0.2764408598989248
1772534457750334200,6.094334228515625,-2.115471228015423,0.6438225121781229,0.14283639931231737
1772534457760350500,6.1043505859375,-1.9586586180597543,0.7360553901955484,-0.038545711493492125
1772534457770367500,6.114367431640625,-1.7619535581767558,0.8395151801481843,-0.20467969202399253
1772534457780383200,6.12438330078125,-1.473039585673809,0.9102756465479731,-0.3247350813381374
1772534457790400300,6.134400146484375,-1.1635247236907482,0.9654425302356481,-0.37374037365615365
1772534457800416300,6.144416259765625,-0.8386030337393283,1.0042118213519453,-0.3142807612106204
1772534457810433300,6.154433349609375,-0.5941325985968112,1.1220955657154321,-0.18821049552112817
1772534457820449300,6.16444921875,-0.3315571824431419,1.202501812338829,-0.0860129805892706
1772534457830466300,6.17446630859375,-0.10980594410896301,1.2681921358674764,0.08627119313403964
1772534457840482300,6.184482421875,0.019997662889957427,1.308799456065893,0.22305092275589702
1772534457850498600,6.19449853515625,0.17473346657156943,1.316931032334268,0.2849037139482796
1772534457860515300,6.204515380859375,0.22020342437028884,1.3242974694490433,0.31711795739792287
1772534457870531300,6.21453125,0.18317630074620245,1.3168226035237311,0.25916677675396205
1772534457880548400,6.22454833984375,0.08750409592986107,1.2705515584751963,0.15939984996989368
1772534457890564400,6.234564453125,-0.028965982243418693,1.1801315750986336,-0.008289031852409243
1772534457900581400,6.244581298828125,-0.08629881179332732,1.0796206980794667,-0.210321351172775
1772534457910597400,6.254597412109375,-0.0911538506090641,1.0259890611350535,-0.3872119957782328
1772534457920614100,6.2646142578125,-0.03836450970768928,0.9278884601280093,-0.48958004497140645
1772534457930630400,6.27463037109375,0.08737433207035064,0.846136351853609,-0.5679357888057828
1772534457940647400,6.2846474609375,0.25786066259145735,0.8248086094036697,-0.5801759694367646
1772534457950663400,6.294663330078125,0.4677952064037323,0.8501999480307102,-0.5420702567957342
1772534457960680200,6.30468017578125,0.6876718830376863,0.8934452155172824,-0.38151319961473346
1772534457970696400,6.314696533203125,0.8118196562319994,0.97574326723665,-0.1923483259782195
1772534457980712400,6.32471240234375,0.8971504997760057,1.0201458880648016,-0.011921762331575155
1772534457990729200,6.334729248046875,0.949963221552968,1.0033398608230053,0.19321940972432494
1772534458000745200,6.3447451171875,1.040242627415061,0.9975925493426621,0.34364889451414343
1772534458010762500,6.354762451171875,1.1663362739801406,0.9566356850542127,0.3891187061823904
1772534458020778500,6.364778564453125,1.256329264116287,0.8451150459818542,0.378854501799494
1772534458030795300,6.374795166015625,1.3076385955929755,0.6824192232064903,0.386150504026562
1772534458040811300,6.384811279296875,1.220502748453617,0.5630281430199742,0.36356691629663107
1772534458050828500,6.39482861328125,1.1169354064732788,0.43998277810961006,0.34762934245243665
1772534458060844500,6.404844482421875,1.0610592054724692,0.32683015392124654,0.380392598086968
1772534458070861300,6.414861328125,0.9946902520298957,0.24974881393685935,0.37476292163692415
1772534458080877300,6.424877197265625,1.030872741523385,0.20789792341813443,0.37228235686756667
1772534458090894300,6.434894287109375,1.170697976320982,0.2013318429008126,0.3270603094153106
1772534458100910300,6.444910400390625,1.3534844009667635,0.1878292411185801,0.2319630549427122
1772534458110926300,6.45492626953125,1.5112223090738057,0.15221622207611799,0.1932557231467217
1772534458120943400,6.464943359375,1.481049873650074,0.09548954172581434,0.17746106490455565
1772534458130959400,6.47495947265625,1.3849334321975708,0.05012158299684524,0.11605535989254713
1772534458140976400,6.484976318359375,1.2106693367034196,-0.0010845803663134574,0.12197956230975687
1772534458150992400,6.494992431640625,0.9670704236984252,-0.10612550203055143,0.10758768353760242
1772534458161009400,6.505009521484375,0.8327747659772634,-0.26140359589532014,0.06543328002765775
1772534458171025200,6.515025146484375,0.8353051612377166,-0.38365401103571056,-0.020559315360710022
1772534458181042400,6.52504248046875,0.8436638242602348,-0.459239997895807,-0.07946670075096189
1772534458191058400,6.535058349609375,0.8521317928761243,-0.5055488907366991,-0.13579583315104246
1772534458201075200,6.5450751953125,0.7069651970505714,-0.5213599155917763,-0.1853179889500141
1772534458211091200,6.55509130859375,0.3905558993786573,-0.462939290805161,-0.19590514167696235
1772534458221108500,6.5651083984375,0.004407879570126534,-0.39104207546040415,-0.14813209456764162
1772534458231124500,6.57512451171875,-0.38212417111992836,-0.3441054061099887,-0.15115882197767494
1772534458241140500,6.585140380859375,-0.6611784283876418,-0.31696035568341613,-0.23086671107336879
1772534458251157200,6.5951572265625,-0.7597609676927327,-0.2864896679654717,-0.37685638678483663
1772534458261173200,6.60517333984375,-0.7715992895245551,-0.2866597638353705,-0.4881494276463985
1772534458271190500,6.6151904296875,-0.7756219691693782,-0.35701238008663055,-0.579383138558641
1772534458281206300,6.625206298828125,-0.9243079712927341,-0.4318791127614677,-0.668403118944168
1772534458291223300,6.635223388671875,-1.2142740831971168,-0.5728147930189966,-0.6867489229738712
1772534458301239300,6.6452392578125,-1.5392092171519993,-0.6743240334257483,-0.6276783098459243
1772534458311256300,6.65525634765625,-1.8365555024355649,-0.6788309894561767,-0.5499842447906732
1772534458321272300,6.665272216796875,-1.9057471120834348,-0.5547144881829619,-0.4540208019427955
1772534458331289300,6.675289306640625,-1.7857114503830671,-0.3844387316726148,-0.3150876206140965
1772534458341305300,6.685305419921875,-1.5791221253454684,-0.2304639754913747,-0.2305238889850676
1772534458351322400,6.695322265625,-1.3504367038339375,-0.09000453444346786,-0.21733963243700563
1772534458361338400,6.70533837890625,-1.1114140127032994,0.016329349640756843,-0.26057795872613787
1772534458371354400,6.715354248046875,-1.002914475017786,0.08821429002583027,-0.28698249298371376
1772534458381371100,6.72537109375,-0.9957038129866123,-0.015898849269002674,-0.26872685145549474
1772534458391387400,6.735387451171875,-1.0397194803237915,-0.17196078698784112,-0.33373788748309013
1772534458401404400,6.745404296875,-1.225530805748701,-0.269175398940593,-0.3865386265613138
1772534458411420400,6.75542041015625,-1.4560668235629797,-0.38581162746101616,-0.25496589099802075
1772534458421437200,6.765437255859375,-1.553822264394164,-0.36259850965589285,-0.1738746577851474
1772534458431453400,6.775453369140625,-1.482414732262492,-0.22683643264397976,-0.1523586992867291
1772534458441470500,6.785470458984375,-1.297038875645399,-0.09872793912515043,-0.10327369279600679
1772534458451486500,6.795486572265625,-1.0286614952147006,0.060415013474225995,-0.08150339421033859
1772534458461503200,6.805503173828125,-0.778589586803317,0.2703438581980765,-0.03760404672920704
1772534458471519200,6.815519287109375,-0.48713937382102007,0.3950727922812104,0.007946867351233958
1772534458481536500,6.82553662109375,-0.1675982078641653,0.46832858262807125,-0.013441665375232696
1772534458491552300,6.83555224609375,-0.002542085698246956,0.5685965908020735,-0.12386566831730306
1772534458501568300,6.845568359375,0.052848962134122844,0.6264543210089206,-0.2579666802491993
1772534458511585300,6.855585205078125,0.060650575795769684,0.6478069056391715,-0.4362840697221458
1772534458521601500,6.8656015625,0.02654430805444717,0.6422228218965232,-0.6394382326792926
1772534458531618300,6.875618408203125,-0.011360182926058768,0.5920014317870139,-0.8570897806096821
1772534458541634600,6.885634521484375,-0.04697451714277267,0.4943989895604551,-1.062646401598677
1772534458551651600,6.895651611328125,-0.02300210540294647,0.39161914469599723,-1.1891533051397651
1772534458561667300,6.905667236328125,0.23778233568072318,0.3085501086041331,-1.2580232085525989
1772534458571684400,6.915684326171875,0.6662175915986299,0.23614625891149044,-1.292652623385191
1772534458581700600,6.92570068359375,1.150432602405548,0.15987141300439833,-1.2672272363580763
1772534458591717400,6.93571728515625,1.5493290446281431,0.0939979879938066,-1.2219803467255086
1772534458601733400,6.9457333984375,1.8898352572023867,0.012599953854084014,-1.112328789460659
1772534458611750400,6.95575048828125,2.035786281403899,-0.045788083837181325,-0.9287855550982057
1772534458621766700,6.9657666015625,2.076104263266921,-0.07190715221688151,-0.6896957170154899
1772534458631782700,6.97578271484375,2.067743262156844,-0.09817454302608966,-0.4818183249287307
1772534458641799400,6.98579931640625,2.0171727663487196,-0.11716259048208594,-0.3132298639182001
1772534458651815400,6.9958154296875,1.983085203307867,-0.18079057465344667,-0.1307747170533985
1772534458661832400,7.00583251953125,1.8652216249495743,-0.30403160826638337,0.016845117143169046
1772534458671848400,7.015848388671875,1.6594576448202132,-0.4522553997054696,0.09440876075178384
1772534458681865500,7.025865478515625,1.4865069700121878,-0.6300133286647498,0.10345094905905425
1772534458691881500,7.035881591796875,1.307171562603116,-0.7597242889441549,0.01912175683826208
1772534458701898500,7.0458984375,1.2693629332125187,-0.8735776087477802,-0.0825674432452768
1772534458711914500,7.05591455078125,1.3499831148475407,-1.0072221090838311,-0.16271620797626674
1772534458721931500,7.065931640625,1.5478917053014039,-1.0638901911146939,-0.31962314515188334
1772534458731947500,7.075947509765625,1.711526854753494,-1.0794438802078365,-0.5096639248400926
1772534458741963300,7.08596337890625,1.7741630514085291,-1.1640104613810778,-0.5568514271464199
1772534458751980500,7.09598046875,1.7071189751833675,-1.275666125009954,-0.5197385980002581
1772534458761996500,7.10599658203125,1.4260948791474104,-1.3333211722515523,-0.43491826126165684
1772534458772013300,7.116013427734375,1.0714449904084205,-1.3971249513812363,-0.3151842859216034
1772534458782029300,7.126029296875,0.8547410985916852,-1.4949943739809095,-0.3201507492225617
1772534458792046600,7.136046630859375,0.8548930742830038,-1.5749771344952284,-0.3751267134480178
1772534458802062600,7.1460625,0.83738781273067,-1.5642241236820815,-0.4866124273374676
1772534458812079400,7.156079345703125,0.8866998329102993,-1.6303706665456295,-0.5702060718253255
1772534458822095400,7.166095458984375,0.8289847260445355,-1.6770546763092278,-0.5756516969453543
1772534458832112600,7.176112548828125,0.6217430745780468,-1.689099480498582,-0.5010723298445343
1772534458842128600,7.186128662109375,0.3491805174171924,-1.6542859412707387,-0.33459603868238624
1772534458852145400,7.1961455078125,-0.027786417070031166,-1.5358935167327523,-0.17270225300490855
1772534458862161400,7.206161376953125,-0.5374877513110637,-1.376641843061894,-0.07526756856068968
1772534458872177400,7.216177490234375,-1.0848989307433365,-1.1830923246003686,-0.09111205729395151
1772534458882194400,7.2261943359375,-1.6440169145822523,-1.118126223693043,-0.15905322848930953
1772534458892210400,7.23621044921875,-2.0146528924822804,-1.0844156772710383,-0.3227213303629309
1772534458902227500,7.2462275390625,-2.201497652608156,-0.8877497803546488,-0.4983125097423792
1772534458912243500,7.256243408203125,-2.313159453716874,-0.7093965158507227,-0.5874833698406815
1772534458922260500,7.266260498046875,-2.3702444459855556,-0.5560710173584521,-0.6031641193795949
1772534458932276500,7.2762763671875,-2.303510166361928,-0.3626319735340774,-0.6703520610548556
1772534458942293500,7.28629345703125,-2.1872049233615396,-0.1227507658779621,-0.7708652761615812
1772534458952309200,7.296309326171875,-2.0263164422690867,0.01208645137399435,-0.723454924884811
1772534458962326500,7.306326416015625,-1.7630547974169253,-0.01603416608646512,-0.6210125683464109
1772534458972342500,7.316342529296875,-1.4012263953506945,0.01999634771570563,-0.5747750602412969
1772534458982359300,7.326359375,-1.0511802010148763,0.1182728898115456,-0.5219907608412205
1772534458992375300,7.336375244140625,-0.8215273957759142,0.14316767709329722,-0.39542752400301395
1772534459002391600,7.3463916015625,-0.8585977740198373,0.19384762462526559,-0.29018801102675496
1772534459012408600,7.35640869140625,-1.0829705930292606,0.318011472171545,-0.46193128280639645
1772534459022424600,7.366424560546875,-1.3560901995509862,0.39430663021430373,-0.7211934827588499
1772534459032441300,7.37644140625,-1.7041747384250163,0.3972600731924176,-0.8379390899378806
1772534459042457600,7.38645751953125,-2.1441998943716287,0.37662703500837086,-0.8021863701637834
1772534459052474600,7.396474609375,-2.509317401111126,0.3542658578574657,-0.6504969484407455
1772534459062490400,7.406490478515625,-2.6535072608590125,0.39561932024806734,-0.44219227085262536
1772534459072507400,7.41650732421875,-2.5023814643681046,0.5172014807380736,-0.32336306233257056
1772534459082523600,7.426523681640625,-2.1585984220802783,0.6003393442824483,-0.3190370158270001
1772534459092540400,7.43654052734375,-1.7621365135282276,0.5433414457753301,-0.3884523512281477
1772534459102556400,7.446556396484375,-1.3851280779868365,0.5098714301109314,-0.5522286627165973
1772534459112572400,7.456572509765625,-1.1064829860419034,0.5484489980474114,-0.7009862687714398
1772534459122589700,7.466589599609375,-0.8175865491956472,0.5373503886669874,-0.6736003953263163
1772534459132605400,7.47660546875,-0.49473465125560756,0.5555531309641898,-0.5190295729480684
1772534459142622500,7.48662255859375,-0.09382102399170399,0.6400245811998844,-0.3381916520215571
1772534459152638500,7.496638427734375,0.30649113024771213,0.7569955946326256,-0.08162205215394497
1772534459162655500,7.506655517578125,0.5880003794521093,0.8555692199788987,0.0880505508314818
1772534459172671500,7.51667138671875,0.8815203844457864,0.9731441906541586,0.17550876179300248
1772534459182688500,7.5266884765625,1.1296627860993147,1.1160985172577202,0.1878326021194458
1772534459192704500,7.53670458984375,1.404043790858984,1.1838802601076661,0.23324345014207062
1772534459202721300,7.54672119140625,1.5627227792084215,1.1910147881627082,0.20378793081603944
1772534459212737500,7.556737548828125,1.697505928185582,1.1637447961822152,0.10661686574406921
1772534459222754600,7.566754638671875,1.736934267732501,1.0252209993720054,0.039387496079877016
1772534459232770600,7.5767705078125,1.7212725882202387,0.8863172633334994,-0.024228432327508924
1772534459242786300,7.586786376953125,1.5298825858801604,0.7567145857341587,-0.15394297280348837
1772534459252803600,7.596803466796875,1.3300976801604032,0.6317693785518408,-0.2683936739783734
1772534459262819600,7.606819580078125,1.1147867040067911,0.5393297259159385,-0.28610446804016826
1772534459272836400,7.61683642578125,0.9284364493995905,0.4795907120071351,-0.22432152721360324
1772534459282852400,7.626852294921875,0.7922323277086019,0.42236353478878735,-0.12335267729386687
1772534459292869600,7.63686962890625,0.6490753181397915,0.36917993387281894,0.017608429665863512
1772534459302885600,7.6468857421875,0.5701280381530522,0.3372268986426294,0.13142390167713164
1772534459312902400,7.65690234375,0.5160480729192495,0.3014103198520839,0.20410788348540662
1772534459322918400,7.66691845703125,0.5209527960956096,0.25385215760245916,0.3261509394854307
1772534459332935700,7.676935791015625,0.4765560204863548,0.20420199150964616,0.43567631308734417
1772534459342951400,7.686951416015625,0.38711715710163114,0.12606412820965052,0.5564882198572159
1772534459352968400,7.696968505859375,0.3483586796402931,0.01756283695846796,0.6336620604306459
1772534459362984400,7.706984375,0.3337380336135626,-0.09780907071456313,0.6480158722147346
1772534459373000400,7.71700048828125,0.38636429290771485,-0.21133885765224694,0.6477098750054836
1772534459383017500,7.727017578125,0.46275078249573703,-0.26543314367234705,0.6450576069310308
1772534459393033500,7.737033447265625,0.48129123231470583,-0.31442221550792454,0.6618601270414889
1772534459403050500,7.747050537109375,0.42833004197776314,-0.33998569583147764,0.7150187396466732
1772534459413066500,7.75706640625,0.3759732472747564,-0.36425066077709195,0.739171914780885
1772534459423083500,7.76708349609375,0.22870003455877302,-0.4093872949682176,0.6796459591008722
1772534459433099500,7.777099609375,0.13695757040679454,-0.44086248355358837,0.5378139145255089
1772534459443116500,7.787116455078125,0.15264204627275466,-0.4274133655242622,0.3568959141001105
1772534459453132300,7.79713232421875,0.14749240842461586,-0.3979163451440632,0.2550115567706525
1772534459463149600,7.807149658203125,0.19704583614468574,-0.37388285086676476,0.18113617322072387
1772534459473165600,7.81716552734375,0.2632271580606699,-0.3933161578722298,0.10820347734838723
1772534459483181600,7.827181640625,0.2279863333314657,-0.48283130136355756,0.06693681645840406
1772534459493198300,7.8371982421875,0.13303425948321818,-0.5206609735421837,0.04537979529723525
1772534459503214300,7.84721435546875,0.07055471469461917,-0.4969060039453208,0.0027915304146707057
1772534459513231600,7.857231689453125,-0.05240121836662292,-0.3970135510854423,-0.07338833068534731
1772534459523247400,7.867247314453125,-0.22350480400323866,-0.2791571331202984,-0.16641067858003078
1772534459533264600,7.8772646484375,-0.41799452592432496,-0.18782295750826597,-0.1650396824877709
1772534459543280600,7.88728076171875,-0.6474228747576475,-0.09839534616991877,-0.16100151301287113
1772534459553297400,7.89729736328125,-0.9568687631577253,-0.01129369356110692,-0.12180376735143363
1772534459563313400,7.9073134765625,-1.2836895647287367,0.02341039394289255,-0.1105005753096193
1772534459573330700,7.91733056640625,-1.51238901476562,0.053273178895562885,-0.16818733286373316
1772534459583346700,7.9273466796875,-1.590918946123123,0.13921777042374014,-0.2828010425806045
1772534459593363500,7.937363525390625,-1.524858620238304,0.18282339565530417,-0.4306454793132841
1772534459603379500,7.94737939453125,-1.4105232160061596,0.2031314396686852,-0.48138818988315757
1772534459613395700,7.957395751953125,-1.4234031558454037,0.23179493183419106,-0.5486718470178544
1772534459623412700,7.967412841796875,-1.4064403306066988,0.22038930233120918,-0.5956051553674042
1772534459633428500,7.977428466796875,-1.5199790315032005,0.1661737280189991,-0.5744999696269631
1772534459643445500,7.987445556640625,-1.677552688959241,0.15441095564141868,-0.5096169438932091
1772534459653461800,7.997461669921875,-1.7481383833140134,0.22512378350719808,-0.5191449429560452
1772534459663478500,8.007478515625,-1.7491823394089936,0.32614728622362016,-0.46668936405368144
1772534459673494500,8.01749462890625,-1.678292693671584,0.38998292179629207,-0.3519087733373046
1772534459683511600,8.027511474609375,-1.5878016908854244,0.3679230656795203,-0.23271672285422682
1772534459693527800,8.03752783203125,-1.5936106694251297,0.37989158976227044,-0.1123962528631091
1772534459703544600,8.047544677734376,-1.6666712294608355,0.34601635429784655,0.033526275896281
1772534459713560600,8.057560546875,-1.7227672106921672,0.23718889983221886,0.11435893123820423
1772534459723576600,8.06757666015625,-1.8007552902579307,0.19289003163948654,0.14422230071276426
1772534459733593600,8.077593505859374,-1.9088252043545244,0.18288623175844548,0.08477204061746597
1772534459743609600,8.087609619140625,-1.9224726214349268,0.09832388836890459,-0.0072165072500705715
1772534459753626600,8.097626708984375,-1.8605121320843696,0.06775280901640653,-0.09921747620776294
1772534459763642600,8.107642578125,-1.7511854959249495,0.15030264353975653,-0.19730302577614783
1772534459773659600,8.11765966796875,-1.5018150137811899,0.2241936630502343,-0.24713497817665336
1772534459783675600,8.127675537109376,-1.1674416048735379,0.33256665174663064,-0.32347455988302826
1772534459793692700,8.137692626953125,-0.805714325094223,0.5172036726951599,-0.4190134937085211
1772534459803708700,8.147708740234375,-0.4593529567509889,0.6864268514126539,-0.44413945939764377
1772534459813725700,8.1577255859375,-0.09228840759694576,0.8279917694844305,-0.4404490804471075
1772534459823741700,8.16774169921875,0.37450317472219463,0.9951518781922757,-0.4771526712052524
1772534459833757700,8.1777578125,0.7790548662275075,1.1404254415236412,-0.5210682391688227
1772534459843774500,8.1877744140625,1.0904752695709465,1.2003335283890366,-0.5279296493709087
1772534459853790500,8.19779052734375,1.2964485085368156,1.3026615378327666,-0.6282041603509336
1772534459863807700,8.207807861328124,1.5035229867428541,1.3338432964295148,-0.7334014416206628
1772534459873823700,8.21782373046875,1.669943382999301,1.3064328730650245,-0.7953701873429119
1772534459883840500,8.227840576171875,1.8820307209312914,1.3390801741696894,-0.8808086559798568
1772534459893856500,8.2378564453125,2.533858552649617,1.5156569305203853,-1.3109563418388366
1772534459903873800,8.247873779296874,2.2054057659626007,1.2157866797171533,-1.03366091093719
1772534459913889500,8.2578896484375,1.697660826486349,0.9954838866256177,-0.7508411636561155
1772534459923906600,8.267906494140625,1.5868500892490147,1.0720368188217282,-0.9064256200563162
1772534459933922600,8.277922607421875,1.4914467645019291,1.2505008502237498,-1.107603003047779
1772534459943939600,8.287939697265625,1.2974533016651868,1.3477607626229524,-1.1535752843454479
1772534459953955600,8.29795556640625,1.198227203759551,1.2113498663134872,-1.1336816663518547
1772534459963971600,8.3079716796875,1.0656938795357942,1.0339582864485681,-1.133286967945844
1772534459973988600,8.317988525390625,0.9903320568203926,0.9977521238185465,-1.1664887611281125
1772534459984004600,8.328004638671874,0.964247182971239,1.0650336620613932,-1.1840688414823264
1772534459994021600,8.338021728515624,0.9826409177958965,0.8253431546717882,-1.0592781672745943
1772534460004037600,8.34803759765625,1.148065873274207,0.6531888909384608,-0.8408473786000162
1772534460014054700,8.3580546875,1.373310214421153,0.5128614057071507,-0.7036421901077031
1772534460024070400,8.3680703125,1.5614140346974132,0.35548809312880036,-0.5199726259518415
1772534460034087700,8.378087646484374,1.583099212282896,0.17994447921812534,-0.3404663920205086
1772534460044103700,8.388103759765626,1.6933698512941597,0.050070437331497665,-0.14469386374726892
1772534460054120400,8.398120361328125,2.095789791467786,0.018628712624311445,0.01652509140856564
1772534460064136400,8.408136474609375,2.177918624100089,0.020619886441528797,0.09838051392696798
1772534460074152700,8.418152587890624,1.972762546736002,-0.11486220458522438,0.15075769383087753
1772534460084169700,8.428169677734376,1.996393597692251,-0.23236542519852518,0.33039895231872796
1772534460094185500,8.438185546875,1.9414502936273812,-0.2825213488563895,0.4801346096254885
1772534460104202500,8.448202392578125,1.6334779849112033,-0.28624460716322064,0.5325329784478992
1772534460114218800,8.45821875,1.3029893084824085,-0.2656967630445957,0.4994469936650246
1772534460124235500,8.468235595703124,1.1674737535774706,-0.33194472045600415,0.3822698632009327
1772534460134251500,8.47825146484375,1.1673439897179603,-0.4537942997105419,0.3072249244149774
1772534460144268500,8.4882685546875,1.1372598170995711,-0.6804419317841529,0.304686491978541
1772534460154284800,8.498284912109375,1.0212029959023,-0.8615728443078696,0.3605830781802535
1772534460164301600,8.508301513671874,0.9464087439417839,-0.9729982063122093,0.4409426361177116
1772534460174317600,8.518317626953126,0.8622592191368341,-1.0696290270276367,0.5383381575953216
1772534460184333600,8.52833349609375,0.8057616713672876,-1.0960131760843097,0.5951544889904559
1772534460194350600,8.5383505859375,0.7272948683738708,-1.1189338868141174,0.5399022651068865
1772534460204366600,8.54836669921875,0.650480508762598,-1.1129608037538825,0.43227388423271473
1772534460214383600,8.558383544921876,0.5708978534817696,-1.0536952525757253,0.26918803922645745
1772534460224399600,8.568399658203125,0.3413829954087734,-1.073670849764347,0.20749986401125786
1772534460234416400,8.57841650390625,0.01914192284345627,-1.1611952578298748,0.22783326166160403
1772534460244432600,8.5884326171875,-0.1600911932349205,-1.1470528968393803,0.28372962866760787
1772534460254449700,8.59844970703125,-0.2574362996995449,-1.0730594398677349,0.2278351613577455
1772534460264465700,8.608465576171875,-0.3467290326118469,-0.9568484510220586,0.056256724750995635
1772534460274482400,8.618482421875,-0.5283884990543126,-0.9350210884869098,-0.06314210035055876
1772534460284498700,8.628498779296875,-0.7801420769423246,-0.969099883699417,-0.13748020604141056
1772534460294514700,8.6385146484375,-1.0829951429486273,-1.0089834196679293,-0.19294081197865307
1772534460304531500,8.648531494140625,-1.4158254140675066,-0.9693126496672629,-0.2562719320952892
1772534460314547500,8.65854736328125,-1.959839352276921,-0.8548211780905723,-0.4069879056762904
1772534460324564700,8.668564697265625,-2.250668803012371,-0.6696950584508479,-0.5256744908552616
1772534460334580700,8.678580810546874,-2.17519358305037,-0.5362070638507604,-0.6663218556907028
1772534460344597500,8.688597412109376,-2.0147049149304626,-0.4579740696132183,-0.7513240518022328
1772534460354613500,8.698613525390625,-1.9998557208448646,-0.378350936191529,-0.6487068501535803
1772534460364630800,8.708630859375,-1.991205381399393,-0.34001974423155185,-0.45210415466651316
1772534460374646800,8.718646728515624,-1.9209236384272574,-0.3609241467028856,-0.2835300875075161
1772534460384663600,8.72866357421875,-1.9320365685939789,-0.4514489056281745,-0.11248919184356927
1772534460394679600,8.738679443359375,-1.9612632476001977,-0.5130402694053947,0.016280688193440435
1772534460404695600,8.748695556640625,-1.8434119442015886,-0.56366994805485,-0.001956102503836155
1772534460414712600,8.758712646484375,-1.6324761143922806,-0.6166529118321835,-0.052734249713271855
1772534460424728600,8.768728515625,-1.6346008514612913,-0.6680941991254687,-0.09398227896802126
1772534460434745600,8.77874560546875,-1.8593840048372745,-0.6552613132983446,-0.09135090755112468
1772534460444761600,8.78876171875,-1.9675486114799976,-0.4817974282711744,-0.11442110975421964
1772534460454778600,8.798778564453125,-1.91909116230309,-0.21015914634838698,-0.154579151815176
1772534460464794600,8.808794677734374,-1.7962801906704902,0.07708214370198548,-0.1453431214362383
1772534460474811600,8.818811767578126,-1.6803718380331991,0.2759017845861614,-0.06301971607990563
1772534460484827400,8.828827392578125,-1.590736575293541,0.3270496418908238,0.13294285487271845
1772534460494844700,8.8388447265625,-1.4990233372360466,0.23663192353658377,0.4029969363439828
1772534460504860700,8.848860595703124,-1.3368033152788876,0.13547843776494264,0.6475220242831856
1772534460514876700,8.858876708984376,-1.2350129198431967,0.13588701856583357,0.8262894225459545
1772534460524893400,8.8688935546875,-1.1994926936507224,0.238039086920768,0.7603299266871064
1772534460534909400,8.878909423828125,-0.965720762655139,0.44424262751117344,0.505500375419855
1772534460544926700,8.8889267578125,-0.6482973195046186,0.6168829942610115,0.23633425576426087
1772534460554942700,8.898942626953126,-0.2889554735571146,0.7430030904415994,-0.0007600976523011923
1772534460564959500,8.90895947265625,0.04797872574925422,0.8317385547973215,-0.1627552978776395
1772534460574975500,8.9189755859375,0.3497188620775938,0.8277201129361986,-0.29635763957239686
1772534460584992800,8.92899267578125,0.6114098966121673,0.7865754709906876,-0.38358657182268796
1772534460595008500,8.939008544921874,0.7582412107795476,0.6582361643906682,-0.37291174081228673
1772534460605025500,8.949025634765626,0.8794003235518932,0.4999078161098063,-0.3777696291722357
1772534460615041500,8.95904150390625,1.0422224030554295,0.37119653439223765,-0.42014205934703347
1772534460625057800,8.969057861328125,1.2020967386692762,0.31277532508373257,-0.4570204221501946
1772534460635074600,8.979074462890624,1.2684177613168954,0.2834717814490199,-0.5223397934745997
1772534460645090600,8.989090576171876,1.2867846081346273,0.24726985660269854,-0.5541268975533544
1772534460655107600,8.999107666015625,1.3562491895049809,0.2622643043778837,-0.5472776161804795
1772534460665123600,9.00912353515625,1.3816186085611581,0.30647227941676974,-0.4930700790442526
1772534460675140600,9.019140625,1.4865519781976937,0.3344667862795293,-0.38107670789361
1772534460685156600,9.029156494140626,1.5991910999059675,0.3390565982878208,-0.22911606801375745
1772534460695173400,9.03917333984375,1.6758073065966366,0.3770047822795808,-0.08547419753745197
1772534460705189600,9.049189697265625,1.7019757670760154,0.40819209383428096,0.14530454299151896
1772534460715206700,9.05920654296875,1.5694804367750883,0.43554538018405436,0.3093684392496943
1772534460725222700,9.06922265625,1.2714590287089347,0.45498774727880953,0.39802316651940345
1772534460735238700,9.07923876953125,1.1949252396047114,0.4702179035060107,0.49958252967819566
1772534460745255700,9.089255615234375,0.9757979200333357,0.4723536003604531,0.708282709389925
1772534460755271700,9.099271728515625,0.5581792416840792,0.4605414358831942,0.7991992441117763
1772534460765288700,9.109288818359374,0.5673550663083792,0.5423489276066422,0.900410816746205
1772534460775304400,9.119304443359376,0.6893897928714752,0.6416431223124265,0.9664398707099259
1772534460785321700,9.12932177734375,0.7334124744713306,0.637369682776928,1.0154442862451076
1772534460795337700,9.139337646484375,0.7030407170832157,0.5502171767637133,1.0891089496538042
1772534460805354500,9.1493544921875,0.7155605914384127,0.4557414882555604,1.0715348606489599
1772534460815370500,9.15937060546875,0.7146165885865687,0.3567693651109934,1.05456750536561
1772534460825387800,9.1693876953125,0.5939741931647062,0.25091537349820137,0.9675741354368627
1772534460835403800,9.17940380859375,0.5061474411517382,0.11421177785247563,0.7552730086237192
1772534460845419500,9.18941943359375,0.5787058968842029,0.03699994335621595,0.547132947012782
1772534460855436500,9.1994365234375,0.6884639101982116,-0.04814341479167342,0.4049778079628944
1772534460865452500,9.20945263671875,0.6891267580211162,-0.11788009110167622,0.3165400844447315
1772534460875469600,9.219469482421875,0.5190682975232601,-0.1880162881232798,0.2105972455047071
1772534460885485600,9.229485595703125,0.3335439723461866,-0.1974061938896775,0.15161942522674798
1772534460895502600,9.239502685546874,0.297908595341444,-0.15777619429081677,0.16171309534832834
1772534460905518600,9.2495185546875,0.4271621672421694,-0.12414280475825071,0.19234671854302285
1772534460915535600,9.25953564453125,0.35912440380454064,-0.12565145575553177,0.19478548999726772
1772534460925551600,9.269551513671875,0.11283376749753951,-0.21105419549196958,0.17689517465010285
1772534460935568600,9.279568603515624,0.10318506466448306,-0.32700463370531796,0.172225867664814
1772534460945584600,9.289584716796876,0.11697159795463084,-0.4018098454512655,0.15095570062100885
1772534460955600400,9.299600341796875,-0.023047113588452336,-0.5021927121765911,0.1345693600960076
1772534460965617700,9.30961767578125,-0.16180091976225375,-0.5724941827625036,0.1753866697832942
1772534460977511700,9.32151171875,-0.3915378961533308,-0.6110742349170148,0.2214182800527662
1772534460987528400,9.331528564453125,-0.634016280695796,-0.5743830652490258,0.2123255306020379
1772534460997544400,9.34154443359375,-0.8391746961474418,-0.47864480945914983,0.1546357043080032
1772534461007561700,9.351561767578126,-1.0154033697128295,-0.36970264257267116,-0.02742898193448782
1772534461017577700,9.36157763671875,-1.2336235113114118,-0.2779771295554936,-0.18231471548080444
1772534461027594500,9.371594482421875,-1.5610019467651843,-0.1917401309520006,-0.2330135138437152
1772534461037610500,9.381610595703124,-1.9084803364396095,-0.11875468197911977,-0.25893925160840153
1772534461047626500,9.39162646484375,-2.312251691222191,-0.05743263666257262,-0.3312257585316896
1772534461057643800,9.401643798828125,-2.774466467145085,0.03487549854815006,-0.47679552833065386
1772534461067659500,9.411659423828125,-3.136178549355268,0.2327531093418598,-0.69631389304623
1772534461077676500,9.421676513671875,-3.1613118215680123,0.46325829362645743,-0.9442045118957757
1772534461087692500,9.431692626953126,-2.9763714337587355,0.6631986821688711,-1.1104483825415372
1772534461097709600,9.44170947265625,-2.7074749978899955,0.7166451718047261,-1.1607158037498593
1772534461107725600,9.4517255859375,-2.4103864867597817,0.6151230719164014,-1.0848610829509795
1772534461117742600,9.46174267578125,-2.1167150905966756,0.4843646484106779,-0.9519747075058519
1772534461127758600,9.471758544921874,-1.8265099092394113,0.3487532319158315,-0.8435153557002544
1772534461137774600,9.481774658203125,-1.706235762608051,0.24892858359515666,-0.8400999942988157
1772534461147791600,9.49179150390625,-1.7703876245230434,0.26854353077784177,-0.9330177858404815
1772534461157807600,9.5018076171875,-1.8117559922218323,0.42112756325304507,-1.1110713367454708
1772534461167824400,9.511824462890624,-1.7254834839135407,0.5410688246682286,-1.3125900805205106
1772534461177840600,9.521840576171876,-1.6075947711139917,0.6168006497398019,-1.4379554128110408
1772534461187857700,9.531857666015625,-1.4717536375164986,0.7118387944363057,-1.5223431302860377
1772534461197873700,9.541873779296875,-1.2694377520143985,0.7745153231017291,-1.4881241959504783
1772534461207890400,9.551890380859374,-0.9750169987887144,0.7798894173555075,-1.3702987576454877
1772534461217906700,9.56190673828125,-0.7041589074581861,0.8740368968226016,-1.3002667516507207
1772534461227923700,9.571923828125,-0.49904140853881834,1.0782245675459503,-1.270816931413114
1772534461237939700,9.581939697265625,-0.24351824898421762,1.1719880161315201,-1.1989083178915083
1772534461247955500,9.59195556640625,0.18768647164702415,1.2345286434575915,-1.047941365224123
1772534461257972700,9.60197265625,0.5550654935777187,1.271445584705472,-0.865801860179752
1772534461267988700,9.61198876953125,0.730658791849017,1.3409496213033794,-0.7261233403764664
1772534461278005500,9.622005615234375,0.9082079003632068,1.4174395712658763,-0.6579121200680732
1772534461288021500,9.632021484375,1.0430898335397243,1.5170840407140551,-0.6202205411858857
1772534461298038500,9.64203857421875,1.0219581981837749,1.6358653184391556,-0.6269124400399625
1772534461308054800,9.6520546875,1.1565122145801783,1.7321771363332867,-0.5853842056043446
1772534461318071600,9.662071533203125,1.4074632439136505,1.7313813097804784,-0.6420375284574925
1772534461328087600,9.672087646484375,1.5801456231743096,1.598036815304309,-0.6798194159716368
1772534461338103600,9.682103515625,1.776826717659831,1.3552375282444058,-0.625096915050596
1772534461348120600,9.69212060546875,2.0030127235710617,1.0841033964514732,-0.5933006778173149
1772534461358136600,9.702136474609375,2.2603303653270004,0.8057482273638248,-0.6447577472016215
1772534461368153600,9.712153564453125,2.5589871486872435,0.5972944236285984,-0.7666980734795331
1772534461378169600,9.722169677734374,2.8291058198273182,0.4491244082033634,-0.9449617600038647
1772534461388186600,9.7321865234375,2.9127444725006817,0.35031156727373597,-1.0782391805931926
1772534461398202600,9.74220263671875,2.8201486063897607,0.3341660497672856,-1.2147490802977234
1772534461408219600,9.7522197265625,2.6397628131449222,0.3932083135835826,-1.2660466482713817
1772534461418235600,9.762235595703125,2.2428870630949733,0.47215018674284215,-1.2789604903802274
1772534461428252700,9.772252685546874,1.8196926304399965,0.5303559997349977,-1.2856978358112274
1772534461438268700,9.7822685546875,1.7201409538418053,0.5965300151273608,-1.24137573287338
1772534461448284700,9.79228466796875,1.6560346846342087,0.6655595660813153,-1.1881888440217823
1772534461458301400,9.802301513671875,1.4655062675595283,0.6753155286811292,-1.1393391075916588
1772534461468317400,9.8123173828125,1.3157716331660747,0.6093924193099141,-1.0875539022315293
1772534461478334700,9.822334716796876,1.2754302704274654,0.5299851205959916,-1.1078839388810098
1772534461488350700,9.832350830078125,1.2864765650987624,0.4309042763799429,-1.1367047405000776
1772534461498367500,9.842367431640625,1.3048767296642065,0.3298917334489524,-1.1364166442736983
1772534461508383500,9.852383544921874,1.3478952026575803,0.25259558167010543,-1.1265567829079925
1772534461518400800,9.86240087890625,1.423564483886957,0.15777195650711653,-1.025322413919866
1772534461528416800,9.872416748046875,1.4064280556470155,0.09628156888633965,-0.8802801751263439
1772534461538434000,9.88243408203125,1.325819564449787,0.04014554790556431,-0.8284806489799171
1772534461548450000,9.892449951171875,1.3172937281668184,-0.013633096294105052,-0.848016466511786
1772534461558466000,9.902466064453124,1.4019891964167355,-0.12468918659463524,-0.9518692013047635
1772534461568482800,9.91248291015625,1.5277964272558688,-0.2390463642671704,-1.0209685295592994
1772534461578499000,9.9224990234375,1.592234120374918,-0.38505774035379287,-1.0001259402778
1772534461588516000,9.93251611328125,1.5944535499900578,-0.5526556559570134,-0.9840805952101945
1772534461598531800,9.94253173828125,1.571549059742689,-0.6928039852291346,-0.9300007761068642
1772534461608548900,9.952548828125,1.5626117200493812,-0.7758252366565167,-0.8782062183964997
1772534461618565000,9.962565185546875,1.4887445198059082,-0.8274317975141108,-0.7587995022494346
1772534461628582000,9.972581787109375,1.2731927206337452,-0.8678697524949908,-0.6925201267864555
1772534461638598000,9.982597900390624,1.03440676086843,-0.9423584456376731,-0.6431064728632568
1772534461648614000,9.99261376953125,0.8253162666648626,-0.981049995342642,-0.6315150384645909
1772534461658631200,10.002631103515625,0.7008329779058694,-0.9628720952257513,-0.6884839300729334
1772534461668647200,10.012647216796875,0.5351315435737372,-0.9126920600399374,-0.7099707355421037
1772534461678664000,10.022663818359375,0.12366729620099066,-0.9171253663122654,-0.763414594829455
1772534461688680000,10.032679931640626,-0.062919689771533,-0.9477104741901159,-0.7098406794216483
1772534461698697200,10.042697265625,-0.1948123780041933,-0.9819434370510279,-0.5524170248955488
1772534461708713000,10.052712890625,-0.5190221202939749,-1.0000380427986384,-0.40580103397928174
1772534461718730000,10.06272998046875,-0.879081759122014,-0.9843487446270882,-0.17872516655623913
1772534461728746000,10.07274609375,-1.1750818904936313,-1.0188123013734818,0.03338745194748044
1772534461738762800,10.0827626953125,-1.2981956444650888,-1.0879382984392345,0.04948321202807128
1772534461748779000,10.092779052734375,-1.4311480708837507,-1.0976800863832235,-0.08933708351068198
1772534461758795000,10.102794921875,-1.6864052729785441,-1.0337529731348156,-0.3169838096242398
1772534461768812000,10.11281201171875,-1.9083330369234084,-0.9212323632396757,-0.5223517031081021
1772534461778828000,10.122828125,-2.030523246309161,-0.7636649893939494,-0.6646862173128872
1772534461788845000,10.132844970703125,-2.0994605889350173,-0.5798917456679046,-0.672716525163874
1772534461798861000,10.142861083984375,-2.0747002416878937,-0.396335213432461,-0.5363740909807384
1772534461808877800,10.1528779296875,-1.910812578779459,-0.3079633947573602,-0.3469705862827599
1772534461818893800,10.162893798828126,-1.8139415195673703,-0.3405976902499795,-0.09070859105959535
1772534461828911000,10.1729111328125,-1.7907535362035034,-0.3658693480201065,0.09453107195720076
1772534461838927000,10.182927001953125,-1.6545377240747212,-0.34225422528535127,0.13673486756682396
1772534461848943900,10.19294384765625,-1.570463602593541,-0.32343992696106433,0.15348054292351007
1772534461858960000,10.2029599609375,-1.6694412786960602,-0.2750022053979337,0.12073073129244148
1772534461868975900,10.212975830078125,-1.6431477305322884,-0.24572131198644637,0.08888137563243508
1772534461878993200,10.2229931640625,-1.649620141416788,-0.2847086297675967,0.2255100794110447
1772534461889009000,10.2330087890625,-1.872190294918418,-0.3766208975285291,0.4884720837295055
1772534461899026000,10.24302587890625,-2.109738237321377,-0.46765886667296286,0.668829016206041
1772534461909042000,10.2530419921875,-2.2097961098760366,-0.45748555544391273,0.6682845340657979
1772534461919059000,10.263058837890625,-2.254092932242155,-0.3406343689985573,0.5081587079089135
1772534461929075000,10.273074951171875,-2.268889519357681,-0.18589812692552804,0.1922883394192904
1772534461939092000,10.283092041015625,-2.3816823703229426,-0.0773300540484488,-0.17979191900491714
1772534461949108000,10.29310791015625,-2.1625556352734563,0.07449424610063433,-0.6154000622268766
1772534461959124000,10.3031240234375,-1.7810311836123465,0.17678090062066912,-0.9311246655702591
1772534461969141000,10.31314111328125,-1.4052525821268558,0.14903700751811266,-0.9220224907040595
1772534461979157000,10.323156982421875,-1.0086948119848966,0.1525949922606349,-0.7388823572497815
1772534461989174000,10.333174072265624,-0.5732049613803625,0.1468129017278552,-0.5087474675823003
1772534461999190000,10.34318994140625,-0.04565291315019131,0.19188480011969802,-0.33478009001240133
1772534462009207000,10.35320703125,0.4534118762642145,0.27663199855685233,-0.21027648911774158
1772534462019223000,10.36322314453125,0.7597709045648574,0.37782939653545616,-0.16315233437120913
1772534462029239800,10.37323974609375,0.966309960719943,0.4787142214335501,-0.1109285183981061
1772534462039255800,10.383255859375,1.035996075886488,0.5731918096378446,-0.01662562917359173
1772534462049273000,10.393273193359375,0.9728548523187637,0.5987931377537549,0.09049735946170985
1772534462059289000,10.4032890625,0.9169406573951244,0.5875754320383072,0.16930559630393982
1772534462069304800,10.413304931640624,0.8094839067608117,0.5353559999793768,0.23611067614145576
1772534462079321900,10.42332177734375,0.7764461450338364,0.4579727544389665,0.23079729909896848
1772534462089338000,10.433338134765625,0.8904162230849265,0.40340851281955836,0.15809183611124752
1772534462099355000,10.44335498046875,1.0169663812458514,0.3469605032801628,0.10567739293687045
1772534462109371000,10.453370849609374,1.0889730483144522,0.27812866685539483,0.08305303480513393
1772534462119388000,10.463387939453124,1.225165479567647,0.21257044527381658,0.042741848009079694
1772534462129404200,10.473404052734375,1.4518337160378694,0.16336773068755864,-0.0045882776383310555
1772534462139421000,10.4834208984375,1.662533399003744,0.12140315066128969,-0.06388020536676049
1772534462149437000,10.49343701171875,1.7221809352368116,0.10987740190997719,-0.08575864050202071
1772534462159453000,10.503452880859374,1.7759879287481306,0.14437690675258635,-0.17975487493015824
1772534462169470000,10.513469970703126,1.9518191274285315,0.19680092147290706,-0.14878390953987836
1772534462179486000,10.52348583984375,2.01774968945384,0.20320552781820295,-0.07394070387110113
1772534462189503000,10.5335029296875,1.8474129965364932,0.11518734488636255,-0.050453956756368275
1772534462199519000,10.54351904296875,1.6328478703141212,0.0011341185964643954,0.012456745991110801
1772534462209536000,10.553535888671876,1.4068313757508992,-0.08844386099800466,0.08656330794841051
1772534462219552000,10.563552001953125,1.2482774750858545,-0.07252294602766633,0.17383125703483818
1772534462229569000,10.573569091796875,1.094997130909562,-0.00931318726837635,0.17111176894307137
1772534462239585000,10.5835849609375,0.8915969573020934,0.06602642361521721,0.07508344416543841
1772534462249602000,10.59360205078125,0.7761381019979715,0.11529518917500972,0.029432430711388586
1772534462259618000,10.6036181640625,0.6832838772118092,0.06328004751652479,0.002958703675121069
1772534462269634000,10.613634033203125,0.5913678100585937,-0.033148236364126206,-0.06529518673121928
1772534462279650800,10.62365087890625,0.5703688611716031,-0.15280629692375658,-0.10092442625612019
1772534462289666800,10.633666748046876,0.6752694975823164,-0.22803192603886127,-0.08646218566149473
1772534462299684000,10.64368408203125,0.6774380737930535,-0.29585370863825083,-0.0316711495488882
1772534462309700000,10.6537001953125,0.5515571931958199,-0.29103023400455713,-0.03275222278386354
1772534462319716900,10.663716796875,0.4749187746733427,-0.25417481368556616,-0.048813569138199085
1772534462329732900,10.67373291015625,0.32345512453019615,-0.24301029946208,-0.05813128645122051
1772534462339750100,10.683750244140626,0.1192477261930704,-0.20887962793186307,-0.07342851656526327
1772534462349766100,10.69376611328125,-0.10722586448788642,-0.13294555828645824,-0.01288636958003044
1772534462359782000,10.703781982421875,-0.38476387197375295,-0.019087416177242994,0.1098592817313969
1772534462369799000,10.713798828125,-0.5520172119230031,0.05709682883694767,0.24881693991422651
1772534462379815000,10.72381494140625,-0.6470429355293512,0.08952055031880736,0.3522358133345842
1772534462389832000,10.73383203125,-0.6772235542595386,0.1524713658809662,0.40998789120987056
1772534462399848000,10.743847900390625,-0.7200912206053733,0.18432064847573637,0.417879813503474
1772534462409865000,10.753864990234375,-0.8720844475805759,0.20727219273522496,0.35019977746233344
1772534462419881000,10.763880859375,-0.8595809398382902,0.17858984973877667,0.3020195377916097
1772534462429898000,10.77389794921875,-0.8901374061435461,0.14832856698781252,0.2681858033813536
1772534462439914000,10.7839140625,-1.1541314569234848,0.16869900871291757,0.19238807346671818
1772534462449930000,10.793929931640625,-1.3448679637908936,0.17850787054374814,0.0675102324321866
1772534462459946800,10.80394677734375,-1.4440595749050378,0.1774510549671948,-0.009550649286061525
1772534462469963000,10.813962890625,-1.5727479141384362,0.1546690220557153,-0.1187622807636857
1772534462479980000,10.82397998046875,-1.6842893037378788,0.13103446396812796,-0.35989918756932016
1772534462489996000,10.83399609375,-1.701308827599883,0.12088906365931033,-0.7217308045059442
1772534462500012800,10.8440126953125,-1.7539368404597042,0.10372311706393957,-1.0941450441248715
1772534462510029000,10.854029052734376,-1.9395336463510988,0.0988714392490685,-1.1632235487870872
1772534462520046000,10.864046142578125,-2.0526918234974145,0.08901917666792869,-0.97284316188097
1772534462530061600,10.8740615234375,-2.1398218254178762,0.14212138291075824,-0.7519182183030992
1772534462540078300,10.884078369140624,-2.2135522475391625,0.2655436183094978,-0.7255725746259093
1772534462550094300,10.89409423828125,-2.096147518864274,0.41721477372348303,-0.8309191281732171
1772534462560110600,10.904110595703125,-1.8819091403782366,0.5105877616867422,-0.8275900568157434
1772534462570127400,10.91412744140625,-1.6801695934593677,0.545651330152899,-0.7895156891610473
1772534462580143400,10.924143310546874,-1.4514070150583982,0.49781464322283864,-0.605258826636523
1772534462590160400,10.934160400390626,-1.3565601551502942,0.39296003791093825,-0.3239743260987103
1772534462600176600,10.9441767578125,-1.4791992773473261,0.23890534836128352,-0.09611366497352719
1772534462610193400,10.954193359375,-1.6437018572837114,0.10354425336569548,0.03673559333160519
1772534462620209400,10.96420947265625,-1.5443541788250208,0.07830649786517023,0.006864917333424091
1772534462630226400,10.974226318359374,-1.326095458781719,0.09049450991749763,-0.13854425507634877
1772534462640242700,10.98424267578125,-1.0461375306725502,0.20159750809967517,-0.3403236956141889
1772534462650259500,10.994259521484375,-0.8037883254677057,0.3935774391569197,-0.4576765479713678
1772534462660275500,11.004275390625,-0.610716653650999,0.5662674172021448,-0.5263648112069815
1772534462670291500,11.01429150390625,-0.5120259777963161,0.6955201123200356,-0.5909260576404631
1772534462680308500,11.02430859375,-0.3600187222957611,0.8156780852258205,-0.605712488688156
1772534462690324500,11.034324462890625,-0.2564268303960562,0.88167689018175,-0.6514261190496384
1772534462700341500,11.044341552734375,-0.1494721840649843,0.8719678354635834,-0.745834076083824
1772534462710357500,11.054357421875,0.10060089339017868,0.9070864951178431,-0.8206210215207189
1772534462720374500,11.06437451171875,0.25757424686551095,0.9444918044045567,-0.8772321857325732
1772534462730390500,11.074390625,0.31135142976045604,1.0162344137094914,-0.9228197054963558
1772534462740407600,11.084407470703125,0.44340427699089047,1.0909028473332523,-0.9269063902880996
1772534462750423600,11.094423583984375,0.6895452756941318,1.173983866123855,-0.9459102198351174
1772534462760439300,11.104439208984376,0.9157605076998472,1.2108636902317405,-0.9669793844141066
1772534462770456600,11.11445654296875,1.1743261036902666,1.133197536096722,-1.0657871107771992
1772534462780472600,11.12447265625,1.654555259731412,0.8990300299122929,-1.1144374521777034
1772534462790489300,11.1344892578125,2.2757898002654313,0.7596955012410879,-1.1043765883471817
1772534462800505300,11.14450537109375,2.7415052777856586,0.6688342038378119,-1.0250973729923367
1772534462810522600,11.154522705078126,2.910220506981015,0.5996802958518266,-0.965521513755992
1772534462820538600,11.16453857421875,2.9282155978769064,0.5795828258492052,-0.9343385861154645
1772534462830555400,11.174555419921875,2.816459104222059,0.49485330919921394,-0.952307081265375
1772534462840571400,11.1845712890625,2.6301702244132756,0.3872403450898826,-0.9367446974091231
1772534462850587400,11.19458740234375,2.328134904530644,0.3369049732118845,-0.8687992153648286
1772534462860604400,11.2046044921875,1.8620055855125188,0.3011889321863651,-0.8060860810160636
1772534462870620400,11.214620361328125,1.3370371240347623,0.2931140545412898,-0.6833733821261674
1772534462880637400,11.224637451171875,1.0247504592508077,0.3483135253243148,-0.6705896692030131
1772534462890653400,11.2346533203125,0.9941723656356334,0.4104793279886246,-0.7667312450967728
1772534462900670500,11.24467041015625,1.0841957509100437,0.4464776930868625,-0.8592334415748715
1772534462910686500,11.2546865234375,1.208439970216155,0.4120511073499918,-0.8795772144887596
1772534462920703500,11.264703369140625,1.3528998790770768,0.31378406373485923,-0.7631129084691405
1772534462930719500,11.274719482421874,1.4627584301561116,0.18934870577082036,-0.6142490655608475
1772534462940735500,11.284735595703125,1.4632698868095875,0.07108166117817163,-0.5762487129904329
1772534462950752500,11.29475244140625,1.511857684367895,0.013963058900833129,-0.6571497573934495
1772534462960768500,11.3047685546875,1.6150246288537977,-0.04807940964475274,-0.7621043159484863
1772534462970785300,11.314785400390624,1.6957815886110066,-0.15622195058614013,-0.8589662420060485
1772534462980801500,11.324801513671876,1.723715305197239,-0.31582740613073107,-0.8982213438779115
1772534462990818600,11.334818603515625,1.5903712491124868,-0.4916451608076691,-0.8381427227512002
1772534463000834600,11.34483447265625,1.3446475990384816,-0.6773109402820467,-0.702918844269216
1772534463010851300,11.354851318359374,1.014648751953244,-0.7685211972534656,-0.62333633511886
1772534463020867600,11.36486767578125,0.7075035417109727,-0.8356520749792457,-0.6703571756213903
1772534463030884600,11.374884521484375,0.6372668069243431,-0.8301558156505227,-0.6923448432847857
1772534463040900400,11.384900390625,0.7239145782858133,-0.8068786926984787,-0.6471917694155126
1772534463050916400,11.394916259765624,0.8227350180000066,-0.8808717112787068,-0.47631461294591426
1772534463060933600,11.40493359375,0.8411316754341125,-1.0001154919490218,-0.199168673517555
1772534463070949600,11.41494970703125,0.6874748991608619,-1.0949947928220034,0.0505497909468133
1772534463080966400,11.42496630859375,0.5857680903553962,-1.0734592528402804,0.25124887976888566
1772534463090982400,11.434982421875,0.5927057806640863,-0.9416469363674521,0.4063016039125621
1772534463100999400,11.44499951171875,0.4928378777235746,-0.8471059275381266,0.5002606481354683
1772534463111015700,11.455015625,0.30540099692344663,-0.8784291404321789,0.6183191645439714
1772534463121032400,11.465032470703125,0.23790859240889548,-0.9698149001009762,0.6537671292178332
1772534463131048400,11.47504833984375,0.12585808424353598,-1.0501884134985506,0.6104036056464538
1772534463141064400,11.485064453125,-0.05178045611977577,-1.084264139971137,0.6202815506581216
1772534463151081500,11.49508154296875,-0.27646950147151944,-1.1048806654118002,0.6051485346624628
1772534463161097500,11.505097412109375,-0.5040946002751588,-1.1754111224479973,0.5524474930990487
1772534463171114500,11.515114501953125,-0.7611234882175922,-1.269467708761245,0.4689792650891468
1772534463181130500,11.525130615234374,-1.0368208362728357,-1.2593421821966766,0.25760062341578305
1772534463191147500,11.5351474609375,-1.0656915414482355,-1.1348171001225709,-0.022467226774687876
1772534463201163500,11.54516357421875,-1.110866315692663,-1.0102348810337483,-0.1809014511493966
1772534463211180500,11.5551806640625,-1.3602952500253915,-0.935366687054187,-0.20452820952301845
1772534463221196300,11.5651962890625,-1.6313421419262886,-0.8982774579793215,-0.33268552888594566
1772534463231212300,11.57521240234375,-1.704973195326328,-0.7243516545288264,-0.4942964790340513
1772534463241229600,11.5852294921875,-1.6763842297017573,-0.4977591136433184,-0.6165205176241696
1772534463251245600,11.59524560546875,-1.6396341694533825,-0.42833194167390465,-0.6506508968934417
1772534463261262300,11.605262451171875,-1.5542308451950548,-0.4446573457919061,-0.568837998342514
1772534463271278300,11.6152783203125,-1.6319506292134522,-0.4554020271681249,-0.4029819579705596
1772534463281295600,11.625295654296876,-1.8544839578360317,-0.3901286138772964,-0.21640666243582962
1772534463291311600,11.6353115234375,-2.0016747529655694,-0.339507556925714,-0.11939091578973457
1772534463301328400,11.645328369140625,-2.0694711088627575,-0.40267669141367074,-0.07638247556660789
1772534463311344400,11.655344482421874,-1.9715455721616744,-0.3648601709775626,0.027861119424190835
1772534463321361700,11.665361572265626,-1.9560510659098624,-0.32935192748382686,0.2534973893480375
1772534463331377400,11.67537744140625,-2.1220622968435285,-0.38412805828824637,0.5579641376286745
1772534463341393400,11.685393310546875,-2.3420284053266047,-0.4381042708866298,0.6152247787252069
1772534463351410400,11.695410400390625,-2.3324375701606272,-0.22642558682076633,0.4018785267733037
1772534463361426700,11.7054267578125,-1.9515356343120336,0.13678601323217152,-0.05713161702253856
1772534463371443500,11.715443359375,-1.0378829125463962,0.5437661009281873,-0.38601803675331176
1772534463381459500,11.72545947265625,-1.9316139592677353,0.5654914643935859,0.09695839043566956
1772534463391476500,11.7354765625,-2.900534979268908,0.2259717786386609,0.870720758011937
1772534463401492500,11.745492431640624,-1.718321337199211,0.3944314256377518,0.9253639831516891
1772534463411509500,11.755509521484376,-0.825347246325016,0.6860796454101801,0.8042679987434297
1772534463421525500,11.765525390625,-0.5172346523553133,0.5935024839997292,0.633668709367141
1772534463431541500,11.77554150390625,-0.01445756441950798,0.45521293433681126,0.39414084519334136
1772534463441558300,11.785558349609374,0.45408466095924377,0.4748473168723285,0.19759223624737932
1772534463451574500,11.795574462890626,0.5383592734485865,0.5623096194870769,-0.10629643815066665
1772534463461591600,11.805591552734375,0.5424409898042678,0.5705458251737058,-0.2870159568618983
1772534463471607600,11.815607666015625,0.5763198785305023,0.4256782122947275,-0.27017149730585516
1772534463481624300,11.825624267578124,0.6608253771662712,0.42893765248209237,-0.21422372890617697
1772534463491640600,11.835640625,0.6266881297647953,0.6073799835089594,-0.14260543096750042
