time,seconds_elapsed,z,y,x
1772534451709781800,0.05378173828125,0.08590972423553467,-0.21284493803977966,0.09986598789691925
1772534451719797500,0.063797607421875,0.11133332550525665,-0.2131839543581009,0.22932837903499603
1772534451729814500,0.073814453125,0.13771167397499084,-0.19445714354515076,0.33857762813568115
1772534451739830800,0.083830810546875,0.17028309404850006,-0.16787756979465485,0.42023715376853943
1772534451749847600,0.09384765625,0.20402827858924866,-0.14037244021892548,0.4631041884422302
1772534451759863600,0.103863525390625,0.2392333745956421,-0.11413376778364182,0.4740133583545685
1772534451769879600,0.113879638671875,0.2641802728176117,-0.10243769735097885,0.46996429562568665
1772534451779896800,0.123896728515625,0.26207613945007324,-0.10524392873048782,0.4636962115764618
1772534451789912600,0.13391259765625,0.25544482469558716,-0.07387879490852356,0.45665493607521057
1772534451799929600,0.1439296875,0.24087628722190857,-0.013534498400986195,0.42891332507133484
1772534451809945600,0.153945556640625,0.2260078489780426,0.017794929444789886,0.3589547574520111
1772534451819962600,0.163962646484375,0.23341211676597595,0.009999098256230354,0.27565866708755493
1772534451829978600,0.173978515625,0.249131441116333,-0.006841049529612064,0.20163142681121826
1772534451839995600,0.18399560546875,0.26496657729148865,-0.00638990942388773,0.15708473324775696
1772534451850011600,0.19401171875,0.2746650278568268,-0.01948041096329689,0.15822084248065948
1772534451860028700,0.204028564453125,0.2779533565044403,-0.05718491971492767,0.19533860683441162
1772534451870044700,0.214044677734375,0.2849888801574707,-0.08059250563383102,0.263645738363266
1772534451880060700,0.224060791015625,0.2987004518508911,-0.09324304759502411,0.34204280376434326
1772534451890077700,0.23407763671875,0.28860345482826233,-0.11670908331871033,0.3950245678424835
1772534451900093400,0.244093505859375,0.248519167304039,-0.1544623225927353,0.39277154207229614
1772534451910110700,0.25411083984375,0.21644937992095947,-0.17351990938186646,0.3527170717716217
1772534451920126700,0.264126708984375,0.21444007754325867,-0.16614456474781036,0.28426408767700195
1772534451930143500,0.2741435546875,0.23580022156238556,-0.10047554224729538,0.19093120098114014
1772534451940159500,0.284159423828125,0.264140784740448,-0.00031804945319890976,0.11201774328947067
1772534451950176800,0.2941767578125,0.2870045602321625,0.08442772924900055,0.05654383823275566
1772534451960192800,0.30419287109375,0.2784840762615204,0.12393581122159958,0.028837114572525024
1772534451970209500,0.31420947265625,0.23142893612384796,0.07902318984270096,0.01246905978769064
1772534451980225500,0.3242255859375,0.16896498203277588,0.017641695216298103,0.009788842871785164
1772534451990242800,0.334242919921875,0.12683284282684326,-0.006960546597838402,0.010426007211208344
1772534452000258600,0.344258544921875,0.12605254352092743,-0.027744388207793236,0.01992177590727806
1772534452010274600,0.354274658203125,0.15567541122436523,-0.05361087620258331,0.05036463588476181
1772534452020291600,0.36429150390625,0.19430899620056152,-0.05646321922540665,0.07461383938789368
1772534452030307600,0.3743076171875,0.2206861823797226,0.0010990407317876816,0.07496197521686554
1772534452040324600,0.38432470703125,0.21925421059131622,0.10814613103866577,0.04805392771959305
1772534452050340600,0.394340576171875,0.21604323387145996,0.23830120265483856,0.012005912140011787
1772534452060357600,0.404357666015625,0.22897371649742126,0.39805537462234497,-0.017802922055125237
1772534452070373600,0.41437353515625,0.27754127979278564,0.5411188006401062,-0.04172263666987419
1772534452080390700,0.424390625,0.34601980447769165,0.6006187200546265,-0.06563128530979156
1772534452090406700,0.43440673828125,0.4318902790546417,0.5413733720779419,-0.08379244059324265
1772534452100423700,0.444423583984375,0.5299574136734009,0.37158510088920593,-0.08185739070177078
1772534452110439400,0.454439453125,0.6548839211463928,0.14703693985939026,-0.06689228862524033
1772534452120456700,0.464456787109375,0.7513824701309204,-0.008527202531695366,-0.03814471885561943
1772534452130472700,0.47447265625,0.8074460029602051,-0.11827340722084045,0.0005251793190836906
1772534452140488700,0.48448876953125,0.8275353312492371,-0.2098270207643509,0.047105465084314346
1772534452150505500,0.49450537109375,0.8232621550559998,-0.2574087977409363,0.10003460198640823
1772534452160521700,0.504521728515625,0.8031849265098572,-0.31984150409698486,0.1439659595489502
1772534452170538800,0.514538818359375,0.7825158834457397,-0.40410977602005005,0.1740998923778534
1772534452180554800,0.5245546875,0.7679129838943481,-0.49108362197875977,0.17413043975830078
1772534452190571500,0.534571533203125,0.7856716513633728,-0.531843900680542,0.15609581768512726
1772534452200587800,0.544587890625,0.8193728923797607,-0.47358325123786926,0.1765768676996231
1772534452210604500,0.5546044921875,0.8275437355041504,-0.30919989943504333,0.22149772942066193
1772534452220620500,0.56462060546875,0.7993848323822021,-0.13553820550441742,0.26974382996559143
1772534452230637600,0.574637451171875,0.7302217483520508,-0.023602884262800217,0.29799652099609375
1772534452240653800,0.58465380859375,0.6558857560157776,0.015209387987852097,0.2915111780166626
1772534452250669800,0.594669921875,0.5779494047164917,0.043484166264534,0.2582416534423828
1772534452260686600,0.6046865234375,0.48731744289398193,0.08478178828954697,0.215452179312706
1772534452270702600,0.61470263671875,0.37858644127845764,0.11646248400211334,0.1500425487756729
1772534452280720000,0.624719970703125,0.2667218744754791,0.1376437395811081,0.046557243913412094
1772534452290735600,0.634735595703125,0.1992698609828949,0.11546613276004791,-0.08436261117458344
1772534452300752600,0.644752685546875,0.17076605558395386,0.07325848937034607,-0.1995866596698761
1772534452310768600,0.6547685546875,0.15913070738315582,0.019830690696835518,-0.27718880772590637
1772534452320785400,0.664785400390625,0.1541176438331604,-0.06208169087767601,-0.30167192220687866
1772534452330801700,0.6748017578125,0.13673438131809235,-0.14058367908000946,-0.27321764826774597
1772534452340818700,0.684818603515625,0.11542607098817825,-0.1810300201177597,-0.241818368434906
1772534452350834700,0.694834716796875,0.12419319897890091,-0.29047635197639465,-0.22236505150794983
1772534452360851500,0.7048515625,0.14672152698040009,-0.3507305085659027,-0.20975761115550995
1772534452370867700,0.71486767578125,0.15515843033790588,-0.3395870327949524,-0.21546876430511475
1772534452380883700,0.7248837890625,0.1462588906288147,-0.2715838849544525,-0.28247708082199097
1772534452390900700,0.734900634765625,0.1424831748008728,-0.25291839241981506,-0.380197137594223
1772534452400916500,0.74491650390625,0.13769188523292542,-0.21777239441871643,-0.4528447091579437
1772534452410933800,0.754933837890625,0.12053687125444412,-0.18078720569610596,-0.48522713780403137
1772534452420949800,0.76494970703125,0.04691087827086449,-0.20061670243740082,-0.512978196144104
1772534452430966500,0.774966552734375,-0.03135409951210022,-0.16084399819374084,-0.48574572801589966
1772534452440982500,0.784982421875,-0.08120641857385635,-0.16749797761440277,-0.4125235974788666
1772534452450999800,0.794999755859375,-0.11428767442703247,-0.20414839684963226,-0.31538960337638855
1772534452461015800,0.805015869140625,-0.1429709941148758,-0.24214200675487518,-0.2187182605266571
1772534452471032600,0.815032470703125,-0.17433664202690125,-0.2627900242805481,-0.15038394927978516
1772534452481048600,0.825048583984375,-0.19935043156147003,-0.2750947177410126,-0.11135097593069077
1772534452491064600,0.835064697265625,-0.21756266057491302,-0.3119942247867584,-0.08826012164354324
1772534452501081600,0.84508154296875,-0.22770504653453827,-0.38746047019958496,-0.05900556594133377
1772534452511097900,0.855097900390625,-0.22280935943126678,-0.43707117438316345,-0.013898007571697235
1772534452521115000,0.865114990234375,-0.20587950944900513,-0.4527582824230194,0.04250859096646309
1772534452531131000,0.875130859375,-0.17511680722236633,-0.4710289239883423,0.1112876608967781
1772534452541148000,0.88514794921875,-0.1603143811225891,-0.48444297909736633,0.16860458254814148
1772534452551164000,0.895163818359375,-0.16271281242370605,-0.5093323588371277,0.21785736083984375
1772534452561181000,0.905180908203125,-0.1935984045267105,-0.5174610018730164,0.2412511557340622
1772534452571196700,0.91519677734375,-0.24551033973693848,-0.5470718741416931,0.24287274479866028
1772534452581214000,0.9252138671875,-0.2864183187484741,-0.5610507130622864,0.23788012564182281
1772534452591230000,0.93522998046875,-0.31301650404930115,-0.5251075029373169,0.21775636076927185
1772534452601246700,0.945246826171875,-0.3392438292503357,-0.47184401750564575,0.16585108637809753
1772534452611262700,0.9552626953125,-0.3694598078727722,-0.4070884585380554,0.09983532130718231
1772534452621279000,0.965279052734375,-0.43050628900527954,-0.32814913988113403,0.001091900048777461
1772534452631296000,0.9752958984375,-0.5291295051574707,-0.255492240190506,-0.12821069359779358
1772534452641312000,0.98531201171875,-0.6379484534263611,-0.1685495227575302,-0.24080303311347961
1772534452651328800,0.995328857421875,-0.7268906235694885,-0.07740683108568192,-0.3109336495399475
1772534452661345000,1.005344970703125,-0.7708165049552917,-0.005299123004078865,-0.31679412722587585
1772534452671362000,1.015362060546875,-0.7758274674415588,0.09824777394533157,-0.27137815952301025
1772534452681377800,1.025377685546875,-0.7501081228256226,0.20647560060024261,-0.19687245786190033
1772534452691394800,1.035394775390625,-0.6880396008491516,0.32560381293296814,-0.1254974752664566
1772534452701411000,1.0454111328125,-0.6173659563064575,0.42195460200309753,-0.07819867134094238
1772534452711427800,1.055427734375,-0.5604531168937683,0.5069409012794495,-0.03942596912384033
1772534452721443800,1.06544384765625,-0.5220468640327454,0.576083779335022,-0.013961885124444962
1772534452731460900,1.0754609375,-0.4889275133609772,0.6039782762527466,0.01709962822496891
1772534452741476900,1.085476806640625,-0.4590776860713959,0.614181399345398,0.0601239949464798
1772534452751492900,1.095492919921875,-0.42075905203819275,0.6093858480453491,0.11074935644865036
1772534452761510000,1.105510009765625,-0.3909461498260498,0.5844395160675049,0.16097413003444672
1772534452771526000,1.11552587890625,-0.36090540885925293,0.5397220849990845,0.19137783348560333
1772534452781542700,1.125542724609375,-0.33303380012512207,0.45050376653671265,0.20509909093379974
1772534452791559000,1.135558837890625,-0.30392444133758545,0.3551025092601776,0.2233036607503891
1772534452801576000,1.145575927734375,-0.26747241616249084,0.2645677924156189,0.2446579486131668
1772534452811592000,1.155592041015625,-0.22724215686321259,0.1470092386007309,0.2722831666469574
1772534452821608700,1.165608642578125,-0.1717883199453354,0.028029128909111023,0.3129655718803406
1772534452831625000,1.175625,-0.11399111896753311,-0.07459115982055664,0.35641664266586304
1772534452841642000,1.18564208984375,-0.09041521698236465,-0.14741875231266022,0.40854108333587646
1772534452851658000,1.195657958984375,-0.1064639613032341,-0.17037813365459442,0.4520834982395172
1772534452861674800,1.2056748046875,-0.14365100860595703,-0.16712531447410583,0.4735104441642761
1772534452871691000,1.21569091796875,-0.19511500000953674,-0.1531658172607422,0.4725911021232605
1772534452881707000,1.22570703125,-0.2560195326805115,-0.11997010558843613,0.43813443183898926
1772534452891723800,1.235723876953125,-0.3203665614128113,-0.07771223783493042,0.3722436726093292
1772534452901739800,1.24573974609375,-0.38348960876464844,-0.005669466219842434,0.28421181440353394
1772534452911757000,1.255757080078125,-0.44166770577430725,0.09239789843559265,0.1652553230524063
1772534452921773000,1.26577294921875,-0.49480628967285156,0.1879928708076477,0.035847000777721405
1772534452931789800,1.275789794921875,-0.5254188179969788,0.2441224455833435,-0.08823233097791672
1772534452941805800,1.285805908203125,-0.5263065099716187,0.24485117197036743,-0.18357700109481812
1772534452951823000,1.295822998046875,-0.5038027763366699,0.1983984410762787,-0.241322323679924
1772534452961838800,1.3058388671875,-0.4717993140220642,0.11634121090173721,-0.24159875512123108
1772534452971856000,1.31585595703125,-0.434110552072525,0.01361137069761753,-0.18964633345603943
1772534452981871900,1.325871826171875,-0.3977738320827484,-0.07046617567539215,-0.09818202257156372
1772534452991888000,1.335887939453125,-0.35628223419189453,-0.09301648288965225,0.006419955752789974
1772534453001905000,1.34590478515625,-0.3057210445404053,-0.06650977581739426,0.08396081626415253
1772534453011921000,1.3559208984375,-0.24703671038150787,-0.03259388357400894,0.10944060981273651
1772534453021938000,1.36593798828125,-0.1890845149755478,0.02432299219071865,0.09286916255950928
1772534453031954000,1.375953857421875,-0.13354775309562683,0.08425290882587433,0.05033634975552559
1772534453041971000,1.385970947265625,-0.08335641026496887,0.10955485701560974,-0.007222696673125029
1772534453051987000,1.395987060546875,-0.03724910318851471,0.11269126832485199,-0.04912833496928215
1772534453062004000,1.40600390625,-0.0027157003059983253,0.09543711692094803,-0.05496051162481308
1772534453072019700,1.416019775390625,0.012408125214278698,0.07362210005521774,-0.012890022248029709
1772534453082037000,1.426037109375,0.011030908674001694,0.08186186105012894,0.04356071352958679
1772534453092053000,1.436052978515625,-0.0021253733430057764,0.0824093222618103,0.07635610550642014
1772534453102069800,1.44606982421875,-0.015969283878803253,0.06496694684028625,0.06718524545431137
1772534453112085800,1.456085693359375,-0.02304796688258648,0.05526931211352348,0.020520009100437164
1772534453122101800,1.466101806640625,-0.028966162353754044,0.050633855164051056,-0.051955919712781906
1772534453132119000,1.476119140625,-0.026558397337794304,0.052317775785923004,-0.10956701636314392
1772534453142134800,1.486134765625,-0.004946363624185324,0.07073336839675903,-0.1391795128583908
1772534453152151800,1.49615185546875,0.02659185416996479,0.08926897495985031,-0.14927954971790314
1772534453162167800,1.506167724609375,0.06266020238399506,0.08584508299827576,-0.15180037915706635
1772534453172184800,1.516184814453125,0.09512041509151459,0.05313534289598465,-0.15166376531124115
1772534453182200800,1.526200927734375,0.10545970499515533,-0.0009021826554089785,-0.15564027428627014
1772534453192217900,1.5362177734375,0.10795416682958603,-0.05540274456143379,-0.15869326889514923
1772534453202233900,1.54623388671875,0.11056593060493469,-0.09949670732021332,-0.1490963101387024
1772534453212251000,1.5562509765625,0.11119043827056885,-0.13115717470645905,-0.12041513621807098
1772534453222267000,1.566266845703125,0.11653537303209305,-0.14049020409584045,-0.08558674901723862
1772534453232284000,1.576283935546875,0.12808869779109955,-0.1320732831954956,-0.057069890201091766
1772534453242300000,1.5862998046875,0.13946276903152466,-0.1271495372056961,-0.04410865530371666
1772534453252316000,1.59631591796875,0.14389267563819885,-0.08970921486616135,-0.04662161320447922
1772534453262333000,1.6063330078125,0.1566624492406845,-0.038765061646699905,-0.05763966217637062
1772534453272349000,1.616348876953125,0.180943563580513,0.03708842396736145,-0.07286255806684494
1772534453282365700,1.62636572265625,0.23194356262683868,0.12086844444274902,-0.06625262647867203
1772534453292382000,1.6363818359375,0.3007946014404297,0.1998249590396881,-0.042779214680194855
1772534453302399000,1.64639892578125,0.35481736063957214,0.2293383777141571,-0.01429724134504795
1772534453312415000,1.6564150390625,0.39747536182403564,0.28270041942596436,0.0345749594271183
1772534453322431700,1.666431640625,0.4302428662776947,0.2927638292312622,0.0991646870970726
1772534453332448000,1.676447998046875,0.45682838559150696,0.25778451561927795,0.17588822543621063
1772534453342465000,1.686465087890625,0.4903029799461365,0.22496061027050018,0.24641305208206177
1772534453352480800,1.696480712890625,0.5412830114364624,0.15080808103084564,0.2885919511318207
1772534453362497800,1.706497802734375,0.5905090570449829,0.026702608913183212,0.2807578444480896
1772534453372514000,1.71651416015625,0.6210315227508545,-0.16484925150871277,0.18942661583423615
1772534453382530800,1.72653076171875,0.6049715280532837,-0.39869439601898193,0.045611344277858734
1772534453392546800,1.736546875,0.5415637493133545,-0.5664404630661011,-0.09119055420160294
1772534453402562800,1.746562744140625,0.45700007677078247,-0.6413245797157288,-0.1680472493171692
1772534453412579800,1.756579833984375,0.3640095889568329,-0.6284805536270142,-0.17479848861694336
1772534453422596000,1.76659619140625,0.2840026319026947,-0.5656752586364746,-0.13748866319656372
1772534453432612900,1.77661279296875,0.2354596108198166,-0.45239368081092834,-0.08450961112976074
1772534453442628900,1.78662890625,0.21703198552131653,-0.2957281768321991,-0.02400120720267296
1772534453452646000,1.79664599609375,0.22807423770427704,-0.10126813501119614,0.02539936453104019
1772534453462662000,1.806661865234375,0.2547956109046936,0.10051984339952469,0.04769721254706383
1772534453472679000,1.816678955078125,0.29136157035827637,0.3099520206451416,0.05073497071862221
1772534453482695000,1.82669482421875,0.3354475498199463,0.49960052967071533,0.06009704992175102
1772534453492711700,1.836711669921875,0.4025190770626068,0.6514178514480591,0.08696535229682922
1772534453502728000,1.84672802734375,0.48749417066574097,0.7383807301521301,0.12745046615600586
1772534453512744400,1.856744384765625,0.5845988988876343,0.7355745434761047,0.15489433705806732
1772534453522760700,1.8667607421875,0.6793429851531982,0.6708002686500549,0.1940946727991104
1772534453532776700,1.876776611328125,0.7711607813835144,0.5497297644615173,0.24292932450771332
1772534453542793500,1.88679345703125,0.8439536690711975,0.40128010511398315,0.29661327600479126
1772534453552809500,1.8968095703125,0.8951108455657959,0.2690730690956116,0.34526363015174866
1772534453562826800,1.90682666015625,0.928857684135437,0.1256514936685562,0.38251134753227234
1772534453572842500,1.916842529296875,0.965143084526062,-0.024175895377993584,0.3983922600746155
1772534453582859500,1.926859619140625,1.0048902034759521,-0.1349322348833084,0.3884378969669342
1772534453592875500,1.93687548828125,1.0405323505401611,-0.20827089250087738,0.36017322540283203
1772534453602892300,1.946892333984375,1.0600260496139526,-0.24739426374435425,0.3204846978187561
1772534453612908500,1.956908447265625,1.047724962234497,-0.2783953547477722,0.27958786487579346
1772534453622925600,1.966925537109375,1.0000431537628174,-0.3151770532131195,0.24331188201904297
1772534453632941600,1.976941650390625,0.9147143959999084,-0.3444710373878479,0.21865446865558624
1772534453642958300,1.986958251953125,0.7913723587989807,-0.34687188267707825,0.1996328979730606
1772534453652974600,1.996974609375,0.655958890914917,-0.31677523255348206,0.16594311594963074
1772534453662990600,2.006990478515625,0.529647946357727,-0.2656116783618927,0.10613609850406647
1772534453673007600,2.017007568359375,0.42617931962013245,-0.20531423389911652,0.033427540212869644
1772534453683023400,2.0270234375,0.3477838635444641,-0.11995105445384979,-0.03254801034927368
1772534453693040600,2.03704052734375,0.29786697030067444,-0.051227401942014694,-0.06287553906440735
1772534453703056600,2.047056640625,0.27430012822151184,0.006222309544682503,-0.07094091922044754
1772534453713073400,2.057073486328125,0.27601680159568787,0.056001849472522736,-0.061364464461803436
1772534453723089400,2.06708935546875,0.2902504503726959,0.10067180544137955,-0.04734562337398529
1772534453733106700,2.077106689453125,0.31310489773750305,0.10384735465049744,-0.030457982793450356
1772534453743122700,2.087122802734375,0.32539454102516174,0.07528951019048691,-0.0017225882038474083
1772534453753139500,2.097139404296875,0.3190452754497528,0.06128020957112312,0.030019361525774002
1772534453763155500,2.107155517578125,0.2958984076976776,0.030765218660235405,0.05150619521737099
1772534453773172700,2.1171728515625,0.263660192489624,-0.008823960088193417,0.061577342450618744
1772534453783188500,2.1271884765625,0.22564411163330078,-0.018822798505425453,0.055988699197769165
1772534453793205500,2.13720556640625,0.18537019193172455,-0.018936248496174812,0.029618877917528152
1772534453803221500,2.147221435546875,0.13698916137218475,-0.033728569746017456,-0.004859107080847025
1772534453813237500,2.157237548828125,0.07739666104316711,-0.028664568439126015,-0.02262105979025364
1772534453823254500,2.167254638671875,0.007569719105958939,0.014180959202349186,-0.03417746350169182
1772534453833270500,2.1772705078125,-0.0664067268371582,0.05592142045497894,-0.05609481409192085
1772534453843287600,2.18728759765625,-0.12526364624500275,0.11446701735258102,-0.08899949491024017
1772534453853303600,2.197303466796875,-0.1613185852766037,0.19174796342849731,-0.1218314841389656
1772534453863320600,2.207320556640625,-0.18462596833705902,0.26888084411621094,-0.14990979433059692
1772534453873336600,2.217336669921875,-0.20367106795310974,0.32454508543014526,-0.17037804424762726
1772534453883353300,2.227353271484375,-0.21321582794189453,0.3531245291233063,-0.18066132068634033
1772534453893369300,2.237369384765625,-0.21761362254619598,0.35339486598968506,-0.181177020072937
1772534453903386600,2.24738671875,-0.21878860890865326,0.3346813917160034,-0.1742679923772812
1772534453913402600,2.257402587890625,-0.2241358757019043,0.333063006401062,-0.157555490732193
1772534453923419400,2.26741943359375,-0.22923210263252258,0.30639225244522095,-0.13378117978572845
1772534453933435400,2.277435302734375,-0.22956232726573944,0.2345827966928482,-0.09753184020519257
1772534453943451400,2.287451416015625,-0.21894899010658264,0.17042677104473114,-0.04975750297307968
1772534453953468700,2.29746875,-0.19984187185764313,0.11136078834533691,-0.00463476637378335
1772534453963484400,2.307484375,-0.17710420489311218,0.07565300911664963,0.029653726145625114
1772534453973501400,2.31750146484375,-0.1535874307155609,0.05816829204559326,0.027414539828896523
1772534453983517400,2.327517333984375,-0.13246895372867584,0.046473629772663116,-0.018347566947340965
1772534453993534500,2.337534423828125,-0.12873214483261108,0.026788491755723953,-0.060452651232481
1772534454003550500,2.347550537109375,-0.15134397149085999,0.04187210649251938,-0.06153282895684242
1772534454013567500,2.3575673828125,-0.19881854951381683,0.09256670624017715,-0.03712255880236626
1772534454023583500,2.36758349609375,-0.2673364579677582,0.10680603235960007,-0.00804139394313097
1772534454033600500,2.3776005859375,-0.33478742837905884,0.10022669285535812,0.010909127071499825
1772534454043616500,2.387616455078125,-0.39745670557022095,0.08559606224298477,0.01766776293516159
1772534454053633500,2.397633544921875,-0.44885146617889404,0.05153262987732887,0.013446653261780739
1772534454063649500,2.4076494140625,-0.476327508687973,0.02420222945511341,0.017535604536533356
1772534454073666600,2.41766650390625,-0.48124876618385315,0.005337994080036879,0.033354781568050385
1772534454083682600,2.4276826171875,-0.4414699375629425,-0.056658387184143066,0.07535823434591293
1772534454093698600,2.437698486328125,-0.39514824748039246,-0.12168371677398682,0.12946008145809174
1772534454103715300,2.44771533203125,-0.3583473563194275,-0.13212993741035461,0.17671646177768707
1772534454113731600,2.457731689453125,-0.3409057855606079,-0.15171721577644348,0.1789950728416443
1772534454123748600,2.46774853515625,-0.34370365738868713,-0.19604958593845367,0.12284437566995621
1772534454133764600,2.4777646484375,-0.3774493634700775,-0.21360301971435547,0.03320157527923584
1772534454143781400,2.487781494140625,-0.4343739449977875,-0.23242808878421783,-0.0869704857468605
1772534454153797600,2.497797607421875,-0.5086098313331604,-0.26992592215538025,-0.2167319506406784
1772534454163814700,2.507814697265625,-0.5861803293228149,-0.28660163283348083,-0.334058940410614
1772534454173830400,2.517830322265625,-0.6458824276924133,-0.3042105436325073,-0.4214380383491516
1772534454183847400,2.527847412109375,-0.6716980338096619,-0.3453073799610138,-0.4643266499042511
1772534454193863700,2.53786376953125,-0.6802278757095337,-0.3522997796535492,-0.4532468318939209
1772534454203880400,2.54788037109375,-0.6798439621925354,-0.2951183617115021,-0.4100608229637146
1772534454213896400,2.557896484375,-0.6625096797943115,-0.1855418086051941,-0.3488515317440033
1772534454223913500,2.56791357421875,-0.6283153891563416,-0.04578259214758873,-0.28550663590431213
1772534454233929700,2.5779296875,-0.57590252161026,0.11011672765016556,-0.21952681243419647
1772534454243945500,2.587945556640625,-0.5035030841827393,0.24119630455970764,-0.1478889286518097
1772534454253962500,2.59796240234375,-0.4096378982067108,0.32784998416900635,-0.07875646650791168
1772534454263978500,2.607978515625,-0.30410027503967285,0.34192878007888794,-0.02982354164123535
1772534454273995500,2.61799560546875,-0.20068974792957306,0.3195931315422058,0.03659462928771973
1772534454284011500,2.628011474609375,-0.11763161420822144,0.2501775622367859,0.12217450886964798
1772534454294028500,2.638028564453125,-0.052698418498039246,0.156514972448349,0.19400368630886078
1772534454304044500,2.64804443359375,-0.010987086221575737,0.0503198578953743,0.2713843286037445
1772534454314061300,2.658061279296875,-0.009992661885917187,-0.08529123663902283,0.32917520403862
1772534454324077600,2.66807763671875,-0.05271829292178154,-0.21321024000644684,0.34156298637390137
1772534454334094600,2.678094482421875,-0.13633623719215393,-0.27823078632354736,0.3046710193157196
1772534454344110600,2.688110595703125,-0.25250816345214844,-0.2791339159011841,0.23627348244190216
1772534454354127400,2.69812744140625,-0.3795505464076996,-0.22273856401443481,0.14198985695838928
1772534454364143600,2.7081435546875,-0.49131590127944946,-0.11756472289562225,0.034417785704135895
1772534454374159600,2.71815966796875,-0.573655903339386,0.025073204189538956,-0.06295958161354065
1772534454384176400,2.72817626953125,-0.6189109683036804,0.15048491954803467,-0.14816688001155853
1772534454394192400,2.7381923828125,-0.6316044330596924,0.2314109355211258,-0.21055568754673004
1772534454404209700,2.748209716796875,-0.6123728156089783,0.27088862657546997,-0.22650524973869324
1772534454414225700,2.7582255859375,-0.5782644748687744,0.26696160435676575,-0.1977204978466034
1772534454424242400,2.768242431640625,-0.5436947345733643,0.221236452460289,-0.14752469956874847
1772534454434258400,2.778258544921875,-0.4906059503555298,0.1473798006772995,-0.09256798028945923
1772534454444275700,2.788275634765625,-0.4194878935813904,0.04531003162264824,-0.044028766453266144
1772534454454291500,2.79829150390625,-0.34118402004241943,-0.05649542436003685,-0.007666763383895159
1772534454464308500,2.80830859375,-0.26014527678489685,-0.12781423330307007,0.005782406311482191
1772534454474324500,2.818324462890625,-0.18928708136081696,-0.1728413701057434,0.003923786338418722
1772534454484341500,2.828341552734375,-0.13298553228378296,-0.19191601872444153,-0.0046760281547904015
1772534454494357500,2.838357421875,-0.09151531755924225,-0.19084542989730835,-0.029388032853603363
1772534454504374500,2.84837451171875,-0.06502269953489304,-0.17517556250095367,-0.05198042094707489
1772534454514390500,2.858390625,-0.06779345124959946,-0.17874020338058472,-0.05599647015333176
1772534454524406500,2.868406494140625,-0.08320661634206772,-0.14010299742221832,-0.036530040204524994
1772534454534423600,2.878423583984375,-0.09313035756349564,-0.07582200318574905,-0.018233589828014374
1772534454544439600,2.888439453125,-0.09460419416427612,-0.02826990745961666,-0.0025202538818120956
1772534454554456600,2.89845654296875,-0.09205687791109085,0.0196858998388052,0.014625443145632744
1772534454564472300,2.908472412109375,-0.09748011827468872,0.06619080156087875,0.0264948271214962
1772534454574489600,2.918489501953125,-0.11307292431592941,0.13257035613059998,0.029633894562721252
1772534454584505600,2.928505615234375,-0.1262640506029129,0.1859670728445053,0.035446688532829285
1772534454594522400,2.9385224609375,-0.12606537342071533,0.22541143000125885,0.0338011234998703
1772534454604538400,2.948538330078125,-0.11309908330440521,0.22860626876354218,0.02974553406238556
1772534454614555400,2.958555419921875,-0.09551555663347244,0.22449621558189392,0.023045821115374565
1772534454624571600,2.968571533203125,-0.06826093792915344,0.20570562779903412,0.013005029410123825
1772534454634588400,2.97858837890625,-0.03869904577732086,0.1540355086326599,0.0076078674755990505
1772534454644604400,2.9886044921875,-0.002676696516573429,0.11720739305019379,0.024783635511994362
1772534454654621400,2.998621337890625,0.039091791957616806,0.09894982725381851,0.06944457441568375
1772534454664637400,3.008637451171875,0.08957512676715851,0.06499632447957993,0.11731904745101929
1772534454674653400,3.0186533203125,0.14468924701213837,0.029298247769474983,0.15182135999202728
1772534454684670500,3.02867041015625,0.19613097608089447,-0.017398618161678314,0.18220564723014832
1772534454694686500,3.0386865234375,0.23351135849952698,-0.03753691166639328,0.19822269678115845
1772534454704703500,3.048703369140625,0.25708940625190735,-0.05354144424200058,0.20083525776863098
1772534454714719500,3.058719482421875,0.282635897397995,-0.06661345064640045,0.18467490375041962
1772534454724736500,3.068736572265625,0.31830894947052,-0.06620366871356964,0.16007758677005768
1772534454734752500,3.07875244140625,0.35697513818740845,-0.04186796396970749,0.14871200919151306
1772534454744769500,3.08876953125,0.4045495390892029,-0.002694203518331051,0.1668969690799713
1772534454754785500,3.09878564453125,0.46530529856681824,0.06112951785326004,0.2077850103378296
1772534454764802600,3.108802490234375,0.5255752801895142,0.14043042063713074,0.2649226784706116
1772534454774818300,3.118818359375,0.5519890785217285,0.20661184191703796,0.3213556110858917
1772534454784835600,3.128835693359375,0.5466872453689575,0.25732049345970154,0.34429678320884705
1772534454794851600,3.1388515625,0.5269508361816406,0.31463223695755005,0.3278898596763611
1772534454804867600,3.14886767578125,0.5176016688346863,0.39045876264572144,0.292306512594223
1772534454814884400,3.15888427734375,0.5230299830436707,0.4499625861644745,0.2564377188682556
1772534454824900400,3.168900390625,0.532566487789154,0.45417776703834534,0.20491932332515717
1772534454834917600,3.178917724609375,0.5440943241119385,0.37586045265197754,0.13044288754463196
1772534454844933600,3.18893359375,0.5469993352890015,0.20595449209213257,0.03403380513191223
1772534454854950400,3.198950439453125,0.5177652835845947,-0.03749198839068413,-0.07396935671567917
1772534454864966400,3.20896630859375,0.4642948806285858,-0.2936165928840637,-0.19259728491306305
1772534454874983400,3.2189833984375,0.40302780270576477,-0.49193766713142395,-0.28876349329948425
1772534454884999400,3.22899951171875,0.33284029364585876,-0.5885441899299622,-0.3414691984653473
1772534454895016400,3.239016357421875,0.2640274167060852,-0.5843164324760437,-0.33518731594085693
1772534454905032400,3.249032470703125,0.19616377353668213,-0.4574253261089325,-0.2638019919395447
1772534454915049500,3.259049560546875,0.13881658017635345,-0.23716095089912415,-0.16259761154651642
1772534454925065500,3.2690654296875,0.10383035242557526,0.009371330961585045,-0.05278456583619118
1772534454935082500,3.27908251953125,0.11514639109373093,0.31182360649108887,0.04406687989830971
1772534454945098500,3.289098388671875,0.17439299821853638,0.6032055616378784,0.11359164118766785
1772534454955114200,3.2991142578125,0.27245643734931946,0.8338108062744141,0.12365465611219406
1772534454965131500,3.309131591796875,0.3897190988063812,0.9403669238090515,0.0946485623717308
1772534454975147500,3.3191474609375,0.494678795337677,0.9124748110771179,0.06872481852769852
1772534454985164300,3.329164306640625,0.5879469513893127,0.7657159566879272,0.0715775117278099
1772534454995180300,3.33918017578125,0.6680774688720703,0.5405712723731995,0.09803041815757751
1772534455005197600,3.349197509765625,0.7279638051986694,0.257517546415329,0.13515031337738037
1772534455015213600,3.359213623046875,0.7748988270759583,-0.0273450780659914,0.19279736280441284
1772534455025230300,3.369230224609375,0.806548535823822,-0.24310413002967834,0.25287362933158875
1772534455035246300,3.379246337890625,0.8216561079025269,-0.4196525514125824,0.27752918004989624
1772534455045263600,3.389263671875,0.8126060366630554,-0.5574883222579956,0.23862451314926147
1772534455055279600,3.399279541015625,0.7657375931739807,-0.6572748422622681,0.15935979783535004
1772534455065296400,3.40929638671875,0.6720409989356995,-0.6878877282142639,0.08181557059288025
1772534455075312400,3.4193125,0.5556115508079529,-0.6424257159233093,0.028641827404499054
1772534455085328600,3.42932861328125,0.43470898270606995,-0.5163936018943787,-0.00027448078617453575
1772534455095345400,3.439345458984375,0.3167346715927124,-0.3348866403102875,-0.02125885896384716
1772534455105361400,3.449361328125,0.21153567731380463,-0.12603400647640228,-0.05049978196620941
1772534455115378400,3.45937841796875,0.12740136682987213,0.0755997821688652,-0.09538815170526505
1772534455125394700,3.469394775390625,0.06610096246004105,0.2282712757587433,-0.13457365334033966
1772534455135411500,3.479411376953125,0.029220443218946457,0.33087167143821716,-0.15789495408535004
1772534455145427500,3.489427490234375,0.021193433552980423,0.3605433702468872,-0.16593582928180695
1772534455155444500,3.499444580078125,0.03784485161304474,0.32686981558799744,-0.15990643203258514
1772534455165460500,3.50946044921875,0.0733211562037468,0.24918466806411743,-0.13532213866710663
1772534455175477500,3.5194775390625,0.12103807926177979,0.15213988721370697,-0.10347553342580795
1772534455185493500,3.529493408203125,0.16629146039485931,0.05529404059052467,-0.06607387214899063
1772534455195510300,3.53951025390625,0.19329458475112915,-0.02083481475710869,-0.03521156683564186
1772534455205526500,3.549526611328125,0.19916149973869324,-0.07767660915851593,-0.024348005652427673
1772534455215543600,3.55954345703125,0.18765424191951752,-0.11452356725931168,-0.03575166314840317
1772534455225559600,3.5695595703125,0.18086430430412292,-0.13074547052383423,-0.054625023156404495
1772534455235575600,3.579575439453125,0.1783635914325714,-0.1487250030040741,-0.06251703202724457
1772534455245592300,3.58959228515625,0.18070022761821747,-0.13433212041854858,-0.047541387379169464
1772534455255608600,3.599608642578125,0.17967411875724792,-0.10594069212675095,-0.016509437933564186
1772534455265625600,3.60962548828125,0.16961555182933807,-0.05860263854265213,0.012902237474918365
1772534455275641300,3.619641357421875,0.14967460930347443,-0.029270848259329796,0.01515180990099907
1772534455285658400,3.629658447265625,0.11785141378641129,-0.01999061554670334,-0.013548551127314568
1772534455295674600,3.639674560546875,0.06810303032398224,-0.011200584471225739,-0.05635380372405052
1772534455305691400,3.64969140625,-0.0010613654740154743,0.03857490047812462,-0.09529878944158554
1772534455315707400,3.659707275390625,-0.07249747216701508,0.08303477615118027,-0.13212203979492188
1772534455325724400,3.669724365234375,-0.127229705452919,0.1037529781460762,-0.16090381145477295
1772534455335740700,3.67974072265625,-0.15238939225673676,0.115012027323246,-0.17635014653205872
1772534455345757400,3.68975732421875,-0.15567980706691742,0.11767801642417908,-0.1797020435333252
1772534455355773400,3.6997734375,-0.14655794203281403,0.10551349073648453,-0.1643768846988678
1772534455365790500,3.70979052734375,-0.13533610105514526,0.08395024389028549,-0.1333555430173874
1772534455375806500,3.719806396484375,-0.12217530608177185,0.04978242516517639,-0.07800973206758499
1772534455385822500,3.729822509765625,-0.10986711084842682,0.017766084522008896,-0.016899026930332184
1772534455395839500,3.739839599609375,-0.095759816467762,-0.04038483649492264,0.019690409302711487
1772534455405855500,3.74985546875,-0.08312805742025375,-0.11108651757240295,0.02987268753349781
1772534455415872500,3.75987255859375,-0.07022584229707718,-0.18284885585308075,0.027059324085712433
1772534455425888500,3.769888427734375,-0.058648061007261276,-0.2393898218870163,0.0174107626080513
1772534455435905500,3.779905517578125,-0.060115996748209,-0.29037949442863464,-0.008720174431800842
1772534455445921500,3.789921630859375,-0.08261530101299286,-0.33221235871315,-0.04804275929927826
1772534455455938600,3.7999384765625,-0.12739315629005432,-0.35724499821662903,-0.08087527751922607
1772534455465954600,3.80995458984375,-0.19015729427337646,-0.3548365533351898,-0.10836516320705414
1772534455475971600,3.8199716796875,-0.2547040581703186,-0.3161051571369171,-0.1255156546831131
1772534455485987300,3.8299873046875,-0.3136875331401825,-0.24351878464221954,-0.1218147724866867
1772534455496004600,3.840004638671875,-0.36772361397743225,-0.16540321707725525,-0.11434593796730042
1772534455506020600,3.8500205078125,-0.4111015498638153,-0.08512423932552338,-0.10506893694400787
1772534455516036900,3.860036865234375,-0.43914729356765747,-0.02539140172302723,-0.09445571154356003
1772534455526053600,3.8700537109375,-0.45046311616897583,0.006227345205843449,-0.09575800597667694
1772534455536069600,3.880069580078125,-0.449779212474823,0.03374791890382767,-0.10368464142084122
1772534455546086700,3.890086669921875,-0.4365968406200409,0.05107741802930832,-0.11236822605133057
1772534455556102700,3.9001025390625,-0.4086613655090332,0.03786361217498779,-0.10742433369159698
1772534455566119700,3.91011962890625,-0.37853309512138367,-0.032149747014045715,-0.08744640648365021
1772534455576135700,3.9201357421875,-0.3527933657169342,-0.130381241440773,-0.07069991528987885
1772534455586152400,3.93015234375,-0.3290403187274933,-0.26384949684143066,-0.07427162677049637
1772534455596168700,3.940168701171875,-0.3155932128429413,-0.38268184661865234,-0.09485653042793274
1772534455606185700,3.950185791015625,-0.3222801983356476,-0.44008737802505493,-0.13818103075027466
1772534455616201700,3.96020166015625,-0.352319598197937,-0.44112628698349,-0.20583011209964752
1772534455626218500,3.970218505859375,-0.40066248178482056,-0.38057389855384827,-0.2786976397037506
1772534455636234500,3.980234375,-0.4523075819015503,-0.261533260345459,-0.3325651288032532
1772534455646251800,3.990251708984375,-0.4988740384578705,-0.11663907021284103,-0.36163315176963806
1772534455656267500,4.000267578125,-0.5340642333030701,0.034760575741529465,-0.3686961233615875
1772534455666283500,4.010283447265625,-0.5600503087043762,0.17943662405014038,-0.3644081950187683
1772534455676300500,4.020300537109375,-0.5878699421882629,0.2863260507583618,-0.3401196300983429
1772534455686316800,4.03031689453125,-0.6081987619400024,0.3920421600341797,-0.27694201469421387
1772534455696333600,4.04033349609375,-0.6221190690994263,0.5088068842887878,-0.19590416550636292
1772534455706349600,4.050349609375,-0.6155367493629456,0.631329357624054,-0.1310856193304062
1772534455716366600,4.06036669921875,-0.5669316649436951,0.7088891267776489,-0.08905429393053055
1772534455726382800,4.0703828125,-0.48552393913269043,0.7285031676292419,-0.03860124945640564
1772534455736399600,4.080399658203125,-0.3735393285751343,0.6870595812797546,0.0521925687789917
1772534455746415600,4.09041552734375,-0.22738897800445557,0.5914636254310608,0.1683451235294342
1772534455756432600,4.1004326171875,-0.07411260157823563,0.45203784108161926,0.2829244136810303
1772534455766448600,4.11044873046875,0.05975767597556114,0.272415429353714,0.3635563850402832
1772534455776465700,4.120465576171875,0.16582007706165314,0.05422428622841835,0.4214816093444824
1772534455786481700,4.130481689453125,0.22351959347724915,-0.15554384887218475,0.48379290103912354
1772534455796497700,4.14049755859375,0.22131794691085815,-0.3302946090698242,0.5406415462493896
1772534455806514700,4.1505146484375,0.16129040718078613,-0.43627578020095825,0.567258894443512
1772534455816530700,4.16053076171875,0.05609900504350662,-0.4867594540119171,0.5504634380340576
1772534455826547700,4.170547607421875,-0.07592669874429703,-0.4760845899581909,0.49388521909713745
1772534455836563700,4.180563720703125,-0.21870674192905426,-0.39253750443458557,0.40344560146331787
1772534455846580700,4.190580810546875,-0.36624205112457275,-0.2563517391681671,0.29754769802093506
1772534455856596700,4.2005966796875,-0.48877137899398804,-0.0896243080496788,0.1832871288061142
1772534455866613500,4.210613525390625,-0.5765970349311829,0.09195853024721146,0.07532710582017899
1772534455876629500,4.22062939453125,-0.6368577480316162,0.24684879183769226,-0.028363432735204697
1772534455886646800,4.230646728515625,-0.6797761917114258,0.35757583379745483,-0.10474342107772827
1772534455896662800,4.240662841796875,-0.7082355618476868,0.4223170280456543,-0.15570327639579773
1772534455906679600,4.250679443359375,-0.7190655469894409,0.42620500922203064,-0.1747976839542389
1772534455916695600,4.260695556640625,-0.7132555842399597,0.40101495385169983,-0.1548900306224823
1772534455926711600,4.270711669921875,-0.6944738626480103,0.3792640268802643,-0.10143788158893585
1772534455936728800,4.280728759765625,-0.6699698567390442,0.341482549905777,-0.04696931689977646
1772534455946744600,4.29074462890625,-0.6411124467849731,0.275295227766037,-0.005599090829491615
1772534455956761600,4.30076171875,-0.6024150252342224,0.22419868409633636,0.009421599097549915
1772534455966777600,4.310777587890625,-0.5531343221664429,0.2138586938381195,0.006802113726735115
1772534455976794600,4.320794677734375,-0.49322986602783203,0.21474933624267578,-0.004246223717927933
1772534455986810600,4.330810546875,-0.4287733733654022,0.21495014429092407,-0.017331399023532867
1772534455996827600,4.34082763671875,-0.36601516604423523,0.20805388689041138,-0.04233954846858978
1772534456006843600,4.35084375,-0.3131806552410126,0.20571160316467285,-0.06175690144300461
1772534456016860700,4.360860595703125,-0.2782711386680603,0.2120848149061203,-0.06102639436721802
1772534456026876700,4.370876708984375,-0.24372009932994843,0.20557354390621185,-0.032968319952487946
1772534456036893700,4.380893798828125,-0.19977128505706787,0.17878027260303497,0.01658138819038868
1772534456046909700,4.39090966796875,-0.14550656080245972,0.1384604424238205,0.05958111211657524
1772534456056925400,4.400925537109375,-0.08466250449419022,0.112400121986866,0.06732013076543808
1772534456066942700,4.410942626953125,-0.0281669981777668,0.07777529954910278,0.05304611846804619
1772534456076958700,4.420958740234375,0.011388594284653664,0.054494187235832214,0.02001286670565605
1772534456086975500,4.4309755859375,0.023633010685443878,0.07129181176424026,-0.02110261283814907
1772534456096991500,4.440991455078125,0.015471752732992172,0.1393592804670334,-0.06838357448577881
1772534456107008800,4.4510087890625,0.013120327144861221,0.20433512330055237,-0.13620376586914062
1772534456117024800,4.461024658203125,0.035827502608299255,0.21406897902488708,-0.19995851814746857
1772534456127041500,4.47104150390625,0.08302034437656403,0.20922324061393738,-0.22639159858226776
1772534456137057500,4.4810576171875,0.14309538900852203,0.19222721457481384,-0.22055529057979584
1772534456147074800,4.49107470703125,0.18962162733078003,0.14388412237167358,-0.20196253061294556
1772534456157090600,4.501090576171875,0.20738859474658966,0.05123630166053772,-0.19843332469463348
1772534456167107600,4.511107666015625,0.19269806146621704,-0.06680245697498322,-0.20616714656352997
1772534456177123600,4.52112353515625,0.17199359834194183,-0.14376719295978546,-0.2009231150150299
1772534456187140600,4.531140625,0.17918625473976135,-0.14143399894237518,-0.161988765001297
1772534456197156600,4.541156494140625,0.229290172457695,-0.057558801025152206,-0.09607765078544617
1772534456207172600,4.551172607421875,0.3040953278541565,0.04671069234609604,-0.014496983960270882
1772534456217189600,4.561189697265625,0.37389492988586426,0.12739461660385132,0.07330850511789322
1772534456227205600,4.57120556640625,0.44118595123291016,0.1824030876159668,0.1615510731935501
1772534456237222700,4.58122265625,0.49749264121055603,0.29044806957244873,0.24172739684581757
1772534456247238700,4.59123876953125,0.5447525382041931,0.3972514271736145,0.27897363901138306
1772534456257255700,4.601255615234375,0.5807910561561584,0.411633163690567,0.2503359615802765
1772534456267271700,4.611271728515625,0.6103816628456116,0.32865065336227417,0.18824729323387146
1772534456277288700,4.621288818359375,0.6186910271644592,0.1888275295495987,0.1116207018494606
1772534456287304700,4.6313046875,0.5709136128425598,0.026079757139086723,0.040695566684007645
1772534456297321500,4.641321533203125,0.4926568269729614,-0.12264128029346466,0.008427109569311142
1772534456307337500,4.65133740234375,0.41664302349090576,-0.24636250734329224,0.032383836805820465
1772534456317354800,4.661354736328125,0.367606520652771,-0.35296136140823364,0.08725294470787048
1772534456327370800,4.671370849609375,0.3485557734966278,-0.3858616054058075,0.1299142688512802
1772534456337387500,4.681387451171875,0.34160810708999634,-0.32183629274368286,0.15105870366096497
1772534456347403500,4.691403564453125,0.34350863099098206,-0.15655197203159332,0.16196906566619873
1772534456357419800,4.701419677734375,0.340372771024704,0.07849197089672089,0.15475590527057648
1772534456367436500,4.7114365234375,0.3243967294692993,0.33573681116104126,0.12791337072849274
1772534456377452500,4.72145263671875,0.2941717207431793,0.5673285126686096,0.09242355823516846
1772534456387469600,4.731469482421875,0.26495561003685,0.7219075560569763,0.05303800478577614
1772534456397485800,4.74148583984375,0.24160100519657135,0.8009019494056702,0.026534225791692734
1772534456407502600,4.751502685546875,0.21609118580818176,0.7999810576438904,0.015896346420049667
1772534456417518600,4.7615185546875,0.20798160135746002,0.7175333499908447,0.01139773614704609
1772534456427535600,4.77153564453125,0.22619761526584625,0.5571444630622864,0.001070263097062707
1772534456437551600,4.781551513671875,0.2728383541107178,0.33998367190361023,-0.008937097154557705
1772534456447568600,4.791568603515625,0.3430529534816742,0.0920279398560524,-0.00026111630722880363
1772534456457584600,4.801584716796875,0.4144023656845093,-0.146543487906456,0.03536572679877281
1772534456467601700,4.8116015625,0.4703330099582672,-0.337870329618454,0.10218870639801025
1772534456477617700,4.82161767578125,0.5088223814964294,-0.4789792597293854,0.15931802988052368
1772534456487633700,4.831633544921875,0.5261176228523254,-0.5627255439758301,0.19261984527111053
1772534456497650700,4.841650634765625,0.5287152528762817,-0.5847471952438354,0.20111292600631714
1772534456507666700,4.851666748046875,0.5108221769332886,-0.5536980032920837,0.18126322329044342
1772534456517683700,4.86168359375,0.46718281507492065,-0.4788424074649811,0.13460783660411835
1772534456527700000,4.871699951171875,0.39912205934524536,-0.3760649263858795,0.06257688254117966
1772534456537717000,4.881717041015625,0.30329594016075134,-0.2602594792842865,-0.024730056524276733
1772534456547732700,4.891732666015625,0.19610705971717834,-0.15936684608459473,-0.113392673432827
1772534456557749800,4.901749755859375,0.09051871299743652,-0.08597202599048615,-0.18456605076789856
1772534456567766000,4.91176611328125,0.006995855364948511,-0.028869327157735825,-0.22589512169361115
1772534456577782800,4.92178271484375,-0.054196663200855255,0.0015487652271986008,-0.2387094497680664
1772534456587798800,4.931798828125,-0.08125781267881393,0.00838643591850996,-0.23019036650657654
1772534456597815800,4.94181591796875,-0.06855852901935577,-0.0077086444944143295,-0.21394935250282288
1772534456607832000,4.95183203125,-0.02936822921037674,-0.04051273316144943,-0.18489155173301697
1772534456617847800,4.961847900390625,0.02375704050064087,-0.07214762270450592,-0.14694923162460327
1772534456627864800,4.97186474609375,0.08851458132266998,-0.12438587844371796,-0.10142495483160019
1772534456637880800,4.981880859375,0.15675702691078186,-0.17906136810779572,-0.04498511180281639
1772534456647897900,4.99189794921875,0.2161179780960083,-0.20385684072971344,-0.004505272023379803
1772534456657913900,5.001913818359375,0.25226396322250366,-0.20159561932086945,0.005730847828090191
1772534456667931000,5.011930908203125,0.26245081424713135,-0.22039727866649628,-0.019656267017126083
1772534456677947000,5.02194677734375,0.2562216818332672,-0.27342456579208374,-0.058476366102695465
1772534456687964000,5.0319638671875,0.2304113358259201,-0.32178470492362976,-0.07152829319238663
1772534456697980000,5.04197998046875,0.19685977697372437,-0.3511985242366791,-0.04994656518101692
1772534456707997000,5.051996826171875,0.16608954966068268,-0.36539581418037415,-0.011658049188554287
1772534456718013000,5.062012939453125,0.14549532532691956,-0.3374935984611511,0.031227366998791695
1772534456728030000,5.072030029296875,0.11117951571941376,-0.23926039040088654,0.062226418405771255
1772534456738046000,5.0820458984375,0.05385364219546318,-0.11746817082166672,0.06757351756095886
1772534456748062000,5.09206201171875,-0.026857884600758553,0.004443765617907047,0.03410302847623825
1772534456758078700,5.10207861328125,-0.10754013806581497,0.09861946851015091,-0.024420101195573807
1772534456768094700,5.1120947265625,-0.1707707792520523,0.14294324815273285,-0.09741520881652832
1772534456778112000,5.122112060546875,-0.19765512645244598,0.14090247452259064,-0.1616988629102707
1772534456788128000,5.1321279296875,-0.19633211195468903,0.10220015048980713,-0.19495342671871185
1772534456798144800,5.142144775390625,-0.1730393022298813,0.029443925246596336,-0.18397639691829681
1772534456808160800,5.152160888671875,-0.14481784403324127,-0.05924372375011444,-0.12340503185987473
1772534456818178000,5.162177978515625,-0.14121964573860168,-0.1424906849861145,-0.05187837779521942
1772534456828193800,5.17219384765625,-0.16017283499240875,-0.22355623543262482,0.0003488718066364527
1772534456838210800,5.1822109375,-0.19295984506607056,-0.29694390296936035,0.03161328285932541
1772534456848226800,5.192226806640625,-0.23698988556861877,-0.35569003224372864,0.04160333424806595
1772534456858243800,5.202243896484375,-0.28435462713241577,-0.38524001836776733,0.03204502910375595
1772534456868259800,5.212259765625,-0.3230719268321991,-0.3961235582828522,0.01615341380238533
1772534456878275800,5.22227587890625,-0.36746203899383545,-0.36827144026756287,0.011205792427062988
1772534456888292900,5.23229296875,-0.42357465624809265,-0.30460309982299805,0.0011043273843824863
1772534456898308900,5.242308837890625,-0.4872004985809326,-0.19214314222335815,-0.018512248992919922
1772534456908326000,5.252325927734375,-0.5457381010055542,-0.07518605887889862,-0.06030534207820892
1772534456918342000,5.262341796875,-0.6021968126296997,0.030732914805412292,-0.11713134497404099
1772534456928359000,5.27235888671875,-0.6593819856643677,0.11115075647830963,-0.18210354447364807
1772534456938374700,5.282374755859375,-0.7113932967185974,0.13970303535461426,-0.24380099773406982
1772534456948392000,5.292391845703125,-0.748039722442627,0.10520325601100922,-0.30914318561553955
1772534456958408000,5.302407958984375,-0.7607825994491577,0.02540607936680317,-0.3660956621170044
1772534456968424700,5.3124248046875,-0.7478617429733276,-0.07694026827812195,-0.3997390866279602
1772534456979067000,5.32306689453125,-0.7108150124549866,-0.2115689069032669,-0.40253275632858276
1772534456989083600,5.333083740234375,-0.6569330096244812,-0.3444606363773346,-0.3836863934993744
1772534456999099600,5.343099609375,-0.5930108428001404,-0.43970614671707153,-0.3515198826789856
1772534457009116000,5.353115966796875,-0.5302577614784241,-0.4856770634651184,-0.3242752254009247
1772534457019133000,5.3631328125,-0.47739195823669434,-0.47025883197784424,-0.3137529194355011
1772534457029149000,5.37314892578125,-0.430267870426178,-0.3819441497325897,-0.30194607377052307
1772534457039165700,5.383165771484375,-0.3916386365890503,-0.2592940926551819,-0.2664737105369568
1772534457049182000,5.393181884765625,-0.35912543535232544,-0.14285428822040558,-0.21288292109966278
1772534457059199000,5.403198974609375,-0.3397018015384674,-0.04857005923986435,-0.1569804549217224
1772534457069214700,5.413214599609375,-0.3161908686161041,0.027797149494290352,-0.09781406819820404
1772534457079231700,5.423231689453125,-0.2686166763305664,0.10689888894557953,-0.029138963669538498
1772534457089248000,5.433248046875,-0.1913900524377823,0.1589844673871994,0.054474975913763046
1772534457099264800,5.4432646484375,-0.09909987449645996,0.1546851098537445,0.13271987438201904
1772534457109280800,5.45328076171875,-0.011204378679394722,0.07416550815105438,0.2084447294473648
1772534457119297800,5.4632978515625,0.05685541033744812,-0.06534135341644287,0.27696067094802856
1772534457129314000,5.47331396484375,0.08832918852567673,-0.22500959038734436,0.32676899433135986
1772534457139329800,5.483329833984375,0.07534854859113693,-0.37167492508888245,0.3491173982620239
1772534457149346800,5.493346923828125,0.026905115693807602,-0.49492841958999634,0.3521462082862854
1772534457159362800,5.50336279296875,-0.05271289125084877,-0.5615923404693604,0.33759093284606934
1772534457169379800,5.5133798828125,-0.16876919567584991,-0.550786018371582,0.3064660429954529
1772534457179395800,5.523395751953125,-0.2979404330253601,-0.47058263421058655,0.24536630511283875
1772534457189412900,5.533412841796875,-0.4110153019428253,-0.35677963495254517,0.14635610580444336
1772534457199428900,5.543428955078125,-0.508846640586853,-0.21153399348258972,0.03682984784245491
1772534457209446000,5.55344580078125,-0.5985645055770874,-0.0644763633608818,-0.054604459553956985
1772534457219462000,5.5634619140625,-0.67835932970047,0.0668623149394989,-0.11751478165388107
1772534457229479000,5.57347900390625,-0.7473053932189941,0.16327780485153198,-0.15918020904064178
1772534457239495000,5.583494873046875,-0.7932259440422058,0.20884592831134796,-0.18917250633239746
1772534457249512000,5.593511962890625,-0.8066919445991516,0.21121001243591309,-0.1942991018295288
1772534457259528000,5.60352783203125,-0.792924165725708,0.2124481201171875,-0.17862772941589355
1772534457269544000,5.6135439453125,-0.7575704455375671,0.2058035284280777,-0.1621193289756775
1772534457279560700,5.623560791015625,-0.6950540542602539,0.18652810156345367,-0.14644022285938263
1772534457289576700,5.63357666015625,-0.6215969324111938,0.1721222698688507,-0.12201531231403351
1772534457299594000,5.643593994140625,-0.5609477162361145,0.1481483280658722,-0.08535104990005493
1772534457309610000,5.65360986328125,-0.5218618512153625,0.12787048518657684,-0.028266729786992073
1772534457319626800,5.663626708984375,-0.5039361119270325,0.1352006494998932,0.025064408779144287
1772534457329642800,5.673642822265625,-0.49268612265586853,0.16068150103092194,0.05359458923339844
1772534457339660000,5.683659912109375,-0.47435519099235535,0.18354004621505737,0.04700533300638199
1772534457349675800,5.69367578125,-0.44515204429626465,0.19999225437641144,0.022841408848762512
1772534457359692800,5.70369287109375,-0.40655142068862915,0.21384626626968384,-0.006388469599187374
1772534457369708800,5.713708740234375,-0.35934263467788696,0.20572654902935028,-0.030203254893422127
1772534457379725800,5.723725830078125,-0.30840033292770386,0.1768738180398941,-0.0512986034154892
1772534457389741800,5.733741943359375,-0.27562054991722107,0.135039284825325,-0.07320070266723633
1772534457399758800,5.7437587890625,-0.24518020451068878,0.09514129906892776,-0.0878155454993248
1772534457409774800,5.75377490234375,-0.22133693099021912,0.017328260466456413,-0.09355758130550385
1772534457419792000,5.7637919921875,-0.1965322643518448,-0.0879678800702095,-0.07593092322349548
1772534457429807900,5.773807861328125,-0.17335157096385956,-0.1819247305393219,-0.01682020165026188
1772534457439825000,5.783824951171875,-0.16055408120155334,-0.24991610646247864,0.0570504404604435
1772534457449841000,5.7938408203125,-0.1369670033454895,-0.3096132278442383,0.12093435227870941
1772534457459856600,5.803856689453125,-0.09990754723548889,-0.3260759115219116,0.16926397383213043
1772534457469874000,5.8138740234375,-0.060684505850076675,-0.2836757004261017,0.19023184478282928
1772534457479890000,5.823889892578125,-0.017016075551509857,-0.22886186838150024,0.17523302137851715
1772534457489906700,5.83390673828125,0.03123347833752632,-0.174076646566391,0.15170851349830627
1772534457499922700,5.843922607421875,0.08814644068479538,-0.15550369024276733,0.1403248906135559
1772534457509940000,5.85393994140625,0.1477234810590744,-0.1643057018518448,0.1455707848072052
1772534457519955500,5.86395556640625,0.20409388840198517,-0.19804637134075165,0.1640416830778122
1772534457529972200,5.87397216796875,0.26139017939567566,-0.2355058640241623,0.18769454956054688
1772534457539988200,5.88398828125,0.3139730393886566,-0.24322375655174255,0.20966050028800964
1772534457550005500,5.894005615234375,0.34289389848709106,-0.27841106057167053,0.2096586376428604
1772534457560021500,5.904021484375,0.37459540367126465,-0.36186638474464417,0.19105744361877441
1772534457570038300,5.914038330078125,0.42848312854766846,-0.41750940680503845,0.2071959227323532
1772534457580054300,5.92405419921875,0.48668238520622253,-0.39216089248657227,0.2741908133029938
1772534457590070300,5.9340703125,0.5339857339859009,-0.31423360109329224,0.3570483922958374
1772534457600087300,5.94408740234375,0.5742001533508301,-0.2057996690273285,0.4165654182434082
1772534457610103300,5.954103271484375,0.601712703704834,-0.08055440336465836,0.43449968099594116
1772534457620120300,5.964120361328125,0.6058440208435059,0.04831709340214729,0.4046210050582886
1772534457630136300,5.97413623046875,0.5818944573402405,0.1978496015071869,0.3410883843898773
1772534457640153300,5.9841533203125,0.532927393913269,0.3380281627178192,0.26967117190361023
1772534457650169300,5.99416943359375,0.48499825596809387,0.45066285133361816,0.1947963982820511
1772534457660186400,6.004186279296875,0.441193550825119,0.5058873891830444,0.12808182835578918
1772534457670202400,6.014202392578125,0.40461182594299316,0.4565560221672058,0.06744484603404999
1772534457680219400,6.024219482421875,0.3915156424045563,0.2869373857975006,0.014118479564785957
1772534457690235400,6.0342353515625,0.41112956404685974,0.04494659602642059,-0.00421898253262043
1772534457700252400,6.04425244140625,0.454654335975647,-0.17314496636390686,0.03877720236778259
1772534457710268200,6.05426806640625,0.4925183355808258,-0.31687605381011963,0.12803597748279572
1772534457720284400,6.064284423828125,0.5246899724006653,-0.4099176824092865,0.20902566611766815
1772534457730301400,6.074301513671875,0.5490121245384216,-0.4445608854293823,0.25054407119750977
1772534457740317400,6.0843173828125,0.5646075010299683,-0.4109070599079132,0.26392269134521484
1772534457750334200,6.094334228515625,0.5672152638435364,-0.2996455132961273,0.26181429624557495
1772534457760350500,6.1043505859375,0.5538823008537292,-0.1343211680650711,0.2457793653011322
1772534457770367500,6.114367431640625,0.5120115876197815,0.03639065474271774,0.2133183628320694
1772534457780383200,6.12438330078125,0.44536978006362915,0.20371697843074799,0.17589619755744934
1772534457790400300,6.134400146484375,0.36603155732154846,0.3305577337741852,0.1438290774822235
1772534457800416300,6.144416259765625,0.2913239002227783,0.3992220163345337,0.11534411460161209
1772534457810433300,6.154433349609375,0.22633053362369537,0.40528738498687744,0.08912289887666702
1772534457820449300,6.16444921875,0.18531303107738495,0.38397350907325745,0.06019403785467148
1772534457830466300,6.17446630859375,0.1810581088066101,0.35047465562820435,0.02645045518875122
1772534457840482300,6.184482421875,0.1994185596704483,0.3253858983516693,-0.0035394616425037384
1772534457850498600,6.19449853515625,0.22920069098472595,0.2843146324157715,-0.03742578998208046
1772534457860515300,6.204515380859375,0.2664933502674103,0.2073761373758316,-0.06951968371868134
1772534457870531300,6.21453125,0.30091121792793274,0.10087287425994873,-0.0883447676897049
1772534457880548400,6.22454833984375,0.3189435601234436,-0.023700153455138206,-0.08723943680524826
1772534457890564400,6.234564453125,0.3155171275138855,-0.12627153098583221,-0.07009081542491913
1772534457900581400,6.244581298828125,0.2913270592689514,-0.20372183620929718,-0.05239368602633476
1772534457910597400,6.254597412109375,0.23701003193855286,-0.2512699067592621,-0.04304172843694687
1772534457920614100,6.2646142578125,0.15382008254528046,-0.25096940994262695,-0.04880080744624138
1772534457930630400,6.27463037109375,0.04057049751281738,-0.20600275695323944,-0.06642001122236252
1772534457940647400,6.2846474609375,-0.09688974916934967,-0.121546670794487,-0.10259492695331573
1772534457950663400,6.294663330078125,-0.22743870317935944,-0.013027123175561428,-0.17042404413223267
1772534457960680200,6.30468017578125,-0.3231748640537262,0.09272190183401108,-0.25303781032562256
1772534457970696400,6.314696533203125,-0.38006049394607544,0.1814829260110855,-0.3209867477416992
1772534457980712400,6.32471240234375,-0.40426307916641235,0.2608923316001892,-0.35932448506355286
1772534457990729200,6.334729248046875,-0.39818334579467773,0.3097565174102783,-0.37546271085739136
1772534458000745200,6.3447451171875,-0.3747846484184265,0.33399397134780884,-0.3870232403278351
1772534458010762500,6.354762451171875,-0.3422245979309082,0.3245099186897278,-0.4058810770511627
1772534458020778500,6.364778564453125,-0.30509185791015625,0.29167240858078003,-0.42485007643699646
1772534458030795300,6.374795166015625,-0.27214404940605164,0.22836796939373016,-0.4271388053894043
1772534458040811300,6.384811279296875,-0.2416774481534958,0.13394282758235931,-0.3978267014026642
1772534458050828500,6.39482861328125,-0.21162714064121246,0.02900310978293419,-0.3411266803741455
1772534458060844500,6.404844482421875,-0.17557919025421143,-0.07747723907232285,-0.2677297294139862
1772534458070861300,6.414861328125,-0.14665564894676208,-0.1771412491798401,-0.19045542180538177
1772534458080877300,6.424877197265625,-0.12194297462701797,-0.2455303817987442,-0.11830440163612366
1772534458090894300,6.434894287109375,-0.11476442962884903,-0.2742355465888977,-0.07878655195236206
1772534458100910300,6.444910400390625,-0.12060706317424774,-0.248226597905159,-0.0836864784359932
1772534458110926300,6.45492626953125,-0.13265307247638702,-0.18741384148597717,-0.12662675976753235
1772534458120943400,6.464943359375,-0.1424480825662613,-0.11313760280609131,-0.17927280068397522
1772534458130959400,6.47495947265625,-0.1467381715774536,-0.032297879457473755,-0.21288269758224487
1772534458140976400,6.484976318359375,-0.15496110916137695,0.02747265063226223,-0.21401281654834747
1772534458150992400,6.494992431640625,-0.16464702785015106,0.05581028014421463,-0.1777815818786621
1772534458161009400,6.505009521484375,-0.18324679136276245,0.1011275127530098,-0.11618557572364807
1772534458171025200,6.515025146484375,-0.21419697999954224,0.12658226490020752,-0.07797880470752716
1772534458181042400,6.52504248046875,-0.2486516684293747,0.1133086085319519,-0.08245391398668289
1772534458191058400,6.535058349609375,-0.2820599675178528,0.08007875084877014,-0.11246241629123688
1772534458201075200,6.5450751953125,-0.3117319941520691,0.02019677311182022,-0.1324954628944397
1772534458211091200,6.55509130859375,-0.3375691771507263,-0.07685334235429764,-0.1167692318558693
1772534458221108500,6.5651083984375,-0.34265708923339844,-0.20537112653255463,-0.06640634685754776
1772534458231124500,6.57512451171875,-0.33328917622566223,-0.32993462681770325,0.01426426600664854
1772534458241140500,6.585140380859375,-0.33748650550842285,-0.40229806303977966,0.09866198897361755
1772534458251157200,6.5951572265625,-0.3634161055088043,-0.4148221015930176,0.14119507372379303
1772534458261173200,6.60517333984375,-0.4080559015274048,-0.3812618553638458,0.11422882229089737
1772534458271190500,6.6151904296875,-0.470472127199173,-0.33343416452407837,0.023402513936161995
1772534458281206300,6.625206298828125,-0.5590079426765442,-0.28096622228622437,-0.08971031755208969
1772534458291223300,6.635223388671875,-0.6650112867355347,-0.20373667776584625,-0.18513110280036926
1772534458301239300,6.6452392578125,-0.7668176293373108,-0.12885238230228424,-0.2300233244895935
1772534458311256300,6.65525634765625,-0.8517938256263733,-0.06391040235757828,-0.22816896438598633
1772534458321272300,6.665272216796875,-0.9040167331695557,-0.007583295460790396,-0.1988760232925415
1772534458331289300,6.675289306640625,-0.9225720167160034,0.05120944604277611,-0.17502768337726593
1772534458341305300,6.685305419921875,-0.9200799465179443,0.0976957231760025,-0.17133232951164246
1772534458351322400,6.695322265625,-0.9113231897354126,0.1330409198999405,-0.185099795460701
1772534458361338400,6.70533837890625,-0.9057816863059998,0.10978975892066956,-0.22895663976669312
1772534458371354400,6.715354248046875,-0.9049007296562195,-0.00048215873539447784,-0.3052293062210083
1772534458381371100,6.72537109375,-0.9123533964157104,-0.12218780070543289,-0.38076919317245483
1772534458391387400,6.735387451171875,-0.9410236477851868,-0.20484299957752228,-0.43433094024658203
1772534458401404400,6.745404296875,-0.9828084707260132,-0.26820096373558044,-0.46546050906181335
1772534458411420400,6.75542041015625,-1.0122578144073486,-0.28050291538238525,-0.44829750061035156
1772534458421437200,6.765437255859375,-1.0252398252487183,-0.23196537792682648,-0.38892292976379395
1772534458431453400,6.775453369140625,-1.0152907371520996,-0.13764579594135284,-0.32053056359291077
1772534458441470500,6.785470458984375,-0.9844098091125488,-0.031135452911257744,-0.2524925470352173
1772534458451486500,6.795486572265625,-0.9361506700515747,0.0693432167172432,-0.19100762903690338
1772534458461503200,6.805503173828125,-0.8770113587379456,0.13281208276748657,-0.13826598227024078
1772534458471519200,6.815519287109375,-0.8054921627044678,0.1788347065448761,-0.09041911363601685
1772534458481536500,6.82553662109375,-0.7420435547828674,0.18274010717868805,-0.0615985207259655
1772534458491552300,6.83555224609375,-0.6881353259086609,0.10187268257141113,-0.04564272239804268
1772534458501568300,6.845568359375,-0.6294578313827515,-0.02768213115632534,-0.033125050365924835
1772534458511585300,6.855585205078125,-0.577032208442688,-0.16676466166973114,-0.020023364573717117
1772534458521601500,6.8656015625,-0.5252485871315002,-0.28338176012039185,-0.021400567144155502
1772534458531618300,6.875618408203125,-0.4866447448730469,-0.36779361963272095,-0.025091975927352905
1772534458541634600,6.885634521484375,-0.4745517075061798,-0.40808501839637756,-0.019732672721147537
1772534458551651600,6.895651611328125,-0.49051734805107117,-0.4022894501686096,0.0010471760760992765
1772534458561667300,6.905667236328125,-0.5350951552391052,-0.34088966250419617,0.011259717866778374
1772534458571684400,6.915684326171875,-0.6050707697868347,-0.2478952705860138,-0.024716924875974655
1772534458581700600,6.92570068359375,-0.6940316557884216,-0.141365185379982,-0.1138124018907547
1772534458591717400,6.93571728515625,-0.8039621710777283,-0.022233465686440468,-0.22571471333503723
1772534458601733400,6.9457333984375,-0.9079304337501526,0.09996996074914932,-0.341961532831192
1772534458611750400,6.95575048828125,-0.9878652095794678,0.194785937666893,-0.43526726961135864
1772534458621766700,6.9657666015625,-1.028056263923645,0.26189613342285156,-0.4880087673664093
1772534458631782700,6.97578271484375,-1.0197727680206299,0.3017849624156952,-0.4883693754673004
1772534458641799400,6.98579931640625,-0.9763877391815186,0.30194827914237976,-0.4506526589393616
1772534458651815400,6.9958154296875,-0.9028559923171997,0.2542364299297333,-0.39309775829315186
1772534458661832400,7.00583251953125,-0.8112954497337341,0.15153029561042786,-0.3179774284362793
1772534458671848400,7.015848388671875,-0.7127284407615662,0.04252764582633972,-0.21476982533931732
1772534458681865500,7.025865478515625,-0.6132687330245972,-0.04525350406765938,-0.09118212014436722
1772534458691881500,7.035881591796875,-0.533930242061615,-0.11548132449388504,0.03526103496551514
1772534458701898500,7.0458984375,-0.4722820520401001,-0.14207205176353455,0.1437247395515442
1772534458711914500,7.05591455078125,-0.43667903542518616,-0.14968229830265045,0.20799081027507782
1772534458721931500,7.065931640625,-0.43574321269989014,-0.14112982153892517,0.21567723155021667
1772534458731947500,7.075947509765625,-0.45925599336624146,-0.1445019245147705,0.16708971560001373
1772534458741963300,7.08596337890625,-0.4882490634918213,-0.15425799787044525,0.08703633397817612
1772534458751980500,7.09598046875,-0.5078576803207397,-0.19000454246997833,0.01566947251558304
1772534458761996500,7.10599658203125,-0.5133107304573059,-0.2667229175567627,-0.0027946587651968002
1772534458772013300,7.116013427734375,-0.5103881359100342,-0.35184019804000854,0.030229870229959488
1772534458782029300,7.126029296875,-0.5066334009170532,-0.38248565793037415,0.07957591861486435
1772534458792046600,7.136046630859375,-0.5165877342224121,-0.35555869340896606,0.09898237138986588
1772534458802062600,7.1460625,-0.5348405838012695,-0.2963554859161377,0.07778255641460419
1772534458812079400,7.156079345703125,-0.5652386546134949,-0.18743032217025757,0.023178696632385254
1772534458822095400,7.166095458984375,-0.6120505332946777,-0.09249764680862427,-0.04116411507129669
1772534458832112600,7.176112548828125,-0.6585115194320679,-0.05179682374000549,-0.10242613404989243
1772534458842128600,7.186128662109375,-0.6771202683448792,-0.08407051116228104,-0.1464221477508545
1772534458852145400,7.1961455078125,-0.64725661277771,-0.15907150506973267,-0.16179656982421875
1772534458862161400,7.206161376953125,-0.5605205297470093,-0.24946820735931396,-0.13811306655406952
1772534458872177400,7.216177490234375,-0.45485299825668335,-0.3224971294403076,-0.07167651504278183
1772534458882194400,7.2261943359375,-0.3607814311981201,-0.34864500164985657,0.019164850935339928
1772534458892210400,7.23621044921875,-0.2919198274612427,-0.3251601755619049,0.09771372377872467
1772534458902227500,7.2462275390625,-0.24103455245494843,-0.2744477689266205,0.1514706015586853
1772534458912243500,7.256243408203125,-0.1891002506017685,-0.20212404429912567,0.18669649958610535
1772534458922260500,7.266260498046875,-0.11613505333662033,-0.09309790283441544,0.22652889788150787
1772534458932276500,7.2762763671875,-0.04109383374452591,0.04518113657832146,0.2714838683605194
1772534458942293500,7.28629345703125,0.030362527817487717,0.16077958047389984,0.3183366358280182
1772534458952309200,7.296309326171875,0.08630542457103729,0.2397010326385498,0.3541865050792694
1772534458962326500,7.306326416015625,0.11962871253490448,0.2842637300491333,0.3715447783470154
1772534458972342500,7.316342529296875,0.11850432306528091,0.28837886452674866,0.3493177592754364
1772534458982359300,7.326359375,0.092966228723526,0.24173155426979065,0.2713702619075775
1772534458992375300,7.336375244140625,0.07637553662061691,0.14267368614673615,0.15967169404029846
1772534459002391600,7.3463916015625,0.060914576053619385,-0.005143348127603531,0.05408978462219238
1772534459012408600,7.35640869140625,0.03505874425172806,-0.17526154220104218,-0.0480797216296196
1772534459022424600,7.366424560546875,0.0027251618448644876,-0.35712623596191406,-0.15275053679943085
1772534459032441300,7.37644140625,-0.014889517799019814,-0.53054279088974,-0.23656846582889557
1772534459042457600,7.38645751953125,-0.006284406408667564,-0.6602818965911865,-0.24306713044643402
1772534459052474600,7.396474609375,0.022182121872901917,-0.7315384745597839,-0.14450514316558838
1772534459062490400,7.406490478515625,0.056334238499403,-0.7522386908531189,0.0012847324833273888
1772534459072507400,7.41650732421875,0.0845903754234314,-0.7256544828414917,0.10980188846588135
1772534459082523600,7.426523681640625,0.08982699364423752,-0.6350138783454895,0.12482772022485733
1772534459092540400,7.43654052734375,0.07060163468122482,-0.43795356154441833,0.062042903155088425
1772534459102556400,7.446556396484375,0.020684581249952316,-0.17118188738822937,-0.03403883054852486
1772534459112572400,7.456572509765625,-0.06521540880203247,0.1072492003440857,-0.12158998847007751
1772534459122589700,7.466589599609375,-0.15115883946418762,0.3646416664123535,-0.17161943018436432
1772534459132605400,7.47660546875,-0.2161996215581894,0.5558813810348511,-0.17272037267684937
1772534459142622500,7.48662255859375,-0.25033047795295715,0.6680300831794739,-0.1400722712278366
1772534459152638500,7.496638427734375,-0.24372585117816925,0.6884596943855286,-0.08256370574235916
1772534459162655500,7.506655517578125,-0.20343586802482605,0.6354949474334717,-0.009026509709656239
1772534459172671500,7.51667138671875,-0.13192519545555115,0.522196888923645,0.06342638283967972
1772534459182688500,7.5266884765625,-0.03793283551931381,0.377653568983078,0.12176365405321121
1772534459192704500,7.53670458984375,0.06555972993373871,0.22187966108322144,0.16961932182312012
1772534459202721300,7.54672119140625,0.16117331385612488,0.06024229899048805,0.2052418738603592
1772534459212737500,7.556737548828125,0.2258569747209549,-0.09463515877723694,0.22206425666809082
1772534459222754600,7.566754638671875,0.2506358027458191,-0.24863746762275696,0.2044154703617096
1772534459232770600,7.5767705078125,0.23839803040027618,-0.39970338344573975,0.15451554954051971
1772534459242786300,7.586786376953125,0.18771979212760925,-0.513970136642456,0.08517992496490479
1772534459252803600,7.596803466796875,0.12312667071819305,-0.5501704812049866,0.013108661398291588
1772534459262819600,7.606819580078125,0.0543447807431221,-0.5256893038749695,-0.0541338175535202
1772534459272836400,7.61683642578125,-0.009795060381293297,-0.4577381908893585,-0.11281897127628326
1772534459282852400,7.626852294921875,-0.06942783296108246,-0.3712608218193054,-0.16745151579380035
1772534459292869600,7.63686962890625,-0.12708847224712372,-0.27696388959884644,-0.2107393443584442
1772534459302885600,7.6468857421875,-0.1926451027393341,-0.17236797511577606,-0.2577667832374573
1772534459312902400,7.65690234375,-0.24533787369728088,-0.06573262065649033,-0.315767765045166
1772534459322918400,7.66691845703125,-0.25888165831565857,0.03969709575176239,-0.37194573879241943
1772534459332935700,7.676935791015625,-0.24762685596942902,0.10893554985523224,-0.4114318788051605
1772534459342951400,7.686951416015625,-0.22807353734970093,0.1345532089471817,-0.4168189764022827
1772534459352968400,7.696968505859375,-0.2151646763086319,0.13521341979503632,-0.3903506100177765
1772534459362984400,7.706984375,-0.21407999098300934,0.12018679827451706,-0.3526018261909485
1772534459373000400,7.71700048828125,-0.21945399045944214,0.09700611233711243,-0.3256396949291229
1772534459383017500,7.727017578125,-0.21874190866947174,0.09044649451971054,-0.31530675292015076
1772534459393033500,7.737033447265625,-0.20436324179172516,0.07162833213806152,-0.3086336851119995
1772534459403050500,7.747050537109375,-0.1726008504629135,0.06289634108543396,-0.2825210392475128
1772534459413066500,7.75706640625,-0.14045409858226776,0.0521390326321125,-0.23692959547042847
1772534459423083500,7.76708349609375,-0.12989084422588348,0.028001882135868073,-0.1858694702386856
1772534459433099500,7.777099609375,-0.13311219215393066,0.023430567234754562,-0.13865135610103607
1772534459443116500,7.787116455078125,-0.137571781873703,0.037954382598400116,-0.10227342694997787
1772534459453132300,7.79713232421875,-0.13371314108371735,0.04832926020026207,-0.07614649087190628
1772534459463149600,7.807149658203125,-0.13166013360023499,0.05395514890551567,-0.06322385370731354
1772534459473165600,7.81716552734375,-0.14372478425502777,0.06532071530818939,-0.06766653805971146
1772534459483181600,7.827181640625,-0.17107632756233215,0.08773644268512726,-0.07333262264728546
1772534459493198300,7.8371982421875,-0.2169082760810852,0.11812497675418854,-0.06965372711420059
1772534459503214300,7.84721435546875,-0.2699313163757324,0.15127818286418915,-0.0635872483253479
1772534459513231600,7.857231689453125,-0.3213005065917969,0.16666966676712036,-0.06813832372426987
1772534459523247400,7.867247314453125,-0.3393537998199463,0.18453334271907806,-0.0691404715180397
1772534459533264600,7.8772646484375,-0.325857549905777,0.21404258906841278,-0.05194278806447983
1772534459543280600,7.88728076171875,-0.29653501510620117,0.23069794476032257,-0.02517339028418064
1772534459553297400,7.89729736328125,-0.25598520040512085,0.1937231570482254,0.020492631942033768
1772534459563313400,7.9073134765625,-0.21536695957183838,0.11417905241250992,0.10222700238227844
1772534459573330700,7.91733056640625,-0.19451786577701569,0.021140990778803825,0.20339542627334595
1772534459583346700,7.9273466796875,-0.19135671854019165,-0.0663733184337616,0.28287896513938904
1772534459593363500,7.937363525390625,-0.18937797844409943,-0.14890865981578827,0.319267600774765
1772534459603379500,7.94737939453125,-0.19792331755161285,-0.2313094288110733,0.31729552149772644
1772534459613395700,7.957395751953125,-0.21738463640213013,-0.29436829686164856,0.29619741439819336
1772534459623412700,7.967412841796875,-0.2509513199329376,-0.29466524720191956,0.2694026827812195
1772534459633428500,7.977428466796875,-0.30573469400405884,-0.30626970529556274,0.24404191970825195
1772534459643445500,7.987445556640625,-0.3737542927265167,-0.30307021737098694,0.21458448469638824
1772534459653461800,7.997461669921875,-0.44658082723617554,-0.2752455174922943,0.17732979357242584
1772534459663478500,8.007478515625,-0.5078542828559875,-0.23067441582679749,0.12489376962184906
1772534459673494500,8.01749462890625,-0.5474645495414734,-0.178035169839859,0.06166952848434448
1772534459683511600,8.027511474609375,-0.5752531290054321,-0.1551613211631775,0.002013424877077341
1772534459693527800,8.03752783203125,-0.599550724029541,-0.20224520564079285,-0.040396615862846375
1772534459703544600,8.047544677734376,-0.617500901222229,-0.28448429703712463,-0.052656177431344986
1772534459713560600,8.057560546875,-0.6191704273223877,-0.37918180227279663,-0.04450077936053276
1772534459723576600,8.06757666015625,-0.6104936003684998,-0.4727444350719452,-0.025673288851976395
1772534459733593600,8.077593505859374,-0.601898729801178,-0.5339204668998718,0.0018017441034317017
1772534459743609600,8.087609619140625,-0.6029407382011414,-0.5327535271644592,0.036780714988708496
1772534459753626600,8.097626708984375,-0.6224148273468018,-0.48030173778533936,0.06076940521597862
1772534459763642600,8.107642578125,-0.6621977686882019,-0.3720698058605194,0.06811492145061493
1772534459773659600,8.11765966796875,-0.7020418643951416,-0.20288583636283875,0.07732279598712921
1772534459783675600,8.127675537109376,-0.7402723431587219,-0.0065669110044837,0.0969933271408081
1772534459793692700,8.137692626953125,-0.7748340964317322,0.17398209869861603,0.11666795611381531
1772534459803708700,8.147708740234375,-0.805081307888031,0.3190918564796448,0.14067569375038147
1772534459813725700,8.1577255859375,-0.815313458442688,0.4275946021080017,0.17983880639076233
1772534459823741700,8.16774169921875,-0.802994966506958,0.47766202688217163,0.22565369307994843
1772534459833757700,8.1777578125,-0.7785407900810242,0.461184024810791,0.25609976053237915
1772534459843774500,8.1877744140625,-0.7514251470565796,0.3816869258880615,0.28132134675979614
1772534459853790500,8.19779052734375,-0.7328420877456665,0.27475565671920776,0.3000950515270233
1772534459863807700,8.207807861328124,-0.7253928780555725,0.17328161001205444,0.2981014549732208
1772534459873823700,8.21782373046875,-0.7152784466743469,0.04813247174024582,0.2665104866027832
1772534459883840500,8.227840576171875,-0.7228671312332153,0.009638977237045765,0.19851136207580566
1772534459893856500,8.2378564453125,-0.7474750280380249,0.023862387984991074,0.0704902783036232
1772534459903873800,8.247873779296874,-0.7216450572013855,-0.10944423079490662,-0.08609302341938019
1772534459913889500,8.2578896484375,-0.6924861073493958,-0.27094152569770813,-0.17783333361148834
1772534459923906600,8.267906494140625,-0.7026379108428955,-0.3301542103290558,-0.19883088767528534
1772534459933922600,8.277922607421875,-0.7557317614555359,-0.35633307695388794,-0.18600404262542725
1772534459943939600,8.287939697265625,-0.8191897869110107,-0.3765934109687805,-0.17685800790786743
1772534459953955600,8.29795556640625,-0.8568053245544434,-0.37041833996772766,-0.1755397468805313
1772534459963971600,8.3079716796875,-0.8803358674049377,-0.3306155800819397,-0.17004640400409698
1772534459973988600,8.317988525390625,-0.9337301254272461,-0.23655833303928375,-0.15406477451324463
1772534459984004600,8.328004638671874,-0.9867845177650452,-0.1374550759792328,-0.13346858322620392
1772534459994021600,8.338021728515624,-1.0204005241394043,-0.03935273736715317,-0.11140590161085129
1772534460004037600,8.34803759765625,-1.0575426816940308,0.07535522431135178,-0.11392180621623993
1772534460014054700,8.3580546875,-1.0926191806793213,0.1673746258020401,-0.14032518863677979
1772534460024070400,8.3680703125,-1.1302833557128906,0.2220631092786789,-0.18838316202163696
1772534460034087700,8.378087646484374,-1.1552729606628418,0.18802523612976074,-0.2883835434913635
1772534460044103700,8.388103759765626,-1.1543948650360107,0.15683911740779877,-0.41926857829093933
1772534460054120400,8.398120361328125,-1.1479947566986084,0.19236968457698822,-0.5264312624931335
1772534460064136400,8.408136474609375,-1.1442183256149292,0.19297325611114502,-0.6239783763885498
1772534460074152700,8.418152587890624,-1.1204419136047363,0.11382731050252914,-0.7377827167510986
1772534460084169700,8.428169677734376,-1.0763494968414307,0.037974826991558075,-0.8416900038719177
1772534460094185500,8.438185546875,-1.0202656984329224,-0.07486330717802048,-0.8993560075759888
1772534460104202500,8.448202392578125,-0.9675573706626892,-0.21541231870651245,-0.913092315196991
1772534460114218800,8.45821875,-0.9293782711029053,-0.33283376693725586,-0.8613287210464478
1772534460124235500,8.468235595703124,-0.8873130083084106,-0.3648027777671814,-0.7492697834968567
1772534460134251500,8.47825146484375,-0.8434094190597534,-0.28827738761901855,-0.5977692008018494
1772534460144268500,8.4882685546875,-0.7997581958770752,-0.16181232035160065,-0.4315336048603058
1772534460154284800,8.498284912109375,-0.759493350982666,-0.06756677478551865,-0.2728416919708252
1772534460164301600,8.508301513671874,-0.7243137955665588,-0.02652627043426037,-0.15160535275936127
1772534460174317600,8.518317626953126,-0.680436909198761,-0.06834269315004349,-0.06711869686841965
1772534460184333600,8.52833349609375,-0.6246236562728882,-0.15929356217384338,-0.015031786635518074
1772534460194350600,8.5383505859375,-0.5617067217826843,-0.24893583357334137,0.03145928308367729
1772534460204366600,8.54836669921875,-0.4976022243499756,-0.3022943437099457,0.08302903175354004
1772534460214383600,8.558383544921876,-0.4389581084251404,-0.30577802658081055,0.12131010740995407
1772534460224399600,8.568399658203125,-0.3912559747695923,-0.32918840646743774,0.1387304961681366
1772534460234416400,8.57841650390625,-0.346036821603775,-0.375087171792984,0.139634370803833
1772534460244432600,8.5884326171875,-0.29720187187194824,-0.40180522203445435,0.12161046266555786
1772534460254449700,8.59844970703125,-0.23858515918254852,-0.37421485781669617,0.05544795095920563
1772534460264465700,8.608465576171875,-0.1846950203180313,-0.29752105474472046,-0.0710325688123703
1772534460274482400,8.618482421875,-0.13608939945697784,-0.2138463705778122,-0.21945026516914368
1772534460284498700,8.628498779296875,-0.08518483489751816,-0.13263125717639923,-0.34558355808258057
1772534460294514700,8.6385146484375,-0.03865915164351463,-0.04508117586374283,-0.42210257053375244
1772534460304531500,8.648531494140625,0.00359085900709033,0.03135375678539276,-0.424187034368515
1772534460314547500,8.65854736328125,0.025647692382335663,0.07539498805999756,-0.3397344648838043
1772534460324564700,8.668564697265625,0.03163116052746773,0.1418273150920868,-0.18477937579154968
1772534460334580700,8.678580810546874,0.049660760909318924,0.23722892999649048,-0.010956183075904846
1772534460344597500,8.688597412109376,0.07674239575862885,0.3187108039855957,0.13753642141819
1772534460354613500,8.698613525390625,0.09821679443120956,0.32481610774993896,0.2470935434103012
1772534460364630800,8.708630859375,0.12030422687530518,0.2661556303501129,0.29321467876434326
1772534460374646800,8.718646728515624,0.1408633142709732,0.14622338116168976,0.2864193618297577
1772534460384663600,8.72866357421875,0.15470796823501587,-0.02135034091770649,0.21975857019424438
1772534460394679600,8.738679443359375,0.14692968130111694,-0.21485614776611328,0.09257479012012482
1772534460404695600,8.748695556640625,0.12556539475917816,-0.3648783564567566,-0.10157883912324905
1772534460414712600,8.758712646484375,0.1068793386220932,-0.43820157647132874,-0.327818363904953
1772534460424728600,8.768728515625,0.11143068224191666,-0.45564526319503784,-0.5305385589599609
1772534460434745600,8.77874560546875,0.12635023891925812,-0.4340824484825134,-0.651583194732666
1772534460444761600,8.78876171875,0.14920051395893097,-0.3261343240737915,-0.6715157628059387
1772534460454778600,8.798778564453125,0.17018888890743256,-0.14274239540100098,-0.6025489568710327
1772534460464794600,8.808794677734374,0.18260891735553741,0.058797821402549744,-0.4932560920715332
1772534460474811600,8.818811767578126,0.19298192858695984,0.21843381226062775,-0.3888939917087555
1772534460484827400,8.828827392578125,0.22107231616973877,0.2950032353401184,-0.3192899227142334
1772534460494844700,8.8388447265625,0.28123366832733154,0.2926276922225952,-0.29525887966156006
1772534460504860700,8.848860595703124,0.3878716826438904,0.2431991994380951,-0.2937239408493042
1772534460514876700,8.858876708984376,0.5306780934333801,0.1666700690984726,-0.27314192056655884
1772534460524893400,8.8688935546875,0.6814606785774231,0.10667093098163605,-0.1961294561624527
1772534460534909400,8.878909423828125,0.8214641213417053,0.08968120813369751,-0.060318365693092346
1772534460544926700,8.8889267578125,0.9291370511054993,0.09570927917957306,0.11972597241401672
1772534460554942700,8.898942626953126,0.9970212578773499,0.10077999532222748,0.30725574493408203
1772534460564959500,8.90895947265625,1.0238960981369019,0.08753984421491623,0.47764790058135986
1772534460574975500,8.9189755859375,1.0223349332809448,0.04638601467013359,0.6026992797851562
1772534460584992800,8.92899267578125,1.008298397064209,-0.03352350741624832,0.666411280632019
1772534460595008500,8.939008544921874,0.9917124509811401,-0.14023476839065552,0.6767256855964661
1772534460605025500,8.949025634765626,0.9716417789459229,-0.23795732855796814,0.6626911163330078
1772534460615041500,8.95904150390625,0.9351027607917786,-0.29502224922180176,0.6310009360313416
1772534460625057800,8.969057861328125,0.862700343132019,-0.32454419136047363,0.5862215757369995
1772534460635074600,8.979074462890624,0.7490946650505066,-0.33135896921157837,0.5219573378562927
1772534460645090600,8.989090576171876,0.6119924783706665,-0.3119201958179474,0.4452835023403168
1772534460655107600,8.999107666015625,0.46760255098342896,-0.26657748222351074,0.36190658807754517
1772534460665123600,9.00912353515625,0.33561745285987854,-0.20928031206130981,0.2727399170398712
1772534460675140600,9.019140625,0.22000806033611298,-0.13344624638557434,0.1653711199760437
1772534460685156600,9.029156494140626,0.12460216134786606,-0.05817694216966629,0.05312366038560867
1772534460695173400,9.03917333984375,0.05856162682175636,0.009082254022359848,-0.05283819139003754
1772534460705189600,9.049189697265625,0.01630791276693344,0.049081601202487946,-0.12888741493225098
1772534460715206700,9.05920654296875,-0.006228353828191757,0.05440612882375717,-0.1615498661994934
1772534460725222700,9.06922265625,-0.02310846745967865,0.03496982157230377,-0.1291263848543167
1772534460735238700,9.07923876953125,-0.025135666131973267,0.026782996952533722,-0.04705415293574333
1772534460745255700,9.089255615234375,-0.024626106023788452,-0.035167355090379715,0.0824076384305954
1772534460755271700,9.099271728515625,-0.023370424285531044,-0.12200585007667542,0.24147506058216095
1772534460765288700,9.109288818359374,-0.012682433240115643,-0.16860826313495636,0.4081035256385803
1772534460775304400,9.119304443359376,0.004236096050590277,-0.17711706459522247,0.5239185690879822
1772534460785321700,9.12932177734375,0.044916730374097824,-0.18483416736125946,0.5579027533531189
1772534460795337700,9.139337646484375,0.11057377606630325,-0.20312821865081787,0.5210092067718506
1772534460805354500,9.1493544921875,0.18051370978355408,-0.2177332192659378,0.4312547445297241
1772534460815370500,9.15937060546875,0.2361050695180893,-0.23060160875320435,0.3154980540275574
1772534460825387800,9.1693876953125,0.26529282331466675,-0.23710723221302032,0.2000115066766739
1772534460835403800,9.17940380859375,0.2538284659385681,-0.19756782054901123,0.08412645757198334
1772534460845419500,9.18941943359375,0.2087678164243698,-0.10197481513023376,-0.04703439027070999
1772534460855436500,9.1994365234375,0.14464794099330902,0.012674001976847649,-0.20150093734264374
1772534460865452500,9.20945263671875,0.08185639977455139,0.11771145462989807,-0.35142672061920166
1772534460875469600,9.219469482421875,0.030057117342948914,0.20331157743930817,-0.46609389781951904
1772534460885485600,9.229485595703125,-0.01007095631211996,0.28295040130615234,-0.5106075406074524
1772534460895502600,9.239502685546874,-0.03782695531845093,0.37792909145355225,-0.4915773570537567
1772534460905518600,9.2495185546875,-0.05522776395082474,0.4712603986263275,-0.43743813037872314
1772534460915535600,9.25953564453125,-0.053955838084220886,0.5010933876037598,-0.3750978112220764
1772534460925551600,9.269551513671875,-0.030778951942920685,0.45045918226242065,-0.3059185743331909
1772534460935568600,9.279568603515624,-0.003904995508491993,0.3906709551811218,-0.23972517251968384
1772534460945584600,9.289584716796876,0.029091017320752144,0.3109169602394104,-0.17736630141735077
1772534460955600400,9.299600341796875,0.06345431506633759,0.20731468498706818,-0.12811006605625153
1772534460965617700,9.30961767578125,0.09610334038734436,0.07381732761859894,-0.09499870985746384
1772534460977511700,9.32151171875,0.13878822326660156,-0.1337273269891739,-0.05465927720069885
1772534460987528400,9.331528564453125,0.18834751844406128,-0.3113101124763489,-0.00140830734744668
1772534460997544400,9.34154443359375,0.23844210803508759,-0.43982335925102234,0.07529233396053314
1772534461007561700,9.351561767578126,0.27642348408699036,-0.49989184737205505,0.1534591019153595
1772534461017577700,9.36157763671875,0.29205143451690674,-0.5304260849952698,0.20740409195423126
1772534461027594500,9.371594482421875,0.30275946855545044,-0.5508304238319397,0.23701630532741547
1772534461037610500,9.381610595703124,0.31662675738334656,-0.5808958411216736,0.24400824308395386
1772534461047626500,9.39162646484375,0.3417172133922577,-0.6169441342353821,0.24704290926456451
1772534461057643800,9.401643798828125,0.37716004252433777,-0.6348408460617065,0.27999061346054077
1772534461067659500,9.411659423828125,0.40068376064300537,-0.6087785363197327,0.34208452701568604
1772534461077676500,9.421676513671875,0.38671573996543884,-0.545393168926239,0.4121677279472351
1772534461087692500,9.431692626953126,0.3354732394218445,-0.4719962179660797,0.4635690450668335
1772534461097709600,9.44170947265625,0.24614736437797546,-0.43005913496017456,0.4718562662601471
1772534461107725600,9.4517255859375,0.13222183287143707,-0.4467921853065491,0.4180394411087036
1772534461117742600,9.46174267578125,0.0053144823759794235,-0.5121253728866577,0.29431429505348206
1772534461127758600,9.471758544921874,-0.1280268430709839,-0.5847912430763245,0.12577693164348602
1772534461137774600,9.481774658203125,-0.2586386501789093,-0.652737021446228,-0.050092361867427826
1772534461147791600,9.49179150390625,-0.3757949471473694,-0.694743275642395,-0.18418629467487335
1772534461157807600,9.5018076171875,-0.4875885844230652,-0.6846413612365723,-0.2705206573009491
1772534461167824400,9.511824462890624,-0.6154773235321045,-0.6198195219039917,-0.31372812390327454
1772534461177840600,9.521840576171876,-0.7604268193244934,-0.5126259922981262,-0.3387323021888733
1772534461187857700,9.531857666015625,-0.912452757358551,-0.4018385112285614,-0.3745671212673187
1772534461197873700,9.541873779296875,-1.0565638542175293,-0.28650739789009094,-0.43057259917259216
1772534461207890400,9.551890380859374,-1.1767127513885498,-0.15390686690807343,-0.4876270294189453
1772534461217906700,9.56190673828125,-1.268934726715088,-0.0445963516831398,-0.5446591973304749
1772534461227923700,9.571923828125,-1.3422973155975342,0.04878554865717888,-0.5865952372550964
1772534461237939700,9.581939697265625,-1.3835954666137695,0.16890555620193481,-0.5992534756660461
1772534461247955500,9.59195556640625,-1.3996984958648682,0.3133604824542999,-0.5838308334350586
1772534461257972700,9.60197265625,-1.3909803628921509,0.45088690519332886,-0.5461226105690002
1772534461267988700,9.61198876953125,-1.3516621589660645,0.551827609539032,-0.48683086037635803
1772534461278005500,9.622005615234375,-1.2839150428771973,0.6471176743507385,-0.40041181445121765
1772534461288021500,9.632021484375,-1.1971769332885742,0.6956457495689392,-0.2700877785682678
1772534461298038500,9.64203857421875,-1.0971111059188843,0.7124308347702026,-0.10403596609830856
1772534461308054800,9.6520546875,-0.9761599898338318,0.7576796412467957,0.08296991884708405
1772534461318071600,9.662071533203125,-0.8443015813827515,0.8032002449035645,0.26753950119018555
1772534461328087600,9.672087646484375,-0.7166229486465454,0.7971192002296448,0.42318210005760193
1772534461338103600,9.682103515625,-0.6204855442047119,0.7208375930786133,0.5198823809623718
1772534461348120600,9.69212060546875,-0.5743809342384338,0.5968130826950073,0.5362227559089661
1772534461358136600,9.702136474609375,-0.5656201839447021,0.45143434405326843,0.4747016429901123
1772534461368153600,9.712153564453125,-0.5825674533843994,0.3210963308811188,0.34887951612472534
1772534461378169600,9.722169677734374,-0.6171330213546753,0.22220897674560547,0.18802838027477264
1772534461388186600,9.7321865234375,-0.6658126711845398,0.1624942570924759,0.02913433499634266
1772534461398202600,9.74220263671875,-0.7208340167999268,0.1273532211780548,-0.10008441656827927
1772534461408219600,9.7522197265625,-0.7862215042114258,0.10599653422832489,-0.19519709050655365
1772534461418235600,9.762235595703125,-0.8575668334960938,0.06107066571712494,-0.24666179716587067
1772534461428252700,9.772252685546874,-0.9212954640388489,0.010181384161114693,-0.2555373013019562
1772534461438268700,9.7822685546875,-0.9699715375900269,-0.00367216719314456,-0.24040552973747253
1772534461448284700,9.79228466796875,-0.9935024380683899,-0.00426072534173727,-0.21278002858161926
1772534461458301400,9.802301513671875,-0.993019700050354,-0.009066140279173851,-0.18285547196865082
1772534461468317400,9.8123173828125,-0.9741424322128296,-0.01603083871304989,-0.16443757712841034
1772534461478334700,9.822334716796876,-0.9402631521224976,-0.015861375257372856,-0.1579364836215973
1772534461488350700,9.832350830078125,-0.9064071774482727,-0.004205518867820501,-0.14965644478797913
1772534461498367500,9.842367431640625,-0.8900488615036011,0.01702011376619339,-0.14202594757080078
1772534461508383500,9.852383544921874,-0.8875740170478821,0.03504211828112602,-0.13609835505485535
1772534461518400800,9.86240087890625,-0.8946065902709961,0.03798091784119606,-0.13461923599243164
1772534461528416800,9.872416748046875,-0.9006273746490479,0.02106333337724209,-0.1373073160648346
1772534461538434000,9.88243408203125,-0.8968954682350159,-0.009844515472650528,-0.1464637815952301
1772534461548450000,9.892449951171875,-0.8818674683570862,-0.012929768301546574,-0.14746414124965668
1772534461558466000,9.902466064453124,-0.8570228219032288,0.0130919786170125,-0.13491025567054749
1772534461568482800,9.91248291015625,-0.8248883485794067,0.042093802243471146,-0.11374345421791077
1772534461578499000,9.9224990234375,-0.7950570583343506,0.06236065551638603,-0.09258582442998886
1772534461588516000,9.93251611328125,-0.7715423703193665,0.07021778076887131,-0.08377981930971146
1772534461598531800,9.94253173828125,-0.7536097168922424,0.051854223012924194,-0.08196433633565903
1772534461608548900,9.952548828125,-0.7292584776878357,0.02702169120311737,-0.07847157120704651
1772534461618565000,9.962565185546875,-0.6936014294624329,-0.01824352517724037,-0.06354615092277527
1772534461628582000,9.972581787109375,-0.6601611375808716,-0.11173246800899506,-0.044576190412044525
1772534461638598000,9.982597900390624,-0.6277443766593933,-0.21274016797542572,-0.009042972698807716
1772534461648614000,9.99261376953125,-0.6127113699913025,-0.30489593744277954,0.03983242064714432
1772534461658631200,10.002631103515625,-0.6136554479598999,-0.3525404632091522,0.08197261393070221
1772534461668647200,10.012647216796875,-0.6318618655204773,-0.3926151990890503,0.09948822110891342
1772534461678664000,10.022663818359375,-0.664741575717926,-0.44236087799072266,0.07642017304897308
1772534461688680000,10.032679931640626,-0.6862146258354187,-0.44469860196113586,0.026052871719002724
1772534461698697200,10.042697265625,-0.6776652932167053,-0.4232824742794037,-0.032164353877305984
1772534461708713000,10.052712890625,-0.6420788764953613,-0.4262106716632843,-0.07477547228336334
1772534461718730000,10.06272998046875,-0.5940485000610352,-0.4707299470901489,-0.10080360621213913
1772534461728746000,10.07274609375,-0.5620005130767822,-0.4857645332813263,-0.1229453906416893
1772534461738762800,10.0827626953125,-0.5617743134498596,-0.4426422715187073,-0.15983796119689941
1772534461748779000,10.092779052734375,-0.6064366102218628,-0.37884199619293213,-0.21354460716247559
1772534461758795000,10.102794921875,-0.6673426032066345,-0.28199437260627747,-0.2674107551574707
1772534461768812000,10.11281201171875,-0.7218971848487854,-0.13533061742782593,-0.27994439005851746
1772534461778828000,10.122828125,-0.7399235367774963,0.024177299812436104,-0.2412189096212387
1772534461788845000,10.132844970703125,-0.7151992917060852,0.14090391993522644,-0.16610151529312134
1772534461798861000,10.142861083984375,-0.6564621329307556,0.2028384655714035,-0.08068221807479858
1772534461808877800,10.1528779296875,-0.5856249928474426,0.21824964880943298,-0.000761022325605154
1772534461818893800,10.162893798828126,-0.528964638710022,0.1689382940530777,0.0678236335515976
1772534461828911000,10.1729111328125,-0.4976714551448822,0.07138990610837936,0.10544930398464203
1772534461838927000,10.182927001953125,-0.4806894063949585,-0.012079998850822449,0.08504456281661987
1772534461848943900,10.19294384765625,-0.4591417908668518,-0.0517864003777504,0.006187827326357365
1772534461858960000,10.2029599609375,-0.41586995124816895,-0.04790886864066124,-0.10011153668165207
1772534461868975900,10.212975830078125,-0.32728680968284607,-0.011957794427871704,-0.21442373096942902
1772534461878993200,10.2229931640625,-0.21257537603378296,0.009242724627256393,-0.32520031929016113
1772534461889009000,10.2330087890625,-0.10249441862106323,-0.03771412745118141,-0.4150660037994385
1772534461899026000,10.24302587890625,-0.017651576548814774,-0.12823639810085297,-0.48458629846572876
1772534461909042000,10.2530419921875,0.03519999608397484,-0.2319033294916153,-0.5266302824020386
1772534461919059000,10.263058837890625,0.06716778874397278,-0.31307753920555115,-0.5301792025566101
1772534461929075000,10.273074951171875,0.08563254773616791,-0.34533560276031494,-0.47182348370552063
1772534461939092000,10.283092041015625,0.08696411550045013,-0.286279559135437,-0.342140257358551
1772534461949108000,10.29310791015625,0.06591901928186417,-0.11341241747140884,-0.16395986080169678
1772534461959124000,10.3031240234375,0.028549600392580032,0.08604554831981659,0.020991720259189606
1772534461969141000,10.31314111328125,-0.006765513215214014,0.21998710930347443,0.1608114093542099
1772534461979157000,10.323156982421875,-0.052666954696178436,0.26841142773628235,0.22443343698978424
1772534461989174000,10.333174072265624,-0.09660937637090683,0.24819721281528473,0.20451165735721588
1772534461999190000,10.34318994140625,-0.1284531205892563,0.21205675601959229,0.11574502289295197
1772534462009207000,10.35320703125,-0.142964169383049,0.22164621949195862,-0.02161000296473503
1772534462019223000,10.36322314453125,-0.13588683307170868,0.26391059160232544,-0.15741737186908722
1772534462029239800,10.37323974609375,-0.10767186433076859,0.30012038350105286,-0.2632964253425598
1772534462039255800,10.383255859375,-0.05889606848359108,0.29558396339416504,-0.32801496982574463
1772534462049273000,10.393273193359375,0.0057741208001971245,0.23923589289188385,-0.3393350839614868
1772534462059289000,10.4032890625,0.08733076602220535,0.1450052559375763,-0.30491507053375244
1772534462069304800,10.413304931640624,0.1731673777103424,0.023971252143383026,-0.2278791218996048
1772534462079321900,10.42332177734375,0.25634080171585083,-0.0938551053404808,-0.12631407380104065
1772534462089338000,10.433338134765625,0.32299333810806274,-0.20348839461803436,-0.010196790099143982
1772534462099355000,10.44335498046875,0.3641127943992615,-0.30525681376457214,0.10931184887886047
1772534462109371000,10.453370849609374,0.3788198232650757,-0.38837140798568726,0.2166907638311386
1772534462119388000,10.463387939453124,0.36511439085006714,-0.4128887355327606,0.2907423675060272
1772534462129404200,10.473404052734375,0.32773905992507935,-0.37814512848854065,0.3098209798336029
1772534462139421000,10.4834208984375,0.2781952917575836,-0.31371572613716125,0.268436998128891
1772534462149437000,10.49343701171875,0.22683970630168915,-0.26906970143318176,0.19358167052268982
1772534462159453000,10.503452880859374,0.18917396664619446,-0.22085796296596527,0.10699240118265152
1772534462169470000,10.513469970703126,0.16473999619483948,-0.15024158358573914,0.02473960816860199
1772534462179486000,10.52348583984375,0.14664117991924286,-0.09512009471654892,-0.05455351248383522
1772534462189503000,10.5335029296875,0.13000494241714478,-0.06570175290107727,-0.12148834764957428
1772534462199519000,10.54351904296875,0.11705949902534485,-0.05902429297566414,-0.15846751630306244
1772534462209536000,10.553535888671876,0.10257843136787415,-0.07568183541297913,-0.14425507187843323
1772534462219552000,10.563552001953125,0.08891801536083221,-0.11890094727277756,-0.08631933480501175
1772534462229569000,10.573569091796875,0.07189375162124634,-0.19498959183692932,0.0008046501316130161
1772534462239585000,10.5835849609375,0.053130365908145905,-0.27530917525291443,0.10593707859516144
1772534462249602000,10.59360205078125,0.038035836070775986,-0.3379981219768524,0.20761097967624664
1772534462259618000,10.6036181640625,0.017805876210331917,-0.3920634984970093,0.2898721992969513
1772534462269634000,10.613634033203125,-0.011857211589813232,-0.4317914843559265,0.33740827441215515
1772534462279650800,10.62365087890625,-0.056356772780418396,-0.4562601149082184,0.33050572872161865
1772534462289666800,10.633666748046876,-0.11801161617040634,-0.4510667026042938,0.2727918326854706
1772534462299684000,10.64368408203125,-0.20441453158855438,-0.4437658190727234,0.17984674870967865
1772534462309700000,10.6537001953125,-0.2975955605506897,-0.4102822542190552,0.05847648158669472
1772534462319716900,10.663716796875,-0.3818502724170685,-0.31822049617767334,-0.08347266167402267
1772534462329732900,10.67373291015625,-0.4537992775440216,-0.18425150215625763,-0.21806083619594574
1772534462339750100,10.683750244140626,-0.5034960508346558,-0.01758098416030407,-0.32747840881347656
1772534462349766100,10.69376611328125,-0.5267028212547302,0.1320873349905014,-0.3838021755218506
1772534462359782000,10.703781982421875,-0.526850700378418,0.24458450078964233,-0.3861398696899414
1772534462369799000,10.713798828125,-0.513032078742981,0.32118526101112366,-0.34317857027053833
1772534462379815000,10.72381494140625,-0.49062520265579224,0.3552016019821167,-0.2744174003601074
1772534462389832000,10.73383203125,-0.4638391137123108,0.366647332906723,-0.2124277949333191
1772534462399848000,10.743847900390625,-0.42735886573791504,0.33679407835006714,-0.15928734838962555
1772534462409865000,10.753864990234375,-0.3781714141368866,0.25997182726860046,-0.10409548878669739
1772534462419881000,10.763880859375,-0.3331988751888275,0.21034543216228485,-0.04397968575358391
1772534462429898000,10.77389794921875,-0.30500108003616333,0.1557959020137787,0.024824414402246475
1772534462439914000,10.7839140625,-0.29682281613349915,0.08574716001749039,0.09920302033424377
1772534462449930000,10.793929931640625,-0.29290610551834106,0.010802073404192924,0.17281413078308105
1772534462459946800,10.80394677734375,-0.29604479670524597,-0.04434821009635925,0.23347191512584686
1772534462469963000,10.813962890625,-0.305863618850708,-0.07715170085430145,0.27165818214416504
1772534462479980000,10.82397998046875,-0.33735495805740356,-0.038099102675914764,0.27381187677383423
1772534462489996000,10.83399609375,-0.4038271903991699,0.0868484228849411,0.23414888978004456
1772534462500012800,10.8440126953125,-0.4871571362018585,0.2308671772480011,0.1705244928598404
1772534462510029000,10.854029052734376,-0.5569251179695129,0.3357502818107605,0.11136306077241898
1772534462520046000,10.864046142578125,-0.5987998247146606,0.4028555452823639,0.07878700643777847
1772534462530061600,10.8740615234375,-0.6227806210517883,0.4216507077217102,0.07611565291881561
1772534462540078300,10.884078369140624,-0.6550869345664978,0.41806158423423767,0.08118577301502228
1772534462550094300,10.89409423828125,-0.7117667198181152,0.43874260783195496,0.07129905372858047
1772534462560110600,10.904110595703125,-0.7718523740768433,0.4525328576564789,0.033857595175504684
1772534462570127400,10.91412744140625,-0.8177319765090942,0.4463266134262085,-0.016690798103809357
1772534462580143400,10.924143310546874,-0.8423364758491516,0.4130975902080536,-0.06354115158319473
1772534462590160400,10.934160400390626,-0.8449839353561401,0.342492938041687,-0.09967891871929169
1772534462600176600,10.9441767578125,-0.8418078422546387,0.21913886070251465,-0.11948441714048386
1772534462610193400,10.954193359375,-0.8564567565917969,0.08911164104938507,-0.13101595640182495
1772534462620209400,10.96420947265625,-0.8937085270881653,-0.008237017318606377,-0.14962853491306305
1772534462630226400,10.974226318359374,-0.945882260799408,-0.07066284120082855,-0.1812724769115448
1772534462640242700,10.98424267578125,-0.9957065582275391,-0.09893672913312912,-0.21259914338588715
1772534462650259500,10.994259521484375,-1.0371042490005493,-0.09194166958332062,-0.22601614892482758
1772534462660275500,11.004275390625,-1.0836639404296875,-0.055113520473241806,-0.23014597594738007
1772534462670291500,11.01429150390625,-1.132354497909546,-0.00705731101334095,-0.23194439709186554
1772534462680308500,11.02430859375,-1.1598259210586548,0.05039599910378456,-0.23083166778087616
1772534462690324500,11.034324462890625,-1.153397560119629,0.10150765627622604,-0.218218132853508
1772534462700341500,11.044341552734375,-1.1331008672714233,0.18692229688167572,-0.19046205282211304
1772534462710357500,11.054357421875,-1.110864281654358,0.30907219648361206,-0.1518283635377884
1772534462720374500,11.06437451171875,-1.1045494079589844,0.430806964635849,-0.08927259594202042
1772534462730390500,11.074390625,-1.1039267778396606,0.5070133209228516,-0.00011875340715050697
1772534462740407600,11.084407470703125,-1.0989569425582886,0.5381996035575867,0.11736379563808441
1772534462750423600,11.094423583984375,-1.0817863941192627,0.5437344312667847,0.26629388332366943
1772534462760439300,11.104439208984376,-1.0509846210479736,0.5228047370910645,0.4267006814479828
1772534462770456600,11.11445654296875,-0.9953123331069946,0.4314996004104614,0.5313812494277954
1772534462780472600,11.12447265625,-0.9139002561569214,0.32691025733947754,0.5317010879516602
1772534462790489300,11.1344892578125,-0.8626669049263,0.28503313660621643,0.43165621161460876
1772534462800505300,11.14450537109375,-0.8371872901916504,0.260925829410553,0.2792604863643646
1772534462810522600,11.154522705078126,-0.8445233702659607,0.22198902070522308,0.11773200333118439
1772534462820538600,11.16453857421875,-0.8669223785400391,0.17056524753570557,-0.03496699407696724
1772534462830555400,11.174555419921875,-0.8956701755523682,0.11626631021499634,-0.1723584085702896
1772534462840571400,11.1845712890625,-0.9263831377029419,0.10032716393470764,-0.2752416729927063
1772534462850587400,11.19458740234375,-0.9487425088882446,0.08190741389989853,-0.3268451988697052
1772534462860604400,11.2046044921875,-0.9648734927177429,0.022006498649716377,-0.3245985805988312
1772534462870620400,11.214620361328125,-0.9787842035293579,-0.039151132106781006,-0.2585713565349579
1772534462880637400,11.224637451171875,-0.9972972869873047,-0.0675981268286705,-0.1516948938369751
1772534462890653400,11.2346533203125,-1.0087790489196777,-0.05447913706302643,-0.03553367778658867
1772534462900670500,11.24467041015625,-1.0026476383209229,-0.026478974148631096,0.06349338591098785
1772534462910686500,11.2546865234375,-0.9794116616249084,-0.003865246195346117,0.13116855919361115
1772534462920703500,11.264703369140625,-0.931405246257782,-0.0017477668588981032,0.1472388654947281
1772534462930719500,11.274719482421874,-0.875001072883606,-0.015101123601198196,0.11680666357278824
1772534462940735500,11.284735595703125,-0.8228252530097961,-0.025363147258758545,0.05769874528050423
1772534462950752500,11.29475244140625,-0.7796301245689392,-0.020842963829636574,-0.013504859991371632
1772534462960768500,11.3047685546875,-0.7347055673599243,-0.009115800261497498,-0.08140279352664948
1772534462970785300,11.314785400390624,-0.6985252499580383,0.0002494719810783863,-0.1508585810661316
1772534462980801500,11.324801513671876,-0.6610504388809204,-0.02132323943078518,-0.20749534666538239
1772534462990818600,11.334818603515625,-0.627369225025177,-0.08237993717193604,-0.23599836230278015
1772534463000834600,11.34483447265625,-0.6001430749893188,-0.17147260904312134,-0.22417052090168
1772534463010851300,11.354851318359374,-0.5919072031974792,-0.2549421787261963,-0.1538986712694168
1772534463020867600,11.36486767578125,-0.6128958463668823,-0.3123972415924072,-0.059460319578647614
1772534463030884600,11.374884521484375,-0.6514220237731934,-0.32313647866249084,0.01658719778060913
1772534463040900400,11.384900390625,-0.6762346625328064,-0.31260979175567627,0.05879776552319527
1772534463050916400,11.394916259765624,-0.6760274767875671,-0.3045766353607178,0.053737495094537735
1772534463060933600,11.40493359375,-0.6635304689407349,-0.2905192971229553,0.003181787673383951
1772534463070949600,11.41494970703125,-0.6529414653778076,-0.2741086184978485,-0.07191190123558044
1772534463080966400,11.42496630859375,-0.640850305557251,-0.23666006326675415,-0.14616930484771729
1772534463090982400,11.434982421875,-0.6103507280349731,-0.19505056738853455,-0.20029965043067932
1772534463100999400,11.44499951171875,-0.558680534362793,-0.17469258606433868,-0.22314316034317017
1772534463111015700,11.455015625,-0.48630839586257935,-0.14952749013900757,-0.23019522428512573
1772534463121032400,11.465032470703125,-0.410757452249527,-0.12328895181417465,-0.2277536392211914
1772534463131048400,11.47504833984375,-0.3438601791858673,-0.12523359060287476,-0.22295436263084412
1772534463141064400,11.485064453125,-0.2851371467113495,-0.15971434116363525,-0.20331503450870514
1772534463151081500,11.49508154296875,-0.23852382600307465,-0.2175145447254181,-0.15530143678188324
1772534463161097500,11.505097412109375,-0.2012379765510559,-0.28051695227622986,-0.08676472306251526
1772534463171114500,11.515114501953125,-0.16887764632701874,-0.35398557782173157,-0.00129029992967844
1772534463181130500,11.525130615234374,-0.14329418540000916,-0.4095814824104309,0.0861775204539299
1772534463191147500,11.5351474609375,-0.12717486917972565,-0.4305584132671356,0.15843039751052856
1772534463201163500,11.54516357421875,-0.1164957657456398,-0.43826520442962646,0.206382155418396
1772534463211180500,11.5551806640625,-0.10967794060707092,-0.39605435729026794,0.2363283932209015
1772534463221196300,11.5651962890625,-0.12371733784675598,-0.29139772057533264,0.2203049510717392
1772534463231212300,11.57521240234375,-0.16392414271831512,-0.11706613749265671,0.14760996401309967
1772534463241229600,11.5852294921875,-0.20179592072963715,0.05343937501311302,0.03835475444793701
1772534463251245600,11.59524560546875,-0.21365098655223846,0.20642758905887604,-0.0848579928278923
1772534463261262300,11.605262451171875,-0.19905689358711243,0.33164235949516296,-0.17866837978363037
1772534463271278300,11.6152783203125,-0.16403312981128693,0.3896617293357849,-0.22060012817382812
1772534463281295600,11.625295654296876,-0.12040960043668747,0.3919476270675659,-0.22386448085308075
1772534463291311600,11.6353115234375,-0.0960288941860199,0.3513767719268799,-0.22127056121826172
1772534463301328400,11.645328369140625,-0.10348791629076004,0.30178317427635193,-0.24332013726234436
1772534463311344400,11.655344482421874,-0.13468222320079803,0.2444622665643692,-0.27224603295326233
1772534463321361700,11.665361572265626,-0.15522344410419464,0.1435638815164566,-0.30753690004348755
1772534463331377400,11.67537744140625,-0.13752381503582,0.037621475756168365,-0.35311025381088257
1772534463341393400,11.685393310546875,-0.10319836437702179,0.005411170423030853,-0.40047040581703186
1772534463351410400,11.695410400390625,-0.08279561996459961,0.146269753575325,-0.4314435124397278
1772534463361426700,11.7054267578125,-0.046378348022699356,0.42655259370803833,-0.39063307642936707
1772534463371443500,11.715443359375,-0.03148355334997177,0.7758932709693909,0.03885330259799957
1772534463381459500,11.72545947265625,-0.0445907823741436,0.485811322927475,0.3004792332649231
1772534463391476500,11.7354765625,-0.04255826026201248,0.07040773332118988,0.4915788769721985
1772534463401492500,11.745492431640624,0.021800635382533073,-0.1679009348154068,0.5980801582336426
1772534463411509500,11.755509521484376,0.12748320400714874,-0.35372981429100037,0.6364920735359192
1772534463421525500,11.765525390625,0.23689864575862885,-0.4847879707813263,0.5188578367233276
1772534463431541500,11.77554150390625,0.2783057391643524,-0.4978278577327728,0.2931176424026489
1772534463441558300,11.785558349609374,0.25598371028900146,-0.43568432331085205,0.010409612208604813
1772534463451574500,11.795574462890626,0.21931998431682587,-0.3534395396709442,-0.25941920280456543
1772534463461591600,11.805591552734375,0.22729620337486267,-0.26288601756095886,-0.48481786251068115
1772534463471607600,11.815607666015625,0.25812867283821106,-0.1827312558889389,-0.6438724994659424
1772534463481624300,11.825624267578124,0.2855578660964966,-0.1363062560558319,-0.672440230846405
1772534463491640600,11.835640625,0.28968575596809387,-0.1821421980857849,-0.5316416025161743
