time,seconds_elapsed,z,y,x
1772574551027183400,0.227183349609375,0,0,0
1772574551037117200,0.2371171875,-0.011134147644042969,0.09953415393829346,0.05564147233963013
1772574551047039000,0.2470390625,-0.13689708709716797,0.13069486618041992,-0.16725486516952515
1772574551056967700,0.2569677734375,-0.4997291564941406,0.04772329330444336,-0.05636507272720337
1772574551066852000,0.26685205078125,-0.5255041122436523,-0.12334680557250977,-0.008374571800231934
1772574551076763000,0.276762939453125,-0.33062076568603516,-0.12717878818511963,0.22933566570281982
1772574551086764300,0.286764404296875,-0.07113456726074219,-0.0894765853881836,0.2972482740879059
1772574551096711700,0.296711669921875,0.18348217010498047,-0.04326736927032471,0.19132882356643677
1772574551106633000,0.306633056640625,0.3573884963989258,0.0022417306900024414,-0.05673307180404663
1772574551116569900,0.31656982421875,0.27726078033447266,0.042516469955444336,-0.15049993991851807
1772574551126497300,0.326497314453125,0.09419059753417969,-0.016751885414123535,-0.0014869868755340576
1772574551136430300,0.336430419921875,0.05858898162841797,-0.0387270450592041,0.05220511555671692
1772574551146363100,0.346363037109375,0.06133842468261719,-0.07048583030700684,0.04888075590133667
1772574551156296200,0.356296142578125,-0.118194580078125,-0.08079802989959717,0.2321794033050537
1772574551166227200,0.366227294921875,-0.23779010772705078,-0.0962449312210083,0.17208273708820343
1772574551176159200,0.3761591796875,-0.3337678909301758,-0.1870121955871582,-0.024373799562454224
1772574551186096400,0.386096435546875,-0.2685575485229492,-0.22215473651885986,0.1639994978904724
1772574551196030500,0.396030517578125,-0.03692054748535156,-0.12826097011566162,0.37513959407806396
1772574551205977000,0.40597705078125,0.07314682006835938,-0.02737247943878174,0.16014531254768372
1772574551215916300,0.415916259765625,0.009699821472167969,-0.06788861751556396,-0.0661979466676712
1772574551225827800,0.425827880859375,-0.032340049743652344,-0.07534372806549072,-0.2910190224647522
1772574551235755800,0.435755859375,-0.11832141876220703,-0.00361478328704834,-0.2311665266752243
1772574551245689900,0.44568994140625,-0.27430248260498047,-0.042388916015625,0.24062618613243103
1772574551255620600,0.45562060546875,0.10294628143310547,-0.06180405616760254,0.6005961894989014
1772574551265556200,0.46555615234375,0.4375581741333008,0.13825392723083496,0.9081836938858032
1772574551275489000,0.475489013671875,1.0043573379516602,0.08623337745666504,1.0711756944656372
1772574551285413600,0.48541357421875,1.2805776596069336,-0.20401084423065186,0.5938844084739685
1772574551295343000,0.495343017578125,1.2962112426757812,-0.4519907832145691,-0.115286685526371
1772574551305265700,0.505265625,1.2172908782958984,-0.7469708919525146,-1.3900915384292603
1772574551315194400,0.5151943359375,1.190159797668457,-0.2960165739059448,-1.7542805671691895
1772574551325131000,0.525131103515625,1.0502233505249023,0.08758735656738281,-0.9947017431259155
1772574551335060500,0.535060546875,0.990534782409668,0.30072760581970215,0.002407938241958618
1772574551345000000,0.545,1.2684879302978516,0.29312098026275635,0.263841450214386
1772574551354930400,0.554930419921875,1.572798728942871,0.28322410583496094,0.22734211385250092
1772574551364861000,0.56486083984375,1.680577278137207,0.19297444820404053,0.2084459364414215
1772574551374791400,0.57479150390625,1.5094099044799805,0.37113046646118164,0.008055001497268677
1772574551384725800,0.584725830078125,1.0014972686767578,0.16776525974273682,-0.38334396481513977
1772574551394656800,0.59465673828125,0.4954042434692383,-0.15613770484924316,-0.16843941807746887
1772574551404595700,0.604595703125,0.17631244659423828,-0.029244422912597656,0.4476756453514099
1772574551414527500,0.614527587890625,-0.049757957458496094,0.012070417404174805,0.22999796271324158
1772574551424457200,0.624457275390625,-0.41411876678466797,-0.10370075702667236,-0.45095008611679077
1772574551434388700,0.634388671875,-0.7179470062255859,-0.020357370376586914,-0.82970130443573
1772574551444356600,0.644356689453125,-0.8750171661376953,0.0171964168548584,-0.7996604442596436
1772574551454291700,0.654291748046875,-0.9502115249633789,-0.039574384689331055,-0.6009372472763062
1772574551464224000,0.66422412109375,-1.0109233856201172,-0.17383134365081787,-0.3206830620765686
1772574551474158800,0.674158935546875,-1.1372108459472656,-0.26587188243865967,-0.12006270885467529
1772574551484084700,0.684084716796875,-1.2952346801757812,-0.25465428829193115,-0.06158018112182617
1772574551494018600,0.6940185546875,-1.3582935333251953,-0.1879211664199829,0.020900726318359375
1772574551503942000,0.70394189453125,-1.3803071975708008,-0.192909836769104,-0.03468167781829834
1772574551513874700,0.713874755859375,-1.4043617248535156,-0.2688499689102173,-0.09079742431640625
1772574551523808300,0.723808349609375,-1.2941675186157227,-0.32580339908599854,-0.11399751901626587
1772574551533741300,0.7337412109375,-1.033487319946289,-0.31747329235076904,-0.05926746129989624
1772574551543682000,0.74368212890625,-0.7185487747192383,-0.2094041109085083,-0.03664267063140869
1772574551553616000,0.753615966796875,-0.31207942962646484,-0.16960346698760986,-0.007088303565979004
1772574551563541800,0.763541748046875,0.06294536590576172,-0.09585940837860107,-0.0023952126502990723
1772574551573474600,0.773474609375,0.27174949645996094,-0.02428615093231201,0.06559079885482788
1772574551583412000,0.783411865234375,0.36480140686035156,0.09545779228210449,0.2813304364681244
1772574551593345300,0.79334521484375,0.4664945602416992,-0.10457408428192139,-0.05917149782180786
1772574551603256300,0.80325634765625,0.3934450149536133,0.10573053359985352,0.09697020053863525
1772574551613187600,0.8131875,0.3835172653198242,0.1833653450012207,0.0732506513595581
1772574551623131100,0.823131103515625,0.20029830932617188,0.16837286949157715,-0.05963176488876343
1772574551633063700,0.833063720703125,0.0956106185913086,0.15719008445739746,-0.14509612321853638
1772574551642997200,0.842997314453125,0.2088460922241211,0.10405755043029785,-0.2496098279953003
1772574551652929800,0.8529296875,0.2779388427734375,0.04567575454711914,-0.2196434736251831
1772574551662873600,0.86287353515625,0.26148128509521484,0.0376284122467041,-0.12206721305847168
1772574551672807200,0.87280712890625,0.17969608306884766,-0.019604206085205078,-0.04119598865509033
1772574551682705700,0.88270556640625,-0.004429817199707031,-0.04888510704040527,0.027857601642608643
1772574551692635600,0.8926357421875,-0.2520904541015625,0.054700613021850586,0.12744581699371338
1772574551702595800,0.902595947265625,-0.718470573425293,-0.22349298000335693,-0.08640754222869873
1772574551722439700,0.922439697265625,-0.8356704711914062,-0.0041806697845458984,-0.28002095222473145
1772574551742358800,0.94235888671875,0.18497562408447266,-0.09137117862701416,-0.01731342077255249
1772574551752297200,0.952297119140625,0.2211151123046875,-0.1817246675491333,0.03891056776046753
1772574551762201000,0.962201171875,0.08758735656738281,-0.1179739236831665,-0.09708154201507568
1772574551772136000,0.972135986328125,-0.15707969665527344,-0.11882984638214111,-0.17013204097747803
1772574551782055000,0.982054931640625,-0.4269838333129883,-0.1430736780166626,-0.0768125057220459
1772574551791988500,0.991988525390625,-0.5948677062988281,-0.10699892044067383,-0.05514460802078247
1772574551801932000,1.00193212890625,-0.5634727478027344,-0.06618297100067139,-0.19794344902038574
1772574551811866400,1.011866455078125,-0.3448753356933594,0.017409205436706543,-0.32528167963027954
1772574551821784800,1.021784912109375,-0.0305938720703125,0.08939099311828613,-0.3408854603767395
1772574551831717600,1.031717529296875,0.25608062744140625,0.11876583099365234,-0.2060791254043579
1772574551841649200,1.041649169921875,0.5349149703979492,0.03817629814147949,-0.06807786226272583
1772574551851581700,1.051581787109375,0.7640876770019531,-0.02111375331878662,-0.0009825825691223145
1772574551861512200,1.06151220703125,0.7318477630615234,0.014184355735778809,0.0554966926574707
1772574551871444700,1.07144482421875,0.564239501953125,0.01026606559753418,0.011339545249938965
1772574551881392400,1.081392333984375,0.37110137939453125,-0.011642217636108398,-0.0779462456703186
1772574551891326500,1.091326416015625,0.26445484161376953,-0.049550652503967285,-0.12767744064331055
1772574551911189500,1.111189453125,0.019278526306152344,-0.09608149528503418,0.036975860595703125
1772574551921110000,1.121110107421875,-0.06250381469726562,-0.07506108283996582,0.014495432376861572
1772574551931042300,1.131042236328125,-0.049121856689453125,-0.03335976600646973,-0.05410867929458618
1772574551940974800,1.140974853515625,-0.040892601013183594,0.00899958610534668,-0.055300772190093994
1772574551950907000,1.150906982421875,-0.10817241668701172,0.013636231422424316,0.04854315519332886
1772574551960848400,1.160848388671875,-0.21192073822021484,-0.042214035987854004,0.1454043686389923
1772574551970781400,1.170781494140625,-0.32356739044189453,-0.04803466796875,0.08336058259010315
1772574551980705500,1.18070556640625,-0.29726314544677734,-0.07469439506530762,-0.07189401984214783
1772574551990637800,1.190637939453125,-0.1682262420654297,-0.12256813049316406,-0.13243204355239868
1772574552000569600,1.200569580078125,0.04788398742675781,-0.19201338291168213,-0.15555641055107117
1772574552010502000,1.210501953125,0.35002613067626953,-0.27455461025238037,-0.4022378921508789
1772574552020433400,1.220433349609375,0.2192096710205078,-0.3064669370651245,-0.3561493158340454
1772574552030365400,1.230365478515625,0.3073997497558594,0.004246115684509277,0.07373383641242981
1772574552040301800,1.2403017578125,0.23934459686279297,-0.02221226692199707,0.057267457246780396
1772574552050234400,1.250234375,0.003536224365234375,0.03841865062713623,0.015278935432434082
1772574552060164900,1.260164794921875,-0.0914773941040039,0.10179376602172852,-0.1363661289215088
1772574552070097400,1.270097412109375,-0.16582298278808594,0.09314656257629395,-0.5271503329277039
1772574552080030700,1.28003076171875,-0.5967912673950195,0.11362099647521973,-0.4297480583190918
1772574552089963300,1.28996337890625,-0.607640266418457,0.15266764163970947,-0.1801026463508606
1772574552099900000,1.29989990234375,-0.24813365936279297,0.07558619976043701,-0.1578519344329834
1772574552109832700,1.309832763671875,0.1987018585205078,0.03670978546142578,-0.05092340707778931
1772574552119763200,1.31976318359375,0.5157089233398438,0.050171852111816406,0.0956588089466095
1772574552129695700,1.32969580078125,0.6772842407226562,0.05536150932312012,0.18653452396392822
1772574552139629000,1.339629150390625,0.6910085678100586,0.050531625747680664,0.26976245641708374
1772574552149561900,1.349561767578125,0.5501289367675781,0.0821537971496582,0.32852888107299805
1772574552159493400,1.359493408203125,0.29952335357666016,0.0749896764755249,0.38785016536712646
1772574552169426000,1.369426025390625,0.053727149963378906,0.07881569862365723,0.37303638458251953
1772574552179360300,1.3793603515625,-0.08883857727050781,0.08133149147033691,0.25099149346351624
1772574552189293000,1.38929296875,-0.13004684448242188,0.021931767463684082,0.18695856630802155
1772574552199226000,1.39922607421875,-0.19866275787353516,0.005322575569152832,0.24755080044269562
1772574552209159000,1.409158935546875,-0.2612457275390625,0.0028870105743408203,0.34802931547164917
1772574552219082500,1.41908251953125,-0.2850914001464844,0.019950032234191895,0.36492475867271423
1772574552229014500,1.4290146484375,-0.2802734375,0.00899648666381836,0.332109272480011
1772574552238957300,1.438957275390625,-0.23786258697509766,-0.005791664123535156,0.2745663523674011
1772574552248890400,1.448890380859375,-0.2762155532836914,-0.00994110107421875,0.25004929304122925
1772574552258827800,1.458827880859375,-0.3516511917114258,-0.022274494171142578,0.21999125182628632
1772574552268761000,1.468760986328125,-0.4071769714355469,-0.013704299926757812,0.17906421422958374
1772574552278696700,1.47869677734375,-0.42447757720947266,0.011712074279785156,0.11220750212669373
1772574552288630500,1.488630615234375,-0.3995819091796875,0.030421137809753418,0.06512287259101868
1772574552298552600,1.498552490234375,-0.31436824798583984,0.05172169208526611,-0.043835967779159546
1772574552308484900,1.50848486328125,-0.1556692123413086,0.07038247585296631,-0.14852413535118103
1772574552318427400,1.518427490234375,0.047209739685058594,0.05237126350402832,-0.23017224669456482
1772574552328360700,1.528360595703125,0.19954776763916016,0.03483176231384277,-0.23702380061149597
1772574552338291700,1.538291748046875,0.2929096221923828,0.012374281883239746,-0.2069464921951294
1772574552348224800,1.548224853515625,0.3613243103027344,0.022270798683166504,-0.14952823519706726
1772574552358148400,1.5581484375,0.3675718307495117,0.049747347831726074,-0.1824130415916443
1772574552368080600,1.56808056640625,0.39273643493652344,0.04252660274505615,-0.2056533396244049
1772574552378008800,1.5780087890625,0.4365663528442383,0.009870409965515137,-0.22015491127967834
1772574552387940600,1.587940673828125,0.4470090866088867,-0.05302619934082031,-0.24516701698303223
1772574552397882600,1.597882568359375,0.4435110092163086,-0.061626434326171875,-0.27655258774757385
1772574552407815400,1.6078154296875,0.4074668884277344,-0.026081562042236328,-0.26184505224227905
1772574552417742600,1.61774267578125,0.3864631652832031,-0.026378989219665527,-0.19562289118766785
1772574552427675000,1.6276748046875,0.30486583709716797,-0.04709506034851074,-0.12001889944076538
1772574552437609700,1.637609619140625,0.2154102325439453,-0.05919992923736572,-0.06362932920455933
1772574552447542000,1.6475419921875,0.09464359283447266,-0.043987274169921875,-0.036414265632629395
1772574552457473800,1.657473876953125,0.013658523559570312,-0.0487823486328125,-0.024425387382507324
1772574552467406000,1.667406005859375,-0.09413719177246094,-0.02094900608062744,0.039834022521972656
1772574552477319400,1.6773193359375,-0.22372055053710938,-0.002270817756652832,0.07129934430122375
1772574552487250000,1.68725,-0.25251197814941406,-0.01975417137145996,0.05048573017120361
1772574552497182000,1.697181884765625,-0.21996402740478516,-0.015792369842529297,0.03884643316268921
1772574552507112400,1.707112548828125,-0.17878055572509766,-0.03843355178833008,0.07921040058135986
1772574552517048800,1.717048828125,-0.13373947143554688,-0.059375762939453125,0.10992884635925293
1772574552526980000,1.72697998046875,-0.061318397521972656,-0.05059075355529785,0.12207567691802979
1772574552536914000,1.736913818359375,-0.013686180114746094,-0.03189122676849365,0.1398601531982422
1772574552546845400,1.746845458984375,0.009580612182617188,0.0011594295501708984,0.1301124393939972
1772574552556810800,1.756810791015625,0.06072521209716797,-0.008781909942626953,0.09235191345214844
1772574552566745600,1.76674560546875,0.07810306549072266,-0.004828453063964844,0.08321940898895264
1772574552576643300,1.776643310546875,0.05292797088623047,-0.02067732810974121,0.07397261261940002
1772574552586574300,1.78657421875,0.02826976776123047,-0.008686184883117676,0.046105533838272095
1772574552596511500,1.796511474609375,-0.024183273315429688,0.03116607666015625,0.019133388996124268
1772574552606443300,1.806443359375,-0.0804758071899414,0.04689764976501465,0.011603504419326782
1772574552616372200,1.816372314453125,-0.07940864562988281,0.06296980381011963,0.037158042192459106
1772574552626303700,1.8263037109375,-0.0690460205078125,0.05592215061187744,0.010249793529510498
1772574552636243000,1.836242919921875,-0.035399436950683594,0.059006452560424805,0.01191440224647522
1772574552646175200,1.84617529296875,0.011800765991210938,0.09037983417510986,0.013522088527679443
1772574552656106200,1.856106201171875,0.025323867797851562,0.0972898006439209,0.0012917816638946533
1772574552666038300,1.866038330078125,0.0010175704956054688,0.08483541011810303,-0.029408693313598633
1772574552675995000,1.875994873046875,-0.055816650390625,0.05825603008270264,-0.07846724987030029
1772574552685929500,1.885929443359375,-0.18706130981445312,0.032089829444885254,-0.08019822835922241
1772574552695857000,1.89585693359375,-0.2315959930419922,-0.07261204719543457,-0.1355862319469452
1772574552705790700,1.905790771484375,-0.19082164764404297,-0.11800575256347656,-0.11104422807693481
1772574552715727000,1.91572705078125,-0.0896005630493164,-0.1478419303894043,-0.07747319340705872
1772574552725661200,1.9256611328125,-0.12187862396240234,-0.18611633777618408,-0.02376982569694519
1772574552735588000,1.935588134765625,-0.21024703979492188,-0.19369077682495117,0.03598344326019287
1772574552745521400,1.945521484375,-0.2552528381347656,-0.17396843433380127,0.004704564809799194
1772574552755453200,1.955453125,-0.2058572769165039,-0.15559875965118408,-0.041646718978881836
1772574552765386200,1.96538623046875,-0.12944602966308594,-0.14860153198242188,-0.04137864708900452
1772574552775331600,1.97533154296875,-0.05446052551269531,-0.14516663551330566,0.005200415849685669
1772574552785266000,1.985265869140625,0.014628410339355469,-0.1325371265411377,0.03676721453666687
1772574552795181800,1.995181884765625,0.09210491180419922,-0.1254582405090332,0.02544534206390381
1772574552805114400,2.0051142578125,0.17795658111572266,-0.09630179405212402,0.024790585041046143
1772574552815058000,2.015057861328125,0.2768402099609375,-0.06967329978942871,0.044403284788131714
1772574552824991500,2.024991455078125,0.3226318359375,-0.021915912628173828,-0.00009834766387939453
1772574552834917600,2.034917724609375,0.29739952087402344,0.04653620719909668,0.010400325059890747
1772574552844850400,2.044850341796875,0.28708648681640625,0.08817994594573975,0.032645732164382935
1772574552854782000,2.054781982421875,0.2725362777709961,0.1507551670074463,0.008958607912063599
1772574552864714800,2.06471484375,0.21605777740478516,0.22478628158569336,-0.00463375449180603
1772574552874644500,2.07464453125,0.17011070251464844,0.2581808567047119,-0.042082905769348145
1772574552884576800,2.08457666015625,0.1297616958618164,0.2561856508255005,-0.09947502613067627
1772574552894514400,2.094514404296875,0.05256938934326172,0.3182271718978882,-0.08178848028182983
1772574552904447200,2.104447265625,-0.06559181213378906,0.3169059753417969,-0.1021883487701416
1772574552914379300,2.114379150390625,-0.1535320281982422,0.25407493114471436,-0.09474587440490723
1772574552924312000,2.12431201171875,-0.1365194320678711,0.20176231861114502,-0.09865903854370117
1772574552934251300,2.134251220703125,-0.07752323150634766,0.19765543937683105,-0.09932076930999756
1772574552944184800,2.144184814453125,0.0039539337158203125,0.1513690948486328,-0.10112762451171875
1772574552954105900,2.15410595703125,0.05587291717529297,0.08122575283050537,-0.10417217016220093
1772574552964038100,2.1640380859375,0.13532257080078125,0.00565183162689209,-0.06604593992233276
1772574552973975600,2.1739755859375,0.1524505615234375,-0.04277360439300537,-0.06721377372741699
1772574552983908000,2.183908203125,0.09890460968017578,-0.07360732555389404,-0.03537100553512573
1772574552993838000,2.193838134765625,0.027625083923339844,-0.14322996139526367,-0.0132216215133667
1772574553003770600,2.2037705078125,-0.02350139617919922,-0.1514066457748413,-0.0005939006805419922
1772574553013715200,2.213715087890625,-0.02670764923095703,-0.15935099124908447,-0.002598106861114502
1772574553023649000,2.22364892578125,-0.03466320037841797,-0.1805577278137207,-0.02839076519012451
1772574553033568000,2.233568115234375,-0.03789234161376953,-0.19555068016052246,0.007720828056335449
1772574553043500000,2.2435,-0.055336952209472656,-0.1902369260787964,0.024339616298675537
1772574553053435000,2.253434814453125,-0.049111366271972656,-0.19300103187561035,0.04071640968322754
1772574553063367200,2.2633671875,-0.06199073791503906,-0.18488311767578125,0.005038082599639893
1772574553073311200,2.273311279296875,-0.09367942810058594,-0.2131556272506714,0.01664668321609497
1772574553083244800,2.283244873046875,-0.10151195526123047,-0.21149742603302002,0.036160290241241455
1772574553093179000,2.293178955078125,-0.1188192367553711,-0.114776611328125,0.09623971581459045
1772574553103112700,2.30311279296875,-0.1312999725341797,-0.07542204856872559,0.07365700602531433
1772574553113031000,2.313031005859375,-0.1343364715576172,-0.0830836296081543,0.05420812964439392
1772574553122963200,2.322963134765625,-0.1515674591064453,-0.03351438045501709,0.07633090019226074
1772574553132895200,2.332895263671875,-0.1309185028076172,0.015923261642456055,0.08854541182518005
1772574553142827300,2.3428271484375,-0.10126495361328125,0.02295053005218506,0.07728108763694763
1772574553152744000,2.352743896484375,-0.0862579345703125,0.025436043739318848,0.061376094818115234
1772574553162674400,2.36267431640625,-0.07150936126708984,0.01865065097808838,0.0693194568157196
1772574553172626400,2.37262646484375,-0.019280433654785156,0.016791462898254395,0.0925346314907074
1772574553182559000,2.38255908203125,0.008581161499023438,0.024796128273010254,0.08437830209732056
1772574553192491000,2.392490966796875,0.03604412078857422,0.05614137649536133,0.01633569598197937
1772574553202423600,2.402423583984375,0.0866689682006836,0.08177924156188965,-0.03136703372001648
1772574553212366800,2.412366943359375,0.1083536148071289,0.07753705978393555,-0.02146396040916443
1772574553222300400,2.422300537109375,0.11568355560302734,0.09119999408721924,-0.0066883862018585205
1772574553232219000,2.432218994140625,0.06652355194091797,0.10864698886871338,-0.014466047286987305
1772574553242151200,2.442151123046875,0.032349586486816406,0.09275472164154053,-0.021378546953201294
1772574553252087800,2.452087890625,0.0128631591796875,0.06769776344299316,-0.028413861989974976
1772574553262020400,2.462020263671875,0.012499809265136719,0.06660127639770508,-0.0315287709236145
1772574553271954000,2.471953857421875,0.02620410919189453,0.07502055168151855,-0.040669381618499756
1772574553281886700,2.48188671875,0.06786632537841797,0.07857084274291992,-0.056137800216674805
1772574553291815400,2.4918154296875,0.1512317657470703,0.034542202949523926,-0.03457844257354736
1772574553301747700,2.501747802734375,0.14858531951904297,0.02328181266784668,0.02473008632659912
1772574553311690200,2.511690185546875,0.13202953338623047,-0.00773930549621582,0.06991204619407654
1772574553321623600,2.52162353515625,0.12532329559326172,-0.04884934425354004,0.06281140446662903
1772574553331547600,2.531547607421875,0.10945701599121094,-0.043184876441955566,0.0423356294631958
1772574553341480200,2.541480224609375,0.05161285400390625,-0.02879929542541504,0.028541773557662964
1772574553351373300,2.551373291015625,0.01835918426513672,-0.029056787490844727,0.0445612370967865
1772574553361302000,2.561302001953125,-0.037830352783203125,-0.03883993625640869,0.01896008849143982
1772574553371276300,2.5712763671875,-0.03658866882324219,-0.0906527042388916,0.017650514841079712
1772574553381209300,2.581209228515625,-0.021297454833984375,-0.0940932035446167,0.034987300634384155
1772574553391152600,2.591152587890625,-0.03921031951904297,-0.09758174419403076,0.03309851884841919
1772574553401086700,2.601086669921875,-0.05685901641845703,-0.05831634998321533,0.035987675189971924
1772574553410984700,2.610984619140625,-0.06483078002929688,-0.061548829078674316,0.0679374635219574
1772574553420915200,2.620915283203125,-0.1056680679321289,-0.07814741134643555,0.058335334062576294
1772574553430872000,2.6308720703125,-0.16004467010498047,-0.08404016494750977,0.026197820901870728
1772574553440805400,2.640805419921875,-0.14777183532714844,-0.06487798690795898,0.008603841066360474
1772574553450742300,2.6507421875,-0.12642860412597656,-0.05434763431549072,-0.004201978445053101
1772574553460675800,2.66067578125,-0.09616279602050781,-0.0617368221282959,0.001876920461654663
1772574553470602000,2.67060205078125,-0.06646537780761719,-0.04967689514160156,-0.02524426579475403
1772574553480534800,2.68053466796875,-0.01848316192626953,-0.02309441566467285,-0.004347950220108032
1772574553490478000,2.69047802734375,0.056914329528808594,-0.04844486713409424,-0.01675829291343689
1772574553500412000,2.700411865234375,0.0887451171875,-0.03600490093231201,-0.018728196620941162
1772574553510334500,2.71033447265625,0.10604095458984375,0.0037766695022583008,-0.014941036701202393
1772574553520267000,2.72026708984375,0.14197254180908203,0.042289018630981445,-0.0061134397983551025
1772574553530199000,2.730198974609375,0.2150554656982422,0.04189026355743408,-0.01605316996574402
1772574553540131600,2.740131591796875,0.2683086395263672,0.002314329147338867,0.003421574831008911
1772574553550066400,2.75006640625,0.21268749237060547,-0.024602174758911133,0.061630964279174805
1772574553559999200,2.759999267578125,0.08762836456298828,-0.010392308235168457,0.10139599442481995
1772574553569928700,2.7699287109375,-0.0446319580078125,0.0123291015625,0.05685979127883911
1772574553579861200,2.779861328125,-0.2123737335205078,0.002130866050720215,0.05128967761993408
1772574553589797000,2.789797119140625,-0.35868072509765625,0.021863818168640137,0.05471271276473999
1772574553599730000,2.79972998046875,-0.4228935241699219,0.029970884323120117,0.03803953528404236
1772574553609674800,2.8096748046875,-0.4205198287963867,0.04096579551696777,0.06311827898025513
1772574553619608800,2.81960888671875,-0.39032840728759766,0.0546952486038208,0.06803947687149048
1772574553629536500,2.82953662109375,-0.2903738021850586,0.03785908222198486,0.04356321692466736
1772574553639470000,2.839469970703125,-0.13579845428466797,0.04166412353515625,0.02334773540496826
1772574553649400300,2.849400390625,0.00197601318359375,0.05533039569854736,-0.030574917793273926
1772574553659333400,2.85933349609375,0.10916996002197266,0.021495461463928223,-0.06153962016105652
1772574553669259300,2.86925927734375,0.20524024963378906,0.005754351615905762,-0.032675325870513916
1772574553679191600,2.879191650390625,0.22453594207763672,-0.02102947235107422,-0.03401839733123779
1772574553689144000,2.88914404296875,0.22484493255615234,0.012169122695922852,0.0062846839427948
1772574553699078400,2.899078369140625,0.18770503997802734,0.03358721733093262,0.05556026101112366
1772574553708969700,2.9089697265625,0.14661026000976562,0.05373382568359375,0.03399589657783508
1772574553718899700,2.918899658203125,0.08743762969970703,0.03537094593048096,0.008352845907211304
1772574553728835000,2.9288349609375,0.03398323059082031,0.01699507236480713,-0.021922051906585693
1772574553738765800,2.938765869140625,0.0002117156982421875,-0.015126466751098633,-0.0383414626121521
1772574553748733200,2.948733154296875,-0.014233589172363281,-0.04152560234069824,-0.059591859579086304
1772574553758667300,2.958667236328125,-0.019103050231933594,-0.04817354679107666,-0.07172417640686035
1772574553768589600,2.968589599609375,0.009015083312988281,-0.05901968479156494,-0.08385148644447327
1772574553778522600,2.978522705078125,0.02254009246826172,-0.0555652379989624,-0.07226195931434631
1772574553788425700,2.98842578125,0.040599822998046875,-0.04768061637878418,-0.05557796359062195
1772574553798356000,2.99835595703125,0.03016948699951172,-0.03531336784362793,-0.01443028450012207
1772574553808292400,3.008292236328125,0.03869915008544922,-0.017845749855041504,-0.044118255376815796
1772574553818223000,3.01822314453125,0.04234886169433594,0.009036540985107422,-0.044993072748184204
1772574553828158500,3.028158447265625,0.08828353881835938,-0.0158388614654541,-0.03588974475860596
1772574553838089500,3.03808935546875,0.1476583480834961,-0.05023789405822754,-0.04060545563697815
1772574553848021500,3.048021484375,0.18260574340820312,-0.07105398178100586,-0.055186569690704346
1772574553857952800,3.057952880859375,0.2548189163208008,-0.0463566780090332,-0.07044371962547302
1772574553867892500,3.067892578125,0.326080322265625,0.022785544395446777,-0.02426031231880188
1772574553877824500,3.077824462890625,0.29755687713623047,0.05538904666900635,0.030761122703552246
1772574553887775200,3.087775146484375,0.2698326110839844,0.023612499237060547,0.02890920639038086
1772574553897709300,3.097709228515625,0.15813350677490234,-0.014649748802185059,0.02351519465446472
1772574553907641900,3.107641845703125,-0.02207660675048828,-0.03524649143218994,0.033280789852142334
1772574553917575700,3.11757568359375,-0.14736366271972656,-0.023326873779296875,0.03863784670829773
1772574553927502000,3.127502197265625,-0.26119422912597656,-0.015679001808166504,0.015902459621429443
1772574553937435400,3.137435302734375,-0.36865997314453125,0.026726722717285156,0.035342514514923096
1772574553947381800,3.1473818359375,-0.3851804733276367,0.014357328414916992,0.011424243450164795
1772574553957316000,3.157316162109375,-0.39235973358154297,-0.0278167724609375,-0.08268725872039795
1772574553967238000,3.16723779296875,-0.3009500503540039,-0.00025260448455810547,-0.09602567553520203
1772574553977171200,3.177171142578125,-0.15960216522216797,0.010320186614990234,-0.0445670485496521
1772574553987115500,3.187115478515625,-0.03023242950439453,0.0032895803451538086,-0.02303779125213623
1772574553997049900,3.1970498046875,0.06871509552001953,-0.02227175235748291,0.003008604049682617
1772574554006943200,3.206943115234375,0.11431884765625,-0.029297590255737305,-0.00877329707145691
1772574554016873200,3.216873291015625,0.14513015747070312,-0.07458376884460449,0.022174209356307983
1772574554026845700,3.226845703125,0.12845802307128906,-0.07271885871887207,0.03460708260536194
1772574554036780300,3.2367802734375,0.055619239807128906,-0.06677520275115967,0.018207073211669922
1772574554046702600,3.24670263671875,-0.025472640991210938,-0.028272271156311035,-0.03780016303062439
1772574554056636000,3.256635986328125,-0.053549766540527344,0.023981332778930664,0.06458672881126404
1772574554066614800,3.26661474609375,-0.00113677978515625,-0.01394045352935791,0.07084324955940247
1772574554076552700,3.276552734375,-0.006049156188964844,-0.051168203353881836,0.040769219398498535
1772574554086429000,3.286428955078125,0.022054672241210938,0.011577367782592773,0.09199246764183044
1772574554096360700,3.296360595703125,0.06856060028076172,0.06865417957305908,0.14358487725257874
1772574554106294800,3.306294677734375,0.13320350646972656,0.058556437492370605,0.1389213502407074
1772574554116226800,3.316226806640625,0.1262979507446289,0.06184887886047363,0.09808968007564545
1772574554126175700,3.32617578125,0.1761951446533203,0.011877298355102539,0.05363243818283081
1772574554136109300,3.336109375,0.2772989273071289,-0.03908097743988037,0.06710180640220642
1772574554146027300,3.34602734375,0.24527645111083984,-0.04963183403015137,0.06792110204696655
1772574554155959300,3.355959228515625,0.1388530731201172,-0.04860568046569824,0.061267465353012085
1772574554165892400,3.365892333984375,0.07684898376464844,-0.01623094081878662,0.06593367457389832
1772574554175824600,3.37582470703125,0.011310577392578125,-0.0040062665939331055,0.04778704047203064
1772574554185756700,3.385756591796875,-0.02010059356689453,0.007636904716491699,0.04434841871261597
1772574554195688700,3.395688720703125,-0.09335899353027344,0.019202589988708496,0.0174655020236969
1772574554205621000,3.40562109375,-0.12305736541748047,0.0215606689453125,-0.018611133098602295
1772574554215553300,3.41555322265625,-0.19001483917236328,0.024576783180236816,-0.0026442408561706543
1772574554225484500,3.425484619140625,-0.3172035217285156,-0.009013652801513672,0.022259443998336792
1772574554235416600,3.43541650390625,-0.44727420806884766,-0.016290783882141113,0.013345092535018921
1772574554245354500,3.4453544921875,-0.5003509521484375,-0.015312910079956055,-0.06775999069213867
1772574554255287300,3.455287353515625,-0.47313785552978516,-0.010341048240661621,-0.11742451786994934
1772574554265231000,3.465231201171875,-0.4186973571777344,-0.011290669441223145,-0.10278525948524475
1772574554275165000,3.4751650390625,-0.3185396194458008,0.014278292655944824,-0.07611334323883057
1772574554285094000,3.485093994140625,-0.1732654571533203,0.03669548034667969,-0.06045562028884888
1772574554295027200,3.495027099609375,-0.06347179412841797,0.05952751636505127,-0.10171541571617126
1772574554304955000,3.504954833984375,0.0068340301513671875,0.06311619281768799,-0.07173323631286621
1772574554314887700,3.5148876953125,0.024209022521972656,0.0616302490234375,-0.033175140619277954
1772574554324810800,3.524810791015625,0.0460662841796875,0.05484497547149658,-0.042967289686203
1772574554334742500,3.534742431640625,0.11942577362060547,0.023825764656066895,-0.04422527551651001
1772574554344654600,3.544654541015625,0.1916370391845703,0.006618142127990723,-0.018262803554534912
1772574554354584300,3.554584228515625,0.1969013214111328,-0.011609077453613281,0.021414846181869507
1772574554364545500,3.564545654296875,0.14577007293701172,-0.01679539680480957,0.05609944462776184
1772574554374478300,3.574478271484375,0.08625602722167969,-0.008972525596618652,0.06742343306541443
1772574554384409300,3.584409423828125,0.03259086608886719,-0.006981253623962402,0.06968197226524353
1772574554394342100,3.594342041015625,-0.024810791015625,-0.0007044076919555664,0.07735110819339752
1772574554404285000,3.604284912109375,-0.09540081024169922,-0.003634810447692871,0.0901363343000412
1772574554414218800,3.61421875,-0.10837078094482422,-0.010612964630126953,0.08421801030635834
1772574554424141600,3.6241416015625,-0.07883358001708984,-0.01666438579559326,0.05990804731845856
1772574554434074000,3.63407421875,-0.021628379821777344,-0.031111955642700195,0.045968711376190186
1772574554444015600,3.644015625,0.039307594299316406,-0.01183927059173584,0.06637437641620636
1772574554453949200,3.65394921875,0.10865402221679688,-0.011408329010009766,0.09732699394226074
1772574554463871000,3.66387109375,0.15807819366455078,-0.030106663703918457,0.06752924621105194
1772574554473803500,3.673803466796875,0.13149356842041016,-0.06360936164855957,0.06281261146068573
1772574554483738000,3.683738037109375,0.08666515350341797,-0.02702033519744873,0.06803040206432343
1772574554493670700,3.693670654296875,0.00029754638671875,0.0035610198974609375,0.06400476396083832
1772574554503608000,3.703608154296875,-0.02338409423828125,0.009691238403320312,0.026695996522903442
1772574554513541000,3.713541015625,-0.01842784881591797,0.039264678955078125,-0.0008644759654998779
1772574554523479300,3.723479248046875,-0.03712749481201172,0.040289998054504395,-0.004647582769393921
1772574554533412900,3.733412841796875,0.024509429931640625,0.046106696128845215,-0.022795915603637695
1772574554543337200,3.743337158203125,0.09927845001220703,0.03258860111236572,-0.012893527746200562
1772574554553269800,3.753269775390625,0.08343315124511719,0.013676762580871582,0.0058345794677734375
1772574554563199500,3.763199462890625,0.04911518096923828,0.0224229097366333,0.038062602281570435
1772574554573132000,3.773132080078125,0.03425121307373047,0.03993690013885498,0.017556339502334595
1772574554583063600,3.7830634765625,0.01493072509765625,0.024088740348815918,0.0017628669738769531
1772574554592995800,3.792995849609375,0.010045051574707031,0.013203978538513184,0.014045685529708862
1772574554602913000,3.8029130859375,-0.018327713012695312,0.007402658462524414,0.04953323304653168
1772574554612843500,3.812843505859375,-0.07449913024902344,-0.007614016532897949,0.022937089204788208
1772574554622794000,3.8227939453125,-0.10625648498535156,-0.0172731876373291,-0.017962485551834106
1772574554632726500,3.8327265625,-0.09996414184570312,-0.035086989402770996,-0.02113395929336548
1772574554642661400,3.842661376953125,-0.027962684631347656,-0.047188401222229004,-0.02033725380897522
1772574554652594200,3.85259423828125,0.09929370880126953,-0.04936671257019043,0.0034987330436706543
1772574554662500600,3.86250048828125,0.11619949340820312,-0.03297722339630127,0.06092458963394165
1772574554672430800,3.872430908203125,0.08585834503173828,0.0012805461883544922,0.06222409009933472
1772574554682370300,3.882370361328125,0.07493972778320312,0.010831117630004883,0.0074468255043029785
1772574554692301300,3.89230126953125,0.036025047302246094,0.015012860298156738,0.005893677473068237
1772574554702267600,3.902267578125,-0.011618614196777344,-0.004727959632873535,0.01385568082332611
1772574554712137000,3.912136962890625,-0.06792640686035156,-0.0049016475677490234,0.012569352984428406
1772574554732066000,3.932066162109375,-0.14040088653564453,-0.03058779239654541,-0.013307005167007446
1772574554742006800,3.9420068359375,-0.14784812927246094,-0.008264899253845215,-0.06559303402900696
1772574554751912400,3.951912353515625,-0.1176748275756836,0.005659699440002441,-0.07023251056671143
1772574554761849600,3.961849609375,-0.06458187103271484,0.010843753814697266,-0.0660325288772583
1772574554771782400,3.971782470703125,-0.007779121398925781,0.026250481605529785,-0.03880888223648071
1772574554781719000,3.981718994140625,0.029232025146484375,0.060328006744384766,-0.007479429244995117
1772574554791656700,3.99165673828125,0.07982063293457031,0.03202056884765625,-0.023971781134605408
1772574554801593600,4.001593505859375,0.11555957794189453,-0.011047840118408203,-0.040693193674087524
1772574554811523300,4.0115234375,0.0943307876586914,0.016026020050048828,-0.019845470786094666
1772574554821459700,4.021459716796875,0.03591632843017578,0.08834195137023926,-0.028940722346305847
1772574554831378400,4.03137841796875,0.020918846130371094,0.008089423179626465,-0.09028294682502747
1772574554841312800,4.041312744140625,-0.01735687255859375,0.004501223564147949,-0.07472753524780273
1772574554851245600,4.05124560546875,-0.05974769592285156,0.06257939338684082,-0.0454401820898056
1772574554861180000,4.061179931640625,-0.04029273986816406,0.045152902603149414,-0.048818930983543396
1772574554871111400,4.071111328125,-0.01646900177001953,0.023700833320617676,-0.05097810924053192
1772574554881045500,4.08104541015625,0.011628150939941406,0.017233848571777344,-0.019347861409187317
1772574554890996000,4.090995849609375,0.02045726776123047,0.015384912490844727,-0.016007333993911743
1772574554900931600,4.100931640625,0.062155723571777344,0.0037397146224975586,-0.035871654748916626
1772574554910819600,4.110819580078125,0.07022476196289062,0.0014837980270385742,-0.0366097092628479
1772574554920750300,4.120750244140625,0.054680824279785156,-0.015466570854187012,-0.05163583159446716
1772574554930685700,4.130685791015625,0.07243537902832031,0.0001035928726196289,-0.03354246914386749
1772574554940617000,4.140616943359375,0.09000873565673828,0.03795433044433594,0.05971069633960724
1772574554950557200,4.15055712890625,0.07445144653320312,0.008363962173461914,0.07706858217716217
1772574554960489200,4.1604892578125,0.040401458740234375,-0.01651918888092041,0.06243188679218292
1772574554970443300,4.170443359375,0.03514289855957031,-0.026565909385681152,0.015361040830612183
1772574554980377600,4.180377685546875,0.05346870422363281,-0.007799625396728516,0.020709767937660217
1772574554990278400,4.1902783203125,0.09974002838134766,-0.031728267669677734,0.06830985844135284
1772574555000209700,4.200209716796875,0.11701583862304688,-0.06487858295440674,0.09177801012992859
1772574555010145800,4.210145751953125,0.11051273345947266,-0.05079209804534912,0.10104400664567947
1772574555020077300,4.220077392578125,0.14182281494140625,-0.03262615203857422,0.05800256133079529
1772574555030008300,4.23000830078125,0.18208980560302734,-0.03419852256774902,0.05777601897716522
1772574555039939800,4.23993994140625,0.20298004150390625,-0.046270132064819336,0.06708286702632904
1772574555049881000,4.249881103515625,0.18131446838378906,-0.03130757808685303,0.09076547622680664
1772574555059813600,4.259813720703125,0.11778068542480469,-0.017802953720092773,0.08149617910385132
1772574555069740300,4.269740234375,0.06017303466796875,-0.015151143074035645,0.05434185266494751
1772574555079672000,4.279672119140625,-0.05755805969238281,0.005378365516662598,0.023740336298942566
1772574555089638700,4.289638671875,-0.17331695556640625,-0.016741156578063965,0.008268028497695923
1772574555099574000,4.299573974609375,-0.2542705535888672,-0.0470808744430542,0.012040853500366211
1772574555109506000,4.309506103515625,-0.2916984558105469,-0.013987302780151367,-0.01743859052658081
1772574555119441200,4.319441162109375,-0.2628469467163086,-0.01689732074737549,-0.023199647665023804
1772574555129378600,4.329378662109375,-0.1876239776611328,-0.02255415916442871,-0.07175907492637634
1772574555139313700,4.339313720703125,-0.080810546875,-0.041338324546813965,-0.07283979654312134
1772574555149223200,4.34922314453125,-0.0040416717529296875,-0.031356215476989746,-0.05467285215854645
1772574555159156000,4.359156005859375,-0.01798534393310547,-0.03586876392364502,-0.05543503165245056
1772574555169092600,4.369092529296875,-0.036391258239746094,-0.03089439868927002,-0.05570344626903534
1772574555179025700,4.379025634765625,-0.06394767761230469,0.0026557445526123047,-0.055743783712387085
1772574555188966100,4.388966064453125,-0.04873371124267578,-0.010938763618469238,-0.07492965459823608
1772574555198900000,4.39889990234375,-0.033843040466308594,-0.00017404556274414062,-0.06560584902763367
1772574555208819700,4.40881982421875,-0.056926727294921875,0.03455197811126709,-0.046634554862976074
1772574555218752000,4.418751953125,-0.09384822845458984,0.00838625431060791,-0.03712528944015503
1772574555228695800,4.42869580078125,-0.14439773559570312,-0.011533737182617188,-0.08400607109069824
1772574555238629400,4.43862939453125,-0.15663623809814453,-0.043566346168518066,-0.12569597363471985
1772574555248549000,4.448549072265625,-0.1736459732055664,-0.01659846305847168,-0.03640052676200867
1772574555258481400,4.4584814453125,-0.049320220947265625,-0.0075206756591796875,0.04491378366947174
1772574555268412400,4.468412353515625,-0.016565322875976562,-0.0405728816986084,0.04962964355945587
1772574555278344400,4.478344482421875,0.020379066467285156,-0.026190757751464844,0.039934441447257996
1772574555288281000,4.488281005859375,0.03325080871582031,0.024832487106323242,0.08184361457824707
1772574555298213600,4.498213623046875,-0.005801200866699219,0.013114690780639648,0.08549037575721741
1772574555308146000,4.50814599609375,0.012383460998535156,0.015233278274536133,0.08043348789215088
1772574555318078200,4.518078125,0.025609970092773438,-0.0017005205154418945,0.052892670035362244
1772574555328012500,4.528012451171875,0.029236793518066406,-0.018643617630004883,0.03997240960597992
1772574555337945000,4.537945068359375,0.08463191986083984,-0.012066960334777832,0.050700828433036804
1772574555347876400,4.54787646484375,0.15330219268798828,-0.0014951229095458984,0.06606180965900421
1772574555357809000,4.557808837890625,0.20680618286132812,0.026638388633728027,0.07118023931980133
1772574555367747300,4.567747314453125,0.22658538818359375,0.06241714954376221,0.05217964947223663
1772574555377680400,4.577680419921875,0.21793842315673828,0.025461435317993164,0.06626541912555695
1772574555387604500,4.5876044921875,0.16249465942382812,0.03019428253173828,0.07092200219631195
1772574555397536800,4.597536865234375,0.12687015533447266,0.015308380126953125,0.04674626886844635
1772574555407474000,4.607473876953125,0.09657955169677734,0.02380979061126709,0.05553017556667328
1772574555417406700,4.61740673828125,0.04328441619873047,-0.010610818862915039,0.05915607511997223
1772574555427340500,4.627340576171875,0.033263206481933594,-0.02592301368713379,0.061924681067466736
1772574555437273600,4.637273681640625,0.056397438049316406,0.005699872970581055,0.06413157284259796
1772574555447203000,4.647203125,0.05092906951904297,0.0035425424575805664,0.06633405387401581
1772574555457135600,4.657135498046875,0.03147315979003906,-0.008388280868530273,0.08276885747909546
1772574555467068700,4.667068603515625,0.012357711791992188,0.0033333301544189453,0.08504867553710938
1772574555477001200,4.677001220703125,-0.011143684387207031,0.01006472110748291,0.07762467861175537
1772574555486931700,4.686931640625,-0.034234046936035156,-0.02117455005645752,0.09381023049354553
1772574555496864300,4.6968642578125,-0.038130760192871094,-0.02333080768585205,0.10525184869766235
1772574555506799900,4.7067998046875,-0.06550979614257812,0.017037630081176758,0.08849665522575378
1772574555516732400,4.716732421875,-0.054775238037109375,-0.008978724479675293,0.08657258749008179
1772574555526667800,4.726667724609375,-0.07715988159179688,-0.02995169162750244,0.07557722926139832
1772574555536600600,4.7366005859375,-0.1227102279663086,-0.01771247386932373,0.09272530674934387
1772574555546540500,4.74654052734375,-0.14400100708007812,-0.019599556922912598,0.0852484405040741
1772574555556474000,4.75647412109375,-0.17910289764404297,0.0022934675216674805,0.07720273733139038
1772574555566390500,4.766390625,-0.15248584747314453,0.014908552169799805,0.0825045108795166
1772574555576322300,4.776322265625,-0.1028432846069336,-0.0004394054412841797,0.04922868311405182
1772574555586258200,4.786258056640625,-0.05877876281738281,-0.01512157917022705,0.04479163885116577
1772574555596190500,4.7961904296875,-0.02489471435546875,-0.019739270210266113,0.05045171082019806
1772574555606109700,4.806109619140625,-0.043402671813964844,-0.00022709369659423828,0.06166855990886688
1772574555616040700,4.816040771484375,-0.038117408752441406,0.019681692123413086,0.0547448992729187
1772574555625994200,4.825994140625,-0.03303813934326172,0.0028171539306640625,0.029771476984024048
1772574555635927600,4.835927490234375,0.0048065185546875,-0.02677738666534424,0.005672574043273926
1772574555645859800,4.84585986328125,0.056061744689941406,-0.022103428840637207,0.019787266850471497
1772574555655793200,4.855793212890625,0.15356159210205078,-0.027014851570129395,-0.018085867166519165
1772574555665733400,4.8657333984375,0.2354145050048828,-0.009195089340209961,-0.03624993562698364
1772574555675667500,4.87566748046875,0.2501516342163086,0.016234636306762695,-0.044483110308647156
1772574555685599000,4.885598876953125,0.2177581787109375,0.015888452529907227,-0.057064637541770935
1772574555695532500,4.895532470703125,0.17665481567382812,0.009331703186035156,-0.06921204924583435
1772574555705451300,4.905451171875,0.0987100601196289,0.00638425350189209,-0.06663921475410461
1772574555715383300,4.91538330078125,0.02687358856201172,0.01208794116973877,-0.07774853706359863
1772574555725324300,4.92532421875,-0.020189285278320312,0.012673377990722656,-0.11706556379795074
1772574555735257300,4.93525732421875,-0.052353858947753906,-0.010203003883361816,-0.12764249742031097
1772574555745193200,4.945193115234375,-0.11698436737060547,-0.004062652587890625,-0.0910440981388092
1772574555755126500,4.95512646484375,-0.1664581298828125,-0.0257796049118042,-0.06892290711402893
1772574555765048000,4.965048095703125,-0.1540088653564453,-0.0272902250289917,-0.08024442195892334
1772574555774980400,4.97498046875,-0.15129566192626953,-0.02297234535217285,-0.09573671221733093
1772574555784924000,4.984923828125,-0.13463401794433594,-0.012913346290588379,-0.09726902842521667
1772574555794857200,4.994857177734375,-0.052399635314941406,-0.01665186882019043,-0.1040237545967102
1772574555804792800,5.004792724609375,-0.009225845336914062,-0.010820746421813965,-0.06873616576194763
1772574555814726400,5.014726318359375,0.03323936462402344,-0.019321799278259277,-0.029361695051193237
1772574555824644900,5.024644775390625,0.023247718811035156,-0.02327263355255127,-0.018482357263565063
1772574555834577000,5.034576904296875,0.037009239196777344,0.010114550590515137,-0.05013814568519592
1772574555844513800,5.044513671875,0.045866966247558594,0.014391541481018066,-0.034179866313934326
1772574555854446300,5.0544462890625,0.03578758239746094,-0.0004470348358154297,-0.013006329536437988
1772574555864390000,5.064389892578125,0.04000282287597656,0.0038994550704956055,0.017648309469223022
1772574555874323500,5.074323486328125,0.011178970336914062,0.012983441352844238,0.033765003085136414
1772574555884268800,5.084268798828125,0.0016374588012695312,-0.0013272762298583984,0.016644597053527832
1772574555894203600,5.09420361328125,0.0016508102416992188,0.008339285850524902,-0.004923701286315918
1772574555904106800,5.104106689453125,0.0440521240234375,-0.0010966062545776367,-0.0167447030544281
1772574555914038300,5.114038330078125,0.0716409683227539,0.0034486055374145508,-0.010031700134277344
1772574555923983400,5.1239833984375,0.018796920776367188,0.007312178611755371,0.010899573564529419
1772574555933916400,5.13391650390625,-0.01898956298828125,0.024834871292114258,0.01755562424659729
1772574555943833600,5.14383349609375,-0.027929306030273438,0.03285777568817139,-0.009243220090866089
1772574555953764900,5.153764892578125,-0.017919540405273438,0.026818513870239258,-0.05013301968574524
1772574555963702300,5.163702392578125,-0.0033674240112304688,-0.0026695728302001953,-0.052694171667099
1772574555973634300,5.17363427734375,-0.02669525146484375,-0.036585211753845215,-0.017275720834732056
1772574555983565800,5.18356591796875,-0.0731668472290039,0.0006933212280273438,0.0037287771701812744
1772574555993497900,5.193497802734375,-0.1000814437866211,0.0048912763595581055,-0.022613316774368286
1772574556003440000,5.203440185546875,-0.11247730255126953,-0.004602909088134766,-0.03909751772880554
1772574556013373200,5.213373291015625,-0.12476253509521484,0.015109062194824219,-0.01787552237510681
1772574556023297300,5.22329736328125,-0.09928321838378906,-0.0022813081741333008,-0.04443046450614929
1772574556033229300,5.233229248046875,-0.050785064697265625,-0.03281140327453613,-0.05244565010070801
1772574556043162600,5.24316259765625,-0.007824897766113281,-0.043913841247558594,-0.03243303298950195
1772574556053095000,5.253094970703125,0.029729843139648438,-0.036107778549194336,-0.031419724225997925
1772574556063025400,5.263025390625,0.057259559631347656,-0.03805088996887207,-0.011689096689224243
1772574556072957400,5.27295751953125,0.056102752685546875,0.0069234371185302734,-0.011121004819869995
1772574556082896600,5.282896728515625,0.03614521026611328,0.022794127464294434,-0.015180528163909912
1772574556092829200,5.2928291015625,0.044818878173828125,0.014443159103393555,-0.028521835803985596
1772574556102774800,5.30277490234375,0.048638343811035156,0.006129026412963867,-0.027928471565246582
1772574556112708600,5.31270849609375,0.047692298889160156,0.021384239196777344,-0.013352721929550171
1772574556122599200,5.32259912109375,0.05150032043457031,0.017348051071166992,0.010609179735183716
1772574556132529000,5.33252880859375,0.07413101196289062,0.031723976135253906,0.00585329532623291
1772574556142500900,5.3425009765625,0.07290077209472656,0.03103196620941162,-0.02756926417350769
1772574556152434700,5.3524345703125,0.06702804565429688,0.04867911338806152,-0.023078352212905884
1772574556162335000,5.3623349609375,0.014245986938476562,0.04659378528594971,0.014690637588500977
1772574556172265700,5.372265625,-0.03763580322265625,0.03982746601104736,0.01946234703063965
1772574556182200800,5.382200927734375,-0.055731773376464844,0.019548416137695312,0.010521501302719116
1772574556192131800,5.3921318359375,-0.06885051727294922,0.000010609626770019531,0.025574296712875366
1772574556202065000,5.40206494140625,-0.04887676239013672,0.01436316967010498,0.02093714475631714
1772574556211996000,5.411995849609375,-0.005749702453613281,0.028775453567504883,0.029786616563796997
1772574556221963500,5.421963623046875,0.0743398666381836,0.04274415969848633,0.028756171464920044
1772574556231898400,5.4318984375,0.1343364715576172,0.02281343936920166,0.05128735303878784
1772574556241821000,5.441821044921875,0.14167404174804688,0.016243577003479004,0.05975344777107239
1772574556251754800,5.451754638671875,0.10193920135498047,0.02279806137084961,0.07318975031375885
1772574556261658000,5.461658203125,0.05826854705810547,0.02824556827545166,0.058148741722106934
1772574556271588600,5.471588623046875,0.02007007598876953,-0.009087443351745605,0.07160978019237518
1772574556281535700,5.48153564453125,-0.017488479614257812,-0.0222550630569458,0.06603403389453888
1772574556291468000,5.491468017578125,-0.0073699951171875,-0.025373101234436035,0.06557221710681915
1772574556301416000,5.501416015625,-0.016262054443359375,-0.014113306999206543,0.07024221122264862
1772574556311349800,5.511349853515625,-0.02505779266357422,-0.012037158012390137,0.06525857746601105
1772574556321280000,5.521280029296875,-0.010191917419433594,-0.014501333236694336,0.050738364458084106
1772574556331213600,5.531213623046875,0.013822555541992188,-0.03564560413360596,0.022077113389968872
1772574556341154300,5.541154296875,-0.019084930419921875,-0.04681062698364258,0.03169739246368408
1772574556351088600,5.551088623046875,-0.06561088562011719,-0.019598960876464844,0.0464264452457428
1772574556361017600,5.561017578125,-0.1067037582397461,-0.01587224006652832,0.014047592878341675
1772574556370951200,5.570951171875,-0.11426162719726562,-0.025326013565063477,0.0011439025402069092
1772574556380872200,5.5808720703125,-0.09827518463134766,-0.04293859004974365,-0.002152472734451294
1772574556390804700,5.5908046875,-0.0684957504272461,-0.021886229515075684,0.004416346549987793
1772574556400740600,5.60074072265625,-0.034546852111816406,-0.038346171379089355,0.025416433811187744
1772574556410673400,5.61067333984375,0.012914657592773438,-0.04000377655029297,-0.0011207759380340576
1772574556420604400,5.6206044921875,0.040740013122558594,-0.013177871704101562,-0.003359466791152954
1772574556430537000,5.630536865234375,0.0822591781616211,-0.0012265443801879883,-0.024495244026184082
1772574556440470000,5.640469970703125,0.08551692962646484,-0.0234452486038208,-0.04098385572433472
1772574556450402600,5.650402587890625,0.04177379608154297,-0.051218390464782715,-0.033576130867004395
1772574556460347400,5.660347412109375,-0.0058917999267578125,-0.027346372604370117,-0.03603154420852661
1772574556470281200,5.67028125,-0.015062332153320312,0.02868175506591797,-0.029445171356201172
1772574556480179000,5.680178955078125,-0.033527374267578125,0.041599154472351074,-0.013768285512924194
1772574556490109200,5.690109130859375,-0.06589221954345703,0.022043824195861816,-0.017284482717514038
1772574556510003500,5.71000341796875,-0.04937267303466797,0.023246169090270996,-0.0014330148696899414
1772574556519929600,5.7199296875,0.00304412841796875,0.015208005905151367,0.007907629013061523
1772574556529862100,5.729862060546875,0.03571891784667969,-0.0018169879913330078,0.007653176784515381
1772574556539795700,5.739795654296875,0.04904365539550781,-0.004539966583251953,0.04084482789039612
1772574556549728300,5.749728271484375,0.05750465393066406,0.011224508285522461,0.07883036136627197
1772574556559662300,5.759662353515625,0.04232215881347656,0.026535630226135254,0.06963473558425903
1772574556569595100,5.76959521484375,0.0321197509765625,0.013242602348327637,0.0372622013092041
1772574556579492900,5.779492919921875,0.017386436462402344,0.028307080268859863,0.06650123000144958
1772574556589411300,5.789411376953125,0.02643585205078125,0.0382310152053833,0.08038124442100525
1772574556599357700,5.799357666015625,0.04006481170654297,0.02435898780822754,0.06611710786819458
1772574556609290500,5.80929052734375,-0.007744789123535156,0.006001472473144531,0.06148415803909302
1772574556619223300,5.819223388671875,-0.07834434509277344,-0.025974273681640625,0.023363560438156128
1772574556649013200,5.84901318359375,-0.11536026000976562,-0.00947725772857666,-0.01887032389640808
1772574556658982700,5.858982666015625,-0.08116626739501953,0.05382418632507324,0.1283690482378006
1772574556668918300,5.868918212890625,-0.0052280426025390625,0.060929059982299805,0.152972012758255
1772574556678819300,5.8788193359375,0.05535602569580078,0.044675230979919434,0.10360895097255707
1772574556688751400,5.88875146484375,0.09618949890136719,0.04295074939727783,0.053105562925338745
1772574556698661400,5.898661376953125,0.06116008758544922,0.05926954746246338,0.05672937631607056
1772574556718602800,5.918602783203125,0.030457496643066406,-0.0014606714248657227,0.03550347685813904
1772574556728541400,5.92854150390625,0.029840469360351562,-0.025986313819885254,0.013654083013534546
1772574556738449400,5.938449462890625,0.06222057342529297,-0.008850038051605225,-0.02431201934814453
1772574556748385000,5.948385009765625,0.10821533203125,0.011793136596679688,-0.04926258325576782
1772574556758315800,5.958315673828125,0.14410400390625,0.030962705612182617,-0.041797518730163574
1772574556768251000,5.9682509765625,0.16534042358398438,0.006608247756958008,-0.0301017165184021
1772574556778173000,5.9781728515625,0.14867591857910156,-0.023266196250915527,-0.023432672023773193
1772574556788106800,5.988106689453125,0.10411834716796875,-0.015997767448425293,-0.05517840385437012
1772574556798044700,5.998044677734375,0.10272026062011719,-0.037827253341674805,-0.044867128133773804
1772574556807979000,6.00797900390625,0.07315444946289062,-0.04128217697143555,-0.025958597660064697
1772574556817942000,6.01794189453125,0.05826282501220703,-0.040696024894714355,-0.03613615036010742
1772574556827879200,6.027879150390625,0.02013111114501953,-0.04532897472381592,-0.022619962692260742
1772574556837773300,6.037773193359375,-0.01731395721435547,-0.03594517707824707,-0.04160204529762268
1772574556847706000,6.0477060546875,-0.049386024475097656,-0.02683568000793457,-0.03140288591384888
1772574556857623600,6.05762353515625,-0.08565235137939453,-0.06946158409118652,-0.021374821662902832
1772574556867554800,6.067554931640625,-0.1072549819946289,-0.054262757301330566,-0.002165883779525757
1772574556877480200,6.077480224609375,-0.114471435546875,-0.06664490699768066,0.011945366859436035
1772574556887357400,6.087357421875,-0.10283660888671875,-0.026195645332336426,-0.0028097331523895264
1772574556897333500,6.09733349609375,-0.1009063720703125,0.014368057250976562,0.001330256462097168
1772574556917191000,6.11719091796875,-0.022665023803710938,-0.0026051998138427734,0.013284623622894287
1772574556937084700,6.137084716796875,-0.05443572998046875,-0.013610124588012695,0.03568580746650696
1772574556947019000,6.14701904296875,0.01715850830078125,-0.032630205154418945,-0.006959289312362671
1772574556956949800,6.15694970703125,0.06871986389160156,-0.004045724868774414,0.012721031904220581
1772574556966883600,6.166883544921875,0.10062408447265625,-0.00899040699005127,0.0515347421169281
1772574556976829200,6.1768291015625,0.08969402313232422,0.02353358268737793,0.06722453236579895
1772574556986764000,6.186763916015625,0.07897472381591797,0.031703948974609375,0.10618039965629578
1772574556996683300,6.196683349609375,0.11092662811279297,0.03386414051055908,0.09239593148231506
1772574557006616600,6.206616455078125,0.08598804473876953,0.03950035572052002,0.03681442141532898
1772574557016547800,6.2165478515625,0.047448158264160156,0.02498626708984375,0.023899167776107788
1772574557026481200,6.226481201171875,0.02376079559326172,0.03344106674194336,0.0015596449375152588
1772574557036411100,6.2364111328125,0.005208015441894531,0.017894506454467773,0.017116427421569824
1772574557046344200,6.24634423828125,-0.045986175537109375,0.02122187614440918,0.07905274629592896
1772574557056276700,6.25627685546875,-0.08695125579833984,0.0666661262512207,0.24663034081459045
1772574557066209500,6.26620947265625,-0.12249374389648438,-0.05766463279724121,0.055515676736831665
1772574557076149800,6.276149658203125,-0.12928295135498047,-0.02354574203491211,0.023441821336746216
1772574557086083600,6.28608349609375,-0.01837444305419922,-0.15816903114318848,-0.2854446470737457
1772574557096022000,6.29602197265625,-0.08823680877685547,-0.15798592567443848,-0.13987714052200317
1772574557105956000,6.3059560546875,-0.20883750915527344,-0.053381919860839844,0.1723746508359909
1772574557115876000,6.3158759765625,-0.20518016815185547,-0.0389103889465332,0.14386877417564392
1772574557125808600,6.32580859375,-0.16879844665527344,-0.004686713218688965,-0.002844303846359253
1772574557135749400,6.335749267578125,-0.10968017578125,0.03457796573638916,-0.07870963215827942
1772574557145683000,6.345682861328125,-0.046975135803222656,0.05963397026062012,-0.0702454149723053
1772574557155603200,6.355603271484375,0.009940147399902344,0.06561410427093506,-0.015191793441772461
1772574557165535200,6.36553515625,0.037677764892578125,0.05266714096069336,0.011203676462173462
1772574557175466500,6.375466552734375,0.07442951202392578,0.025420308113098145,-0.033133864402770996
1772574557185398500,6.3853984375,0.082366943359375,0.017055392265319824,-0.06722664833068848
1772574557195332900,6.395332763671875,0.1279010772705078,0.03646087646484375,-0.05391290783882141
1772574557205265200,6.40526513671875,0.08803939819335938,0.04511463642120361,-0.00777164101600647
1772574557215200000,6.415199951171875,0.044219017028808594,0.06714534759521484,-0.009083151817321777
1772574557225132500,6.425132568359375,-0.0506591796875,0.0983269214630127,-0.038221150636672974
1772574557235069400,6.4350693359375,-0.09691905975341797,0.08228421211242676,-0.02936282753944397
1772574557245002200,6.445002197265625,-0.10956287384033203,0.06279444694519043,-0.06306308507919312
1772574557254961400,6.45496142578125,-0.06560611724853516,0.016481518745422363,-0.06296461820602417
1772574557264897000,6.46489697265625,0.0010852813720703125,-0.014351248741149902,-0.06782102584838867
1772574557274799400,6.47479931640625,0.019559860229492188,-0.02115190029144287,-0.04017934203147888
1772574557284732000,6.48473193359375,0.028342247009277344,-0.03765153884887695,-0.03684842586517334
1772574557294655500,6.494655517578125,0.03232383728027344,-0.04024624824523926,-0.03835764527320862
1772574557304587000,6.5045869140625,0.041014671325683594,-0.057521939277648926,-0.02570629119873047
1772574557314526000,6.51452587890625,0.021381378173828125,-0.05157041549682617,-0.032001107931137085
1772574557324458200,6.524458251953125,-0.01200103759765625,-0.060242414474487305,-0.014534741640090942
1772574557334422300,6.53442236328125,-0.030658721923828125,-0.04552614688873291,0.007556408643722534
1772574557344358000,6.54435791015625,-0.0630807876586914,-0.012513279914855957,0.015583932399749756
1772574557354262800,6.5542626953125,-0.07616996765136719,-0.03153347969055176,0.02330338954925537
1772574557364195000,6.564195068359375,-0.0655670166015625,-0.026179194450378418,0.007079273462295532
1772574557374140700,6.574140625,-0.04576396942138672,-0.029919981956481934,-0.013461798429489136
1772574557384074500,6.584074462890625,-0.04043865203857422,-0.01455545425415039,0.004032701253890991
1772574557394004700,6.594004638671875,0.00244140625,0.010283827781677246,-0.016197651624679565
1772574557403938000,6.60393798828125,0.05874156951904297,0.03953087329864502,-0.02613726258277893
1772574557413884000,6.6138837890625,0.07176876068115234,0.02571284770965576,-0.02599126100540161
1772574557423818500,6.623818603515625,0.07993412017822266,0.0021996498107910156,-0.025657355785369873
1772574557433718000,6.633718017578125,0.06918525695800781,0.025661110877990723,-0.04416310787200928
1772574557443649000,6.64364892578125,0.053955078125,0.024676918983459473,-0.04375007748603821
1772574557453606700,6.653606689453125,0.02956676483154297,0.018986821174621582,-0.04798614978790283
1772574557463540500,6.66354052734375,0.024423599243164062,0.032320261001586914,-0.032936275005340576
1772574557473472300,6.67347216796875,0.028787612915039062,0.04082345962524414,-0.008317232131958008
1772574557483405800,6.68340576171875,0.02838611602783203,-0.00271451473236084,-0.012270450592041016
1772574557493331500,6.69333154296875,0.028005599975585938,-0.008058905601501465,-0.044611066579818726
1772574557503264000,6.703263916015625,0.041778564453125,-0.009009003639221191,-0.04405650496482849
1772574557513209300,6.713209228515625,0.03181934356689453,0.01789534091949463,0.01757684350013733
1772574557523143400,6.723143310546875,0.0785837173461914,-0.012452483177185059,0.045726925134658813
1772574557533062400,6.7330625,0.0681905746459961,-0.01953732967376709,0.03188028931617737
1772574557542994700,6.74299462890625,0.048664093017578125,-0.01798093318939209,0.027930259704589844
1772574557552925200,6.75292529296875,0.0012693405151367188,-0.007540583610534668,0.03345194458961487
1772574557562857500,6.762857421875,-0.06419944763183594,-0.0018824338912963867,-0.008707523345947266
1772574557572794000,6.772794189453125,-0.09095954895019531,-0.0006293058395385742,-0.0079994797706604
1772574557582727000,6.782726806640625,-0.07964706420898438,0.0009032487869262695,0.020735323429107666
1772574557592652500,6.792652587890625,-0.07330131530761719,0.01703786849975586,0.0015918314456939697
1772574557602584600,6.80258447265625,-0.08594226837158203,0.023770451545715332,0.010670781135559082
1772574557612503300,6.81250341796875,-0.08433055877685547,0.02177727222442627,0.015079796314239502
1772574557622434000,6.82243408203125,-0.0922393798828125,0.0017944574356079102,0.019840925931930542
1772574557632391700,6.8323916015625,-0.057723045349121094,0.006496787071228027,0.005902528762817383
1772574557642325000,6.842324951171875,-0.042685508728027344,0.0024079084396362305,0.006622761487960815
1772574557652254500,6.85225439453125,0.005007743835449219,0.027141213417053223,0.012139767408370972
1772574557662187500,6.8621875,0.05184364318847656,0.037731170654296875,-0.006403475999832153
1772574557672124000,6.8721240234375,0.12616539001464844,0.03852689266204834,-0.006004422903060913
1772574557682057200,6.88205712890625,0.13809871673583984,0.03880608081817627,-0.01963716745376587
1772574557691988200,6.89198828125,0.1405315399169922,0.023948311805725098,-0.023625552654266357
1772574557701921300,6.90192138671875,0.1336345672607422,-0.0011949539184570312,-0.013444691896438599
1772574557711848200,6.91184814453125,0.08928775787353516,-0.007994413375854492,-0.02227962017059326
1772574557721780700,6.92178076171875,0.045746803283691406,0.0034389495849609375,-0.05022767186164856
1772574557741624600,6.94162451171875,-0.043972015380859375,0.011363863945007324,-0.006351381540298462
1772574557751556900,6.951556884765625,-0.061797142028808594,-0.0004888772964477539,0.0035366714000701904
1772574557761527000,6.961527099609375,-0.03700828552246094,-0.02567613124847412,-0.0336344838142395
1772574557771462700,6.971462646484375,0.01087188720703125,-0.035904765129089355,-0.008763313293457031
1772574557781383000,6.9813828125,0.02030467987060547,-0.05077469348907471,0.015881478786468506
1772574557791316700,6.991316650390625,-0.0033559799194335938,-0.03734004497528076,0.0071801841259002686
1772574557801257000,7.001257080078125,-0.059586524963378906,-0.009987473487854004,0.003279447555541992
1772574557811191800,7.01119189453125,-0.10081005096435547,-0.025165200233459473,-0.02460348606109619
1772574557821109800,7.02110986328125,-0.10847854614257812,-0.025367259979248047,-0.010171324014663696
1772574557831042800,7.031042724609375,-0.09728813171386719,-0.01064002513885498,0.00380706787109375
1772574557840981800,7.040981689453125,-0.0722646713256836,0.009469389915466309,0.022296398878097534
1772574557850915300,7.050915283203125,-0.028898239135742188,0.011012434959411621,0.03095996379852295
1772574557860842200,7.06084228515625,0.03730010986328125,0.03126657009124756,0.025365501642227173
1772574557870775000,7.070775146484375,0.08357715606689453,0.022823691368103027,0.03406691551208496
1772574557880686600,7.0806865234375,0.10093021392822266,0.009006500244140625,0.042724400758743286
1772574557890617300,7.090617431640625,0.10867500305175781,0.027576208114624023,0.04192066192626953
1772574557900575000,7.100574951171875,0.07870864868164062,0.0074651241302490234,0.022408366203308105
1772574557910508500,7.110508544921875,0.04459953308105469,0.015434980392456055,0.03166234493255615
1772574557920444000,7.12044384765625,0.011073112487792969,0.009250879287719727,0.03666958212852478
1772574557930377500,7.13037744140625,-0.0030908584594726562,0.017711281776428223,0.04203140735626221
1772574557940315000,7.14031494140625,0.01119232177734375,0.012110114097595215,-0.028424352407455444
1772574557950249000,7.1502490234375,0.04880809783935547,0.001587510108947754,-0.036707669496536255
1772574557960151300,7.1601513671875,0.04811573028564453,-0.004056572914123535,-0.02163684368133545
1772574557970082300,7.170082275390625,0.04750251770019531,-0.0006998777389526367,0.002790510654449463
1772574557980034000,7.180033935546875,-0.009551048278808594,0.01632845401763916,-0.001315087080001831
1772574557989966800,7.189966796875,-0.018560409545898438,-0.018827319145202637,-0.010186642408370972
1772574557999896000,7.19989599609375,-0.04625701904296875,-0.025048375129699707,0.0001131594181060791
1772574558009828600,7.20982861328125,-0.08766365051269531,-0.02595841884613037,0.0011143684387207031
1772574558019762400,7.219762451171875,-0.10018253326416016,-0.049800753593444824,-0.0022308528423309326
1772574558029695200,7.2296953125,-0.11257648468017578,-0.044289350509643555,0.018022209405899048
1772574558039626800,7.239626708984375,-0.08721542358398438,-0.03324270248413086,0.0000025033950805664062
1772574558049559600,7.2495595703125,-0.057641029357910156,-0.00775146484375,-0.008601546287536621
1772574558059505200,7.259505126953125,-0.00035953521728515625,-0.02935779094696045,-0.003012329339981079
1772574558069375700,7.269375732421875,0.032395362854003906,-0.03619194030761719,0.02612122893333435
1772574558079344000,7.27934423828125,0.01282501220703125,-0.05241382122039795,0.026615262031555176
1772574558089243600,7.28924365234375,0.021877288818359375,-0.031107187271118164,0.012880474328994751
1772574558099177500,7.299177490234375,0.021341323852539062,-0.01004934310913086,0.008593529462814331
1772574558119039700,7.319039794921875,0.04861164093017578,-0.0021053552627563477,0.028648018836975098
1772574558138907600,7.33890771484375,0.08893013000488281,-0.013458609580993652,-0.007348388433456421
1772574558148885500,7.348885498046875,0.09684562683105469,-0.007924914360046387,-0.010789036750793457
1772574558158823200,7.3588232421875,0.09056758880615234,-0.026734232902526855,-0.005162596702575684
1772574558168750000,7.36875,0.06562423706054688,-0.045934438705444336,-0.009450405836105347
1772574558178663400,7.378663330078125,0.008182525634765625,-0.03226006031036377,0.0051555335521698
1772574558188599800,7.388599853515625,-0.029451370239257812,-0.042460083961486816,-0.0039234459400177
1772574558198547500,7.39854736328125,-0.061767578125,-0.028751254081726074,0.006072819232940674
1772574558208484900,7.40848486328125,-0.06065845489501953,-0.04281163215637207,0.01611506938934326
1772574558218410500,7.418410400390625,-0.08316612243652344,-0.05151712894439697,0.002268195152282715
1772574558228347000,7.428346923828125,-0.08655643463134766,-0.0783076286315918,0.011692017316818237
1772574558238275600,7.438275634765625,-0.04285240173339844,-0.06668603420257568,-0.007606297731399536
1772574558248211200,7.448211181640625,-0.023413658142089844,-0.036318063735961914,0.006791502237319946
1772574558258147000,7.45814697265625,-0.023154258728027344,-0.020280003547668457,0.021251440048217773
1772574558268082400,7.46808251953125,0.00536346435546875,-0.04207730293273926,0.012430816888809204
1772574558278014500,7.478014404296875,0.009907722473144531,-0.054291486740112305,0.004271775484085083
1772574558287949600,7.487949462890625,0.009687423706054688,-0.02882981300354004,0.014994531869888306
1772574558297869300,7.497869384765625,0.00945281982421875,-0.003785252571105957,0.01574021577835083
1772574558307803100,7.50780322265625,0.018598556518554688,-0.0025026798248291016,-0.026316672563552856
1772574558317737700,7.51773779296875,0.05113029479980469,-0.005954265594482422,-0.015990227460861206
1772574558327671600,7.527671630859375,0.06429767608642578,-0.004740476608276367,-0.015253037214279175
1772574558337606400,7.5376064453125,0.08197498321533203,-0.01306450366973877,0.013924956321716309
1772574558347540200,7.547540283203125,0.09470176696777344,-0.012130260467529297,0.000653684139251709
1772574558357466400,7.55746630859375,0.12140178680419922,-0.016524672508239746,-0.0031811892986297607
1772574558367399400,7.5673994140625,0.08655357360839844,-0.012536764144897461,0.02560579776763916
1772574558377328400,7.577328369140625,0.0476837158203125,-0.00020051002502441406,0.006636977195739746
1772574558387261000,7.587260986328125,-0.014062881469726562,-0.01652836799621582,0.01612377166748047
1772574558397187800,7.597187744140625,-0.03241729736328125,-0.004129648208618164,0.016236543655395508
1772574558407120000,7.607119873046875,-0.06931400299072266,0.0037560462951660156,0.007635623216629028
1772574558417063700,7.617063720703125,-0.08681392669677734,-0.001920461654663086,0.028012722730636597
1772574558426997000,7.6269970703125,-0.061738014221191406,-0.025543570518493652,-0.01790684461593628
1772574558436914700,7.636914794921875,-0.032375335693359375,-0.0440596342086792,-0.0113583505153656
1772574558446846200,7.64684619140625,-0.031762123107910156,-0.01967942714691162,0.018951237201690674
1772574558456778500,7.656778564453125,0.0017871856689453125,-0.005108952522277832,-0.003306269645690918
1772574558466710300,7.666710205078125,-0.0028934478759765625,-0.02403879165649414,-0.035404056310653687
1772574558476646400,7.676646484375,-0.0027456283569335938,-0.02423107624053955,-0.02000439167022705
1772574558486578700,7.68657861328125,-0.021434783935546875,-0.015016555786132812,0.004520893096923828
1772574558496541700,7.696541748046875,-0.030385971069335938,-0.010868191719055176,0.009502023458480835
1772574558506477000,7.70647705078125,-0.03917217254638672,-0.039852142333984375,0.005071073770523071
1772574558516374300,7.716374267578125,-0.05725860595703125,-0.03057575225830078,0.009739696979522705
1772574558526305800,7.726305908203125,-0.07509422302246094,-0.016345500946044922,0.004812836647033691
1772574558536275700,7.736275634765625,-0.040882110595703125,0.012267708778381348,0.01437351107597351
1772574558546211000,7.746211181640625,0.0068111419677734375,-0.010782241821289062,0.023684948682785034
1772574558556136700,7.75613671875,0.03016185760498047,-0.00498199462890625,0.03798660635948181
1772574558566071300,7.7660712890625,0.024890899658203125,0.010144352912902832,0.05246466398239136
1772574558575969300,7.77596923828125,0.019744873046875,0.020110726356506348,0.03405013680458069
1772574558585900000,7.785900146484375,0.009996414184570312,0.020390748977661133,0.006719380617141724
1772574558595842800,7.7958427734375,0.009798049926757812,-0.0027800798416137695,0.0029743313789367676
1772574558605774800,7.80577490234375,0.03313636779785156,0.02153003215789795,-0.010304868221282959
1772574558615699700,7.81569970703125,0.03725433349609375,0.0029611587524414062,-0.0047186315059661865
1772574558625631000,7.825630859375,0.050716400146484375,0.017657756805419922,-0.004045814275741577
1772574558635599000,7.83559912109375,0.06869697570800781,0.012969613075256348,-0.012810707092285156
1772574558645534000,7.845533935546875,0.06762409210205078,0.0029449462890625,-0.021431386470794678
1772574558655455500,7.85545556640625,0.03840446472167969,0.0016955137252807617,-0.0017696022987365723
1772574558665389300,7.865389404296875,-0.042090415954589844,0.004771113395690918,0.007845699787139893
1772574558675323400,7.875323486328125,-0.09300613403320312,-0.006335020065307617,-0.011264562606811523
1772574558685257000,7.885257080078125,-0.11019611358642578,-0.0025255680084228516,-0.02564975619316101
1772574558695181000,7.89518115234375,-0.10836029052734375,-0.026335835456848145,0.002257794141769409
1772574558705113900,7.90511376953125,-0.08779525756835938,-0.04444146156311035,-0.012789875268936157
1772574558715049200,7.91504931640625,-0.0628976821899414,-0.047606706619262695,-0.0035174190998077393
1772574558724982300,7.924982177734375,-0.03844738006591797,-0.05011105537414551,0.020542949438095093
1772574558734914800,7.934914794921875,-0.023859024047851562,-0.019101262092590332,0.030502021312713623
1772574558744847600,7.94484765625,-0.009534835815429688,0.016205906867980957,0.0071451663970947266
1772574558754780200,7.9547802734375,0.013937950134277344,0.032190561294555664,-0.0020990967750549316
1772574558764713000,7.964712890625,0.022879600524902344,0.019662141799926758,0.0026460587978363037
1772574558774645500,7.9746455078125,0.01287078857421875,0.021257877349853516,0.00749051570892334
1772574558784578300,7.984578369140625,-0.006325721740722656,0.017811894416809082,0.03168097138404846
1772574558794513200,7.99451318359375,-0.025221824645996094,0.02414262294769287,-0.010149985551834106
1772574558804446200,8.0044462890625,-0.0014896392822265625,0.031067371368408203,-0.02745041251182556
1772574558814384600,8.014384521484375,0.026531219482421875,0.005215167999267578,-0.006602942943572998
1772574558824318200,8.024318115234376,0.058807373046875,0.026777982711791992,0.013896554708480835
1772574558834241000,8.034240966796874,0.07645988464355469,0.033254265785217285,-0.004207879304885864
1772574558844173300,8.04417333984375,0.0703573226928711,0.01518094539642334,-0.0035664141178131104
1772574558854125000,8.054125,0.03149700164794922,-0.0035059452056884766,-0.0029570460319519043
1772574558864059600,8.0640595703125,-0.016076087951660156,0.024695634841918945,-0.011787205934524536
1772574558873972200,8.07397216796875,-0.058155059814453125,0.024371862411499023,0.008070319890975952
1772574558883904500,8.083904541015626,-0.052489280700683594,-0.008403182029724121,0.009066015481948853
1772574558893836800,8.0938369140625,-0.018733978271484375,0.011766314506530762,0.005336493253707886
1772574558903769000,8.10376904296875,-0.04206275939941406,-0.01517951488494873,0.02081674337387085
1772574558913702100,8.1137021484375,-0.03679180145263672,-0.018032550811767578,0.021309375762939453
1772574558923634400,8.123634521484375,-0.008074760437011719,0.002699732780456543,0.0027468502521514893
1772574558933568300,8.133568359375,0.043701171875,0.01837325096130371,-0.0014921724796295166
1772574558943500800,8.143500732421876,0.042845726013183594,0.019659757614135742,0.02780294418334961
1772574558953435600,8.153435546875,0.009116172790527344,0.0018992424011230469,0.04351365566253662
1772574558963368200,8.1633681640625,-0.03347587585449219,-0.0012285709381103516,0.021617770195007324
1772574558973296600,8.173296630859374,-0.00481414794921875,0.0010071992874145508,0.009100347757339478
1772574558983229000,8.18322900390625,0.04215049743652344,-0.010521531105041504,-0.008128553628921509
1772574558993168100,8.193168212890624,0.12128543853759766,0.020712852478027344,0.022297173738479614
1772574559003101200,8.20310107421875,0.13319873809814453,0.027791857719421387,0.0382121205329895
1772574559013041200,8.213041259765625,0.12147998809814453,0.03396892547607422,0.007225334644317627
1772574559022974700,8.222974609375,0.09120464324951172,0.0629807710647583,0.010016381740570068
1772574559032893200,8.23289306640625,0.061478614807128906,0.04401862621307373,0.012756884098052979
1772574559042825200,8.2428251953125,0.03228759765625,0.025076985359191895,-0.007975131273269653
1772574559052760600,8.252760498046875,-0.015233039855957031,0.02977728843688965,0.004465639591217041
1772574559062692900,8.26269287109375,-0.043148040771484375,0.039218902587890625,0.007101505994796753
1772574559072624000,8.2726240234375,-0.04238319396972656,0.039277076721191406,0.014077246189117432
1772574559082556700,8.282556640625,-0.01810932159423828,0.030108094215393066,-0.01675403118133545
1772574559092505300,8.29250537109375,-0.022497177124023438,0.026003718376159668,0.005029618740081787
1772574559102439200,8.302439208984374,-0.036202430725097656,0.035884976387023926,0.007701456546783447
1772574559112354300,8.312354248046875,-0.007332801818847656,0.026961088180541992,-0.04168325662612915
1772574559122286300,8.322286376953125,0.063385009765625,0.01815032958984375,-0.011178016662597656
1772574559132221700,8.3322216796875,0.03884601593017578,-0.00523829460144043,0.02875155210494995
1772574559142154000,8.342154052734376,0.03827095031738281,-0.009773850440979004,0.02509939670562744
1772574559152104200,8.352104248046874,0.0518646240234375,-0.005209565162658691,-0.01633763313293457
1772574559162038500,8.36203857421875,0.01816844940185547,0.03664553165435791,-0.010201811790466309
1772574559171950000,8.3719501953125,-0.019707679748535156,0.03081357479095459,0.004833102226257324
1772574559181882000,8.381882080078125,-0.009899139404296875,0.01124882698059082,0.005482017993927002
1772574559191814700,8.391814697265625,0.004393577575683594,0.020770907402038574,0.024864792823791504
1772574559201746700,8.40174658203125,0.004256248474121094,0.04006600379943848,0.04845362901687622
1772574559211691300,8.411691162109374,0.004094123840332031,0.026282191276550293,0.04329746961593628
1772574559221624600,8.42162451171875,0.06511974334716797,0.03177368640899658,0.0475652813911438
1772574559231545900,8.4315458984375,0.0828104019165039,0.02263319492340088,0.056750327348709106
1772574559241478000,8.441477783203124,0.07202625274658203,0.02246379852294922,0.032934606075286865
1772574559251420700,8.451420654296875,0.06621837615966797,0.016786932945251465,0.004819035530090332
1772574559261354000,8.46135400390625,0.06054115295410156,0.01551055908203125,0.03818148374557495
1772574559271278300,8.4712783203125,0.05500221252441406,0.023270368576049805,0.04744458198547363
1772574559281210600,8.481210693359374,0.035495758056640625,0.02108454704284668,0.03342515230178833
1772574559291143200,8.49114306640625,0.0069484710693359375,0.004523158073425293,0.005849480628967285
1772574559301075500,8.501075439453125,0.007145881652832031,0.01638317108154297,-0.0023424625396728516
1772574559310992600,8.51099267578125,-0.020895004272460938,0.004394412040710449,-0.019738614559173584
1772574559320923400,8.52092333984375,-0.029626846313476562,-0.035654425621032715,-0.017918944358825684
1772574559330871800,8.530871826171875,-0.04294872283935547,-0.009013056755065918,-0.03996169567108154
1772574559340804400,8.540804443359375,-0.04196739196777344,0.022098302841186523,-0.019665062427520752
1772574559350745600,8.55074560546875,-0.012778282165527344,-0.013028860092163086,-0.004515528678894043
1772574559360679200,8.56067919921875,-0.017035484313964844,-0.024015188217163086,-0.01784813404083252
1772574559370605600,8.57060546875,-0.025941848754882812,-0.0017504692077636719,-0.007404804229736328
1772574559380538000,8.5805380859375,-0.02057361602783203,-0.008008480072021484,-0.025184988975524902
1772574559390471700,8.5904716796875,-0.03410625457763672,-0.00475621223449707,-0.004619479179382324
1772574559400404500,8.600404541015624,-0.05208778381347656,0.0031452178955078125,0.016196370124816895
1772574559410346000,8.610345947265625,-0.013277053833007812,-0.0032008886337280273,0.0035276412963867188
1772574559420279800,8.62027978515625,0.043709754943847656,-0.014165163040161133,-0.028001248836517334
1772574559430203400,8.630203369140625,0.08092498779296875,-0.0017154216766357422,-0.002928316593170166
1772574559440136000,8.640135986328126,0.1270580291748047,0.03295409679412842,0.02161562442779541
1772574559450070000,8.650070068359375,0.26195430755615234,0.038082003593444824,-0.043925583362579346
1772574559460002800,8.6600029296875,0.5548973083496094,0.041481852531433105,-0.07987773418426514
1772574559469930800,8.6699306640625,0.6928234100341797,0.022104263305664062,0.07472342252731323
1772574559479863000,8.679863037109374,0.4810142517089844,-0.0968160629272461,0.3078990578651428
1772574559489790700,8.689790771484375,-0.06907463073730469,-0.14355933666229248,0.375498503446579
1772574559499722500,8.699722412109375,-0.7269659042358398,0.12482666969299316,-0.2511577606201172
1772574559509661400,8.709661376953125,-0.5231533050537109,0.15584874153137207,-0.4607338309288025
1772574559519594000,8.719593994140626,-0.24877262115478516,-0.03978836536407471,-0.17670506238937378
1772574559529525200,8.729525146484375,0.10014724731445312,-0.05718648433685303,0.027879953384399414
1772574559539457800,8.739457763671876,0.07124137878417969,0.029802799224853516,0.1258804202079773
1772574559549390000,8.74939013671875,-0.06081676483154297,0.04997599124908447,0.05304199457168579
1772574559559322400,8.759322265625,-0.22866535186767578,0.0008146762847900391,0.007795512676239014
1772574559569258000,8.769258056640625,-0.43668460845947266,0.0170060396194458,0.08311021327972412
1772574559579190800,8.779190673828126,-0.5337581634521484,-0.14555907249450684,0.15940895676612854
1772574559589123000,8.789123046875,-0.7047863006591797,-0.34017646312713623,0.25078535079956055
