time,seconds_elapsed,z,y,x
1772574550937503700,0.137503662109375,0.20732097327709198,0.0050598569214344025,-0.041677240282297134
1772574550997403000,0.19740283203125,0.22116900980472565,0.03275591507554054,-0.04274247586727142
1772574551007316500,0.20731640625,0.1945381760597229,-0.021570969372987747,-0.022503048181533813
1772574551017251600,0.21725146484375,0.1721682846546173,0.029560215771198273,0.031823836266994476
1772574551027183400,0.227183349609375,0.17855969071388245,0.0583215095102787,0.0829550251364708
1772574551037117200,0.2371171875,0.1625811904668808,-0.010918638668954372,0.10958584398031235
1772574551047039000,0.2470390625,0.15725502371788025,-0.022636201232671738,0.13195574283599854
1772574551056967700,0.2569677734375,0.17536398768424988,-0.05565842613577843,0.13834713399410248
1772574551066852000,0.26685205078125,0.16897258162498474,-0.14194230735301971,0.09893351793289185
1772574551076763000,0.276762939453125,0.15725502371788025,-0.21650861203670502,0.04673709720373154
1772574551086764300,0.286764404296875,0.13595037162303925,-0.25592222809791565,0.004127778112888336
1772574551096711700,0.296711669921875,0.11358047276735306,-0.2591179311275482,-0.024633513763546944
1772574551106633000,0.306633056640625,0.08481918275356293,-0.2580527067184448,-0.033155377954244614
1772574551116569900,0.31656982421875,0.06884068250656128,-0.24846559762954712,-0.023568280041217804
1772574551126497300,0.326497314453125,0.07203638553619385,-0.2388785034418106,-0.017176883295178413
1772574551136430300,0.336430419921875,0.0667102187871933,-0.23355233669281006,-0.037416309118270874
1772574551146363100,0.346363037109375,0.06138405203819275,-0.1856168508529663,-0.060851436108350754
1772574551156296200,0.356296142578125,0.07842778414487839,-0.13874660432338715,-0.08215609937906265
1772574551166227200,0.366227294921875,0.08375394344329834,-0.13768136501312256,-0.12263495475053787
1772574551176159200,0.3761591796875,0.08162347972393036,-0.10678961127996445,-0.17909230291843414
1772574551186096400,0.386096435546875,0.08481918275356293,-0.06311506032943726,-0.24713405966758728
1772574551196030500,0.396030517578125,0.05818835273385048,-0.05672365799546242,-0.31211328506469727
1772574551205977000,0.40597705078125,0.012383334338665009,-0.05139749497175217,-0.34726595878601074
1772574551215916300,0.415916259765625,-0.026897134259343147,-0.05565842613577843,-0.3483312129974365
1772574551225827800,0.425827880859375,-0.03328853100538254,-0.10785484313964844,-0.3419398069381714
1772574551235755800,0.435755859375,0.00399462366476655,-0.09187635034322739,-0.35685306787490845
1772574551245689900,0.44568994140625,0.02090519852936268,-0.05778888985514641,-0.3856143653392792
1772574551255620600,0.45562060546875,-0.029027599841356277,-0.07483261823654175,-0.43035414814949036
1772574551265556200,0.46555615234375,-0.1014634445309639,-0.0588541254401207,-0.4591154456138611
1772574551275489000,0.475489013671875,-0.20266057550907135,-0.029027599841356277,-0.4505935609340668
1772574551285413600,0.48541357421875,-0.302792489528656,0.06577813625335693,-0.3920057415962219
1772574551295343000,0.495343017578125,-0.34220612049102783,0.15845340490341187,-0.2865476906299591
1772574551305265700,0.505265625,-0.36138030886650085,0.27775952219963074,-0.18854624032974243
1772574551315194400,0.5151943359375,-0.2708354890346527,0.3340837061405182,-0.09706936031579971
1772574551325131000,0.525131103515625,-0.09613727778196335,0.2734985649585724,-0.033155377954244614
1772574551335060500,0.535060546875,-0.008788172155618668,0.21064983308315277,0.023301972076296806
1772574551345000000,0.545,-0.024766668677330017,0.16164910793304443,0.08402025699615479
1772574551354930400,0.554930419921875,-0.05246272683143616,0.1328878253698349,0.16391272842884064
1772574551364861000,0.56486083984375,-0.08868064731359482,0.1531272530555725,0.2821536064147949
1772574551374791400,0.57479150390625,-0.112115778028965,0.19147562980651855,0.4248948097229004
1772574551384725800,0.584725830078125,-0.10465914756059647,0.23195448517799377,0.5653724074363708
1772574551394656800,0.59465673828125,-0.07483261823654175,0.2298240214586258,0.6623086333274841
1772574551404595700,0.604595703125,-0.06524552404880524,0.19147562980651855,0.716635525226593
1772574551414527500,0.614527587890625,-0.11744193732738495,0.1659100502729416,0.7517881989479065
1772574551424457200,0.624457275390625,-0.15685556828975677,0.19147562980651855,0.7752233147621155
1772574551434388700,0.634388671875,-0.1334204375743866,0.2063889056444168,0.7752233147621155
1772574551444356600,0.644356689453125,-0.08868064731359482,0.14567062258720398,0.7422010898590088
1772574551454291700,0.654291748046875,-0.04287562891840935,0.07003907114267349,0.694265604019165
1772574551464224000,0.66422412109375,-0.016244804486632347,0.04660394415259361,0.6367430686950684
1772574551474158800,0.674158935546875,-0.008788172155618668,0.06471290439367294,0.5685681104660034
1772574551484084700,0.684084716796875,-0.014114337973296642,0.09347419440746307,0.48974087834358215
1772574551494018600,0.6940185546875,-0.020505735650658607,0.1115831583738327,0.39613354206085205
1772574551503942000,0.70394189453125,-0.024766668677330017,0.10732222348451614,0.297066867351532
1772574551513874700,0.713874755859375,-0.023701434955000877,0.0902784988284111,0.20332635939121246
1772574551523808300,0.723808349609375,-0.014114337973296642,0.08175663650035858,0.1149120107293129
1772574551533741300,0.7337412109375,-0.0034620072692632675,0.05938674136996269,0.028628136962652206
1772574551543682000,0.74368212890625,0.005991935729980469,0.030625449493527412,-0.037416309118270874
1772574551553616000,0.753615966796875,0.009187635034322739,0.009320789016783237,-0.08428656309843063
1772574551563541800,0.763541748046875,0.015579032711684704,0.0018641578499227762,-0.10452599078416824
1772574551573474600,0.773474609375,0.02197043038904667,0.027429750189185143,-0.09600412845611572
1772574551583412000,0.783411865234375,0.015579032711684704,0.05938674136996269,-0.07043853402137756
1772574551593345300,0.79334521484375,-0.015179570764303207,0.08175663650035858,-0.041677240282297134
1772574551603256300,0.80325634765625,-0.017310036346316338,0.14673584699630737,-0.013981183059513569
1772574551613187600,0.8131875,-0.018375270068645477,0.16377957165241241,0.008388710208237171
1772574551623131100,0.823131103515625,-0.026897134259343147,0.19893226027488708,0.029693370684981346
1772574551633063700,0.833063720703125,-0.025831900537014008,0.17975807189941406,0.042476166039705276
1772574551642997200,0.842997314453125,-0.031158065423369408,0.1115831583738327,0.040345702320337296
1772574551652929800,0.8529296875,-0.030092833563685417,0.07110430300235748,0.055258963257074356
1772574551662873600,0.86287353515625,-0.023701434955000877,0.04447348043322563,0.08082455396652222
1772574551672807200,0.87280712890625,-0.025831900537014008,0.03275591507554054,0.1042596846818924
1772574551682705700,0.88270556640625,-0.03222329914569855,0.018907885998487473,0.11810771375894547
1772574551692635600,0.8926357421875,-0.04181039705872536,0.0007989247678779066,0.1149120107293129
1772574551702595800,0.902595947265625,-0.05246272683143616,-0.0077229393646121025,0.09467258304357529
1772574551722439700,0.922439697265625,-0.021570969372987747,-0.08441971987485886,-0.043807707726955414
1772574551742358800,0.94235888671875,0.0007989247678779066,-0.19946488738059998,-0.15352670848369598
1772574551752297200,0.952297119140625,-0.005592473316937685,-0.16111649572849274,-0.13222205638885498
1772574551762201000,0.962201171875,-0.021570969372987747,-0.14087706804275513,-0.0991998240351677
1772574551772136000,0.972135986328125,-0.025831900537014008,-0.1440727710723877,-0.07363422960042953
1772574551782055000,0.982054931640625,-0.021570969372987747,-0.1430075317621231,-0.0768299326300621
1772574551791988500,0.991988525390625,-0.025831900537014008,-0.13874660432338715,-0.11198262125253677
1772574551801932000,1.00193212890625,-0.03328853100538254,-0.17709499597549438,-0.16737474501132965
1772574551811866400,1.011866455078125,-0.024766668677330017,-0.23142187297344208,-0.22689463198184967
1772574551821784800,1.021784912109375,-0.006657706573605537,-0.2633788585662842,-0.2673735022544861
1772574551831717600,1.031717529296875,0.011318100616335869,-0.2708354890346527,-0.2769605815410614
1772574551841649200,1.041649169921875,0.01983996480703354,-0.26763978600502014,-0.2684387266635895
1772574551851581700,1.051581787109375,0.01664426550269127,-0.2495308369398117,-0.23222079873085022
1772574551861512200,1.06151220703125,0.0050598569214344025,-0.20479105412960052,-0.172700896859169
1772574551871444700,1.07144482421875,-0.009853405877947807,-0.16324695944786072,-0.11091738939285278
1772574551881392400,1.081392333984375,-0.017310036346316338,-0.14620323479175568,-0.06937330216169357
1772574551891326500,1.091326416015625,-0.016244804486632347,-0.14620323479175568,-0.044872939586639404
1772574551911189500,1.111189453125,0.0007989247678779066,-0.10359390825033188,-0.04274247586727142
1772574551921110000,1.121110107421875,-0.0023967742454260588,-0.08335448056459427,-0.05659050494432449
1772574551931042300,1.131042236328125,-0.0023967742454260588,-0.07696308940649033,-0.08002562820911407
1772574551940974800,1.140974853515625,0.005991935729980469,-0.07163692265748978,-0.09493889659643173
1772574551950907000,1.150906982421875,0.015579032711684704,-0.05459319427609444,-0.10239552706480026
1772574551960848400,1.160848388671875,0.01664426550269127,-0.009853405877947807,-0.11091738939285278
1772574551970781400,1.170781494140625,0.010252867825329304,0.018907885998487473,-0.13222205638885498
1772574551980705500,1.18070556640625,0.002929390873759985,0.016777420416474342,-0.15991811454296112
1772574551990637800,1.190637939453125,0.005991935729980469,-0.00452724052593112,-0.1800243854522705
1772574552000569600,1.200569580078125,0.010252867825329304,-0.017310036346316338,-0.1928071826696396
1772574552010502000,1.210501953125,0.01770949922502041,0.0061250897124409676,-0.191741943359375
1772574552030365400,1.230365478515625,0.09973244369029999,0.018907885998487473,-0.151396244764328
1772574552040301800,1.2403017578125,0.04220985993742943,0.04553871229290962,-0.12263495475053787
1772574552050234400,1.250234375,0.02623136341571808,0.0689738392829895,-0.09174319356679916
1772574552060164900,1.260164794921875,-0.0023967742454260588,0.09240896254777908,-0.08002562820911407
1772574552070097400,1.270097412109375,-0.014114337973296642,0.12436595559120178,-0.07576470077037811
1772574552080030700,1.28003076171875,0.01770949922502041,0.1446053832769394,-0.08535179495811462
1772574552089963300,1.28996337890625,0.03368799388408661,0.030625449493527412,-0.13754820823669434
1772574552099900000,1.29989990234375,0.03901416063308716,-0.08974587917327881,-0.2119813710451126
1772574552109832700,1.309832763671875,0.06138405203819275,-0.1334204375743866,-0.2556559145450592
1772574552119763200,1.31976318359375,0.08481918275356293,-0.13981182873249054,-0.2556559145450592
1772574552129695700,1.32969580078125,0.10292813926935196,-0.15259462594985962,-0.22050324082374573
1772574552139629000,1.339629150390625,0.11784140020608902,-0.1653774231672287,-0.16524426639080048
1772574552149561900,1.349561767578125,0.12636326253414154,-0.15898603200912476,-0.10133028775453568
1772574552159493400,1.359493408203125,0.1306242048740387,-0.14194230735301971,-0.044872939586639404
1772574552169426000,1.369426025390625,0.12423279881477356,-0.11957240849733353,-0.009720250964164734
1772574552179360300,1.3793603515625,0.11571093648672104,-0.112115778028965,0.004127778112888336
1772574552189293000,1.38929296875,0.11038476973772049,-0.11850717663764954,0.011584409512579441
1772574552199226000,1.39922607421875,0.10825430601835251,-0.10678961127996445,0.017975807189941406
1772574552209159000,1.409158935546875,0.09334104508161545,-0.07483261823654175,0.021171506494283676
1772574552219082500,1.41908251953125,0.06351451575756073,-0.04926702752709389,0.015845341607928276
1772574552229014500,1.4290146484375,0.03155753016471863,-0.029027599841356277,0.011584409512579441
1772574552238957300,1.438957275390625,0.005991935729980469,-0.00133154122158885,0.005193010903894901
1772574552248890400,1.448890380859375,-0.015179570764303207,0.03595161437988281,-0.004394086077809334
1772574552258827800,1.458827880859375,-0.03328853100538254,0.07003907114267349,-0.016111649572849274
1772574552268761000,1.468760986328125,-0.05139749497175217,0.09666989743709564,-0.03528584539890289
1772574552278696700,1.47869677734375,-0.06844121962785721,0.1115831583738327,-0.06511236727237701
1772574552288630500,1.488630615234375,-0.07802832126617432,0.10838746279478073,-0.0981345921754837
1772574552298552600,1.498552490234375,-0.08335448056459427,0.09240896254777908,-0.1290263533592224
1772574552308484900,1.50848486328125,-0.08655018359422684,0.06790860742330551,-0.15459194779396057
1772574552318427400,1.518427490234375,-0.08335448056459427,0.04447348043322563,-0.16843996942043304
1772574552328360700,1.528360595703125,-0.07696308940649033,0.025299284607172012,-0.17057043313980103
1772574552338291700,1.538291748046875,-0.07376738637685776,0.016777420416474342,-0.16524426639080048
1772574552348224800,1.548224853515625,-0.07376738637685776,0.012516488321125507,-0.15459194779396057
1772574552358148400,1.5581484375,-0.07589785009622574,0.013581721112132072,-0.14287437498569489
1772574552368080600,1.56808056640625,-0.07483261823654175,0.010386021807789803,-0.1290263533592224
1772574552378008800,1.5780087890625,-0.07057169079780579,-0.0002663082559593022,-0.10772168636322021
1772574552387940600,1.587940673828125,-0.06098458915948868,-0.013049104250967503,-0.08109086751937866
1772574552397882600,1.597882568359375,-0.0482017956674099,-0.03328853100538254,-0.047003407031297684
1772574552407815400,1.6078154296875,-0.03222329914569855,-0.04713656008243561,-0.015046416781842709
1772574552417742600,1.61774267578125,-0.014114337973296642,-0.04500609636306763,0.008388710208237171
1772574552427675000,1.6276748046875,0.00399462366476655,-0.031158065423369408,0.024367205798625946
1772574552437609700,1.637609619140625,0.013448567129671574,-0.020505735650658607,0.03608476743102074
1772574552447542000,1.6475419921875,0.01983996480703354,-0.019440501928329468,0.047802332788705826
1772574552457473800,1.657473876953125,0.02303566411137581,-0.025831900537014008,0.057389430701732635
1772574552467406000,1.667406005859375,0.02516612969338894,-0.018375270068645477,0.061650361865758896
1772574552477319400,1.6773193359375,0.02303566411137581,-0.005592473316937685,0.054193731397390366
1772574552487250000,1.68725,0.01983996480703354,-0.005592473316937685,0.035019535571336746
1772574552497182000,1.697181884765625,0.01877473294734955,-0.011983871459960938,0.010519175790250301
1772574552507112400,1.707112548828125,0.01770949922502041,-0.011983871459960938,-0.007589785382151604
1772574552517048800,1.717048828125,0.014513799920678139,-0.0077229393646121025,-0.021437814459204674
1772574552526980000,1.72697998046875,0.009187635034322739,-0.0002663082559593022,-0.033155377954244614
1772574552536914000,1.736913818359375,-0.0002663082559593022,0.010386021807789803,-0.03954677656292915
1772574552546845400,1.746845458984375,-0.008788172155618668,0.019973119720816612,-0.044872939586639404
1772574552556810800,1.756810791015625,-0.014114337973296642,0.019973119720816612,-0.043807707726955414
1772574552566745600,1.76674560546875,-0.018375270068645477,0.016777420416474342,-0.03954677656292915
1772574552576643300,1.776643310546875,-0.021570969372987747,0.013581721112132072,-0.029959678649902344
1772574552586574300,1.78657421875,-0.025831900537014008,0.013581721112132072,-0.022503048181533813
1772574552596511500,1.796511474609375,-0.027962366119027138,0.017842652276158333,-0.020372580736875534
1772574552606443300,1.806443359375,-0.024766668677330017,0.019973119720816612,-0.021437814459204674
1772574552616372200,1.816372314453125,-0.024766668677330017,0.019973119720816612,-0.027829213067889214
1772574552626303700,1.8263037109375,-0.021570969372987747,0.017842652276158333,-0.03528584539890289
1772574552636243000,1.836242919921875,-0.019440501928329468,0.016777420416474342,-0.041677240282297134
1772574552646175200,1.84617529296875,-0.017310036346316338,0.016777420416474342,-0.04274247586727142
1772574552656106200,1.856106201171875,-0.018375270068645477,0.019973119720816612,-0.03848154470324516
1772574552666038300,1.866038330078125,-0.015179570764303207,0.022103585302829742,-0.034220609813928604
1772574552675995000,1.875994873046875,-0.011983871459960938,0.022103585302829742,-0.03209014609456062
1772574552685929500,1.885929443359375,-0.006657706573605537,0.016777420416474342,-0.03209014609456062
1772574552695857000,1.89585693359375,-0.0002663082559593022,-0.0023967742454260588,-0.043807707726955414
1772574552705790700,1.905790771484375,0.010252867825329304,-0.011983871459960938,-0.0555252730846405
1772574552715727000,1.91572705078125,0.01664426550269127,-0.010918638668954372,-0.06298190355300903
1772574552725661200,1.9256611328125,0.02090519852936268,0.009320789016783237,-0.06830807030200958
1772574552735588000,1.935588134765625,0.01877473294734955,0.03275591507554054,-0.0874822586774826
1772574552745521400,1.945521484375,0.01664426550269127,0.026364516466856003,-0.12583065032958984
1772574552755453200,1.955453125,0.02197043038904667,0.011451254598796368,-0.16524426639080048
1772574552765386200,1.96538623046875,0.03368799388408661,-0.0002663082559593022,-0.19813334941864014
1772574552775331600,1.97533154296875,0.04860125854611397,-0.006657706573605537,-0.2119813710451126
1772574552785266000,1.985265869140625,0.05925358831882477,-0.006657706573605537,-0.21091613173484802
1772574552795181800,1.995181884765625,0.05925358831882477,-0.006657706573605537,-0.20452474057674408
1772574552805114400,2.0051142578125,0.05499265342950821,0.00399462366476655,-0.18961147964000702
1772574552815058000,2.015057861328125,0.0454055592417717,0.017842652276158333,-0.16737474501132965
1772574552824991500,2.024991455078125,0.0347532257437706,0.03914731368422508,-0.14607007801532745
1772574552834917600,2.034917724609375,0.02090519852936268,0.06364767253398895,-0.12370018661022186
1772574552844850400,2.044850341796875,0.00399462366476655,0.08814803510904312,-0.10026505589485168
1772574552854782000,2.054781982421875,-0.016244804486632347,0.10199606418609619,-0.07896039634943008
1772574552864714800,2.06471484375,-0.03328853100538254,0.10306129604578018,-0.060851436108350754
1772574552874644500,2.07464453125,-0.04926702752709389,0.09560466557741165,-0.041677240282297134
1772574552884576800,2.08457666015625,-0.05672365799546242,0.07643046975135803,-0.021437814459204674
1772574552894514400,2.094514404296875,-0.05565842613577843,0.06364767253398895,-0.0011983871227130294
1772574552904447200,2.104447265625,-0.05352795869112015,0.06258244067430496,0.010519175790250301
1772574552914379300,2.114379150390625,-0.04926702752709389,0.05512581020593643,0.013714875094592571
1772574552924312000,2.12431201171875,-0.03967992961406708,0.0370168462395668,0.012649642303586006
1772574552934251300,2.134251220703125,-0.029027599841356277,0.022103585302829742,0.009453942999243736
1772574552944184800,2.144184814453125,-0.015179570764303207,0.011451254598796368,0.007323476951569319
1772574552954105900,2.15410595703125,-0.0002663082559593022,-0.0002663082559593022,0.017975807189941406
1772574552964038100,2.1640380859375,0.013448567129671574,-0.011983871459960938,0.037150003015995026
1772574552973975600,2.1739755859375,0.02090519852936268,-0.021570969372987747,0.061650361865758896
1772574552983908000,2.183908203125,0.02729659713804722,-0.020505735650658607,0.0829550251364708
1772574552993838000,2.193838134765625,0.03155753016471863,-0.017310036346316338,0.09999874979257584
1772574553003770600,2.2037705078125,0.0347532257437706,-0.014114337973296642,0.10958584398031235
1772574553013715200,2.213715087890625,0.03368799388408661,-0.017310036346316338,0.10852061212062836
1772574553023649000,2.22364892578125,0.03155753016471863,-0.020505735650658607,0.10106398165225983
1772574553033568000,2.233568115234375,0.02623136341571808,-0.018375270068645477,0.08934641629457474
1772574553043500000,2.2435,0.02197043038904667,-0.019440501928329468,0.07656362652778625
1772574553053435000,2.253434814453125,0.01877473294734955,-0.019440501928329468,0.061650361865758896
1772574553063367200,2.2633671875,0.01770949922502041,-0.019440501928329468,0.04673709720373154
1772574553073311200,2.273311279296875,0.01664426550269127,-0.023701434955000877,0.031823836266994476
1772574553083244800,2.283244873046875,0.01770949922502041,-0.0375494658946991,0.019041040912270546
1772574553093179000,2.293178955078125,0.015579032711684704,-0.05352795869112015,0.009453942999243736
1772574553103112700,2.30311279296875,0.007057168986648321,-0.07163692265748978,0.001997311832383275
1772574553113031000,2.313031005859375,0.002929390873759985,-0.09294158220291138,-0.005459319334477186
1772574553122963200,2.322963134765625,0.00399462366476655,-0.10465914756059647,-0.011850717477500439
1772574553132895200,2.332895263671875,0.005991935729980469,-0.10572437942028046,-0.019307348877191544
1772574553142827300,2.3428271484375,0.009187635034322739,-0.10252867639064789,-0.027829213067889214
1772574553152744000,2.352743896484375,0.012383334338665009,-0.10359390825033188,-0.031024912372231483
1772574553162674400,2.36267431640625,0.01664426550269127,-0.10252867639064789,-0.033155377954244614
1772574553172626400,2.37262646484375,0.01770949922502041,-0.08868064731359482,-0.034220609813928604
1772574553182559000,2.38255908203125,0.013448567129671574,-0.06844121962785721,-0.03848154470324516
1772574553192491000,2.392490966796875,0.005991935729980469,-0.05672365799546242,-0.037416309118270874
1772574553202423600,2.402423583984375,-0.0002663082559593022,-0.05352795869112015,-0.03209014609456062
1772574553212366800,2.412366943359375,-0.00133154122158885,-0.05033225938677788,-0.019307348877191544
1772574553222300400,2.422300537109375,-0.0034620072692632675,-0.04713656008243561,-0.008655018173158169
1772574553232219000,2.432218994140625,-0.005592473316937685,-0.03435376659035683,-0.0011983871227130294
1772574553242151200,2.442151123046875,-0.008788172155618668,-0.026897134259343147,-0.0001331541279796511
1772574553252087800,2.452087890625,-0.005592473316937685,-0.029027599841356277,-0.0001331541279796511
1772574553262020400,2.462020263671875,-0.005592473316937685,-0.03861469775438309,-0.0001331541279796511
1772574553271954000,2.471953857421875,-0.0002663082559593022,-0.05246272683143616,-0.0011983871227130294
1772574553281886700,2.48188671875,0.0050598569214344025,-0.07057169079780579,-0.0011983871227130294
1772574553291815400,2.4918154296875,0.013448567129671574,-0.0790935531258583,0.0030625448562204838
1772574553301747700,2.501747802734375,0.01877473294734955,-0.07376738637685776,0.012649642303586006
1772574553311690200,2.511690185546875,0.01983996480703354,-0.06311506032943726,0.024367205798625946
1772574553321623600,2.52162353515625,0.014513799920678139,-0.06098458915948868,0.037150003015995026
1772574553331547600,2.531547607421875,0.012383334338665009,-0.05459319427609444,0.047802332788705826
1772574553341480200,2.541480224609375,0.010252867825329304,-0.0375494658946991,0.054193731397390366
1772574553351373300,2.551373291015625,0.009187635034322739,-0.023701434955000877,0.057389430701732635
1772574553361302000,2.561302001953125,0.007057168986648321,-0.013049104250967503,0.058454662561416626
1772574553371276300,2.5712763671875,0.0050598569214344025,-0.009853405877947807,0.05632419511675835
1772574553381209300,2.581209228515625,0.005991935729980469,-0.011983871459960938,0.052063263952732086
1772574553391152600,2.591152587890625,0.005991935729980469,-0.013049104250967503,0.05312849581241608
1772574553401086700,2.601086669921875,0.002929390873759985,-0.013049104250967503,0.04993279650807381
1772574553410984700,2.610984619140625,-0.00133154122158885,-0.00452724052593112,0.044606633484363556
1772574553420915200,2.620915283203125,-0.005592473316937685,0.009320789016783237,0.037150003015995026
1772574553430872000,2.6308720703125,-0.008788172155618668,0.017842652276158333,0.026497671380639076
1772574553440805400,2.640805419921875,-0.0077229393646121025,0.016777420416474342,0.011584409512579441
1772574553450742300,2.6507421875,-0.006657706573605537,0.014646953903138638,-0.0001331541279796511
1772574553460675800,2.66067578125,-0.00133154122158885,0.013581721112132072,-0.011850717477500439
1772574553470602000,2.67060205078125,0.0018641578499227762,0.012516488321125507,-0.017176883295178413
1772574553480534800,2.68053466796875,0.00399462366476655,0.017842652276158333,-0.023568280041217804
1772574553490478000,2.69047802734375,0.00399462366476655,0.017842652276158333,-0.026763979345560074
1772574553500412000,2.700411865234375,0.002929390873759985,0.026364516466856003,-0.023568280041217804
1772574553510334500,2.71033447265625,0.0018641578499227762,0.0370168462395668,-0.016111649572849274
1772574553520267000,2.72026708984375,0.002929390873759985,0.04127778112888336,-0.009720250964164734
1772574553530199000,2.730198974609375,0.0018641578499227762,0.04340824484825134,-0.0033288532868027687
1772574553540131600,2.740131591796875,0.002929390873759985,0.05406057462096214,0.012649642303586006
1772574553550066400,2.75006640625,0.0050598569214344025,0.0689738392829895,0.035019535571336746
1772574553559999200,2.759999267578125,0.0007989247678779066,0.08282186836004257,0.05312849581241608
1772574553569928700,2.7699287109375,-0.008788172155618668,0.09347419440746307,0.060585130006074905
1772574553579861200,2.779861328125,-0.013049104250967503,0.09880036115646362,0.05632419511675835
1772574553589797000,2.789797119140625,-0.011983871459960938,0.09347419440746307,0.040345702320337296
1772574553599730000,2.79972998046875,-0.013049104250967503,0.08069140464067459,0.010519175790250301
1772574553609674800,2.8096748046875,-0.013049104250967503,0.07110430300235748,-0.021437814459204674
1772574553619608800,2.81960888671875,-0.014114337973296642,0.06151720881462097,-0.05232957378029823
1772574553629536500,2.82953662109375,-0.018375270068645477,0.04979964345693588,-0.08002562820911407
1772574553639470000,2.839469970703125,-0.022636201232671738,0.04021254554390907,-0.09600412845611572
1772574553649400300,2.849400390625,-0.024766668677330017,0.028494983911514282,-0.10133028775453568
1772574553659333400,2.85933349609375,-0.026897134259343147,0.012516488321125507,-0.0991998240351677
1772574553669259300,2.86925927734375,-0.027962366119027138,-0.0077229393646121025,-0.08535179495811462
1772574553679191600,2.879191650390625,-0.031158065423369408,-0.023701434955000877,-0.06511236727237701
1772574553689144000,2.88914404296875,-0.03648423030972481,-0.03222329914569855,-0.047003407031297684
1772574553699078400,2.899078369140625,-0.03861469775438309,-0.030092833563685417,-0.027829213067889214
1772574553708969700,2.9089697265625,-0.03861469775438309,-0.023701434955000877,-0.018242115154862404
1772574553718899700,2.918899658203125,-0.03648423030972481,-0.020505735650658607,-0.012915950268507004
1772574553728835000,2.9288349609375,-0.03222329914569855,-0.023701434955000877,-0.009720250964164734
1772574553738765800,2.938765869140625,-0.025831900537014008,-0.031158065423369408,-0.010785484686493874
1772574553748733200,2.948733154296875,-0.018375270068645477,-0.03435376659035683,-0.016111649572849274
1772574553758667300,2.958667236328125,-0.013049104250967503,-0.04074516147375107,-0.021437814459204674
1772574553768589600,2.968589599609375,-0.013049104250967503,-0.04287562891840935,-0.025698747485876083
1772574553778522600,2.978522705078125,-0.010918638668954372,-0.04287562891840935,-0.025698747485876083
1772574553788425700,2.98842578125,-0.0077229393646121025,-0.03648423030972481,-0.023568280041217804
1772574553798356000,2.99835595703125,-0.0077229393646121025,-0.023701434955000877,-0.022503048181533813
1772574553808292400,3.008292236328125,-0.005592473316937685,-0.018375270068645477,-0.028894444927573204
1772574553818223000,3.01822314453125,-0.0023967742454260588,-0.017310036346316338,-0.03209014609456062
1772574553828158500,3.028158447265625,0.002929390873759985,-0.010918638668954372,-0.037416309118270874
1772574553838089500,3.03808935546875,0.007057168986648321,-0.005592473316937685,-0.03209014609456062
1772574553848021500,3.048021484375,0.009187635034322739,-0.010918638668954372,-0.020372580736875534
1772574553857952800,3.057952880859375,0.010252867825329304,-0.020505735650658607,-0.0001331541279796511
1772574553867892500,3.067892578125,0.012383334338665009,-0.020505735650658607,0.023301972076296806
1772574553877824500,3.077824462890625,0.013448567129671574,-0.018375270068645477,0.048867564648389816
1772574553887775200,3.087775146484375,0.009187635034322739,-0.013049104250967503,0.07656362652778625
1772574553897709300,3.097709228515625,0.007057168986648321,-0.00133154122158885,0.10106398165225983
1772574553907641900,3.107641845703125,0.00399462366476655,0.008255556225776672,0.12023817747831345
1772574553917575700,3.11757568359375,-0.00133154122158885,0.012516488321125507,0.12876003980636597
1772574553927502000,3.127502197265625,-0.005592473316937685,0.014646953903138638,0.12236864119768143
1772574553937435400,3.137435302734375,-0.0077229393646121025,0.008255556225776672,0.10212921351194382
1772574553947381800,3.1473818359375,-0.011983871459960938,0.0007989247678779066,0.07656362652778625
1772574553957316000,3.157316162109375,-0.015179570764303207,0.0007989247678779066,0.045671865344047546
1772574553967238000,3.16723779296875,-0.011983871459960938,-0.0077229393646121025,0.012649642303586006
1772574553977171200,3.177171142578125,-0.008788172155618668,-0.021570969372987747,-0.011850717477500439
1772574553987115500,3.187115478515625,-0.0077229393646121025,-0.030092833563685417,-0.026763979345560074
1772574553997049900,3.1970498046875,-0.00452724052593112,-0.027962366119027138,-0.028894444927573204
1772574554006943200,3.206943115234375,-0.00133154122158885,-0.024766668677330017,-0.021437814459204674
1772574554016873200,3.216873291015625,0.0018641578499227762,-0.022636201232671738,-0.013981183059513569
1772574554026845700,3.226845703125,-0.00133154122158885,-0.014114337973296642,-0.006524552125483751
1772574554036780300,3.2367802734375,-0.0034620072692632675,-0.018375270068645477,-0.0001331541279796511
1772574554046702600,3.24670263671875,-0.0034620072692632675,-0.04181039705872536,0.0030625448562204838
1772574554056636000,3.256635986328125,0.005991935729980469,-0.06844121962785721,-0.0001331541279796511
1772574554066614800,3.26661474609375,-0.009853405877947807,-0.07270215451717377,-0.0011983871227130294
1772574554076552700,3.276552734375,-0.027962366119027138,-0.05991935729980469,-0.0011983871227130294
1772574554086429000,3.286428955078125,-0.020505735650658607,-0.05139749497175217,-0.006524552125483751
1772574554096360700,3.296360595703125,-0.015179570764303207,-0.0375494658946991,-0.007589785382151604
1772574554106294800,3.306294677734375,-0.015179570764303207,-0.025831900537014008,-0.004394086077809334
1772574554116226800,3.316226806640625,-0.016244804486632347,-0.010918638668954372,0.005193010903894901
1772574554126175700,3.32617578125,-0.016244804486632347,-0.006657706573605537,0.020106272771954536
1772574554136109300,3.336109375,-0.014114337973296642,0.0007989247678779066,0.03928046673536301
1772574554146027300,3.34602734375,-0.013049104250967503,0.018907885998487473,0.06910699605941772
1772574554155959300,3.355959228515625,-0.016244804486632347,0.03914731368422508,0.09786828607320786
1772574554165892400,3.365892333984375,-0.022636201232671738,0.05725627392530441,0.1149120107293129
1772574554175824600,3.37582470703125,-0.031158065423369408,0.06471290439367294,0.12343387305736542
1772574554185756700,3.385756591796875,-0.0375494658946991,0.06684337556362152,0.12769481539726257
1772574554195688700,3.395688720703125,-0.04074516147375107,0.06684337556362152,0.12662957608699799
1772574554205621000,3.40562109375,-0.03861469775438309,0.06471290439367294,0.12236864119768143
1772574554215553300,3.41555322265625,-0.03435376659035683,0.06151720881462097,0.1149120107293129
1772574554225484500,3.425484619140625,-0.03328853100538254,0.05938674136996269,0.1031944528222084
1772574554235416600,3.43541650390625,-0.030092833563685417,0.05512581020593643,0.07975932210683823
1772574554245354500,3.4453544921875,-0.030092833563685417,0.0370168462395668,0.043541401624679565
1772574554255287300,3.455287353515625,-0.025831900537014008,0.00719032296910882,0.0009320789249613881
1772574554265231000,3.465231201171875,-0.015179570764303207,-0.017310036346316338,-0.037416309118270874
1772574554275165000,3.4751650390625,-0.0034620072692632675,-0.03541899845004082,-0.06937330216169357
1772574554285094000,3.485093994140625,0.0007989247678779066,-0.04713656008243561,-0.09067796170711517
1772574554295027200,3.495027099609375,0.0050598569214344025,-0.0482017956674099,-0.0991998240351677
1772574554304955000,3.504954833984375,0.011318100616335869,-0.0482017956674099,-0.0991998240351677
1772574554314887700,3.5148876953125,0.014513799920678139,-0.05139749497175217,-0.09600412845611572
1772574554324810800,3.524810791015625,0.01664426550269127,-0.05778888985514641,-0.08961272984743118
1772574554334742500,3.534742431640625,0.01983996480703354,-0.06844121962785721,-0.08109086751937866
1772574554344654600,3.544654541015625,0.02516612969338894,-0.0790935531258583,-0.07256899774074554
1772574554354584300,3.554584228515625,0.03049229457974434,-0.07802832126617432,-0.058720968663692474
1772574554364545500,3.564545654296875,0.03049229457974434,-0.07376738637685776,-0.043807707726955414
1772574554374478300,3.574478271484375,0.02729659713804722,-0.06631075590848923,-0.031024912372231483
1772574554384409300,3.584409423828125,0.02410089783370495,-0.06098458915948868,-0.020372580736875534
1772574554394342100,3.594342041015625,0.02090519852936268,-0.05352795869112015,-0.016111649572849274
1772574554404285000,3.604284912109375,0.01770949922502041,-0.0482017956674099,-0.019307348877191544
1772574554414218800,3.61421875,0.014513799920678139,-0.04500609636306763,-0.025698747485876083
1772574554424141600,3.6241416015625,0.011318100616335869,-0.04181039705872536,-0.034220609813928604
1772574554434074000,3.63407421875,0.007057168986648321,-0.03648423030972481,-0.043807707726955414
1772574554444015600,3.644015625,0.002929390873759985,-0.024766668677330017,-0.04913387447595596
1772574554453949200,3.65394921875,-0.0023967742454260588,-0.009853405877947807,-0.05232957378029823
1772574554463871000,3.66387109375,-0.008788172155618668,-0.0002663082559593022,-0.04913387447595596
1772574554473803500,3.673803466796875,-0.011983871459960938,0.010386021807789803,-0.03848154470324516
1772574554483738000,3.683738037109375,-0.015179570764303207,0.014646953903138638,-0.026763979345560074
1772574554493670700,3.693670654296875,-0.020505735650658607,0.016777420416474342,-0.019307348877191544
1772574554503608000,3.703608154296875,-0.021570969372987747,0.012516488321125507,-0.015046416781842709
1772574554513541000,3.713541015625,-0.022636201232671738,0.009320789016783237,-0.015046416781842709
1772574554523479300,3.723479248046875,-0.020505735650658607,0.00719032296910882,-0.017176883295178413
1772574554533412900,3.733412841796875,-0.020505735650658607,0.00399462366476655,-0.018242115154862404
1772574554543337200,3.743337158203125,-0.020505735650658607,-0.00133154122158885,-0.013981183059513569
1772574554553269800,3.753269775390625,-0.018375270068645477,-0.005592473316937685,-0.004394086077809334
1772574554563199500,3.763199462890625,-0.017310036346316338,-0.008788172155618668,0.005193010903894901
1772574554573132000,3.773132080078125,-0.017310036346316338,-0.013049104250967503,0.010519175790250301
1772574554583063600,3.7830634765625,-0.014114337973296642,-0.016244804486632347,0.011584409512579441
1772574554592995800,3.792995849609375,-0.010918638668954372,-0.020505735650658607,0.011584409512579441
1772574554602913000,3.8029130859375,-0.0077229393646121025,-0.021570969372987747,0.009453942999243736
1772574554612843500,3.812843505859375,-0.009853405877947807,-0.024766668677330017,0.008388710208237171
1772574554622794000,3.8227939453125,-0.008788172155618668,-0.031158065423369408,0.004127778112888336
1772574554632726500,3.8327265625,-0.006657706573605537,-0.0375494658946991,-0.007589785382151604
1772574554642661400,3.842661376953125,-0.0077229393646121025,-0.04607132822275162,-0.015046416781842709
1772574554652594200,3.85259423828125,-0.008788172155618668,-0.05139749497175217,-0.018242115154862404
1772574554662500600,3.86250048828125,-0.009853405877947807,-0.04074516147375107,-0.015046416781842709
1772574554672430800,3.872430908203125,-0.013049104250967503,-0.026897134259343147,-0.007589785382151604
1772574554682370300,3.882370361328125,-0.017310036346316338,-0.022636201232671738,-0.0011983871227130294
1772574554692301300,3.89230126953125,-0.018375270068645477,-0.017310036346316338,0.004127778112888336
1772574554702267600,3.902267578125,-0.016244804486632347,-0.016244804486632347,0.007323476951569319
1772574554712137000,3.912136962890625,-0.015179570764303207,-0.013049104250967503,0.0030625448562204838
1772574554732066000,3.932066162109375,-0.018375270068645477,-0.010918638668954372,-0.017176883295178413
1772574554742006800,3.9420068359375,-0.019440501928329468,-0.009853405877947807,-0.031024912372231483
1772574554751912400,3.951912353515625,-0.018375270068645477,-0.013049104250967503,-0.04593817517161369
1772574554761849600,3.961849609375,-0.014114337973296642,-0.019440501928329468,-0.0555252730846405
1772574554771782400,3.971782470703125,-0.009853405877947807,-0.023701434955000877,-0.06511236727237701
1772574554781719000,3.981718994140625,-0.005592473316937685,-0.024766668677330017,-0.066177599132061
1772574554791656700,3.99165673828125,-0.00452724052593112,-0.026897134259343147,-0.05978620424866676
1772574554801593600,4.001593505859375,-0.00452724052593112,-0.03222329914569855,-0.048068638890981674
1772574554811523300,4.0115234375,-0.006657706573605537,-0.03648423030972481,-0.03528584539890289
1772574554821459700,4.021459716796875,-0.013049104250967503,-0.05139749497175217,-0.020372580736875534
1772574554831378400,4.03137841796875,-0.021570969372987747,-0.0588541254401207,-0.012915950268507004
1772574554841312800,4.041312744140625,-0.016244804486632347,-0.05246272683143616,-0.012915950268507004
1772574554851245600,4.05124560546875,-0.013049104250967503,-0.05352795869112015,-0.017176883295178413
1772574554861180000,4.061179931640625,-0.010918638668954372,-0.04500609636306763,-0.025698747485876083
1772574554871111400,4.071111328125,-0.006657706573605537,-0.03222329914569855,-0.029959678649902344
1772574554881045500,4.08104541015625,-0.005592473316937685,-0.023701434955000877,-0.03528584539890289
1772574554890996000,4.090995849609375,-0.00452724052593112,-0.018375270068645477,-0.033155377954244614
1772574554900931600,4.100931640625,-0.0034620072692632675,-0.014114337973296642,-0.028894444927573204
1772574554910819600,4.110819580078125,0.0007989247678779066,-0.014114337973296642,-0.026763979345560074
1772574554920750300,4.120750244140625,0.007057168986648321,-0.015179570764303207,-0.020372580736875534
1772574554930685700,4.130685791015625,0.015579032711684704,-0.015179570764303207,-0.012915950268507004
1772574554940617000,4.140616943359375,0.013448567129671574,-0.014114337973296642,-0.00226362026296556
1772574554950557200,4.15055712890625,0.0050598569214344025,-0.00452724052593112,0.007323476951569319
1772574554960489200,4.1604892578125,0.0007989247678779066,0.008255556225776672,0.012649642303586006
1772574554970443300,4.170443359375,0.002929390873759985,0.011451254598796368,0.009453942999243736
1772574554980377600,4.180377685546875,0.008122402243316174,0.010386021807789803,0.005193010903894901
1772574554990278400,4.1902783203125,0.011318100616335869,0.010386021807789803,0.005193010903894901
1772574555000209700,4.200209716796875,0.011318100616335869,0.012516488321125507,0.007323476951569319
1772574555010145800,4.210145751953125,0.010252867825329304,0.015712186694145203,0.011584409512579441
1772574555020077300,4.220077392578125,0.005991935729980469,0.011451254598796368,0.015845341607928276
1772574555030008300,4.23000830078125,0.00399462366476655,0.008255556225776672,0.022236740216612816
1772574555039939800,4.23993994140625,0.002929390873759985,0.009320789016783237,0.033954303711652756
1772574555049881000,4.249881103515625,0.002929390873759985,0.013581721112132072,0.048867564648389816
1772574555059813600,4.259813720703125,0.002929390873759985,0.017842652276158333,0.061650361865758896
1772574555069740300,4.269740234375,0.00399462366476655,0.026364516466856003,0.07443315535783768
1772574555079672000,4.279672119140625,0.00399462366476655,0.03488638252019882,0.08402025699615479
1772574555089638700,4.289638671875,0.005991935729980469,0.04021254554390907,0.0829550251364708
1772574555099574000,4.299573974609375,0.009187635034322739,0.04234301298856735,0.07443315535783768
1772574555109506000,4.309506103515625,0.011318100616335869,0.04021254554390907,0.05632419511675835
1772574555119441200,4.319441162109375,0.012383334338665009,0.0370168462395668,0.03288906812667847
1772574555129378600,4.329378662109375,0.013448567129671574,0.03169068321585655,0.012649642303586006
1772574555139313700,4.339313720703125,0.014513799920678139,0.027429750189185143,0.0030625448562204838
1772574555149223200,4.34922314453125,0.014513799920678139,0.03169068321585655,0.0009320789249613881
1772574555159156000,4.359156005859375,0.014513799920678139,0.03382114693522453,0.0030625448562204838
1772574555169092600,4.369092529296875,0.01664426550269127,0.03914731368422508,0.0030625448562204838
1772574555179025700,4.379025634765625,0.014513799920678139,0.04127778112888336,-0.0011983871227130294
1772574555188966100,4.388966064453125,0.015579032711684704,0.03808208182454109,-0.006524552125483751
1772574555198900000,4.39889990234375,0.02090519852936268,0.03808208182454109,-0.012915950268507004
1772574555208819700,4.40881982421875,0.02197043038904667,0.04234301298856735,-0.019307348877191544
1772574555218752000,4.418751953125,0.02516612969338894,0.04553871229290962,-0.028894444927573204
1772574555228695800,4.42869580078125,0.02836182899773121,0.04873441159725189,-0.040612008422613144
1772574555238629400,4.43862939453125,0.03688369318842888,0.04660394415259361,-0.058720968663692474
1772574555248549000,4.448549072265625,0.04966649040579796,0.03169068321585655,-0.08002562820911407
1772574555258481400,4.4584814453125,0.05712312087416649,0.013581721112132072,-0.09493889659643173
1772574555268412400,4.468412353515625,0.05818835273385048,0.014646953903138638,-0.0991998240351677
1772574555278344400,4.478344482421875,0.05925358831882477,0.012516488321125507,-0.09706936031579971
1772574555288281000,4.488281005859375,0.05499265342950821,0.008255556225776672,-0.08854749798774719
1772574555298213600,4.498213623046875,0.0454055592417717,0.008255556225776672,-0.08109086751937866
1772574555308146000,4.50814599609375,0.03901416063308716,0.015712186694145203,-0.07576470077037811
1772574555318078200,4.518078125,0.03262276202440262,0.025299284607172012,-0.07363422960042953
1772574555328012500,4.528012451171875,0.02942706272006035,0.025299284607172012,-0.07043853402137756
1772574555337945000,4.537945068359375,0.03049229457974434,0.024234050884842873,-0.067242830991745
1772574555347876400,4.54787646484375,0.03049229457974434,0.025299284607172012,-0.060851436108350754
1772574555357809000,4.557808837890625,0.02729659713804722,0.018907885998487473,-0.04913387447595596
1772574555367747300,4.567747314453125,0.02623136341571808,0.013581721112132072,-0.03528584539890289
1772574555377680400,4.577680419921875,0.02516612969338894,0.011451254598796368,-0.019307348877191544
1772574555387604500,4.5876044921875,0.02303566411137581,0.013581721112132072,-0.005459319334477186
1772574555397536800,4.597536865234375,0.02303566411137581,0.008255556225776672,0.001997311832383275
1772574555407474000,4.607473876953125,0.02303566411137581,0.00399462366476655,0.006258244160562754
1772574555417406700,4.61740673828125,0.02303566411137581,0.0007989247678779066,0.010519175790250301
1772574555427340500,4.627340576171875,0.02197043038904667,-0.0077229393646121025,0.013714875094592571
1772574555437273600,4.637273681640625,0.02303566411137581,-0.013049104250967503,0.017975807189941406
1772574555447203000,4.647203125,0.01983996480703354,-0.013049104250967503,0.021171506494283676
1772574555457135600,4.657135498046875,0.015579032711684704,-0.011983871459960938,0.025432437658309937
1772574555467068700,4.667068603515625,0.011318100616335869,-0.009853405877947807,0.026497671380639076
1772574555477001200,4.677001220703125,0.005991935729980469,-0.013049104250967503,0.027562905102968216
1772574555486931700,4.686931640625,0.0018641578499227762,-0.014114337973296642,0.029693370684981346
1772574555496864300,4.6968642578125,-0.00133154122158885,-0.011983871459960938,0.026497671380639076
1772574555506799900,4.7067998046875,-0.005592473316937685,-0.009853405877947807,0.025432437658309937
1772574555516732400,4.716732421875,-0.0077229393646121025,-0.005592473316937685,0.023301972076296806
1772574555526667800,4.726667724609375,-0.008788172155618668,-0.0023967742454260588,0.024367205798625946
1772574555536600600,4.7366005859375,-0.009853405877947807,-0.005592473316937685,0.025432437658309937
1772574555546540500,4.74654052734375,-0.010918638668954372,-0.014114337973296642,0.023301972076296806
1772574555556474000,4.75647412109375,-0.011983871459960938,-0.021570969372987747,0.021171506494283676
1772574555566390500,4.766390625,-0.010918638668954372,-0.031158065423369408,0.015845341607928276
1772574555576322300,4.776322265625,-0.009853405877947807,-0.03967992961406708,0.010519175790250301
1772574555586258200,4.786258056640625,-0.013049104250967503,-0.03967992961406708,0.006258244160562754
1772574555596190500,4.7961904296875,-0.013049104250967503,-0.03328853100538254,0.001997311832383275
1772574555606109700,4.806109619140625,-0.016244804486632347,-0.023701434955000877,-0.0033288532868027687
1772574555616040700,4.816040771484375,-0.023701434955000877,-0.015179570764303207,-0.010785484686493874
1772574555625994200,4.825994140625,-0.030092833563685417,-0.008788172155618668,-0.023568280041217804
1772574555635927600,4.835927490234375,-0.03541899845004082,-0.00452724052593112,-0.03528584539890289
1772574555645859800,4.84585986328125,-0.03967992961406708,-0.0034620072692632675,-0.043807707726955414
1772574555655793200,4.855793212890625,-0.04394086077809334,-0.0034620072692632675,-0.04274247586727142
1772574555665733400,4.8657333984375,-0.0482017956674099,-0.00133154122158885,-0.033155377954244614
1772574555675667500,4.87566748046875,-0.04926702752709389,0.0007989247678779066,-0.017176883295178413
1772574555685599000,4.885598876953125,-0.05139749497175217,0.002929390873759985,0.001997311832383275
1772574555695532500,4.895532470703125,-0.05352795869112015,0.0050598569214344025,0.017975807189941406
1772574555705451300,4.905451171875,-0.05246272683143616,0.009320789016783237,0.030758604407310486
1772574555715383300,4.91538330078125,-0.05033225938677788,0.014646953903138638,0.03928046673536301
1772574555725324300,4.92532421875,-0.04607132822275162,0.013581721112132072,0.042476166039705276
1772574555735257300,4.93525732421875,-0.03967992961406708,0.012516488321125507,0.041410934180021286
1772574555745193200,4.945193115234375,-0.031158065423369408,0.012516488321125507,0.037150003015995026
1772574555755126500,4.95512646484375,-0.026897134259343147,0.015712186694145203,0.031823836266994476
1772574555765048000,4.965048095703125,-0.025831900537014008,0.014646953903138638,0.021171506494283676
1772574555774980400,4.97498046875,-0.020505735650658607,0.018907885998487473,0.009453942999243736
1772574555784924000,4.984923828125,-0.018375270068645477,0.014646953903138638,-0.00226362026296556
1772574555794857200,4.994857177734375,-0.015179570764303207,0.009320789016783237,-0.007589785382151604
1772574555804792800,5.004792724609375,-0.010918638668954372,0.0050598569214344025,-0.008655018173158169
1772574555814726400,5.014726318359375,-0.0077229393646121025,0.0050598569214344025,-0.007589785382151604
1772574555824644900,5.024644775390625,-0.008788172155618668,0.009320789016783237,-0.004394086077809334
1772574555834577000,5.034576904296875,-0.010918638668954372,0.009320789016783237,-0.0001331541279796511
1772574555844513800,5.044513671875,-0.010918638668954372,0.009320789016783237,0.0030625448562204838
1772574555854446300,5.0544462890625,-0.0077229393646121025,0.017842652276158333,0.005193010903894901
1772574555864390000,5.064389892578125,-0.008788172155618668,0.022103585302829742,0.004127778112888336
1772574555874323500,5.074323486328125,-0.008788172155618668,0.023168819025158882,0.0030625448562204838
1772574555884268800,5.084268798828125,-0.0077229393646121025,0.023168819025158882,-0.0001331541279796511
1772574555894203600,5.09420361328125,-0.005592473316937685,0.023168819025158882,-0.00226362026296556
1772574555904106800,5.104106689453125,-0.0034620072692632675,0.023168819025158882,-0.0011983871227130294
1772574555914038300,5.114038330078125,-0.0034620072692632675,0.017842652276158333,0.001997311832383275
1772574555923983400,5.1239833984375,-0.0034620072692632675,0.019973119720816612,0.008388710208237171
1772574555933916400,5.13391650390625,-0.0034620072692632675,0.022103585302829742,0.012649642303586006
1772574555943833600,5.14383349609375,-0.005592473316937685,0.017842652276158333,0.010519175790250301
1772574555953764900,5.153764892578125,-0.00452724052593112,0.013581721112132072,0.008388710208237171
1772574555963702300,5.163702392578125,-0.0023967742454260588,0.013581721112132072,0.008388710208237171
1772574555973634300,5.17363427734375,0.0007989247678779066,0.016777420416474342,0.010519175790250301
1772574555983565800,5.18356591796875,0.0007989247678779066,0.019973119720816612,0.010519175790250301
1772574555993497900,5.193497802734375,0.0018641578499227762,0.021038351580500603,0.005193010903894901
1772574556003440000,5.203440185546875,0.0018641578499227762,0.021038351580500603,-0.0001331541279796511
1772574556013373200,5.213373291015625,0.0050598569214344025,0.018907885998487473,-0.008655018173158169
1772574556023297300,5.22329736328125,0.008122402243316174,0.015712186694145203,-0.018242115154862404
1772574556033229300,5.233229248046875,0.011318100616335869,0.008255556225776672,-0.025698747485876083
1772574556043162600,5.24316259765625,0.01664426550269127,0.0050598569214344025,-0.026763979345560074
1772574556053095000,5.253094970703125,0.01983996480703354,0.00719032296910882,-0.025698747485876083
1772574556063025400,5.263025390625,0.01983996480703354,0.0061250897124409676,-0.023568280041217804
1772574556072957400,5.27295751953125,0.01983996480703354,0.0061250897124409676,-0.021437814459204674
1772574556082896600,5.282896728515625,0.02090519852936268,0.00719032296910882,-0.020372580736875534
1772574556092829200,5.2928291015625,0.02410089783370495,0.008255556225776672,-0.016111649572849274
1772574556102774800,5.30277490234375,0.02516612969338894,0.00399462366476655,-0.015046416781842709
1772574556112708600,5.31270849609375,0.02836182899773121,0.002929390873759985,-0.013981183059513569
1772574556122599200,5.32259912109375,0.02729659713804722,0.0050598569214344025,-0.011850717477500439
1772574556132529000,5.33252880859375,0.02410089783370495,0.00399462366476655,-0.006524552125483751
1772574556142500900,5.3425009765625,0.02303566411137581,-0.00133154122158885,0.0009320789249613881
1772574556152434700,5.3524345703125,0.02410089783370495,-0.00452724052593112,0.006258244160562754
1772574556162335000,5.3623349609375,0.02516612969338894,-0.0002663082559593022,0.012649642303586006
1772574556172265700,5.372265625,0.02623136341571808,0.0061250897124409676,0.012649642303586006
1772574556182200800,5.382200927734375,0.02729659713804722,0.011451254598796368,0.007323476951569319
1772574556192131800,5.3921318359375,0.02729659713804722,0.014646953903138638,0.0030625448562204838
1772574556202065000,5.40206494140625,0.02729659713804722,0.008255556225776672,-0.0033288532868027687
1772574556211996000,5.411995849609375,0.02836182899773121,0.0007989247678779066,-0.006524552125483751
1772574556221963500,5.421963623046875,0.02942706272006035,-0.0023967742454260588,-0.004394086077809334
1772574556231898400,5.4318984375,0.02942706272006035,-0.0023967742454260588,0.0030625448562204838
1772574556241821000,5.441821044921875,0.02623136341571808,0.0018641578499227762,0.014780107885599136
1772574556251754800,5.451754638671875,0.02623136341571808,0.0061250897124409676,0.026497671380639076
1772574556261658000,5.461658203125,0.02623136341571808,0.0061250897124409676,0.037150003015995026
1772574556271588600,5.471588623046875,0.02623136341571808,0.0061250897124409676,0.040345702320337296
1772574556281535700,5.48153564453125,0.02410089783370495,0.0061250897124409676,0.040345702320337296
1772574556291468000,5.491468017578125,0.02303566411137581,0.009320789016783237,0.03608476743102074
1772574556301416000,5.501416015625,0.02197043038904667,0.013581721112132072,0.033954303711652756
1772574556311349800,5.511349853515625,0.01770949922502041,0.011451254598796368,0.029693370684981346
1772574556321280000,5.521280029296875,0.01770949922502041,0.009320789016783237,0.027562905102968216
1772574556331213600,5.531213623046875,0.013448567129671574,0.0061250897124409676,0.026497671380639076
1772574556341154300,5.541154296875,0.010252867825329304,0.00719032296910882,0.024367205798625946
1772574556351088600,5.551088623046875,0.0050598569214344025,0.012516488321125507,0.019041040912270546
1772574556361017600,5.561017578125,0.002929390873759985,0.014646953903138638,0.013714875094592571
1772574556370951200,5.570951171875,0.002929390873759985,0.015712186694145203,0.0030625448562204838
1772574556380872200,5.5808720703125,0.0050598569214344025,0.015712186694145203,-0.008655018173158169
1772574556390804700,5.5908046875,0.005991935729980469,0.019973119720816612,-0.016111649572849274
1772574556400740600,5.60074072265625,0.0050598569214344025,0.024234050884842873,-0.021437814459204674
1772574556410673400,5.61067333984375,0.0050598569214344025,0.023168819025158882,-0.025698747485876083
1772574556420604400,5.6206044921875,0.00399462366476655,0.026364516466856003,-0.027829213067889214
1772574556430537000,5.630536865234375,0.00399462366476655,0.025299284607172012,-0.024633513763546944
1772574556440470000,5.640469970703125,0.0050598569214344025,0.021038351580500603,-0.013981183059513569
1772574556450402600,5.650402587890625,0.007057168986648321,0.022103585302829742,-0.0011983871227130294
1772574556460347400,5.660347412109375,0.009187635034322739,0.018907885998487473,0.005193010903894901
1772574556470281200,5.67028125,0.010252867825329304,0.014646953903138638,0.009453942999243736
1772574556480179000,5.680178955078125,0.011318100616335869,0.012516488321125507,0.007323476951569319
1772574556490109200,5.690109130859375,0.011318100616335869,0.011451254598796368,-0.0001331541279796511
1772574556500070100,5.700070068359375,0.013448567129671574,0.009320789016783237,-0.008655018173158169
1772574556510003500,5.71000341796875,0.014513799920678139,0.0061250897124409676,-0.012915950268507004
1772574556519929600,5.7199296875,0.01664426550269127,0.0007989247678779066,-0.019307348877191544
1772574556529862100,5.729862060546875,0.01877473294734955,0.0007989247678779066,-0.022503048181533813
1772574556539795700,5.739795654296875,0.02090519852936268,0.0061250897124409676,-0.021437814459204674
1772574556549728300,5.749728271484375,0.01770949922502041,0.012516488321125507,-0.017176883295178413
1772574556559662300,5.759662353515625,0.014513799920678139,0.017842652276158333,-0.015046416781842709
1772574556569595100,5.76959521484375,0.013448567129671574,0.019973119720816612,-0.013981183059513569
1772574556579492900,5.779492919921875,0.01664426550269127,0.018907885998487473,-0.012915950268507004
1772574556589411300,5.789411376953125,0.011318100616335869,0.010386021807789803,-0.010785484686493874
1772574556599357700,5.799357666015625,0.008122402243316174,0.013581721112132072,-0.009720250964164734
1772574556609290500,5.80929052734375,0.010252867825329304,0.013581721112132072,-0.009720250964164734
1772574556619223300,5.819223388671875,0.010252867825329304,0.00719032296910882,-0.011850717477500439
1772574556649013200,5.84901318359375,0.01877473294734955,-0.0034620072692632675,-0.05232957378029823
1772574556658982700,5.858982666015625,0.012383334338665009,0.011451254598796368,-0.07043853402137756
1772574556668918300,5.868918212890625,-0.009853405877947807,0.03275591507554054,-0.08428656309843063
1772574556678819300,5.8788193359375,-0.018375270068645477,0.05086487531661987,-0.0874822586774826
1772574556688751400,5.88875146484375,-0.019440501928329468,0.07962616533041,-0.08854749798774719
1772574556698661400,5.898661376953125,-0.019440501928329468,0.09560466557741165,-0.08002562820911407
1772574556708593400,5.908593505859375,-0.021570969372987747,0.09773512929677963,-0.067242830991745
1772574556718602800,5.918602783203125,-0.019440501928329468,0.08921326696872711,-0.05232957378029823
1772574556728541400,5.92854150390625,-0.016244804486632347,0.07216953486204147,-0.03848154470324516
1772574556738449400,5.938449462890625,-0.014114337973296642,0.0476691760122776,-0.026763979345560074
1772574556748385000,5.948385009765625,-0.009853405877947807,0.029560215771198273,-0.017176883295178413
1772574556758315800,5.958315673828125,-0.00452724052593112,0.019973119720816612,-0.005459319334477186
1772574556768251000,5.9682509765625,0.0007989247678779066,0.016777420416474342,0.0030625448562204838
1772574556778173000,5.9781728515625,0.002929390873759985,0.015712186694145203,0.015845341607928276
1772574556788106800,5.988106689453125,0.005991935729980469,0.009320789016783237,0.026497671380639076
1772574556798044700,5.998044677734375,0.010252867825329304,0.0007989247678779066,0.033954303711652756
1772574556807979000,6.00797900390625,0.014513799920678139,-0.005592473316937685,0.042476166039705276
1772574556817942000,6.01794189453125,0.015579032711684704,-0.010918638668954372,0.04993279650807381
1772574556827879200,6.027879150390625,0.01770949922502041,-0.010918638668954372,0.055258963257074356
1772574556837773300,6.037773193359375,0.01983996480703354,-0.0034620072692632675,0.057389430701732635
1772574556847706000,6.0477060546875,0.01877473294734955,0.002929390873759985,0.058454662561416626
1772574556857623600,6.05762353515625,0.01877473294734955,0.002929390873759985,0.05632419511675835
1772574556867554800,6.067554931640625,0.015579032711684704,0.0018641578499227762,0.04993279650807381
1772574556877480200,6.077480224609375,0.012383334338665009,0.0007989247678779066,0.040345702320337296
1772574556887357400,6.087357421875,0.010252867825329304,-0.0034620072692632675,0.031823836266994476
1772574556897333500,6.09733349609375,0.008122402243316174,-0.005592473316937685,0.023301972076296806
1772574556917191000,6.11719091796875,0.007057168986648321,-0.008788172155618668,0.010519175790250301
1772574556937084700,6.137084716796875,0.005991935729980469,-0.00133154122158885,0.006258244160562754
1772574556947019000,6.14701904296875,0.0050598569214344025,0.00399462366476655,0.004127778112888336
1772574556956949800,6.15694970703125,0.0050598569214344025,0.008255556225776672,0.001997311832383275
1772574556966883600,6.166883544921875,0.002929390873759985,0.014646953903138638,0.0030625448562204838
1772574556976829200,6.1768291015625,-0.0023967742454260588,0.025299284607172012,0.006258244160562754
1772574556986764000,6.186763916015625,-0.010918638668954372,0.024234050884842873,0.009453942999243736
1772574556996683300,6.196683349609375,-0.021570969372987747,0.019973119720816612,0.022236740216612816
1772574557006616600,6.206616455078125,-0.025831900537014008,0.023168819025158882,0.035019535571336746
1772574557016547800,6.2165478515625,-0.022636201232671738,0.016777420416474342,0.047802332788705826
1772574557026481200,6.226481201171875,-0.020505735650658607,0.014646953903138638,0.05632419511675835
1772574557036411100,6.2364111328125,-0.016244804486632347,0.013581721112132072,0.059519894421100616
1772574557046344200,6.24634423828125,-0.011983871459960938,0.009320789016783237,0.061650361865758896
1772574557056276700,6.25627685546875,-0.010918638668954372,-0.0077229393646121025,0.06378082931041718
1772574557066209500,6.26620947265625,-0.03328853100538254,0.010386021807789803,0.059519894421100616
1772574557076149800,6.276149658203125,-0.030092833563685417,0.015712186694145203,0.048867564648389816
1772574557086083600,6.28608349609375,-0.03541899845004082,0.019973119720816612,0.035019535571336746
1772574557096022000,6.29602197265625,-0.014114337973296642,0.04340824484825134,0.026497671380639076
1772574557105956000,6.3059560546875,0.00399462366476655,0.04127778112888336,0.016910573467612267
1772574557115876000,6.3158759765625,-0.011983871459960938,0.026364516466856003,0.006258244160562754
1772574557125808600,6.32580859375,-0.024766668677330017,0.014646953903138638,-0.005459319334477186
1772574557135749400,6.335749267578125,-0.023701434955000877,-0.008788172155618668,-0.015046416781842709
1772574557145683000,6.345682861328125,-0.016244804486632347,-0.025831900537014008,-0.021437814459204674
1772574557155603200,6.355603271484375,-0.010918638668954372,-0.029027599841356277,-0.023568280041217804
1772574557165535200,6.36553515625,-0.011983871459960938,-0.023701434955000877,-0.023568280041217804
1772574557175466500,6.375466552734375,-0.015179570764303207,-0.020505735650658607,-0.019307348877191544
1772574557185398500,6.3853984375,-0.014114337973296642,-0.019440501928329468,-0.015046416781842709
1772574557195332900,6.395332763671875,-0.009853405877947807,-0.021570969372987747,-0.008655018173158169
1772574557205265200,6.40526513671875,-0.008788172155618668,-0.020505735650658607,0.001997311832383275
1772574557215200000,6.415199951171875,-0.008788172155618668,-0.016244804486632347,0.008388710208237171
1772574557225132500,6.425132568359375,-0.008788172155618668,-0.011983871459960938,0.007323476951569319
1772574557235069400,6.4350693359375,-0.0034620072692632675,-0.013049104250967503,0.0030625448562204838
1772574557245002200,6.445002197265625,-0.0002663082559593022,-0.013049104250967503,-0.007589785382151604
1772574557254961400,6.45496142578125,0.0018641578499227762,-0.009853405877947807,-0.019307348877191544
1772574557264897000,6.46489697265625,0.005991935729980469,-0.011983871459960938,-0.025698747485876083
1772574557274799400,6.47479931640625,0.010252867825329304,-0.017310036346316338,-0.025698747485876083
1772574557284732000,6.48473193359375,0.010252867825329304,-0.020505735650658607,-0.021437814459204674
1772574557294655500,6.494655517578125,0.008122402243316174,-0.021570969372987747,-0.016111649572849274
1772574557304587000,6.5045869140625,0.007057168986648321,-0.021570969372987747,-0.009720250964164734
1772574557314526000,6.51452587890625,0.007057168986648321,-0.020505735650658607,-0.0033288532868027687
1772574557324458200,6.524458251953125,0.005991935729980469,-0.019440501928329468,0.0009320789249613881
1772574557334422300,6.53442236328125,0.0050598569214344025,-0.017310036346316338,0.004127778112888336
1772574557344358000,6.54435791015625,0.002929390873759985,-0.013049104250967503,0.007323476951569319
1772574557354262800,6.5542626953125,0.0007989247678779066,-0.015179570764303207,0.004127778112888336
1772574557364195000,6.564195068359375,-0.0023967742454260588,-0.018375270068645477,-0.0011983871227130294
1772574557374140700,6.574140625,-0.00452724052593112,-0.017310036346316338,-0.005459319334477186
1772574557384074500,6.584074462890625,-0.006657706573605537,-0.017310036346316338,-0.007589785382151604
1772574557394004700,6.594004638671875,-0.009853405877947807,-0.015179570764303207,-0.010785484686493874
1772574557403938000,6.60393798828125,-0.013049104250967503,-0.009853405877947807,-0.011850717477500439
1772574557413884000,6.6138837890625,-0.013049104250967503,-0.00452724052593112,-0.009720250964164734
1772574557423818500,6.623818603515625,-0.011983871459960938,-0.0023967742454260588,-0.004394086077809334
1772574557433718000,6.633718017578125,-0.011983871459960938,-0.0023967742454260588,0.0009320789249613881
1772574557443649000,6.64364892578125,-0.009853405877947807,-0.00452724052593112,0.006258244160562754
1772574557453606700,6.653606689453125,-0.006657706573605537,-0.0034620072692632675,0.006258244160562754
1772574557463540500,6.66354052734375,-0.00452724052593112,0.0007989247678779066,0.005193010903894901
1772574557473472300,6.67347216796875,-0.00452724052593112,0.0050598569214344025,0.004127778112888336
1772574557483405800,6.68340576171875,-0.0034620072692632675,0.0061250897124409676,0.005193010903894901
1772574557493331500,6.69333154296875,-0.0034620072692632675,0.00399462366476655,0.007323476951569319
1772574557503264000,6.703263916015625,-0.0034620072692632675,-0.0023967742454260588,0.011584409512579441
1772574557513209300,6.713209228515625,-0.00133154122158885,-0.0034620072692632675,0.015845341607928276
1772574557523143400,6.723143310546875,-0.00133154122158885,0.0018641578499227762,0.019041040912270546
1772574557533062400,6.7330625,-0.005592473316937685,0.010386021807789803,0.027562905102968216
1772574557542994700,6.74299462890625,-0.009853405877947807,0.012516488321125507,0.037150003015995026
1772574557552925200,6.75292529296875,-0.008788172155618668,0.012516488321125507,0.042476166039705276
1772574557562857500,6.762857421875,-0.008788172155618668,0.00719032296910882,0.041410934180021286
1772574557572794000,6.772794189453125,-0.0077229393646121025,0.0050598569214344025,0.037150003015995026
1772574557582727000,6.782726806640625,-0.006657706573605537,0.002929390873759985,0.033954303711652756
1772574557592652500,6.792652587890625,-0.005592473316937685,-0.0002663082559593022,0.028628136962652206
1772574557602584600,6.80258447265625,-0.00133154122158885,-0.0034620072692632675,0.025432437658309937
1772574557612503300,6.81250341796875,-0.0002663082559593022,-0.00133154122158885,0.016910573467612267
1772574557622434000,6.82243408203125,-0.0023967742454260588,0.002929390873759985,0.008388710208237171
1772574557632391700,6.8323916015625,-0.0034620072692632675,0.0050598569214344025,-0.0001331541279796511
1772574557642325000,6.842324951171875,-0.0034620072692632675,0.008255556225776672,-0.007589785382151604
1772574557652254500,6.85225439453125,-0.0034620072692632675,0.009320789016783237,-0.012915950268507004
1772574557662187500,6.8621875,-0.00133154122158885,0.0050598569214344025,-0.017176883295178413
1772574557672124000,6.8721240234375,-0.00133154122158885,0.002929390873759985,-0.015046416781842709
1772574557682057200,6.88205712890625,-0.00133154122158885,0.00399462366476655,-0.009720250964164734
1772574557691988200,6.89198828125,-0.00133154122158885,0.00399462366476655,0.0009320789249613881
1772574557701921300,6.90192138671875,0.0007989247678779066,0.00399462366476655,0.012649642303586006
1772574557711848200,6.91184814453125,0.0018641578499227762,0.00399462366476655,0.022236740216612816
1772574557721780700,6.92178076171875,0.00399462366476655,-0.0002663082559593022,0.029693370684981346
1772574557741624600,6.94162451171875,0.005991935729980469,0.002929390873759985,0.030758604407310486
1772574557761527000,6.961527099609375,0.011318100616335869,0.00719032296910882,0.016910573467612267
1772574557771462700,6.971462646484375,0.010252867825329304,0.009320789016783237,0.012649642303586006
1772574557781383000,6.9813828125,0.011318100616335869,0.011451254598796368,0.013714875094592571
1772574557791316700,6.991316650390625,0.009187635034322739,0.011451254598796368,0.015845341607928276
1772574557801257000,7.001257080078125,0.0050598569214344025,0.010386021807789803,0.015845341607928276
1772574557811191800,7.01119189453125,0.0050598569214344025,0.0050598569214344025,0.012649642303586006
1772574557821109800,7.02110986328125,0.007057168986648321,-0.0002663082559593022,0.006258244160562754
1772574557831042800,7.031042724609375,0.008122402243316174,-0.0023967742454260588,-0.00226362026296556
1772574557840981800,7.040981689453125,0.0050598569214344025,-0.0023967742454260588,-0.011850717477500439
1772574557850915300,7.050915283203125,0.0050598569214344025,-0.0034620072692632675,-0.018242115154862404
1772574557860842200,7.06084228515625,0.00399462366476655,-0.0034620072692632675,-0.017176883295178413
1772574557870775000,7.070775146484375,0.005991935729980469,-0.0023967742454260588,-0.016111649572849274
1772574557880686600,7.0806865234375,0.005991935729980469,-0.00133154122158885,-0.007589785382151604
1772574557890617300,7.090617431640625,0.005991935729980469,-0.0002663082559593022,0.0009320789249613881
1772574557900575000,7.100574951171875,0.0050598569214344025,0.0007989247678779066,0.008388710208237171
1772574557910508500,7.110508544921875,0.005991935729980469,0.002929390873759985,0.013714875094592571
1772574557920444000,7.12044384765625,0.0050598569214344025,0.009320789016783237,0.012649642303586006
1772574557930377500,7.13037744140625,0.0018641578499227762,0.013581721112132072,0.008388710208237171
1772574557940315000,7.14031494140625,0.0007989247678779066,0.009320789016783237,0.006258244160562754
1772574557950249000,7.1502490234375,0.0018641578499227762,0.00719032296910882,0.009453942999243736
1772574557960151300,7.1601513671875,0.00399462366476655,0.00399462366476655,0.009453942999243736
1772574557970082300,7.170082275390625,0.0050598569214344025,0.0061250897124409676,0.014780107885599136
1772574557980034000,7.180033935546875,0.002929390873759985,0.00719032296910882,0.019041040912270546
1772574557989966800,7.189966796875,0.0050598569214344025,0.0061250897124409676,0.020106272771954536
1772574557999896000,7.19989599609375,0.005991935729980469,0.008255556225776672,0.019041040912270546
1772574558009828600,7.20982861328125,0.007057168986648321,0.011451254598796368,0.013714875094592571
1772574558019762400,7.219762451171875,0.009187635034322739,0.015712186694145203,0.007323476951569319
1772574558029695200,7.2296953125,0.009187635034322739,0.015712186694145203,-0.0001331541279796511
1772574558039626800,7.239626708984375,0.005991935729980469,0.012516488321125507,-0.009720250964164734
1772574558049559600,7.2495595703125,0.005991935729980469,0.009320789016783237,-0.015046416781842709
1772574558059505200,7.259505126953125,0.00399462366476655,0.008255556225776672,-0.019307348877191544
1772574558069375700,7.269375732421875,0.00399462366476655,0.009320789016783237,-0.022503048181533813
1772574558079344000,7.27934423828125,0.0050598569214344025,0.010386021807789803,-0.021437814459204674
1772574558089243600,7.28924365234375,0.00399462366476655,0.009320789016783237,-0.017176883295178413
1772574558099177500,7.299177490234375,0.00399462366476655,0.00719032296910882,-0.018242115154862404
1772574558119039700,7.319039794921875,0.002929390873759985,0.009320789016783237,-0.016111649572849274
1772574558138907600,7.33890771484375,0.0050598569214344025,0.014646953903138638,-0.013981183059513569
1772574558148885500,7.348885498046875,0.00399462366476655,0.012516488321125507,-0.006524552125483751
1772574558158823200,7.3588232421875,0.00399462366476655,0.008255556225776672,0.0009320789249613881
1772574558168750000,7.36875,0.00399462366476655,0.00399462366476655,0.008388710208237171
1772574558178663400,7.378663330078125,0.0050598569214344025,0.00399462366476655,0.012649642303586006
1772574558188599800,7.388599853515625,0.0050598569214344025,0.0050598569214344025,0.013714875094592571
1772574558198547500,7.39854736328125,0.005991935729980469,0.0061250897124409676,0.011584409512579441
1772574558208484900,7.40848486328125,0.0050598569214344025,0.008255556225776672,0.004127778112888336
1772574558218410500,7.418410400390625,0.002929390873759985,0.0061250897124409676,-0.0001331541279796511
1772574558228347000,7.428346923828125,0.002929390873759985,0.0007989247678779066,-0.006524552125483751
1772574558238275600,7.438275634765625,0.00399462366476655,-0.0023967742454260588,-0.009720250964164734
1772574558248211200,7.448211181640625,0.002929390873759985,0.0018641578499227762,-0.010785484686493874
1772574558258147000,7.45814697265625,0.002929390873759985,0.0050598569214344025,-0.013981183059513569
1772574558268082400,7.46808251953125,0.002929390873759985,0.010386021807789803,-0.015046416781842709
1772574558278014500,7.478014404296875,0.0018641578499227762,0.015712186694145203,-0.012915950268507004
1772574558287949600,7.487949462890625,0.0007989247678779066,0.014646953903138638,-0.010785484686493874
1772574558297869300,7.497869384765625,-0.00133154122158885,0.010386021807789803,-0.010785484686493874
1772574558307803100,7.50780322265625,-0.0002663082559593022,0.0061250897124409676,-0.012915950268507004
1772574558317737700,7.51773779296875,0.0007989247678779066,0.0050598569214344025,-0.012915950268507004
1772574558327671600,7.527671630859375,0.0007989247678779066,0.0050598569214344025,-0.011850717477500439
1772574558337606400,7.5376064453125,0.0007989247678779066,0.00719032296910882,-0.010785484686493874
1772574558347540200,7.547540283203125,-0.0002663082559593022,0.011451254598796368,-0.007589785382151604
1772574558357466400,7.55746630859375,-0.0002663082559593022,0.009320789016783237,-0.0011983871227130294
1772574558367399400,7.5673994140625,-0.0002663082559593022,0.0050598569214344025,0.010519175790250301
1772574558377328400,7.577328369140625,-0.00133154122158885,0.002929390873759985,0.021171506494283676
1772574558387261000,7.587260986328125,-0.0002663082559593022,0.0018641578499227762,0.023301972076296806
1772574558397187800,7.597187744140625,-0.0002663082559593022,0.00399462366476655,0.021171506494283676
1772574558407120000,7.607119873046875,-0.0002663082559593022,0.011451254598796368,0.016910573467612267
1772574558417063700,7.617063720703125,0.0018641578499227762,0.017842652276158333,0.009453942999243736
1772574558426997000,7.6269970703125,0.0050598569214344025,0.017842652276158333,0.0009320789249613881
1772574558436914700,7.636914794921875,0.00399462366476655,0.016777420416474342,0.0009320789249613881
1772574558446846200,7.64684619140625,0.0018641578499227762,0.019973119720816612,-0.0011983871227130294
1772574558456778500,7.656778564453125,-0.00133154122158885,0.016777420416474342,-0.0011983871227130294
1772574558466710300,7.666710205078125,-0.0023967742454260588,0.008255556225776672,0.001997311832383275
1772574558476646400,7.676646484375,-0.0002663082559593022,0.00719032296910882,0.006258244160562754
1772574558486578700,7.68657861328125,0.002929390873759985,0.00719032296910882,0.006258244160562754
1772574558496541700,7.696541748046875,0.002929390873759985,0.00399462366476655,0.008388710208237171
1772574558506477000,7.70647705078125,0.00399462366476655,0.0050598569214344025,0.009453942999243736
1772574558516374300,7.716374267578125,0.002929390873759985,0.0007989247678779066,0.008388710208237171
1772574558526305800,7.726305908203125,0.002929390873759985,-0.0002663082559593022,0.004127778112888336
1772574558536275700,7.736275634765625,0.0050598569214344025,0.002929390873759985,-0.0011983871227130294
1772574558546211000,7.746211181640625,0.00399462366476655,0.0018641578499227762,-0.007589785382151604
1772574558556136700,7.75613671875,0.0007989247678779066,0.0061250897124409676,-0.009720250964164734
1772574558566071300,7.7660712890625,-0.0002663082559593022,0.010386021807789803,-0.009720250964164734
1772574558575969300,7.77596923828125,-0.00133154122158885,0.013581721112132072,-0.007589785382151604
1772574558585900000,7.785900146484375,-0.0002663082559593022,0.015712186694145203,-0.006524552125483751
1772574558595842800,7.7958427734375,0.0007989247678779066,0.011451254598796368,-0.007589785382151604
1772574558605774800,7.80577490234375,-0.00133154122158885,0.009320789016783237,-0.007589785382151604
1772574558615699700,7.81569970703125,-0.0023967742454260588,0.00719032296910882,-0.006524552125483751
1772574558625631000,7.825630859375,-0.00133154122158885,0.0061250897124409676,-0.006524552125483751
1772574558635599000,7.83559912109375,-0.0002663082559593022,0.0061250897124409676,-0.0033288532868027687
1772574558645534000,7.845533935546875,-0.0002663082559593022,0.0061250897124409676,0.004127778112888336
1772574558655455500,7.85545556640625,0.0007989247678779066,0.0050598569214344025,0.012649642303586006
1772574558665389300,7.865389404296875,0.0007989247678779066,0.0018641578499227762,0.016910573467612267
1772574558675323400,7.875323486328125,0.0018641578499227762,-0.00133154122158885,0.016910573467612267
1772574558685257000,7.885257080078125,0.0018641578499227762,-0.00452724052593112,0.010519175790250301
1772574558695181000,7.89518115234375,0.00399462366476655,-0.0077229393646121025,0.0030625448562204838
1772574558705113900,7.90511376953125,0.0050598569214344025,-0.008788172155618668,-0.0033288532868027687
1772574558715049200,7.91504931640625,0.002929390873759985,-0.0034620072692632675,-0.008655018173158169
1772574558724982300,7.924982177734375,0.0018641578499227762,0.0050598569214344025,-0.015046416781842709
1772574558734914800,7.934914794921875,-0.0002663082559593022,0.009320789016783237,-0.020372580736875534
1772574558744847600,7.94484765625,-0.00133154122158885,0.00719032296910882,-0.021437814459204674
1772574558754780200,7.9547802734375,-0.00133154122158885,0.002929390873759985,-0.022503048181533813
1772574558764713000,7.964712890625,-0.0023967742454260588,-0.0002663082559593022,-0.022503048181533813
1772574558774645500,7.9746455078125,-0.0002663082559593022,0.0018641578499227762,-0.020372580736875534
1772574558784578300,7.984578369140625,0.0007989247678779066,0.008255556225776672,-0.017176883295178413
1772574558794513200,7.99451318359375,0.0007989247678779066,0.011451254598796368,-0.020372580736875534
1772574558804446200,8.0044462890625,0.0018641578499227762,0.014646953903138638,-0.027829213067889214
1772574558814384600,8.014384521484375,0.002929390873759985,0.016777420416474342,-0.031024912372231483
1772574558824318200,8.024318115234376,0.002929390873759985,0.016777420416474342,-0.029959678649902344
1772574558834241000,8.034240966796874,0.0018641578499227762,0.010386021807789803,-0.023568280041217804
1772574558844173300,8.04417333984375,0.0007989247678779066,0.0061250897124409676,-0.013981183059513569
1772574558854125000,8.054125,0.002929390873759985,0.0061250897124409676,-0.004394086077809334
1772574558864059600,8.0640595703125,0.00399462366476655,0.0061250897124409676,0.0009320789249613881
1772574558873972200,8.07397216796875,0.0050598569214344025,0.009320789016783237,-0.0011983871227130294
1772574558883904500,8.083904541015626,0.0050598569214344025,0.012516488321125507,-0.006524552125483751
1772574558893836800,8.0938369140625,0.0050598569214344025,0.012516488321125507,-0.012915950268507004
1772574558903769000,8.10376904296875,0.00399462366476655,0.015712186694145203,-0.016111649572849274
1772574558913702100,8.1137021484375,0.00399462366476655,0.009320789016783237,-0.017176883295178413
1772574558923634400,8.123634521484375,0.0050598569214344025,0.00719032296910882,-0.017176883295178413
1772574558933568300,8.133568359375,0.005991935729980469,0.0061250897124409676,-0.017176883295178413
1772574558943500800,8.143500732421876,0.005991935729980469,0.011451254598796368,-0.017176883295178413
1772574558953435600,8.153435546875,0.00399462366476655,0.022103585302829742,-0.015046416781842709
1772574558963368200,8.1633681640625,0.0018641578499227762,0.025299284607172012,-0.017176883295178413
1772574558973296600,8.173296630859374,0.0018641578499227762,0.021038351580500603,-0.023568280041217804
1772574558983229000,8.18322900390625,0.002929390873759985,0.018907885998487473,-0.027829213067889214
1772574558993168100,8.193168212890624,0.0050598569214344025,0.022103585302829742,-0.029959678649902344
1772574559003101200,8.20310107421875,0.002929390873759985,0.023168819025158882,-0.028894444927573204
1772574559013041200,8.213041259765625,-0.00133154122158885,0.027429750189185143,-0.020372580736875534
1772574559022974700,8.222974609375,-0.00133154122158885,0.030625449493527412,-0.013981183059513569
1772574559032893200,8.23289306640625,-0.00133154122158885,0.030625449493527412,-0.009720250964164734
1772574559042825200,8.2428251953125,-0.0023967742454260588,0.03169068321585655,-0.006524552125483751
1772574559052760600,8.252760498046875,0.0007989247678779066,0.030625449493527412,-0.004394086077809334
1772574559062692900,8.26269287109375,-0.00133154122158885,0.028494983911514282,-0.005459319334477186
1772574559072624000,8.2726240234375,0.0007989247678779066,0.025299284607172012,-0.007589785382151604
1772574559082556700,8.282556640625,0.002929390873759985,0.025299284607172012,-0.009720250964164734
1772574559092505300,8.29250537109375,0.002929390873759985,0.028494983911514282,-0.011850717477500439
1772574559102439200,8.302439208984374,0.00399462366476655,0.029560215771198273,-0.009720250964164734
1772574559112354300,8.312354248046875,0.0050598569214344025,0.027429750189185143,-0.011850717477500439
1772574559122286300,8.322286376953125,0.012383334338665009,0.017842652276158333,-0.011850717477500439
1772574559132221700,8.3322216796875,0.011318100616335869,0.023168819025158882,-0.005459319334477186
1772574559142154000,8.342154052734376,0.0050598569214344025,0.016777420416474342,-0.0011983871227130294
1772574559152104200,8.352104248046874,0.002929390873759985,0.014646953903138638,0.0030625448562204838
1772574559162038500,8.36203857421875,0.002929390873759985,0.012516488321125507,0.006258244160562754
1772574559171950000,8.3719501953125,0.00399462366476655,0.008255556225776672,0.005193010903894901
1772574559181882000,8.381882080078125,0.0050598569214344025,0.008255556225776672,0.001997311832383275
1772574559191814700,8.391814697265625,0.00399462366476655,0.00719032296910882,-0.0033288532868027687
1772574559201746700,8.40174658203125,0.0018641578499227762,0.0050598569214344025,-0.008655018173158169
1772574559211691300,8.411691162109374,0.0018641578499227762,0.00399462366476655,-0.010785484686493874
1772574559221624600,8.42162451171875,-0.0002663082559593022,0.002929390873759985,-0.012915950268507004
1772574559231545900,8.4315458984375,0.0018641578499227762,0.0061250897124409676,-0.008655018173158169
1772574559241478000,8.441477783203124,0.0007989247678779066,0.00719032296910882,-0.00226362026296556
1772574559251420700,8.451420654296875,-0.0002663082559593022,0.00719032296910882,0.006258244160562754
1772574559261354000,8.46135400390625,-0.0002663082559593022,0.0050598569214344025,0.010519175790250301
1772574559271278300,8.4712783203125,-0.0002663082559593022,0.0050598569214344025,0.014780107885599136
1772574559281210600,8.481210693359374,-0.00133154122158885,0.009320789016783237,0.019041040912270546
1772574559291143200,8.49114306640625,-0.00452724052593112,0.012516488321125507,0.022236740216612816
1772574559301075500,8.501075439453125,-0.0034620072692632675,0.013581721112132072,0.023301972076296806
1772574559310992600,8.51099267578125,-0.00133154122158885,0.014646953903138638,0.024367205798625946
1772574559320923400,8.52092333984375,-0.0002663082559593022,0.015712186694145203,0.024367205798625946
1772574559330871800,8.530871826171875,-0.00133154122158885,0.012516488321125507,0.023301972076296806
1772574559340804400,8.540804443359375,-0.00133154122158885,0.008255556225776672,0.021171506494283676
1772574559350745600,8.55074560546875,-0.00133154122158885,0.00719032296910882,0.019041040912270546
1772574559360679200,8.56067919921875,-0.0034620072692632675,0.00719032296910882,0.019041040912270546
1772574559370605600,8.57060546875,-0.00452724052593112,0.00719032296910882,0.017975807189941406
1772574559380538000,8.5805380859375,-0.00452724052593112,0.009320789016783237,0.016910573467612267
1772574559390471700,8.5904716796875,-0.0023967742454260588,0.013581721112132072,0.016910573467612267
1772574559400404500,8.600404541015624,-0.00133154122158885,0.019973119720816612,0.016910573467612267
1772574559410346000,8.610345947265625,-0.0034620072692632675,0.017842652276158333,0.016910573467612267
1772574559420279800,8.62027978515625,-0.0002663082559593022,0.015712186694145203,0.016910573467612267
1772574559430203400,8.630203369140625,0.0018641578499227762,0.011451254598796368,0.020106272771954536
1772574559440136000,8.640135986328126,0.002929390873759985,0.010386021807789803,0.031823836266994476
1772574559450070000,8.650070068359375,0.00399462366476655,0.008255556225776672,0.03928046673536301
1772574559460002800,8.6600029296875,0.009187635034322739,0.011451254598796368,0.05632419511675835
1772574559469930800,8.6699306640625,0.01877473294734955,0.029560215771198273,0.09680305421352386
1772574559479863000,8.679863037109374,0.02303566411137581,0.09134373068809509,0.1564560979604721
1772574559489790700,8.689790771484375,-0.00452724052593112,0.22023692727088928,0.2619141638278961
1772574559499722500,8.699722412109375,-0.04394086077809334,0.20532366633415222,0.3258281648159027
1772574559509661400,8.709661376953125,-0.03435376659035683,0.07536523789167404,0.24913136661052704
1772574559519594000,8.719593994140626,0.00399462366476655,0.03488638252019882,0.14899946749210358
1772574559529525200,8.729525146484375,0.01664426550269127,-0.006657706573605537,0.09041165560483932
1772574559539457800,8.739457763671876,0.015579032711684704,-0.0023967742454260588,0.08508548885583878
1772574559549390000,8.74939013671875,0.007057168986648321,-0.0002663082559593022,0.07975932210683823
1772574559559322400,8.759322265625,0.00399462366476655,-0.020505735650658607,0.06271559745073318
1772574559569258000,8.769258056640625,0.00399462366476655,-0.0482017956674099,0.027562905102968216
1772574559579190800,8.779190673828126,0.0007989247678779066,-0.07483261823654175,-0.026763979345560074
1772574559589123000,8.789123046875,-0.016244804486632347,-0.05352795869112015,-0.05659050494432449
