time,seconds_elapsed,z,y,x
1772574551027183400,0.227183349609375,9.744172096252441,1.5930216312408447,-0.6293123364448547
1772574551037117200,0.2371171875,9.720243453979492,1.8035900592803955,-0.5144568681716919
1772574551047039000,0.2470390625,9.524032592773438,1.9142581224441528,-0.8159525394439697
1772574551056967700,0.2569677734375,8.992227554321289,1.8616160154342651,-0.7154539823532104
1772574551066852000,0.26685205078125,8.834300994873047,1.669592022895813,-0.6532405614852905
1772574551076763000,0.276762939453125,8.963513374328613,1.6456637382507324,-0.34695929288864136
1772574551086764300,0.286764404296875,9.21296501159668,1.669592022895813,-0.2027917206287384
1772574551096711700,0.296711669921875,9.495318412780762,1.7078771591186523,-0.2554338276386261
1772574551106633000,0.306633056640625,9.715457916259766,1.7509479522705078,-0.48574298620224
1772574551116569900,0.31656982421875,9.667601585388184,1.7940187454223633,-0.5718846321105957
1772574551126497300,0.326497314453125,9.495318412780762,1.731805443763733,-0.39960137009620667
1772574551136430300,0.336430419921875,9.466604232788086,1.7030915021896362,-0.31824541091918945
1772574551146363100,0.346363037109375,9.476176261901855,1.6600207090377808,-0.2991028428077698
1772574551156296200,0.356296142578125,9.289535522460938,1.6360924243927002,-0.08315058797597885
1772574551166227200,0.366227294921875,9.155537605285645,1.602592945098877,-0.11665010452270508
1772574551176159200,0.3761591796875,9.040083885192871,1.4829518795013428,-0.3038884699344635
1772574551186096400,0.386096435546875,9.093324661254883,1.4111671447753906,-0.0975075215101242
1772574551196030500,0.396030517578125,9.327820777893066,1.4685949087142944,0.1417747437953949
1772574551205977000,0.40597705078125,9.44746208190918,1.5355939865112305,-0.05922235921025276
1772574551215916300,0.415916259765625,9.390034675598145,1.4590235948562622,-0.2847459018230438
1772574551225827800,0.425827880859375,9.351749420166016,1.4159528017044067,-0.5144568681716919
1772574551235755800,0.435755859375,9.265607833862305,1.454237937927246,-0.4570291340351105
1772574551245689900,0.44568994140625,9.102895736694336,1.3776676654815674,0.03170489892363548
1772574551255620600,0.45562060546875,9.490532875061035,1.3154542446136475,0.42412781715393066
1772574551265556200,0.46555615234375,9.849455833435059,1.4781662225723267,0.7734799385070801
1772574551275489000,0.475489013671875,10.462616920471191,1.3872389793395996,0.9798609018325806
1772574551285413600,0.48541357421875,10.792826652526855,1.052243709564209,0.5150550603866577
1772574551295343000,0.495343017578125,10.859825134277344,0.7597211599349976,-0.21714866161346436
1772574551305265700,0.505265625,10.826326370239258,0.41994038224220276,-1.5726827383041382
1772574551315194400,0.5151943359375,10.840682983398438,0.8512466549873352,-2.032104730606079
1772574551325131000,0.525131103515625,10.73539924621582,1.2340983152389526,-1.3334003686904907
1772574551335060500,0.535060546875,10.706685066223145,1.4590235948562622,-0.3565305769443512
1772574551345000000,0.545,11.022537231445312,1.4685949087142944,-0.10229317098855972
1772574551354930400,0.554930419921875,11.372488021850586,1.4829518795013428,-0.1453639715909958
1772574551364861000,0.56486083984375,11.525628089904785,1.425524115562439,-0.1740778535604477
1772574551374791400,0.57479150390625,11.391630172729492,1.6552350521087646,-0.39481574296951294
1772574551384725800,0.584725830078125,10.9028959274292,1.51166570186615,-0.8207381963729858
1772574551394656800,0.59465673828125,10.40040397644043,1.2484551668167114,-0.6340979933738708
1772574551404595700,0.604595703125,10.074381828308105,1.4446666240692139,-0.025722842663526535
1772574551414527500,0.614527587890625,9.835099220275879,1.5595221519470215,-0.2554338276386261
1772574551424457200,0.624457275390625,9.44746208190918,1.516451358795166,-0.9690931439399719
1772574551434388700,0.634388671875,9.112466812133789,1.674377679824829,-1.3908281326293945
1772574551444356600,0.644356689453125,8.920442581176758,1.784447431564331,-1.3956137895584106
1772574551454291700,0.654291748046875,8.810373306274414,1.7940187454223633,-1.2179467678070068
1772574551464224000,0.66422412109375,8.714659690856934,1.7174484729766846,-0.9499505758285522
1772574551474158800,0.674158935546875,8.551948547363281,1.674377679824829,-0.7585247755050659
1772574551484084700,0.684084716796875,8.35573673248291,1.7270197868347168,-0.7106683254241943
1772574551494018600,0.6940185546875,8.25523853302002,1.828116536140442,-0.638883650302887
1772574551503942000,0.70394189453125,8.197810173034668,1.8472590446472168,-0.7058826684951782
1772574551513874700,0.713874755859375,8.140382766723633,1.784447431564331,-0.7728816866874695
1772574551523808300,0.723808349609375,8.221738815307617,1.731805443763733,-0.8063812255859375
1772574551533741300,0.7337412109375,8.461020469665527,1.7365909814834595,-0.7585247755050659
1772574551543682000,0.74368212890625,8.762516975402832,1.8376877307891846,-0.7393822073936462
1772574551553616000,0.753615966796875,9.165108680725098,1.8664016723632812,-0.7106683254241943
1772574551563541800,0.763541748046875,9.543174743652344,1.9286150932312012,-0.7058826684951782
1772574551573474600,0.773474609375,9.758528709411621,1.9908283948898315,-0.638883650302887
1772574551583412000,0.783411865234375,9.859027862548828,2.1056840419769287,-0.42352959513664246
1772574551593345300,0.79334521484375,9.969097137451172,1.8999011516571045,-0.7728816866874695
1772574551603256300,0.80325634765625,9.902098655700684,2.1104695796966553,-0.6293123364448547
1772574551613187600,0.8131875,9.897313117980957,2.1918256282806396,-0.6675975322723389
1772574551623131100,0.823131103515625,9.715457916259766,2.1822543144226074,-0.8207381963729858
1772574551633063700,0.833063720703125,9.610174179077148,2.1774685382843018,-0.9260223507881165
1772574551642997200,0.842997314453125,9.725028991699219,2.1296122074127197,-1.0456634759902954
1772574551652929800,0.8529296875,9.79681396484375,2.076970100402832,-1.0265209674835205
1772574551662873600,0.86287353515625,9.78245735168457,2.076970100402832,-0.9355936646461487
1772574551672807200,0.87280712890625,9.701101303100586,2.029113531112671,-0.8590233325958252
1772574551682705700,0.88270556640625,9.514460563659668,2.0099709033966064,-0.7920243144035339
1772574551692635600,0.8926357421875,9.260822296142578,2.124826431274414,-0.6915257573127747
1772574551702595800,0.902595947265625,8.781659126281738,1.852044701576233,-0.9068797826766968
1772574551722439700,0.922439697265625,8.638090133666992,2.0673987865448,-1.1030912399291992
1772574551742358800,0.94235888671875,9.667601585388184,1.9525432586669922,-0.8063812255859375
1772574551752297200,0.952297119140625,9.710672378540039,1.8472590446472168,-0.7345965504646301
1772574551762201000,0.962201171875,9.581459999084473,1.8999011516571045,-0.8590233325958252
1772574551772136000,0.972135986328125,9.33739185333252,1.8903298377990723,-0.9212366938591003
1772574551782055000,0.982054931640625,9.06401252746582,1.856830358505249,-0.8159525394439697
1772574551791988500,0.991988525390625,8.891729354858398,1.8807586431503296,-0.7824530005455017
1772574551801932000,1.00193212890625,8.920442581176758,1.9046868085861206,-0.9116654396057129
1772574551811866400,1.011866455078125,9.141180992126465,1.9669002294540405,-1.0217353105545044
1772574551821784800,1.021784912109375,9.46181869506836,2.014756679534912,-1.0169496536254883
1772574551831717600,1.031717529296875,9.758528709411621,2.0195422172546387,-0.8590233325958252
1772574551841649200,1.041649169921875,10.050453186035156,1.9142581224441528,-0.6963114142417908
1772574551851581700,1.051581787109375,10.295119285583496,1.832902193069458,-0.605384111404419
1772574551861512200,1.06151220703125,10.27597713470459,1.852044701576233,-0.5288137793540955
1772574551871444700,1.07144482421875,10.117452621459961,1.8376877307891846,-0.5575276613235474
1772574551881392400,1.081392333984375,9.930811882019043,1.8083757162094116,-0.6340979933738708
1772574551891326500,1.091326416015625,9.830313682556152,1.7653049230575562,-0.672383189201355
1772574551911189500,1.111189453125,9.591031074523926,1.7078771591186523,-0.48574298620224
1772574551921110000,1.121110107421875,9.509675025939941,1.7222341299057007,-0.5000999569892883
1772574551931042300,1.131042236328125,9.524032592773438,1.755733609199524,-0.5623133182525635
1772574551940974800,1.140974853515625,9.53360366821289,1.7892330884933472,-0.5575276613235474
1772574551950907000,1.150906982421875,9.466604232788086,1.784447431564331,-0.44745782017707825
1772574551960848400,1.160848388671875,9.361320495605469,1.7174484729766846,-0.34695929288864136
1772574551970781400,1.170781494140625,9.246464729309082,1.6983058452606201,-0.4091726839542389
1772574551980705500,1.18070556640625,9.270393371582031,1.6552350521087646,-0.5670989751815796
1772574551990637800,1.190637939453125,9.399605751037598,1.5882359743118286,-0.6293123364448547
1772574552000569600,1.200569580078125,9.619745254516602,1.4973087310791016,-0.6532405614852905
1772574552010502000,1.210501953125,9.930811882019043,1.3920245170593262,-0.9068797826766968
1772574552020433400,1.220433349609375,9.806385040283203,1.339382529258728,-0.8685946464538574
1772574552030365400,1.230365478515625,9.902098655700684,1.6360924243927002,-0.4378865361213684
1772574552040301800,1.2403017578125,9.839884757995605,1.5978072881698608,-0.4570291340351105
1772574552050234400,1.250234375,9.605388641357422,1.6504493951797485,-0.5048855543136597
1772574552060164900,1.260164794921875,9.509675025939941,1.7078771591186523,-0.6675975322723389
1772574552070097400,1.270097412109375,9.43310546875,1.693520188331604,-1.0791629552841187
1772574552080030700,1.28003076171875,8.992227554321289,1.7078771591186523,-1.00259268283844
1772574552089963300,1.28996337890625,8.973084449768066,1.7365909814834595,-0.7585247755050659
1772574552099900000,1.29989990234375,9.332606315612793,1.6408780813217163,-0.729810893535614
1772574552109832700,1.309832763671875,9.787242889404297,1.578664779663086,-0.6101697683334351
1772574552119763200,1.31976318359375,10.117452621459961,1.5690934658050537,-0.44745782017707825
1772574552129695700,1.32969580078125,10.295119285583496,1.5547364950180054,-0.33738797903060913
1772574552139629000,1.339629150390625,10.323833465576172,1.5355939865112305,-0.2315055876970291
1772574552149561900,1.349561767578125,10.194621086120605,1.5595221519470215,-0.1501496136188507
1772574552159493400,1.359493408203125,9.949954986572266,1.5499508380889893,-0.0687936544418335
1772574552169426000,1.369426025390625,9.705886840820312,1.5547364950180054,-0.06400800496339798
1772574552179360300,1.3793603515625,9.562317848205566,1.5595221519470215,-0.16929219663143158
1772574552189293000,1.38929296875,9.519247055053711,1.5020943880081177,-0.21714866161346436
1772574552199226000,1.39922607421875,9.44746208190918,1.4877375364303589,-0.14057832956314087
1772574552209159000,1.409158935546875,9.380462646484375,1.4877375364303589,-0.025722842663526535
1772574552219082500,1.41908251953125,9.351749420166016,1.5068800449371338,0.0029910283628851175
1772574552229014500,1.4290146484375,9.351749420166016,1.4973087310791016,-0.020937198773026466
1772574552238957300,1.438957275390625,9.390034675598145,1.4829518795013428,-0.07357929646968842
1772574552248890400,1.448890380859375,9.346963882446289,1.4781662225723267,-0.0975075215101242
1772574552258827800,1.458827880859375,9.265607833862305,1.4638092517852783,-0.13100704550743103
1772574552268761000,1.468760986328125,9.203393936157227,1.4685949087142944,-0.1788634955883026
1772574552278696700,1.47869677734375,9.179466247558594,1.4877375364303589,-0.2554338276386261
1772574552288630500,1.488630615234375,9.1986083984375,1.4973087310791016,-0.31345975399017334
1772574552298552600,1.498552490234375,9.279964447021484,1.5068800449371338,-0.4331009089946747
1772574552308484900,1.50848486328125,9.437891006469727,1.51166570186615,-0.5479564070701599
1772574552318427400,1.518427490234375,9.64367389678955,1.4781662225723267,-0.638883650302887
1772574552328360700,1.528360595703125,9.801599502563477,1.4446666240692139,-0.6532405614852905
1772574552338291700,1.538291748046875,9.902098655700684,1.4063814878463745,-0.6293123364448547
1772574552348224800,1.548224853515625,9.978668212890625,1.4015958309173584,-0.576670229434967
1772574552358148400,1.5581484375,9.993025779724121,1.4159528017044067,-0.6149554252624512
1772574552368080600,1.56808056640625,10.026525497436523,1.3968101739883423,-0.6436693072319031
1772574552378008800,1.5780087890625,10.079167366027832,1.3537393808364868,-0.6628118753433228
1772574552387940600,1.587940673828125,10.098309516906738,1.2819547653198242,-0.6915257573127747
1772574552397882600,1.597882568359375,10.103095054626465,1.2675977945327759,-0.7250252366065979
1772574552407815400,1.6078154296875,10.074381828308105,1.3010972738265991,-0.7106683254241943
1772574552417742600,1.61774267578125,10.06002426147461,1.3010972738265991,-0.6436693072319031
1772574552427675000,1.6276748046875,9.983454704284668,1.2819547653198242,-0.5670989751815796
1772574552437609700,1.637609619140625,9.897313117980957,1.272383451461792,-0.5096712112426758
1772574552447542000,1.6475419921875,9.777671813964844,1.2915260791778564,-0.48095735907554626
1772574552457473800,1.657473876953125,9.69631576538086,1.2915260791778564,-0.4666004180908203
1772574552467406000,1.667406005859375,9.5862455368042,1.3250255584716797,-0.39960137009620667
1772574552477319400,1.6773193359375,9.452247619628906,1.3489537239074707,-0.36610186100006104
1772574552487250000,1.68725,9.418747901916504,1.334596872329712,-0.3852444589138031
1772574552497182000,1.697181884765625,9.44746208190918,1.339382529258728,-0.39481574296951294
1772574552507112400,1.707112548828125,9.485747337341309,1.3154542446136475,-0.3517449200153351
1772574552517048800,1.717048828125,9.528818130493164,1.2915260791778564,-0.31824541091918945
1772574552526980000,1.72697998046875,9.600603103637695,1.296311616897583,-0.3038884699344635
1772574552536914000,1.736913818359375,9.648459434509277,1.3106685876846313,-0.2847459018230438
1772574552546845400,1.746845458984375,9.67238712310791,1.339382529258728,-0.29431718587875366
1772574552556810800,1.756810791015625,9.725028991699219,1.3250255584716797,-0.3326023519039154
1772574552566745600,1.76674560546875,9.744172096252441,1.3250255584716797,-0.34217363595962524
1772574552576643300,1.776643310546875,9.720243453979492,1.3058829307556152,-0.3517449200153351
1772574552586574300,1.78657421875,9.69631576538086,1.3154542446136475,-0.380458801984787
1772574552596511500,1.796511474609375,9.64367389678955,1.3537393808364868,-0.4091726839542389
1772574552606443300,1.806443359375,9.5862455368042,1.3680963516235352,-0.41874396800994873
1772574552616372200,1.816372314453125,9.5862455368042,1.3824533224105835,-0.39481574296951294
1772574552626303700,1.8263037109375,9.595816612243652,1.3728820085525513,-0.42352959513664246
1772574552636243000,1.836242919921875,9.629316329956055,1.3728820085525513,-0.42352959513664246
1772574552646175200,1.84617529296875,9.677172660827637,1.4015958309173584,-0.42352959513664246
1772574552656106200,1.856106201171875,9.691530227661133,1.4063814878463745,-0.4378865361213684
1772574552666038300,1.866038330078125,9.667601585388184,1.3920245170593262,-0.4713860750198364
1772574552675995000,1.875994873046875,9.610174179077148,1.363310694694519,-0.5240281820297241
1772574552685929500,1.885929443359375,9.476176261901855,1.334596872329712,-0.5288137793540955
1772574552695857000,1.89585693359375,9.428318977355957,1.2245270013809204,-0.5862415432929993
1772574552705790700,1.905790771484375,9.466604232788086,1.1718848943710327,-0.5623133182525635
1772574552715727000,1.91572705078125,9.567103385925293,1.1335997581481934,-0.5288137793540955
1772574552725661200,1.9256611328125,9.53360366821289,1.0857433080673218,-0.47617170214653015
1772574552735588000,1.935588134765625,9.442676544189453,1.0666006803512573,-0.41874396800994873
1772574552745521400,1.945521484375,9.394820213317871,1.0713863372802734,-0.45224347710609436
1772574552755453200,1.955453125,9.442676544189453,1.0713863372802734,-0.5000999569892883
1772574552765386200,1.96538623046875,9.519247055053711,1.057029366493225,-0.5000999569892883
1772574552775331600,1.97533154296875,9.595816612243652,1.0378868579864502,-0.45224347710609436
1772574552785266000,1.985265869140625,9.667601585388184,1.028315544128418,-0.41874396800994873
1772574552795181800,1.995181884765625,9.748957633972168,1.0139585733413696,-0.42831525206565857
1772574552805114400,2.0051142578125,9.839884757995605,1.0235298871994019,-0.42831525206565857
1772574552815058000,2.015057861328125,9.945169448852539,1.033101201057434,-0.4091726839542389
1772574552824991500,2.024991455078125,9.997811317443848,1.0666006803512573,-0.4570291340351105
1772574552834917600,2.034917724609375,9.978668212890625,1.1240284442901611,-0.45224347710609436
1772574552844850400,2.044850341796875,9.973882675170898,1.1575279235839844,-0.4378865361213684
1772574552854782000,2.054781982421875,9.964311599731445,1.2149556875228882,-0.4713860750198364
1772574552864714800,2.06471484375,9.911669731140137,1.2867404222488403,-0.4953143000602722
1772574552874644500,2.07464453125,9.868598937988281,1.3202399015426636,-0.5431707501411438
1772574552884576800,2.08457666015625,9.830313682556152,1.3202399015426636,-0.6101697683334351
1772574552894514400,2.094514404296875,9.753743171691895,1.3872389793395996,-0.6005984544754028
1772574552904447200,2.104447265625,9.634101867675781,1.3920245170593262,-0.6293123364448547
1772574552914379300,2.114379150390625,9.543174743652344,1.334596872329712,-0.6293123364448547
1772574552924312000,2.12431201171875,9.55753231048584,1.2867404222488403,-0.638883650302887
1772574552934251300,2.134251220703125,9.614959716796875,1.2867404222488403,-0.6436693072319031
1772574552944184800,2.144184814453125,9.69631576538086,1.2436695098876953,-0.6484549641609192
1772574552954105900,2.15410595703125,9.748957633972168,1.1766705513000488,-0.6532405614852905
1772574552964038100,2.1640380859375,9.830313682556152,1.1048858165740967,-0.6149554252624512
1772574552973975600,2.1739755859375,9.849455833435059,1.0618150234222412,-0.6149554252624512
1772574552983908000,2.183908203125,9.79681396484375,1.0378868579864502,-0.5814558863639832
1772574552993838000,2.193838134765625,9.725028991699219,0.9756734371185303,-0.5575276613235474
1772574553003770600,2.2037705078125,9.67238712310791,0.9756734371185303,-0.5431707501411438
1772574553013715200,2.213715087890625,9.667601585388184,0.9756734371185303,-0.5431707501411438
1772574553023649000,2.22364892578125,9.65803050994873,0.9613165259361267,-0.5670989751815796
1772574553033568000,2.233568115234375,9.653244972229004,0.9517452120780945,-0.5288137793540955
1772574553043500000,2.2435,9.634101867675781,0.9613165259361267,-0.5096712112426758
1772574553053435000,2.253434814453125,9.638887405395508,0.9613165259361267,-0.4905286431312561
1772574553063367200,2.2633671875,9.624530792236328,0.9708877801895142,-0.5240281820297241
1772574553073311200,2.273311279296875,9.591031074523926,0.9421738982200623,-0.5096712112426758
1772574553083244800,2.283244873046875,9.581459999084473,0.9421738982200623,-0.48574298620224
1772574553093179000,2.293178955078125,9.562317848205566,1.0378868579864502,-0.41874396800994873
1772574553103112700,2.30311279296875,9.54796028137207,1.0761719942092896,-0.4331009089946747
1772574553113031000,2.313031005859375,9.543174743652344,1.0666006803512573,-0.4426721930503845
1772574553122963200,2.322963134765625,9.524032592773438,1.114457130432129,-0.4091726839542389
1772574553132895200,2.332895263671875,9.543174743652344,1.1623135805130005,-0.3852444589138031
1772574553142827300,2.3428271484375,9.57188892364502,1.1670992374420166,-0.3852444589138031
1772574553152744000,2.352743896484375,9.5862455368042,1.1670992374420166,-0.3900300860404968
1772574553162674400,2.36267431640625,9.600603103637695,1.1575279235839844,-0.37088751792907715
1772574553172626400,2.37262646484375,9.653244972229004,1.1527422666549683,-0.33738797903060913
1772574553182559000,2.38255908203125,9.681958198547363,1.1575279235839844,-0.33738797903060913
1772574553192491000,2.392490966796875,9.710672378540039,1.186241865158081,-0.39960137009620667
1772574553202423600,2.402423583984375,9.763314247131348,1.210170030593872,-0.4426721930503845
1772574553212366800,2.412366943359375,9.787242889404297,1.205384373664856,-0.42831525206565857
1772574553222300400,2.422300537109375,9.79681396484375,1.2197413444519043,-0.4091726839542389
1772574553232219000,2.432218994140625,9.748957633972168,1.2388839721679688,-0.4139583110809326
1772574553242151200,2.442151123046875,9.715457916259766,1.2245270013809204,-0.41874396800994873
1772574553252087800,2.452087890625,9.69631576538086,1.2005987167358398,-0.42352959513664246
1772574553262020400,2.462020263671875,9.69631576538086,1.2005987167358398,-0.42352959513664246
1772574553271954000,2.471953857421875,9.710672378540039,1.210170030593872,-0.42831525206565857
1772574553281886700,2.48188671875,9.753743171691895,1.2149556875228882,-0.4378865361213684
1772574553291815400,2.4918154296875,9.839884757995605,1.1718848943710327,-0.4091726839542389
1772574553301747700,2.501747802734375,9.839884757995605,1.1623135805130005,-0.34217363595962524
1772574553311690200,2.511690185546875,9.825528144836426,1.1335997581481934,-0.28953152894973755
1772574553321623600,2.52162353515625,9.8207426071167,1.095314621925354,-0.28953152894973755
1772574553331547600,2.531547607421875,9.806385040283203,1.1048858165740967,-0.3038884699344635
1772574553341480200,2.541480224609375,9.748957633972168,1.1240284442901611,-0.31345975399017334
1772574553351373300,2.551373291015625,9.715457916259766,1.1288141012191772,-0.29431718587875366
1772574553361302000,2.561302001953125,9.65803050994873,1.1240284442901611,-0.31824541091918945
1772574553371276300,2.5712763671875,9.65803050994873,1.0761719942092896,-0.31824541091918945
1772574553381209300,2.581209228515625,9.67238712310791,1.0761719942092896,-0.2991028428077698
1772574553391152600,2.591152587890625,9.653244972229004,1.0761719942092896,-0.2991028428077698
1772574553401086700,2.601086669921875,9.634101867675781,1.119242787361145,-0.29431718587875366
1772574553410984700,2.610984619140625,9.624530792236328,1.119242787361145,-0.26081767678260803
1772574553420915200,2.620915283203125,9.581459999084473,1.1048858165740967,-0.27038896083831787
1772574553430872000,2.6308720703125,9.524032592773438,1.1001001596450806,-0.3038884699344635
1772574553440805400,2.640805419921875,9.53360366821289,1.119242787361145,-0.32303106784820557
1772574553450742300,2.6507421875,9.552745819091797,1.1288141012191772,-0.33738797903060913
1772574553460675800,2.66067578125,9.581459999084473,1.119242787361145,-0.3326023519039154
1772574553470602000,2.67060205078125,9.610174179077148,1.1288141012191772,-0.3613162338733673
1772574553480534800,2.68053466796875,9.65803050994873,1.1527422666549683,-0.34217363595962524
1772574553490478000,2.69047802734375,9.734601020812988,1.1240284442901611,-0.3565305769443512
1772574553500412000,2.700411865234375,9.768099784851074,1.1335997581481934,-0.3613162338733673
1772574553510334500,2.71033447265625,9.787242889404297,1.1718848943710327,-0.3613162338733673
1772574553520267000,2.72026708984375,9.825528144836426,1.210170030593872,-0.3565305769443512
1772574553530199000,2.730198974609375,9.902098655700684,1.210170030593872,-0.37088751792907715
1772574553540131600,2.740131591796875,9.959526062011719,1.1718848943710327,-0.3565305769443512
1772574553550066400,2.75006640625,9.90688419342041,1.1479566097259521,-0.3038884699344635
1772574553559999200,2.759999267578125,9.78245735168457,1.1670992374420166,-0.27038896083831787
1772574553569928700,2.7699287109375,9.648459434509277,1.1958130598068237,-0.32303106784820557
1772574553579861200,2.779861328125,9.476176261901855,1.1910275220870972,-0.33738797903060913
1772574553589797000,2.789797119140625,9.32303524017334,1.2149556875228882,-0.34217363595962524
1772574553599730000,2.79972998046875,9.251250267028809,1.2245270013809204,-0.36610186100006104
1772574553609674800,2.8096748046875,9.246464729309082,1.2340983152389526,-0.34695929288864136
1772574553619608800,2.81960888671875,9.270393371582031,1.2436695098876953,-0.34695929288864136
1772574553629536500,2.82953662109375,9.366106033325195,1.2197413444519043,-0.3756731450557709
1772574553639470000,2.839469970703125,9.519247055053711,1.2149556875228882,-0.39960137009620667
1772574553649400300,2.849400390625,9.65803050994873,1.2197413444519043,-0.4570291340351105
1772574553659333400,2.85933349609375,9.768099784851074,1.1766705513000488,-0.4905286431312561
1772574553669259300,2.86925927734375,9.868598937988281,1.1527422666549683,-0.4618147611618042
1772574553679191600,2.879191650390625,9.892526626586914,1.119242787361145,-0.4618147611618042
1772574553689144000,2.88914404296875,9.897313117980957,1.1479566097259521,-0.41874396800994873
1772574553699078400,2.899078369140625,9.863813400268555,1.1670992374420166,-0.36610186100006104
1772574553708969700,2.9089697265625,9.825528144836426,1.186241865158081,-0.3852444589138031
1772574553718899700,2.918899658203125,9.768099784851074,1.1670992374420166,-0.4091726839542389
1772574553728835000,2.9288349609375,9.715457916259766,1.1479566097259521,-0.4378865361213684
1772574553738765800,2.938765869140625,9.681958198547363,1.114457130432129,-0.45224347710609436
1772574553748733200,2.948733154296875,9.667601585388184,1.0857433080673218,-0.4713860750198364
1772574553758667300,2.958667236328125,9.662816047668457,1.0761719942092896,-0.48095735907554626
1772574553768589600,2.968589599609375,9.691530227661133,1.0618150234222412,-0.4905286431312561
1772574553778522600,2.978522705078125,9.705886840820312,1.0618150234222412,-0.47617170214653015
1772574553788425700,2.98842578125,9.725028991699219,1.0666006803512573,-0.4570291340351105
1772574553798356000,2.99835595703125,9.715457916259766,1.0761719942092896,-0.4139583110809326
1772574553808292400,3.008292236328125,9.725028991699219,1.090528964996338,-0.4426721930503845
1772574553818223000,3.01822314453125,9.729815483093262,1.114457130432129,-0.4426721930503845
1772574553828158500,3.028158447265625,9.777671813964844,1.0857433080673218,-0.4331009089946747
1772574553838089500,3.03808935546875,9.839884757995605,1.0474581718444824,-0.4378865361213684
1772574553848021500,3.048021484375,9.878170013427734,1.0235298871994019,-0.45224347710609436
1772574553857952800,3.057952880859375,9.954740524291992,1.0474581718444824,-0.4666004180908203
1772574553867892500,3.067892578125,10.03131103515625,1.119242787361145,-0.41874396800994873
1772574553877824500,3.077824462890625,10.0073823928833,1.1575279235839844,-0.3613162338733673
1772574553887775200,3.087775146484375,9.983454704284668,1.1335997581481934,-0.3613162338733673
1772574553897709300,3.097709228515625,9.873384475708008,1.1048858165740967,-0.36610186100006104
1772574553907641900,3.107641845703125,9.691530227661133,1.095314621925354,-0.3565305769443512
1772574553917575700,3.11757568359375,9.562317848205566,1.119242787361145,-0.3517449200153351
1772574553927502000,3.127502197265625,9.442676544189453,1.1383854150772095,-0.3756731450557709
1772574553937435400,3.137435302734375,9.327820777893066,1.1910275220870972,-0.3565305769443512
1772574553947381800,3.1473818359375,9.303893089294434,1.186241865158081,-0.380458801984787
1772574553957316000,3.157316162109375,9.289535522460938,1.1479566097259521,-0.47617170214653015
1772574553967238000,3.16723779296875,9.375677108764648,1.1766705513000488,-0.4905286431312561
1772574553977171200,3.177171142578125,9.514460563659668,1.186241865158081,-0.4378865361213684
1772574553987115500,3.187115478515625,9.64367389678955,1.1766705513000488,-0.4139583110809326
1772574553997049900,3.1970498046875,9.744172096252441,1.1479566097259521,-0.3852444589138031
1772574554006943200,3.206943115234375,9.792028427124023,1.1383854150772095,-0.39481574296951294
1772574554016873200,3.216873291015625,9.825528144836426,1.090528964996338,-0.3613162338733673
1772574554026845700,3.226845703125,9.81117057800293,1.090528964996338,-0.34695929288864136
1772574554036780300,3.2367802734375,9.739386558532715,1.095314621925354,-0.3613162338733673
1772574554046702600,3.24670263671875,9.65803050994873,1.1335997581481934,-0.4139583110809326
1772574554056636000,3.256635986328125,9.629316329956055,1.186241865158081,-0.3038884699344635
1772574554066614800,3.26661474609375,9.681958198547363,1.1479566097259521,-0.28953152894973755
1772574554076552700,3.276552734375,9.677172660827637,1.1096714735031128,-0.31345975399017334
1772574554086429000,3.286428955078125,9.705886840820312,1.1718848943710327,-0.2554338276386261
1772574554096360700,3.296360595703125,9.753743171691895,1.2293126583099365,-0.19800607860088348
1772574554106294800,3.306294677734375,9.8207426071167,1.2197413444519043,-0.19800607860088348
1772574554116226800,3.316226806640625,9.815957069396973,1.2245270013809204,-0.23629122972488403
1772574554126175700,3.32617578125,9.868598937988281,1.1766705513000488,-0.2799602448940277
1772574554136109300,3.336109375,9.973882675170898,1.1288141012191772,-0.26560330390930176
1772574554146027300,3.34602734375,9.945169448852539,1.1240284442901611,-0.26560330390930176
1772574554155959300,3.355959228515625,9.839884757995605,1.1335997581481934,-0.275174617767334
1772574554165892400,3.365892333984375,9.777671813964844,1.1766705513000488,-0.275174617767334
1772574554175824600,3.37582470703125,9.710672378540039,1.2005987167358398,-0.2991028428077698
1772574554185756700,3.385756591796875,9.677172660827637,1.2245270013809204,-0.3086741268634796
1772574554195688700,3.395688720703125,9.600603103637695,1.2484551668167114,-0.34217363595962524
1772574554205621000,3.40562109375,9.567103385925293,1.2628121376037598,-0.3852444589138031
1772574554215553300,3.41555322265625,9.495318412780762,1.277169108390808,-0.3756731450557709
1772574554225484500,3.425484619140625,9.361320495605469,1.2532408237457275,-0.3565305769443512
1772574554235416600,3.43541650390625,9.22253704071045,1.2532408237457275,-0.37088751792907715
1772574554245354500,3.4453544921875,9.160323143005371,1.2580264806747437,-0.4570291340351105
1772574554255287300,3.455287353515625,9.179466247558594,1.2628121376037598,-0.5096712112426758
1772574554265231000,3.465231201171875,9.227322578430176,1.2580264806747437,-0.4953143000602722
1772574554275165000,3.4751650390625,9.32303524017334,1.277169108390808,-0.4666004180908203
1772574554285094000,3.485093994140625,9.466604232788086,1.2915260791778564,-0.44745782017707825
1772574554295027200,3.495027099609375,9.576674461364746,1.3058829307556152,-0.48574298620224
1772574554304955000,3.504954833984375,9.648459434509277,1.3010972738265991,-0.45224347710609436
1772574554314887700,3.5148876953125,9.667601585388184,1.2915260791778564,-0.4091726839542389
1772574554324810800,3.524810791015625,9.691530227661133,1.277169108390808,-0.4139583110809326
1772574554334742500,3.534742431640625,9.768099784851074,1.2388839721679688,-0.4091726839542389
1772574554344654600,3.544654541015625,9.844670295715332,1.2149556875228882,-0.3756731450557709
1772574554354584300,3.554584228515625,9.854242324829102,1.1910275220870972,-0.3278166949748993
1772574554364545500,3.564545654296875,9.806385040283203,1.181456208229065,-0.2847459018230438
1772574554374478300,3.574478271484375,9.748957633972168,1.186241865158081,-0.26560330390930176
1772574554384409300,3.584409423828125,9.69631576538086,1.186241865158081,-0.2554338276386261
1772574554394342100,3.594342041015625,9.638887405395508,1.1910275220870972,-0.24107688665390015
1772574554404285000,3.604284912109375,9.567103385925293,1.186241865158081,-0.22193430364131927
1772574554414218800,3.61421875,9.552745819091797,1.1766705513000488,-0.22193430364131927
1772574554424141600,3.6241416015625,9.581459999084473,1.1670992374420166,-0.24107688665390015
1772574554434074000,3.63407421875,9.638887405395508,1.1479566097259521,-0.25064817070961
1772574554444015600,3.644015625,9.701101303100586,1.1623135805130005,-0.2267199456691742
1772574554453949200,3.65394921875,9.772886276245117,1.1575279235839844,-0.19322042167186737
1772574554463871000,3.66387109375,9.825528144836426,1.1335997581481934,-0.22193430364131927
1772574554473803500,3.673803466796875,9.801599502563477,1.095314621925354,-0.2267199456691742
1772574554483738000,3.683738037109375,9.758528709411621,1.1288141012191772,-0.22193430364131927
1772574554493670700,3.693670654296875,9.67238712310791,1.1575279235839844,-0.2267199456691742
1772574554503608000,3.703608154296875,9.648459434509277,1.1623135805130005,-0.26560330390930176
1772574554513541000,3.713541015625,9.653244972229004,1.1910275220870972,-0.29431718587875366
1772574554523479300,3.723479248046875,9.634101867675781,1.1910275220870972,-0.2991028428077698
1772574554533412900,3.733412841796875,9.69631576538086,1.1958130598068237,-0.31824541091918945
1772574554543337200,3.743337158203125,9.772886276245117,1.181456208229065,-0.3086741268634796
1772574554553269800,3.753269775390625,9.758528709411621,1.1623135805130005,-0.28953152894973755
1772574554563199500,3.763199462890625,9.725028991699219,1.1718848943710327,-0.2554338276386261
1772574554573132000,3.773132080078125,9.710672378540039,1.1910275220870972,-0.275174617767334
1772574554583063600,3.7830634765625,9.691530227661133,1.1766705513000488,-0.28953152894973755
1772574554592995800,3.792995849609375,9.686744689941406,1.1670992374420166,-0.275174617767334
1772574554602913000,3.8029130859375,9.65803050994873,1.1623135805130005,-0.23629122972488403
1772574554612843500,3.812843505859375,9.600603103637695,1.1479566097259521,-0.26081767678260803
1772574554622794000,3.8227939453125,9.567103385925293,1.1383854150772095,-0.2991028428077698
1772574554632726500,3.8327265625,9.57188892364502,1.119242787361145,-0.2991028428077698
1772574554642661400,3.842661376953125,9.64367389678955,1.1048858165740967,-0.29431718587875366
1772574554652594200,3.85259423828125,9.772886276245117,1.1001001596450806,-0.26560330390930176
1772574554662500600,3.86250048828125,9.792028427124023,1.114457130432129,-0.2027917206287384
1772574554672430800,3.872430908203125,9.763314247131348,1.1479566097259521,-0.19800607860088348
1772574554682370300,3.882370361328125,9.753743171691895,1.1575279235839844,-0.25064817070961
1772574554692301300,3.89230126953125,9.715457916259766,1.1623135805130005,-0.25064817070961
1772574554702267600,3.902267578125,9.667601585388184,1.1431710720062256,-0.24107688665390015
1772574554712137000,3.912136962890625,9.610174179077148,1.1431710720062256,-0.24107688665390015
1772574554732066000,3.932066162109375,9.53360366821289,1.114457130432129,-0.26560330390930176
1772574554742006800,3.9420068359375,9.524032592773438,1.1335997581481934,-0.31824541091918945
1772574554751912400,3.951912353515625,9.552745819091797,1.1431710720062256,-0.32303106784820557
1772574554761849600,3.961849609375,9.605388641357422,1.1431710720062256,-0.31824541091918945
1772574554771782400,3.971782470703125,9.662816047668457,1.1527422666549683,-0.28953152894973755
1772574554781719000,3.981718994140625,9.701101303100586,1.181456208229065,-0.2554338276386261
1772574554791656700,3.99165673828125,9.753743171691895,1.1479566097259521,-0.27038896083831787
1772574554801593600,4.001593505859375,9.792028427124023,1.1001001596450806,-0.2847459018230438
1772574554811523300,4.0115234375,9.772886276245117,1.1240284442901611,-0.26081767678260803
1772574554821459700,4.021459716796875,9.715457916259766,1.1958130598068237,-0.26560330390930176
1772574554831378400,4.03137841796875,9.701101303100586,1.114457130432129,-0.32303106784820557
1772574554841312800,4.041312744140625,9.662816047668457,1.1096714735031128,-0.3038884699344635
1772574554851245600,4.05124560546875,9.619745254516602,1.1670992374420166,-0.27038896083831787
1772574554861180000,4.061179931640625,9.638887405395508,1.1479566097259521,-0.27038896083831787
1772574554871111400,4.071111328125,9.662816047668457,1.1240284442901611,-0.27038896083831787
1772574554881045500,4.08104541015625,9.691530227661133,1.114457130432129,-0.23629122972488403
1772574554890996000,4.090995849609375,9.701101303100586,1.1096714735031128,-0.2315055876970291
1772574554900931600,4.100931640625,9.744172096252441,1.095314621925354,-0.25064817070961
1772574554910819600,4.110819580078125,9.753743171691895,1.090528964996338,-0.25064817070961
1772574554920750300,4.120750244140625,9.739386558532715,1.0713863372802734,-0.26560330390930176
1772574554930685700,4.130685791015625,9.758528709411621,1.0857433080673218,-0.24586252868175507
1772574554940617000,4.140616943359375,9.777671813964844,1.1240284442901611,-0.1501496136188507
1772574554950557200,4.15055712890625,9.763314247131348,1.095314621925354,-0.13100704550743103
1772574554960489200,4.1604892578125,9.729815483093262,1.0713863372802734,-0.1453639715909958
1772574554970443300,4.170443359375,9.725028991699219,1.0618150234222412,-0.19322042167186737
1772574554980377600,4.180377685546875,9.744172096252441,1.0809576511383057,-0.18843477964401245
1772574554990278400,4.1902783203125,9.792028427124023,1.057029366493225,-0.14057832956314087
1772574555000209700,4.200209716796875,9.81117057800293,1.0235298871994019,-0.11665010452270508
1772574555010145800,4.210145751953125,9.806385040283203,1.0378868579864502,-0.10707881301641464
1772574555020077300,4.220077392578125,9.839884757995605,1.057029366493225,-0.1501496136188507
1772574555030008300,4.23000830078125,9.882955551147461,1.057029366493225,-0.1501496136188507
1772574555039939800,4.23993994140625,9.90688419342041,1.0474581718444824,-0.14057832956314087
1772574555049881000,4.249881103515625,9.887741088867188,1.0666006803512573,-0.11665010452270508
1772574555059813600,4.259813720703125,9.825528144836426,1.0857433080673218,-0.12622138857841492
1772574555069740300,4.269740234375,9.768099784851074,1.095314621925354,-0.15493527054786682
1772574555079672000,4.279672119140625,9.648459434509277,1.1240284442901611,-0.18843477964401245
1772574555089638700,4.289638671875,9.528818130493164,1.1096714735031128,-0.20757736265659332
1772574555099574000,4.299573974609375,9.442676544189453,1.0857433080673218,-0.20757736265659332
1772574555109506000,4.309506103515625,9.399605751037598,1.1240284442901611,-0.24107688665390015
1772574555119441200,4.319441162109375,9.42353343963623,1.1240284442901611,-0.25064817070961
1772574555129378600,4.329378662109375,9.495318412780762,1.119242787361145,-0.3038884699344635
1772574555139313700,4.339313720703125,9.600603103637695,1.1001001596450806,-0.3086741268634796
1772574555149223200,4.34922314453125,9.677172660827637,1.1096714735031128,-0.29431718587875366
1772574555159156000,4.359156005859375,9.662816047668457,1.1048858165740967,-0.2991028428077698
1772574555169092600,4.369092529296875,9.64367389678955,1.1096714735031128,-0.3038884699344635
1772574555179025700,4.379025634765625,9.614959716796875,1.1431710720062256,-0.3086741268634796
1772574555188966100,4.388966064453125,9.629316329956055,1.1288141012191772,-0.3326023519039154
1772574555198900000,4.39889990234375,9.64367389678955,1.1383854150772095,-0.3278166949748993
1772574555208819700,4.40881982421875,9.619745254516602,1.1718848943710327,-0.31345975399017334
1772574555218752000,4.418751953125,9.581459999084473,1.1431710720062256,-0.3086741268634796
1772574555228695800,4.42869580078125,9.528818130493164,1.119242787361145,-0.3613162338733673
1772574555238629400,4.43862939453125,9.514460563659668,1.0809576511383057,-0.4091726839542389
1772574555248549000,4.448549072265625,9.495318412780762,1.1001001596450806,-0.32303106784820557
1772574555258481400,4.4584814453125,9.619745254516602,1.1001001596450806,-0.24107688665390015
1772574555268412400,4.468412353515625,9.653244972229004,1.057029366493225,-0.23629122972488403
1772574555278344400,4.478344482421875,9.691530227661133,1.0618150234222412,-0.24586252868175507
1772574555288281000,4.488281005859375,9.705886840820312,1.1048858165740967,-0.2027917206287384
1772574555298213600,4.498213623046875,9.667601585388184,1.0857433080673218,-0.19800607860088348
1772574555308146000,4.50814599609375,9.686744689941406,1.0809576511383057,-0.2027917206287384
1772574555318078200,4.518078125,9.701101303100586,1.057029366493225,-0.2315055876970291
1772574555328012500,4.528012451171875,9.705886840820312,1.033101201057434,-0.24586252868175507
1772574555337945000,4.537945068359375,9.763314247131348,1.033101201057434,-0.23629122972488403
1772574555347876400,4.54787646484375,9.835099220275879,1.0378868579864502,-0.22193430364131927
1772574555357809000,4.557808837890625,9.892526626586914,1.0618150234222412,-0.21714866161346436
1772574555367747300,4.567747314453125,9.916455268859863,1.095314621925354,-0.23629122972488403
1772574555377680400,4.577680419921875,9.911669731140137,1.057029366493225,-0.22193430364131927
1772574555387604500,4.5876044921875,9.859027862548828,1.0618150234222412,-0.21714866161346436
1772574555397536800,4.597536865234375,9.825528144836426,1.0474581718444824,-0.24107688665390015
1772574555407474000,4.607473876953125,9.79681396484375,1.057029366493225,-0.2315055876970291
1772574555417406700,4.61740673828125,9.744172096252441,1.0235298871994019,-0.2267199456691742
1772574555427340500,4.627340576171875,9.734601020812988,1.0091729164123535,-0.22193430364131927
1772574555437273600,4.637273681640625,9.758528709411621,1.0426725149154663,-0.21714866161346436
1772574555447203000,4.647203125,9.753743171691895,1.0426725149154663,-0.21236300468444824
1772574555457135600,4.657135498046875,9.734601020812988,1.033101201057434,-0.19322042167186737
1772574555467068700,4.667068603515625,9.715457916259766,1.0474581718444824,-0.18843477964401245
1772574555477001200,4.677001220703125,9.691530227661133,1.057029366493225,-0.19322042167186737
1772574555486931700,4.686931640625,9.667601585388184,1.028315544128418,-0.1740778535604477
1772574555496864300,4.6968642578125,9.662816047668457,1.028315544128418,-0.15972091257572174
1772574555506799900,4.7067998046875,9.634101867675781,1.0713863372802734,-0.1740778535604477
1772574555516732400,4.716732421875,9.64367389678955,1.0474581718444824,-0.1740778535604477
1772574555526667800,4.726667724609375,9.619745254516602,1.028315544128418,-0.18364913761615753
1772574555536600600,4.7366005859375,9.57188892364502,1.0426725149154663,-0.16450655460357666
1772574555546540500,4.74654052734375,9.54796028137207,1.0426725149154663,-0.16929219663143158
1772574555556474000,4.75647412109375,9.509675025939941,1.0666006803512573,-0.1740778535604477
1772574555566390500,4.766390625,9.53360366821289,1.0809576511383057,-0.16450655460357666
1772574555576322300,4.776322265625,9.581459999084473,1.0666006803512573,-0.19322042167186737
1772574555586258200,4.786258056640625,9.624530792236328,1.052243709564209,-0.19322042167186737
1772574555596190500,4.7961904296875,9.65803050994873,1.0474581718444824,-0.18364913761615753
1772574555606109700,4.806109619140625,9.638887405395508,1.0666006803512573,-0.16929219663143158
1772574555616040700,4.816040771484375,9.64367389678955,1.0857433080673218,-0.1740778535604477
1772574555625994200,4.825994140625,9.648459434509277,1.0666006803512573,-0.19800607860088348
1772574555635927600,4.835927490234375,9.686744689941406,1.033101201057434,-0.22193430364131927
1772574555645859800,4.84585986328125,9.739386558532715,1.033101201057434,-0.20757736265659332
1772574555655793200,4.855793212890625,9.839884757995605,1.0235298871994019,-0.24586252868175507
1772574555665733400,4.8657333984375,9.926026344299316,1.0378868579864502,-0.26560330390930176
1772574555675667500,4.87566748046875,9.945169448852539,1.0618150234222412,-0.275174617767334
1772574555685599000,4.885598876953125,9.916455268859863,1.0618150234222412,-0.28953152894973755
1772574555695532500,4.895532470703125,9.878170013427734,1.057029366493225,-0.3038884699344635
1772574555705451300,4.905451171875,9.801599502563477,1.057029366493225,-0.3038884699344635
1772574555715383300,4.91538330078125,9.729815483093262,1.0666006803512573,-0.31824541091918945
1772574555725324300,4.92532421875,9.681958198547363,1.0713863372802734,-0.3613162338733673
1772574555735257300,4.93525732421875,9.648459434509277,1.052243709564209,-0.3756731450557709
1772574555745193200,4.945193115234375,9.581459999084473,1.0618150234222412,-0.34217363595962524
1772574555755126500,4.95512646484375,9.528818130493164,1.0426725149154663,-0.32303106784820557
1772574555765048000,4.965048095703125,9.538389205932617,1.0426725149154663,-0.33738797903060913
1772574555774980400,4.97498046875,9.538389205932617,1.0474581718444824,-0.3565305769443512
1772574555784924000,4.984923828125,9.552745819091797,1.057029366493225,-0.3613162338733673
1772574555794857200,4.994857177734375,9.634101867675781,1.052243709564209,-0.37088751792907715
1772574555804792800,5.004792724609375,9.677172660827637,1.057029366493225,-0.33738797903060913
1772574555814726400,5.014726318359375,9.720243453979492,1.0474581718444824,-0.2991028428077698
1772574555824644900,5.024644775390625,9.710672378540039,1.0426725149154663,-0.28953152894973755
1772574555834577000,5.034576904296875,9.725028991699219,1.0761719942092896,-0.32303106784820557
1772574555844513800,5.044513671875,9.734601020812988,1.0809576511383057,-0.3086741268634796
1772574555854446300,5.0544462890625,9.725028991699219,1.0666006803512573,-0.28953152894973755
1772574555864390000,5.064389892578125,9.729815483093262,1.0713863372802734,-0.26081767678260803
1772574555874323500,5.074323486328125,9.701101303100586,1.0809576511383057,-0.24586252868175507
1772574555884268800,5.084268798828125,9.691530227661133,1.0666006803512573,-0.26560330390930176
1772574555894203600,5.09420361328125,9.691530227661133,1.0761719942092896,-0.28953152894973755
1772574555904106800,5.104106689453125,9.734601020812988,1.0666006803512573,-0.3038884699344635
1772574555914038300,5.114038330078125,9.763314247131348,1.0713863372802734,-0.2991028428077698
1772574555923983400,5.1239833984375,9.710672378540039,1.0761719942092896,-0.2799602448940277
1772574555933916400,5.13391650390625,9.67238712310791,1.095314621925354,-0.275174617767334
1772574555943833600,5.14383349609375,9.662816047668457,1.1048858165740967,-0.3038884699344635
1772574555953764900,5.153764892578125,9.67238712310791,1.1001001596450806,-0.34695929288864136
1772574555963702300,5.163702392578125,9.686744689941406,1.0713863372802734,-0.3517449200153351
1772574555973634300,5.17363427734375,9.662816047668457,1.0378868579864502,-0.31824541091918945
1772574555983565800,5.18356591796875,9.614959716796875,1.0761719942092896,-0.2991028428077698
1772574555993497900,5.193497802734375,9.5862455368042,1.0809576511383057,-0.3278166949748993
1772574556003440000,5.203440185546875,9.57188892364502,1.0713863372802734,-0.34695929288864136
1772574556013373200,5.213373291015625,9.55753231048584,1.090528964996338,-0.3278166949748993
1772574556023297300,5.22329736328125,9.581459999084473,1.0713863372802734,-0.3565305769443512
1772574556033229300,5.233229248046875,9.629316329956055,1.0378868579864502,-0.36610186100006104
1772574556043162600,5.24316259765625,9.67238712310791,1.0235298871994019,-0.34695929288864136
1772574556053095000,5.253094970703125,9.710672378540039,1.028315544128418,-0.34695929288864136
1772574556063025400,5.263025390625,9.739386558532715,1.0235298871994019,-0.3278166949748993
1772574556072957400,5.27295751953125,9.739386558532715,1.0666006803512573,-0.3278166949748993
1772574556082896600,5.282896728515625,9.720243453979492,1.0809576511383057,-0.3326023519039154
1772574556092829200,5.2928291015625,9.729815483093262,1.0713863372802734,-0.34695929288864136
1772574556102774800,5.30277490234375,9.734601020812988,1.0618150234222412,-0.34695929288864136
1772574556112708600,5.31270849609375,9.734601020812988,1.0761719942092896,-0.3326023519039154
1772574556122599200,5.32259912109375,9.739386558532715,1.0713863372802734,-0.3086741268634796
1772574556132529000,5.33252880859375,9.763314247131348,1.0857433080673218,-0.31345975399017334
1772574556142500900,5.3425009765625,9.763314247131348,1.0857433080673218,-0.34695929288864136
1772574556152434700,5.3524345703125,9.758528709411621,1.1048858165740967,-0.34217363595962524
1772574556162335000,5.3623349609375,9.705886840820312,1.1048858165740967,-0.3038884699344635
1772574556172265700,5.372265625,9.653244972229004,1.1001001596450806,-0.2991028428077698
1772574556182200800,5.382200927734375,9.634101867675781,1.0809576511383057,-0.3086741268634796
1772574556192131800,5.3921318359375,9.619745254516602,1.0618150234222412,-0.29431718587875366
1772574556202065000,5.40206494140625,9.638887405395508,1.0761719942092896,-0.2991028428077698
1772574556211996000,5.411995849609375,9.681958198547363,1.090528964996338,-0.28953152894973755
1772574556221963500,5.421963623046875,9.763314247131348,1.1048858165740967,-0.28953152894973755
1772574556231898400,5.4318984375,9.825528144836426,1.0857433080673218,-0.26560330390930176
1772574556241821000,5.441821044921875,9.835099220275879,1.0809576511383057,-0.2554338276386261
1772574556251754800,5.451754638671875,9.79681396484375,1.090528964996338,-0.24107688665390015
1772574556261658000,5.461658203125,9.753743171691895,1.1001001596450806,-0.2554338276386261
1772574556271588600,5.471588623046875,9.715457916259766,1.0666006803512573,-0.24107688665390015
1772574556281535700,5.48153564453125,9.677172660827637,1.057029366493225,-0.24586252868175507
1772574556291468000,5.491468017578125,9.686744689941406,1.057029366493225,-0.24586252868175507
1772574556301416000,5.501416015625,9.677172660827637,1.0713863372802734,-0.24107688665390015
1772574556311349800,5.511349853515625,9.667601585388184,1.0761719942092896,-0.24586252868175507
1772574556321280000,5.521280029296875,9.681958198547363,1.0761719942092896,-0.26081767678260803
1772574556331213600,5.531213623046875,9.705886840820312,1.057029366493225,-0.28953152894973755
1772574556341154300,5.541154296875,9.67238712310791,1.0474581718444824,-0.2799602448940277
1772574556351088600,5.551088623046875,9.624530792236328,1.0761719942092896,-0.26560330390930176
1772574556361017600,5.561017578125,9.581459999084473,1.0809576511383057,-0.2991028428077698
1772574556370951200,5.570951171875,9.57188892364502,1.0713863372802734,-0.31345975399017334
1772574556380872200,5.5808720703125,9.5862455368042,1.052243709564209,-0.31824541091918945
1772574556390804700,5.5908046875,9.614959716796875,1.0713863372802734,-0.31345975399017334
1772574556400740600,5.60074072265625,9.648459434509277,1.052243709564209,-0.29431718587875366
1772574556410673400,5.61067333984375,9.69631576538086,1.0474581718444824,-0.32303106784820557
1772574556420604400,5.6206044921875,9.725028991699219,1.0713863372802734,-0.3278166949748993
1772574556430537000,5.630536865234375,9.768099784851074,1.0809576511383057,-0.3517449200153351
1772574556440470000,5.640469970703125,9.772886276245117,1.057029366493225,-0.37088751792907715
1772574556450402600,5.650402587890625,9.729815483093262,1.028315544128418,-0.36610186100006104
1772574556460347400,5.660347412109375,9.681958198547363,1.052243709564209,-0.37088751792907715
1772574556470281200,5.67028125,9.67238712310791,1.1096714735031128,-0.36610186100006104
1772574556480179000,5.680178955078125,9.653244972229004,1.1240284442901611,-0.3517449200153351
1772574556490109200,5.690109130859375,9.619745254516602,1.1048858165740967,-0.3565305769443512
1772574556500070100,5.700070068359375,9.595816612243652,1.1048858165740967,-0.3565305769443512
1772574556510003500,5.71000341796875,9.634101867675781,1.1048858165740967,-0.34217363595962524
1772574556519929600,5.7199296875,9.686744689941406,1.095314621925354,-0.3326023519039154
1772574556529862100,5.729862060546875,9.720243453979492,1.0761719942092896,-0.3326023519039154
1772574556539795700,5.739795654296875,9.734601020812988,1.0713863372802734,-0.2991028428077698
1772574556549728300,5.749728271484375,9.744172096252441,1.0857433080673218,-0.26081767678260803
1772574556559662300,5.759662353515625,9.729815483093262,1.1001001596450806,-0.27038896083831787
1772574556569595100,5.76959521484375,9.720243453979492,1.0857433080673218,-0.3038884699344635
1772574556579492900,5.779492919921875,9.705886840820312,1.1001001596450806,-0.275174617767334
1772574556589411300,5.789411376953125,9.715457916259766,1.1096714735031128,-0.26081767678260803
1772574556599357700,5.799357666015625,9.729815483093262,1.095314621925354,-0.275174617767334
1772574556609290500,5.80929052734375,9.681958198547363,1.0761719942092896,-0.2799602448940277
1772574556619223300,5.819223388671875,9.610174179077148,1.0426725149154663,-0.31824541091918945
1772574556649013200,5.84901318359375,9.567103385925293,1.0474581718444824,-0.3613162338733673
1772574556658982700,5.858982666015625,9.600603103637695,1.1048858165740967,-0.21236300468444824
1772574556668918300,5.868918212890625,9.677172660827637,1.1048858165740967,-0.18843477964401245
1772574556678819300,5.8788193359375,9.739386558532715,1.0809576511383057,-0.24107688665390015
1772574556688751400,5.88875146484375,9.78245735168457,1.0713863372802734,-0.2991028428077698
1772574556698661400,5.898661376953125,9.748957633972168,1.0809576511383057,-0.3038884699344635
1772574556708593400,5.908593505859375,9.744172096252441,1.052243709564209,-0.32303106784820557
1772574556718602800,5.918602783203125,9.720243453979492,1.0091729164123535,-0.34217363595962524
1772574556728541400,5.92854150390625,9.720243453979492,0.9804590940475464,-0.37088751792907715
1772574556738449400,5.938449462890625,9.753743171691895,0.99481600522995,-0.4139583110809326
1772574556748385000,5.948385009765625,9.801599502563477,1.0139585733413696,-0.4426721930503845
1772574556758315800,5.958315673828125,9.839884757995605,1.033101201057434,-0.4378865361213684
1772574556768251000,5.9682509765625,9.863813400268555,1.0091729164123535,-0.42831525206565857
1772574556778173000,5.9781728515625,9.849455833435059,0.9804590940475464,-0.42352959513664246
1772574556788106800,5.988106689453125,9.806385040283203,0.9900303483009338,-0.4570291340351105
1772574556798044700,5.998044677734375,9.806385040283203,0.9708877801895142,-0.44745782017707825
1772574556807979000,6.00797900390625,9.777671813964844,0.9708877801895142,-0.42831525206565857
1772574556817942000,6.01794189453125,9.763314247131348,0.9756734371185303,-0.4378865361213684
1772574556827879200,6.027879150390625,9.725028991699219,0.9756734371185303,-0.42352959513664246
1772574556837773300,6.037773193359375,9.686744689941406,0.9900303483009338,-0.4426721930503845
1772574556847706000,6.0477060546875,9.653244972229004,1.0043872594833374,-0.4331009089946747
1772574556857623600,6.05762353515625,9.614959716796875,0.966102123260498,-0.42352959513664246
1772574556867554800,6.067554931640625,9.591031074523926,0.9852447509765625,-0.4043870270252228
1772574556877480200,6.077480224609375,9.581459999084473,0.9756734371185303,-0.3900300860404968
1772574556887357400,6.087357421875,9.591031074523926,1.0187442302703857,-0.4043870270252228
1772574556897333500,6.09733349609375,9.591031074523926,1.0618150234222412,-0.39960137009620667
1772574556917191000,6.11719091796875,9.667601585388184,1.0474581718444824,-0.3852444589138031
1772574556937084700,6.137084716796875,9.634101867675781,1.0378868579864502,-0.3613162338733673
1772574556947019000,6.14701904296875,9.705886840820312,1.0187442302703857,-0.4043870270252228
1772574556956949800,6.15694970703125,9.758528709411621,1.0474581718444824,-0.3852444589138031
1772574556966883600,6.166883544921875,9.792028427124023,1.0426725149154663,-0.34695929288864136
1772574556976829200,6.1768291015625,9.78245735168457,1.0761719942092896,-0.3326023519039154
1772574556986764000,6.186763916015625,9.772886276245117,1.0857433080673218,-0.29431718587875366
1772574556996683300,6.196683349609375,9.806385040283203,1.090528964996338,-0.3086741268634796
1772574557006616600,6.206616455078125,9.78245735168457,1.1001001596450806,-0.36610186100006104
1772574557016547800,6.2165478515625,9.744172096252441,1.090528964996338,-0.380458801984787
1772574557026481200,6.226481201171875,9.720243453979492,1.1048858165740967,-0.4043870270252228
1772574557036411100,6.2364111328125,9.701101303100586,1.095314621925354,-0.3900300860404968
1772574557046344200,6.24634423828125,9.648459434509277,1.1048858165740967,-0.3278166949748993
1772574557056276700,6.25627685546875,9.605388641357422,1.1575279235839844,-0.15493527054786682
1772574557066209500,6.26620947265625,9.567103385925293,1.0378868579864502,-0.34695929288864136
1772574557076149800,6.276149658203125,9.55753231048584,1.0761719942092896,-0.380458801984787
1772574557086083600,6.28608349609375,9.667601585388184,0.9421738982200623,-0.6963114142417908
1772574557096022000,6.29602197265625,9.595816612243652,0.9421738982200623,-0.5575276613235474
1772574557105956000,6.3059560546875,9.471389770507812,1.0474581718444824,-0.24586252868175507
1772574557115876000,6.3158759765625,9.471389770507812,1.0618150234222412,-0.275174617767334
1772574557125808600,6.32580859375,9.504889488220215,1.095314621925354,-0.42352959513664246
1772574557135749400,6.335749267578125,9.562317848205566,1.1335997581481934,-0.5000999569892883
1772574557145683000,6.345682861328125,9.624530792236328,1.1575279235839844,-0.4905286431312561
1772574557155603200,6.355603271484375,9.681958198547363,1.1623135805130005,-0.4331009089946747
1772574557165535200,6.36553515625,9.710672378540039,1.1479566097259521,-0.4043870270252228
1772574557175466500,6.375466552734375,9.748957633972168,1.119242787361145,-0.44745782017707825
1772574557185398500,6.3853984375,9.758528709411621,1.1096714735031128,-0.48095735907554626
1772574557195332900,6.395332763671875,9.806385040283203,1.1288141012191772,-0.4666004180908203
1772574557205265200,6.40526513671875,9.768099784851074,1.1383854150772095,-0.41874396800994873
1772574557215200000,6.415199951171875,9.725028991699219,1.1623135805130005,-0.41874396800994873
1772574557225132500,6.425132568359375,9.629316329956055,1.1958130598068237,-0.44745782017707825
1772574557235069400,6.4350693359375,9.581459999084473,1.181456208229065,-0.4378865361213684
1772574557245002200,6.445002197265625,9.567103385925293,1.1623135805130005,-0.4713860750198364
1772574557254961400,6.45496142578125,9.610174179077148,1.114457130432129,-0.4713860750198364
1772574557264897000,6.46489697265625,9.677172660827637,1.0809576511383057,-0.47617170214653015
1772574557274799400,6.47479931640625,9.69631576538086,1.0713863372802734,-0.44745782017707825
1772574557284732000,6.48473193359375,9.705886840820312,1.052243709564209,-0.4426721930503845
1772574557294655500,6.494655517578125,9.710672378540039,1.0474581718444824,-0.4426721930503845
1772574557304587000,6.5045869140625,9.720243453979492,1.028315544128418,-0.42831525206565857
1772574557314526000,6.51452587890625,9.701101303100586,1.033101201057434,-0.4331009089946747
1772574557324458200,6.524458251953125,9.667601585388184,1.0235298871994019,-0.4139583110809326
1772574557334422300,6.53442236328125,9.648459434509277,1.0378868579864502,-0.3900300860404968
1772574557344358000,6.54435791015625,9.614959716796875,1.0713863372802734,-0.380458801984787
1772574557354262800,6.5542626953125,9.600603103637695,1.052243709564209,-0.37088751792907715
1772574557364195000,6.564195068359375,9.610174179077148,1.057029366493225,-0.3852444589138031
1772574557374140700,6.574140625,9.629316329956055,1.052243709564209,-0.4043870270252228
1772574557384074500,6.584074462890625,9.634101867675781,1.0666006803512573,-0.3852444589138031
1772574557394004700,6.594004638671875,9.677172660827637,1.090528964996338,-0.4043870270252228
1772574557403938000,6.60393798828125,9.734601020812988,1.119242787361145,-0.4139583110809326
1772574557413884000,6.6138837890625,9.748957633972168,1.1048858165740967,-0.4139583110809326
1772574557423818500,6.623818603515625,9.758528709411621,1.0809576511383057,-0.4139583110809326
1772574557433718000,6.633718017578125,9.748957633972168,1.1048858165740967,-0.4331009089946747
1772574557443649000,6.64364892578125,9.734601020812988,1.1048858165740967,-0.4331009089946747
1772574557453606700,6.653606689453125,9.710672378540039,1.1001001596450806,-0.4378865361213684
1772574557463540500,6.66354052734375,9.705886840820312,1.114457130432129,-0.42352959513664246
1772574557473472300,6.67347216796875,9.710672378540039,1.1240284442901611,-0.39960137009620667
1772574557483405800,6.68340576171875,9.710672378540039,1.0809576511383057,-0.4043870270252228
1772574557493331500,6.69333154296875,9.710672378540039,1.0761719942092896,-0.4378865361213684
1772574557503264000,6.703263916015625,9.725028991699219,1.0761719942092896,-0.4378865361213684
1772574557513209300,6.713209228515625,9.715457916259766,1.1048858165740967,-0.3756731450557709
1772574557523143400,6.723143310546875,9.763314247131348,1.0761719942092896,-0.34695929288864136
1772574557533062400,6.7330625,9.753743171691895,1.0713863372802734,-0.3613162338733673
1772574557542994700,6.74299462890625,9.734601020812988,1.0761719942092896,-0.36610186100006104
1772574557552925200,6.75292529296875,9.686744689941406,1.090528964996338,-0.3613162338733673
1772574557562857500,6.762857421875,9.619745254516602,1.1001001596450806,-0.4043870270252228
1772574557572794000,6.772794189453125,9.591031074523926,1.1048858165740967,-0.4043870270252228
1772574557582727000,6.782726806640625,9.600603103637695,1.1096714735031128,-0.3756731450557709
1772574557592652500,6.792652587890625,9.605388641357422,1.1288141012191772,-0.39481574296951294
1772574557602584600,6.80258447265625,9.591031074523926,1.1383854150772095,-0.3852444589138031
1772574557612503300,6.81250341796875,9.591031074523926,1.1383854150772095,-0.380458801984787
1772574557622434000,6.82243408203125,9.581459999084473,1.119242787361145,-0.3756731450557709
1772574557632391700,6.8323916015625,9.614959716796875,1.1240284442901611,-0.3900300860404968
1772574557642325000,6.842324951171875,9.629316329956055,1.119242787361145,-0.3900300860404968
1772574557652254500,6.85225439453125,9.677172660827637,1.1431710720062256,-0.3852444589138031
1772574557662187500,6.8621875,9.725028991699219,1.1527422666549683,-0.4043870270252228
1772574557672124000,6.8721240234375,9.801599502563477,1.1527422666549683,-0.4043870270252228
1772574557682057200,6.88205712890625,9.815957069396973,1.1527422666549683,-0.41874396800994873
1772574557691988200,6.89198828125,9.8207426071167,1.1383854150772095,-0.42352959513664246
1772574557701921300,6.90192138671875,9.815957069396973,1.114457130432129,-0.4139583110809326
1772574557711848200,6.91184814453125,9.772886276245117,1.1096714735031128,-0.42352959513664246
1772574557721780700,6.92178076171875,9.729815483093262,1.1240284442901611,-0.45224347710609436
1772574557741624600,6.94162451171875,9.638887405395508,1.1383854150772095,-0.4091726839542389
1772574557751556900,6.951556884765625,9.619745254516602,1.1288141012191772,-0.39960137009620667
1772574557761527000,6.961527099609375,9.64367389678955,1.1048858165740967,-0.4378865361213684
1772574557771462700,6.971462646484375,9.691530227661133,1.095314621925354,-0.4139583110809326
1772574557781383000,6.9813828125,9.701101303100586,1.0809576511383057,-0.3900300860404968
1772574557791316700,6.991316650390625,9.677172660827637,1.095314621925354,-0.39960137009620667
1772574557801257000,7.001257080078125,9.619745254516602,1.1240284442901611,-0.4043870270252228
1772574557811191800,7.01119189453125,9.576674461364746,1.1096714735031128,-0.4331009089946747
1772574557821109800,7.02110986328125,9.567103385925293,1.1096714735031128,-0.41874396800994873
1772574557831042800,7.031042724609375,9.576674461364746,1.1240284442901611,-0.4043870270252228
1772574557840981800,7.040981689453125,9.600603103637695,1.1431710720062256,-0.3852444589138031
1772574557850915300,7.050915283203125,9.64367389678955,1.1431710720062256,-0.3756731450557709
1772574557860842200,7.06084228515625,9.710672378540039,1.1623135805130005,-0.380458801984787
1772574557870775000,7.070775146484375,9.758528709411621,1.1527422666549683,-0.37088751792907715
1772574557880686600,7.0806865234375,9.777671813964844,1.1383854150772095,-0.3613162338733673
1772574557890617300,7.090617431640625,9.787242889404297,1.1575279235839844,-0.3613162338733673
1772574557900575000,7.100574951171875,9.758528709411621,1.1383854150772095,-0.380458801984787
1772574557910508500,7.110508544921875,9.725028991699219,1.1479566097259521,-0.37088751792907715
1772574557920444000,7.12044384765625,9.691530227661133,1.1431710720062256,-0.36610186100006104
1772574557930377500,7.13037744140625,9.677172660827637,1.1527422666549683,-0.3613162338733673
1772574557940315000,7.14031494140625,9.691530227661133,1.1479566097259521,-0.4331009089946747
1772574557950249000,7.1502490234375,9.729815483093262,1.1383854150772095,-0.4426721930503845
1772574557960151300,7.1601513671875,9.729815483093262,1.1335997581481934,-0.42831525206565857
1772574557970082300,7.170082275390625,9.729815483093262,1.1383854150772095,-0.4043870270252228
1772574557980034000,7.180033935546875,9.67238712310791,1.1575279235839844,-0.4091726839542389
1772574557989966800,7.189966796875,9.662816047668457,1.1240284442901611,-0.41874396800994873
1772574557999896000,7.19989599609375,9.634101867675781,1.119242787361145,-0.4091726839542389
1772574558009828600,7.20982861328125,9.591031074523926,1.119242787361145,-0.4091726839542389
1772574558019762400,7.219762451171875,9.576674461364746,1.095314621925354,-0.4139583110809326
1772574558029695200,7.2296953125,9.562317848205566,1.1001001596450806,-0.39481574296951294
1772574558039626800,7.239626708984375,9.5862455368042,1.1096714735031128,-0.4139583110809326
1772574558049559600,7.2495595703125,9.614959716796875,1.1335997581481934,-0.42352959513664246
1772574558059505200,7.259505126953125,9.67238712310791,1.1096714735031128,-0.41874396800994873
1772574558069375700,7.269375732421875,9.705886840820312,1.1001001596450806,-0.3900300860404968
1772574558079344000,7.27934423828125,9.686744689941406,1.0809576511383057,-0.3900300860404968
1772574558089243600,7.28924365234375,9.69631576538086,1.1001001596450806,-0.4043870270252228
1772574558099177500,7.299177490234375,9.69631576538086,1.119242787361145,-0.4091726839542389
1772574558119039700,7.319039794921875,9.725028991699219,1.1240284442901611,-0.3900300860404968
1772574558138907600,7.33890771484375,9.768099784851074,1.1096714735031128,-0.42831525206565857
1772574558148885500,7.348885498046875,9.777671813964844,1.114457130432129,-0.4331009089946747
1772574558158823200,7.3588232421875,9.772886276245117,1.095314621925354,-0.42831525206565857
1772574558168750000,7.36875,9.748957633972168,1.0761719942092896,-0.4331009089946747
1772574558178663400,7.378663330078125,9.691530227661133,1.090528964996338,-0.41874396800994873
1772574558188599800,7.388599853515625,9.653244972229004,1.0809576511383057,-0.42831525206565857
1772574558198547500,7.39854736328125,9.619745254516602,1.095314621925354,-0.41874396800994873
1772574558208484900,7.40848486328125,9.619745254516602,1.0809576511383057,-0.4091726839542389
1772574558218410500,7.418410400390625,9.595816612243652,1.0713863372802734,-0.42352959513664246
1772574558228347000,7.428346923828125,9.591031074523926,1.0426725149154663,-0.4139583110809326
1772574558238275600,7.438275634765625,9.634101867675781,1.052243709564209,-0.4331009089946747
1772574558248211200,7.448211181640625,9.653244972229004,1.0809576511383057,-0.41874396800994873
1772574558258147000,7.45814697265625,9.653244972229004,1.095314621925354,-0.4043870270252228
1772574558268082400,7.46808251953125,9.681958198547363,1.0713863372802734,-0.4139583110809326
1772574558278014500,7.478014404296875,9.686744689941406,1.057029366493225,-0.42352959513664246
1772574558287949600,7.487949462890625,9.686744689941406,1.0809576511383057,-0.4139583110809326
1772574558297869300,7.497869384765625,9.686744689941406,1.1048858165740967,-0.4139583110809326
1772574558307803100,7.50780322265625,9.69631576538086,1.1048858165740967,-0.4570291340351105
1772574558317737700,7.51773779296875,9.729815483093262,1.1001001596450806,-0.44745782017707825
1772574558327671600,7.527671630859375,9.744172096252441,1.1001001596450806,-0.44745782017707825
1772574558337606400,7.5376064453125,9.763314247131348,1.090528964996338,-0.41874396800994873
1772574558347540200,7.547540283203125,9.777671813964844,1.090528964996338,-0.4331009089946747
1772574558357466400,7.55746630859375,9.806385040283203,1.0857433080673218,-0.4378865361213684
1772574558367399400,7.5673994140625,9.772886276245117,1.090528964996338,-0.4091726839542389
1772574558377328400,7.577328369140625,9.734601020812988,1.1048858165740967,-0.42831525206565857
1772574558387261000,7.587260986328125,9.67238712310791,1.090528964996338,-0.41874396800994873
1772574558397187800,7.597187744140625,9.653244972229004,1.1048858165740967,-0.41874396800994873
1772574558407120000,7.607119873046875,9.614959716796875,1.114457130432129,-0.42831525206565857
1772574558417063700,7.617063720703125,9.595816612243652,1.1096714735031128,-0.4091726839542389
1772574558426997000,7.6269970703125,9.619745254516602,1.0857433080673218,-0.4570291340351105
1772574558436914700,7.636914794921875,9.648459434509277,1.0666006803512573,-0.45224347710609436
1772574558446846200,7.64684619140625,9.648459434509277,1.090528964996338,-0.42352959513664246
1772574558456778500,7.656778564453125,9.681958198547363,1.1048858165740967,-0.44745782017707825
1772574558466710300,7.666710205078125,9.677172660827637,1.0857433080673218,-0.48095735907554626
1772574558476646400,7.676646484375,9.677172660827637,1.0857433080673218,-0.4666004180908203
1772574558486578700,7.68657861328125,9.65803050994873,1.095314621925354,-0.4426721930503845
1772574558496541700,7.696541748046875,9.648459434509277,1.1001001596450806,-0.4378865361213684
1772574558506477000,7.70647705078125,9.638887405395508,1.0713863372802734,-0.4426721930503845
1772574558516374300,7.716374267578125,9.619745254516602,1.0809576511383057,-0.4378865361213684
1772574558526305800,7.726305908203125,9.600603103637695,1.095314621925354,-0.4426721930503845
1772574558536275700,7.736275634765625,9.634101867675781,1.1240284442901611,-0.4331009089946747
1772574558546211000,7.746211181640625,9.681958198547363,1.1001001596450806,-0.42352959513664246
1772574558556136700,7.75613671875,9.705886840820312,1.1048858165740967,-0.4091726839542389
1772574558566071300,7.7660712890625,9.701101303100586,1.119242787361145,-0.39481574296951294
1772574558575969300,7.77596923828125,9.69631576538086,1.1288141012191772,-0.4139583110809326
1772574558585900000,7.785900146484375,9.686744689941406,1.1288141012191772,-0.4426721930503845
1772574558595842800,7.7958427734375,9.686744689941406,1.1048858165740967,-0.44745782017707825
1772574558605774800,7.80577490234375,9.710672378540039,1.1288141012191772,-0.4618147611618042
1772574558615699700,7.81569970703125,9.715457916259766,1.1096714735031128,-0.4570291340351105
1772574558625631000,7.825630859375,9.729815483093262,1.1240284442901611,-0.4570291340351105
1772574558635599000,7.83559912109375,9.748957633972168,1.119242787361145,-0.4666004180908203
1772574558645534000,7.845533935546875,9.748957633972168,1.1096714735031128,-0.47617170214653015
1772574558655455500,7.85545556640625,9.720243453979492,1.1096714735031128,-0.4570291340351105
1772574558665389300,7.865389404296875,9.638887405395508,1.114457130432129,-0.44745782017707825
1772574558675323400,7.875323486328125,9.5862455368042,1.1048858165740967,-0.4666004180908203
1772574558685257000,7.885257080078125,9.567103385925293,1.1096714735031128,-0.48095735907554626
1772574558695181000,7.89518115234375,9.567103385925293,1.0857433080673218,-0.45224347710609436
1772574558705113900,7.90511376953125,9.5862455368042,1.0666006803512573,-0.4666004180908203
1772574558715049200,7.91504931640625,9.610174179077148,1.0618150234222412,-0.4570291340351105
1772574558724982300,7.924982177734375,9.634101867675781,1.057029366493225,-0.4331009089946747
1772574558734914800,7.934914794921875,9.648459434509277,1.0857433080673218,-0.42352959513664246
1772574558744847600,7.94484765625,9.662816047668457,1.119242787361145,-0.44745782017707825
1772574558754780200,7.9547802734375,9.686744689941406,1.1335997581481934,-0.4570291340351105
1772574558764713000,7.964712890625,9.69631576538086,1.119242787361145,-0.45224347710609436
1772574558774645500,7.9746455078125,9.686744689941406,1.119242787361145,-0.44745782017707825
1772574558784578300,7.984578369140625,9.667601585388184,1.114457130432129,-0.42352959513664246
1772574558794513200,7.99451318359375,9.648459434509277,1.119242787361145,-0.4666004180908203
1772574558804446200,8.0044462890625,9.67238712310791,1.1240284442901611,-0.48574298620224
1772574558814384600,8.014384521484375,9.701101303100586,1.095314621925354,-0.4666004180908203
1772574558824318200,8.024318115234376,9.734601020812988,1.114457130432129,-0.44745782017707825
1772574558834241000,8.034240966796874,9.753743171691895,1.119242787361145,-0.4666004180908203
1772574558844173300,8.04417333984375,9.748957633972168,1.1001001596450806,-0.4666004180908203
1772574558854125000,8.054125,9.710672378540039,1.0809576511383057,-0.4666004180908203
1772574558864059600,8.0640595703125,9.662816047668457,1.1096714735031128,-0.47617170214653015
1772574558873972200,8.07397216796875,9.619745254516602,1.1096714735031128,-0.4570291340351105
1772574558883904500,8.083904541015626,9.624530792236328,1.0761719942092896,-0.4570291340351105
1772574558893836800,8.0938369140625,9.65803050994873,1.095314621925354,-0.4618147611618042
1772574558903769000,8.10376904296875,9.634101867675781,1.0666006803512573,-0.44745782017707825
1772574558913702100,8.1137021484375,9.638887405395508,1.0618150234222412,-0.44745782017707825
1772574558923634400,8.123634521484375,9.667601585388184,1.0809576511383057,-0.4666004180908203
1772574558933568300,8.133568359375,9.720243453979492,1.095314621925354,-0.4713860750198364
1772574558943500800,8.143500732421876,9.720243453979492,1.095314621925354,-0.4426721930503845
1772574558953435600,8.153435546875,9.686744689941406,1.0761719942092896,-0.42831525206565857
1772574558963368200,8.1633681640625,9.64367389678955,1.0713863372802734,-0.45224347710609436
1772574558973296600,8.173296630859374,9.67238712310791,1.0713863372802734,-0.4666004180908203
1772574558983229000,8.18322900390625,9.720243453979492,1.057029366493225,-0.48574298620224
1772574558993168100,8.193168212890624,9.801599502563477,1.0857433080673218,-0.4570291340351105
1772574559003101200,8.20310107421875,9.815957069396973,1.090528964996338,-0.4426721930503845
1772574559013041200,8.213041259765625,9.806385040283203,1.095314621925354,-0.47617170214653015
1772574559022974700,8.222974609375,9.777671813964844,1.1240284442901611,-0.47617170214653015
1772574559032893200,8.23289306640625,9.748957633972168,1.1048858165740967,-0.47617170214653015
1772574559042825200,8.2428251953125,9.720243453979492,1.0857433080673218,-0.5000999569892883
1772574559052760600,8.252760498046875,9.67238712310791,1.090528964996338,-0.4905286431312561
1772574559062692900,8.26269287109375,9.64367389678955,1.1001001596450806,-0.4905286431312561
1772574559072624000,8.2726240234375,9.64367389678955,1.1001001596450806,-0.48574298620224
1772574559082556700,8.282556640625,9.667601585388184,1.090528964996338,-0.519242525100708
1772574559092505300,8.29250537109375,9.662816047668457,1.0857433080673218,-0.5000999569892883
1772574559102439200,8.302439208984374,9.648459434509277,1.095314621925354,-0.5000999569892883
1772574559112354300,8.312354248046875,9.677172660827637,1.0857433080673218,-0.5527420043945312
1772574559122286300,8.322286376953125,9.748957633972168,1.0761719942092896,-0.5240281820297241
1772574559132221700,8.3322216796875,9.725028991699219,1.052243709564209,-0.48574298620224
1772574559142154000,8.342154052734376,9.725028991699219,1.0474581718444824,-0.4905286431312561
1772574559152104200,8.352104248046874,9.739386558532715,1.052243709564209,-0.5335994362831116
1772574559162038500,8.36203857421875,9.705886840820312,1.095314621925354,-0.5288137793540955
1772574559171950000,8.3719501953125,9.667601585388184,1.090528964996338,-0.5144568681716919
1772574559181882000,8.381882080078125,9.677172660827637,1.0713863372802734,-0.5144568681716919
1772574559191814700,8.391814697265625,9.691530227661133,1.0809576511383057,-0.4953143000602722
1772574559201746700,8.40174658203125,9.691530227661133,1.1001001596450806,-0.4713860750198364
1772574559211691300,8.411691162109374,9.691530227661133,1.0857433080673218,-0.47617170214653015
1772574559221624600,8.42162451171875,9.753743171691895,1.090528964996338,-0.4713860750198364
1772574559231545900,8.4315458984375,9.772886276245117,1.0809576511383057,-0.4618147611618042
1772574559241478000,8.441477783203124,9.763314247131348,1.0809576511383057,-0.48574298620224
1772574559251420700,8.451420654296875,9.758528709411621,1.0761719942092896,-0.5144568681716919
1772574559261354000,8.46135400390625,9.753743171691895,1.0761719942092896,-0.48095735907554626
1772574559271278300,8.4712783203125,9.748957633972168,1.0857433080673218,-0.4713860750198364
1772574559281210600,8.481210693359374,9.729815483093262,1.0857433080673218,-0.48574298620224
1772574559291143200,8.49114306640625,9.701101303100586,1.0713863372802734,-0.5144568681716919
1772574559301075500,8.501075439453125,9.701101303100586,1.0857433080673218,-0.5240281820297241
1772574559310992600,8.51099267578125,9.67238712310791,1.0761719942092896,-0.5431707501411438
1772574559320923400,8.52092333984375,9.662816047668457,1.0378868579864502,-0.5431707501411438
1772574559330871800,8.530871826171875,9.648459434509277,1.0666006803512573,-0.5670989751815796
1772574559340804400,8.540804443359375,9.648459434509277,1.1001001596450806,-0.5479564070701599
1772574559350745600,8.55074560546875,9.677172660827637,1.0666006803512573,-0.5335994362831116
1772574559360679200,8.56067919921875,9.67238712310791,1.057029366493225,-0.5479564070701599
1772574559370605600,8.57060546875,9.662816047668457,1.0809576511383057,-0.5383850932121277
1772574559380538000,8.5805380859375,9.667601585388184,1.0761719942092896,-0.5575276613235474
1772574559390471700,8.5904716796875,9.653244972229004,1.0809576511383057,-0.5383850932121277
1772574559400404500,8.600404541015624,9.634101867675781,1.090528964996338,-0.519242525100708
1772574559410346000,8.610345947265625,9.67238712310791,1.0857433080673218,-0.5335994362831116
1772574559420279800,8.62027978515625,9.729815483093262,1.0761719942092896,-0.5670989751815796
1772574559430203400,8.630203369140625,9.768099784851074,1.090528964996338,-0.5431707501411438
1772574559440136000,8.640135986328126,9.815957069396973,1.1288141012191772,-0.519242525100708
1772574559450070000,8.650070068359375,9.954740524291992,1.1383854150772095,-0.5862415432929993
1772574559460002800,8.6600029296875,10.256834030151367,1.1479566097259521,-0.6245267391204834
1772574559469930800,8.6699306640625,10.405189514160156,1.1383854150772095,-0.4713860750198364
1772574559479863000,8.679863037109374,10.199406623840332,1.033101201057434,-0.24107688665390015
1772574559489790700,8.689790771484375,9.64367389678955,1.0091729164123535,-0.18843477964401245
1772574559499722500,8.699722412109375,8.96829891204834,1.3106685876846313,-0.8398807644844055
1772574559509661400,8.709661376953125,9.160323143005371,1.3680963516235352,-1.0648061037063599
1772574559519594000,8.719593994140626,9.428318977355957,1.186241865158081,-0.7872386574745178
1772574559529525200,8.729525146484375,9.777671813964844,1.1766705513000488,-0.5814558863639832
1772574559539457800,8.739457763671876,9.748957633972168,1.272383451461792,-0.48095735907554626
1772574559549390000,8.74939013671875,9.614959716796875,1.3010972738265991,-0.5527420043945312
1772574559559322400,8.759322265625,9.442676544189453,1.2580264806747437,-0.5958128571510315
1772574559569258000,8.769258056640625,9.227322578430176,1.277169108390808,-0.5144568681716919
1772574559579190800,8.779190673828126,9.122037887573242,1.1096714735031128,-0.42831525206565857
1772574559589123000,8.789123046875,8.93958568572998,0.9038887619972229,-0.3278166949748993
