time,seconds_elapsed,z,y,x
1772534333493346800,0.048346923828125,-0.9887237548828125,-0.1700592041015625,0.0679779052734375
1772534333503362600,0.058362548828125,-0.97039794921875,-0.16552734375,0.0597991943359375
1772534333513378800,0.06837890625,-0.963287353515625,-0.1627960205078125,0.0563201904296875
1772534333523394800,0.078394775390625,-0.963104248046875,-0.159881591796875,0.0536956787109375
1772534333533410800,0.088410888671875,-0.9737396240234375,-0.1619415283203125,0.0556793212890625
1772534333543427600,0.098427490234375,-0.990081787109375,-0.1624755859375,0.063568115234375
1772534333553443600,0.108443603515625,-0.9918975830078125,-0.1639251708984375,0.0709381103515625
1772534333563459600,0.11845947265625,-0.998077392578125,-0.1789703369140625,0.079193115234375
1772534333573475800,0.128475830078125,-1.010711669921875,-0.1844329833984375,0.0927734375
1772534333583491800,0.138491943359375,-1.0028076171875,-0.1777801513671875,0.086822509765625
1772534333593508600,0.148508544921875,-0.9918975830078125,-0.16650390625,0.068695068359375
1772534333603524600,0.158524658203125,-0.9866790771484375,-0.1692047119140625,0.0712432861328125
1772534333613540600,0.16854052734375,-0.981475830078125,-0.169097900390625,0.07489013671875
1772534333623556900,0.178556884765625,-0.975189208984375,-0.16644287109375,0.073089599609375
1772534333633574000,0.188573974609375,-0.96697998046875,-0.1635284423828125,0.072418212890625
1772534333643589600,0.198589599609375,-0.954498291015625,-0.16357421875,0.07342529296875
1772534333653605600,0.208605712890625,-0.947509765625,-0.171356201171875,0.0785064697265625
1772534333663621600,0.21862158203125,-0.9642181396484375,-0.185943603515625,0.0925140380859375
1772534333673637600,0.2286376953125,-0.991790771484375,-0.188446044921875,0.1099853515625
1772534333683655000,0.238655029296875,-1.0018768310546875,-0.1787109375,0.1062164306640625
1772534333693670700,0.248670654296875,-0.9967498779296875,-0.167572021484375,0.08404541015625
1772534333703686700,0.258686767578125,-0.98138427734375,-0.163909912109375,0.070037841796875
1772534333713702700,0.26870263671875,-0.962127685546875,-0.1676483154296875,0.068603515625
1772534333723718700,0.27871875,-0.955657958984375,-0.17041015625,0.0672760009765625
1772534333733735700,0.288735595703125,-0.9644775390625,-0.16839599609375,0.0670166015625
1772534333743751700,0.298751708984375,-0.972869873046875,-0.161956787109375,0.0677337646484375
1772534333753767700,0.308767578125,-0.9747467041015625,-0.1611175537109375,0.0731658935546875
1772534333763783700,0.31878369140625,-0.971649169921875,-0.16741943359375,0.0800933837890625
1772534333773799700,0.328799560546875,-0.9796295166015625,-0.18865966796875,0.1020965576171875
1772534333783816700,0.338816650390625,-0.999359130859375,-0.201629638671875,0.12677001953125
1772534333793832700,0.348832763671875,-1.00616455078125,-0.185028076171875,0.1136016845703125
1772534333803848700,0.3588486328125,-0.9983062744140625,-0.1680145263671875,0.080535888671875
1772534333813864700,0.36886474609375,-0.9998321533203125,-0.1397552490234375,0.0475311279296875
1772534333823880700,0.378880615234375,-0.984039306640625,-0.1388702392578125,0.049591064453125
1772534333833897700,0.388897705078125,-0.9863739013671875,-0.1588897705078125,0.063140869140625
1772534333843913700,0.398913818359375,-0.9851226806640625,-0.17181396484375,0.0748748779296875
1772534333853929700,0.4089296875,-0.9866943359375,-0.1753387451171875,0.0823516845703125
1772534333863945700,0.41894580078125,-0.9866790771484375,-0.1698150634765625,0.0815277099609375
1772534333873962800,0.428962646484375,-0.989166259765625,-0.1658172607421875,0.076873779296875
1772534333883978800,0.438978759765625,-0.99407958984375,-0.166107177734375,0.0819091796875
1772534333893994800,0.448994873046875,-0.9940948486328125,-0.166656494140625,0.0931549072265625
1772534333904010800,0.4590107421875,-0.9830474853515625,-0.1730499267578125,0.0942230224609375
1772534333914026800,0.46902685546875,-0.9752044677734375,-0.1707000732421875,0.0806732177734375
1772534333924043800,0.479043701171875,-0.9686126708984375,-0.1605072021484375,0.07244873046875
1772534333934059800,0.489059814453125,-0.959625244140625,-0.1580352783203125,0.06988525390625
1772534333944075800,0.49907568359375,-0.9596710205078125,-0.158905029296875,0.0684661865234375
1772534333954091800,0.509091796875,-0.966400146484375,-0.163726806640625,0.06878662109375
1772534333964107800,0.519107666015625,-0.971038818359375,-0.16766357421875,0.074676513671875
1772534333974124500,0.52912451171875,-0.979949951171875,-0.1712188720703125,0.08148193359375
1772534333984140500,0.539140625,-0.989593505859375,-0.1763916015625,0.0888214111328125
1772534333994156800,0.54915673828125,-0.9990386962890625,-0.1792449951171875,0.096435546875
1772534334004172800,0.5591728515625,-1.00103759765625,-0.1775360107421875,0.0990753173828125
1772534334014188800,0.569188720703125,-0.9931640625,-0.1712646484375,0.0942840576171875
1772534334024205600,0.57920556640625,-0.9852752685546875,-0.165283203125,0.082427978515625
1772534334034221600,0.5892216796875,-0.986541748046875,-0.164398193359375,0.0752105712890625
1772534334044237800,0.59923779296875,-0.9892578125,-0.1618499755859375,0.0756072998046875
1772534334054253800,0.60925390625,-0.9825439453125,-0.1599578857421875,0.072998046875
1772534334064269800,0.619269775390625,-0.97393798828125,-0.1629180908203125,0.072479248046875
1772534334074286600,0.62928662109375,-0.969024658203125,-0.1698760986328125,0.0727386474609375
1772534334084302600,0.639302490234375,-0.9718475341796875,-0.171966552734375,0.0733489990234375
1772534334094318600,0.649318603515625,-0.9748687744140625,-0.1712188720703125,0.07733154296875
1772534334104334800,0.6593349609375,-0.9814300537109375,-0.1738739013671875,0.084686279296875
1772534334114351900,0.669351806640625,-0.9835968017578125,-0.17840576171875,0.087738037109375
1772534334124367600,0.67936767578125,-0.9785614013671875,-0.1771697998046875,0.085601806640625
1772534334134383600,0.689383544921875,-0.977203369140625,-0.172210693359375,0.0789947509765625
1772534334144399600,0.699399658203125,-0.985321044921875,-0.167205810546875,0.073455810546875
1772534334154415900,0.709415771484375,-0.990814208984375,-0.164520263671875,0.073822021484375
1772534334164432600,0.7194326171875,-0.9840850830078125,-0.161956787109375,0.0741729736328125
1772534334174448600,0.72944873046875,-0.975341796875,-0.1672821044921875,0.0732269287109375
1772534334184464600,0.739464599609375,-0.9647674560546875,-0.170562744140625,0.0745697021484375
1772534334194480600,0.749480712890625,-0.9582672119140625,-0.1707305908203125,0.0757598876953125
1772534334204496600,0.75949658203125,-0.9590301513671875,-0.1707763671875,0.078338623046875
1772534334214513700,0.769513671875,-0.97296142578125,-0.1689910888671875,0.0795135498046875
1772534334224529700,0.77952978515625,-0.9901580810546875,-0.167999267578125,0.0800018310546875
1772534334234545700,0.789545654296875,-0.993194580078125,-0.1630096435546875,0.0814971923828125
1772534334244561700,0.799561767578125,-0.992462158203125,-0.1695404052734375,0.082489013671875
1772534334254577700,0.80957763671875,-0.9954376220703125,-0.175811767578125,0.0869140625
1772534334264594700,0.8195947265625,-0.9898681640625,-0.176422119140625,0.0923004150390625
1772534334274610700,0.829610595703125,-0.9843597412109375,-0.1759490966796875,0.0904998779296875
1772534334284626700,0.839626708984375,-0.991790771484375,-0.1730499267578125,0.0862884521484375
1772534334294642700,0.849642578125,-1.0032196044921875,-0.1728668212890625,0.099517822265625
1772534334304658700,0.85965869140625,-0.995880126953125,-0.166717529296875,0.107025146484375
1772534334314675700,0.86967578125,-0.97247314453125,-0.176544189453125,0.107208251953125
1772534334324691700,0.879691650390625,-0.970977783203125,-0.1751861572265625,0.0882568359375
1772534334334707700,0.889707763671875,-0.958526611328125,-0.1621246337890625,0.070526123046875
1772534334344723700,0.8997236328125,-0.94970703125,-0.1573944091796875,0.0598907470703125
1772534334354739700,0.90973974609375,-0.9542236328125,-0.1542816162109375,0.05792236328125
1772534334364756700,0.9197568359375,-0.9645233154296875,-0.159912109375,0.0635986328125
1772534334374772700,0.929772705078125,-0.9894561767578125,-0.1716766357421875,0.0720367431640625
1772534334384788700,0.939788818359375,-1.0108184814453125,-0.178558349609375,0.0866851806640625
1772534334394804700,0.9498046875,-1.0033721923828125,-0.1749725341796875,0.08966064453125
1772534334404820700,0.95982080078125,-0.9986572265625,-0.1739959716796875,0.083160400390625
1772534334414837500,0.96983740234375,-0.9993438720703125,-0.16876220703125,0.0817718505859375
1772534334424853500,0.979853515625,-0.996734619140625,-0.164276123046875,0.07421875
1772534334434869800,0.989869873046875,-0.998870849609375,-0.159149169921875,0.0651702880859375
1772534334444885800,0.9998857421875,-1.0034637451171875,-0.15570068359375,0.0672607421875
1772534334454902500,1.009902587890625,-1.0085906982421875,-0.15850830078125,0.074493408203125
1772534334464918500,1.01991845703125,-0.99554443359375,-0.166656494140625,0.078826904296875
1772534334474934500,1.0299345703125,-1.0020904541015625,-0.1615753173828125,0.080291748046875
1772534334484950500,1.039950439453125,-0.98406982421875,-0.17926025390625,0.1104583740234375
1772534334494966800,1.049966796875,-0.9853515625,-0.1844024658203125,0.08795166015625
1772534334504983600,1.059983642578125,-0.983184814453125,-0.17266845703125,0.0765380859375
1772534334514999600,1.06999951171875,-0.9840240478515625,-0.166839599609375,0.0872650146484375
1772534334525015600,1.080015625,-0.978179931640625,-0.167083740234375,0.0922698974609375
1772534334535031600,1.090031494140625,-0.96649169921875,-0.175201416015625,0.0899200439453125
1772534334545047800,1.1000478515625,-0.947723388671875,-0.1807708740234375,0.089752197265625
1772534334555064600,1.110064697265625,-0.94073486328125,-0.179443359375,0.0827789306640625
1772534334565080600,1.12008056640625,-0.937042236328125,-0.174652099609375,0.0726318359375
1772534334575096600,1.1300966796875,-0.946441650390625,-0.1697998046875,0.067718505859375
1772534334585112600,1.140112548828125,-0.961669921875,-0.1731414794921875,0.0748138427734375
1772534334595128800,1.15012890625,-0.9758148193359375,-0.1699066162109375,0.0809326171875
1772534334605145600,1.1601455078125,-0.9805755615234375,-0.1732177734375,0.0870819091796875
1772534334615161600,1.17016162109375,-0.97869873046875,-0.1746368408203125,0.0831451416015625
1772534334625177600,1.180177490234375,-0.987762451171875,-0.1774749755859375,0.0767974853515625
1772534334635193600,1.190193603515625,-1.0037841796875,-0.1791839599609375,0.07537841796875
1772534334645209600,1.200209716796875,-1.0129547119140625,-0.175567626953125,0.076690673828125
1772534334655226600,1.2102265625,-1.012542724609375,-0.17034912109375,0.07391357421875
1772534334665242600,1.22024267578125,-1.00482177734375,-0.1659698486328125,0.066986083984375
1772534334675258600,1.230258544921875,-0.982269287109375,-0.1602630615234375,0.06121826171875
1772534334685274600,1.240274658203125,-0.9619293212890625,-0.1592254638671875,0.055755615234375
1772534334695290600,1.25029052734375,-0.95159912109375,-0.16705322265625,0.058441162109375
1772534334705307600,1.2603076171875,-0.964080810546875,-0.171966552734375,0.0733489990234375
1772534334715323600,1.27032373046875,-0.984588623046875,-0.1740264892578125,0.089447021484375
1772534334725339600,1.280339599609375,-0.989532470703125,-0.1767425537109375,0.0976409912109375
1772534334735355600,1.290355712890625,-0.9905242919921875,-0.1820068359375,0.101654052734375
1772534334745371600,1.30037158203125,-0.9875030517578125,-0.1844940185546875,0.100860595703125
1772534334755388700,1.310388671875,-0.9809722900390625,-0.18145751953125,0.094268798828125
1772534334765404700,1.32040478515625,-0.9739227294921875,-0.173614501953125,0.0889739990234375
1772534334775420700,1.330420654296875,-0.9667816162109375,-0.165313720703125,0.080535888671875
1772534334785436700,1.340436767578125,-0.9611663818359375,-0.16278076171875,0.0699615478515625
1772534334795452700,1.35045263671875,-0.9662933349609375,-0.16455078125,0.0671539306640625
1772534334805469700,1.3604697265625,-0.9698028564453125,-0.1653594970703125,0.0738677978515625
1772534334815485700,1.370485595703125,-0.9613037109375,-0.16058349609375,0.074676513671875
1772534334825501700,1.380501708984375,-0.96612548828125,-0.16839599609375,0.07696533203125
1772534334835517700,1.390517578125,-0.984283447265625,-0.1729736328125,0.0793914794921875
1772534334845533700,1.40053369140625,-0.996429443359375,-0.1714935302734375,0.087493896484375
1772534334855550700,1.41055078125,-1.0042572021484375,-0.1726531982421875,0.09368896484375
1772534334865566700,1.420566650390625,-0.9999847412109375,-0.1694183349609375,0.09027099609375
1772534334875582700,1.430582763671875,-0.988739013671875,-0.1638946533203125,0.0849761962890625
1772534334885598700,1.4405986328125,-0.984649658203125,-0.1663665771484375,0.082550048828125
1772534334895615500,1.450615478515625,-0.9801483154296875,-0.1623992919921875,0.07647705078125
1772534334905631500,1.460631591796875,-0.9842529296875,-0.1578521728515625,0.0678863525390625
1772534334915647700,1.470647705078125,-1.001434326171875,-0.1597747802734375,0.0668182373046875
1772534334925663700,1.480663818359375,-1.01885986328125,-0.1626739501953125,0.079071044921875
1772534334935679700,1.4906796875,-1.0190277099609375,-0.1609649658203125,0.08453369140625
1772534334945696500,1.500696533203125,-1.011077880859375,-0.1528167724609375,0.0840606689453125
1772534334955712500,1.51071240234375,-1.0069122314453125,-0.1569671630859375,0.082916259765625
1772534334965728800,1.520728759765625,-1.0002288818359375,-0.1614532470703125,0.082061767578125
1772534334975744800,1.530744873046875,-1.0008544921875,-0.159637451171875,0.081756591796875
1772534334985760800,1.5407607421875,-0.9957122802734375,-0.1651763916015625,0.0864410400390625
1772534334995777500,1.550777587890625,-0.98480224609375,-0.1662750244140625,0.0945892333984375
1772534335005793500,1.56079345703125,-0.96807861328125,-0.174835205078125,0.099212646484375
1772534335015809800,1.570809814453125,-0.9529571533203125,-0.1804351806640625,0.082000732421875
1772534335025825800,1.58082568359375,-0.9495086669921875,-0.1753997802734375,0.0824127197265625
1772534335035841800,1.590841796875,-0.9498291015625,-0.1624298095703125,0.0823516845703125
1772534335045858600,1.600858642578125,-0.9554901123046875,-0.1577301025390625,0.0780029296875
1772534335055874600,1.61087451171875,-0.96826171875,-0.164459228515625,0.074737548828125
1772534335065890600,1.620890625,-0.9805755615234375,-0.1711883544921875,0.07623291015625
1772534335075906800,1.63090673828125,-0.9892120361328125,-0.170806884765625,0.0765838623046875
1772534335085922800,1.6409228515625,-0.9962615966796875,-0.1684112548828125,0.076873779296875
1772534335095939600,1.650939697265625,-1.0026397705078125,-0.1667327880859375,0.075592041015625
1772534335105955600,1.66095556640625,-0.996063232421875,-0.163970947265625,0.0697784423828125
1772534335115971600,1.6709716796875,-0.9804840087890625,-0.1618499755859375,0.0676727294921875
1772534335125987800,1.68098779296875,-0.9668426513671875,-0.164154052734375,0.0677642822265625
1772534335136003800,1.69100390625,-0.9631500244140625,-0.1701202392578125,0.0732421875
1772534335146020600,1.7010205078125,-0.9639892578125,-0.17193603515625,0.0755615234375
1772534335156036600,1.71103662109375,-0.970855712890625,-0.16973876953125,0.0750885009765625
1772534335166052600,1.721052490234375,-0.9759368896484375,-0.1664276123046875,0.07525634765625
1772534335176068600,1.731068603515625,-0.97613525390625,-0.1631317138671875,0.07489013671875
1772534335186084900,1.7410849609375,-0.9784698486328125,-0.163848876953125,0.07427978515625
1772534335196101600,1.7511015625,-0.9837799072265625,-0.1646881103515625,0.0770263671875
1772534335206117600,1.76111767578125,-0.9901580810546875,-0.1608734130859375,0.07830810546875
1772534335216133600,1.771133544921875,-0.996429443359375,-0.1594390869140625,0.0812835693359375
1772534335226149600,1.781149658203125,-0.9987945556640625,-0.160186767578125,0.08221435546875
1772534335236166000,1.791165771484375,-1.00128173828125,-0.16204833984375,0.0828704833984375
1772534335246182700,1.8011826171875,-1.0019989013671875,-0.1645660400390625,0.0809326171875
1772534335256198700,1.81119873046875,-0.9983978271484375,-0.1614837646484375,0.080291748046875
1772534335266214700,1.821214599609375,-0.9924163818359375,-0.1620025634765625,0.0810546875
1772534335276230700,1.831230712890625,-0.9868011474609375,-0.1646575927734375,0.0805816650390625
1772534335286246700,1.84124658203125,-0.9839019775390625,-0.1697998046875,0.0817413330078125
1772534335296263700,1.851263671875,-0.980804443359375,-0.1701507568359375,0.081451416015625
1772534335306279700,1.86127978515625,-0.9781036376953125,-0.166595458984375,0.078338623046875
1772534335316295700,1.871295654296875,-0.9752960205078125,-0.1634063720703125,0.076263427734375
1772534335326311700,1.881311767578125,-0.9794921875,-0.16357421875,0.07281494140625
1772534335336327700,1.89132763671875,-0.9842376708984375,-0.1608734130859375,0.0706329345703125
1772534335346344700,1.9013447265625,-0.98309326171875,-0.16107177734375,0.0747528076171875
1772534335356360700,1.911360595703125,-0.9855194091796875,-0.1643218994140625,0.0771942138671875
1772534335366376700,1.921376708984375,-0.990753173828125,-0.1692047119140625,0.0828704833984375
1772534335376392700,1.931392822265625,-0.9993133544921875,-0.1728363037109375,0.087005615234375
1772534335386408400,1.941408447265625,-0.9927215576171875,-0.17413330078125,0.0880126953125
1772534335396425700,1.95142578125,-0.98638916015625,-0.17132568359375,0.0785064697265625
1772534335406443000,1.961443115234375,-0.97784423828125,-0.1678924560546875,0.0772857666015625
1772534335416458800,1.971458740234375,-0.975616455078125,-0.16705322265625,0.0764007568359375
1772534335426474800,1.981474853515625,-0.97113037109375,-0.1658477783203125,0.0758056640625
1772534335436490800,1.99149072265625,-0.9683074951171875,-0.16436767578125,0.07513427734375
1772534335446508000,2.001508056640625,-0.9685821533203125,-0.167022705078125,0.0748443603515625
1772534335456523800,2.011523681640625,-0.9631500244140625,-0.1683349609375,0.0800628662109375
1772534335466539800,2.021539794921875,-0.961212158203125,-0.1736602783203125,0.0829925537109375
1772534335476555800,2.0315556640625,-0.9659271240234375,-0.1775665283203125,0.084564208984375
1772534335486571800,2.04157177734375,-0.9708709716796875,-0.175201416015625,0.0827484130859375
1772534335496589000,2.051589111328125,-0.9714202880859375,-0.1707000732421875,0.0802764892578125
1772534335506604800,2.061604736328125,-0.9751129150390625,-0.16754150390625,0.077911376953125
1772534335516620800,2.071620849609375,-0.9783172607421875,-0.167877197265625,0.078826904296875
1772534335526636800,2.08163671875,-0.9840850830078125,-0.1712799072265625,0.0804901123046875
1772534335536652800,2.09165283203125,-0.993804931640625,-0.1733245849609375,0.085723876953125
1772534335546670000,2.101670166015625,-1.005950927734375,-0.1751556396484375,0.08795166015625
1772534335556685800,2.111685791015625,-1.008697509765625,-0.1755828857421875,0.0812225341796875
1772534335566701800,2.121701904296875,-1.007781982421875,-0.1759185791015625,0.0750579833984375
1772534335576717800,2.1317177734375,-1.00439453125,-0.16888427734375,0.0655670166015625
1772534335586733800,2.14173388671875,-1.0000762939453125,-0.157073974609375,0.0718994140625
1772534335596750800,2.151750732421875,-0.9718475341796875,-0.162841796875,0.0789337158203125
1772534335606766800,2.161766845703125,-0.9518280029296875,-0.1697998046875,0.06964111328125
1772534335616782800,2.171782958984375,-0.9528961181640625,-0.1761016845703125,0.072479248046875
1772534335626798800,2.181798828125,-0.93951416015625,-0.1721649169921875,0.0804290771484375
1772534335636814800,2.19181494140625,-0.9411468505859375,-0.1738433837890625,0.0850982666015625
1772534335646831900,2.201831787109375,-0.9535369873046875,-0.1749725341796875,0.089141845703125
1772534335656848000,2.211847900390625,-0.96405029296875,-0.17578125,0.09033203125
1772534335666863900,2.22186376953125,-0.9751434326171875,-0.17352294921875,0.090576171875
1772534335676880000,2.2318798828125,-0.98870849609375,-0.1730804443359375,0.0894927978515625
1772534335686895900,2.241895751953125,-1.004425048828125,-0.173919677734375,0.0895233154296875
1772534335696912600,2.25191259765625,-1.020660400390625,-0.1732940673828125,0.091583251953125
1772534335706929000,2.261928955078125,-1.021881103515625,-0.1727142333984375,0.0907135009765625
1772534335716945000,2.27194482421875,-1.010833740234375,-0.175079345703125,0.0853424072265625
1772534335726961000,2.2819609375,-0.9953765869140625,-0.1739501953125,0.0776214599609375
1772534335736977000,2.291976806640625,-0.9803619384765625,-0.172943115234375,0.07080078125
1772534335746993700,2.30199365234375,-0.96710205078125,-0.1722259521484375,0.0712432861328125
1772534335757010000,2.312010009765625,-0.9559326171875,-0.1684722900390625,0.0682373046875
1772534335767026000,2.32202587890625,-0.9481048583984375,-0.1703033447265625,0.0655059814453125
1772534335777042000,2.3320419921875,-0.9524383544921875,-0.171966552734375,0.0672760009765625
1772534335787058000,2.342057861328125,-0.96636962890625,-0.1753082275390625,0.0737152099609375
1772534335797074700,2.35207470703125,-0.977020263671875,-0.1772003173828125,0.0804443359375
1772534335807090700,2.362090576171875,-0.982025146484375,-0.1781768798828125,0.0850982666015625
1772534335817107000,2.37210693359375,-0.99237060546875,-0.1814727783203125,0.08819580078125
1772534335827123000,2.382123046875,-1.000030517578125,-0.1805877685546875,0.08477783203125
1772534335837139000,2.392138916015625,-1.0027618408203125,-0.1734466552734375,0.080963134765625
1772534335847155700,2.40215576171875,-1.0016632080078125,-0.17120361328125,0.0788421630859375
1772534335857171700,2.412171630859375,-0.9996490478515625,-0.1697235107421875,0.077117919921875
1772534335867188000,2.42218798828125,-0.994232177734375,-0.170013427734375,0.07415771484375
1772534335877204000,2.432203857421875,-0.9832305908203125,-0.16900634765625,0.0759735107421875
1772534335887220000,2.442219970703125,-0.973907470703125,-0.171295166015625,0.0793914794921875
1772534335897236700,2.45223681640625,-0.961761474609375,-0.173919677734375,0.0799102783203125
1772534335907252700,2.462252685546875,-0.9602508544921875,-0.1775970458984375,0.0809478759765625
1772534335917268700,2.472268798828125,-0.9653472900390625,-0.1772308349609375,0.081756591796875
1772534335927285000,2.482284912109375,-0.9699249267578125,-0.1756591796875,0.0853424072265625
1772534335937301000,2.492301025390625,-0.9700469970703125,-0.1747283935546875,0.084320068359375
1772534335947317800,2.50231787109375,-0.9741973876953125,-0.174041748046875,0.0803680419921875
1772534335957333800,2.512333740234375,-0.9959259033203125,-0.1705780029296875,0.0808868408203125
1772534335967349800,2.522349853515625,-1.0082550048828125,-0.1702117919921875,0.081634521484375
1772534335977366000,2.532365966796875,-1.005340576171875,-0.1716461181640625,0.078399658203125
1772534335987382000,2.542382080078125,-0.9940338134765625,-0.1709442138671875,0.0713043212890625
1772534335997398800,2.552398681640625,-0.9849395751953125,-0.1731414794921875,0.0665740966796875
1772534336007414800,2.562414794921875,-0.9796600341796875,-0.1722412109375,0.066009521484375
1772534336017430800,2.5724306640625,-0.9810943603515625,-0.167266845703125,0.066741943359375
1772534336027446800,2.58244677734375,-0.9875640869140625,-0.1645965576171875,0.06976318359375
1772534336037463000,2.592463134765625,-0.9839630126953125,-0.1646728515625,0.06817626953125
1772534336047479800,2.602479736328125,-0.97509765625,-0.167388916015625,0.065093994140625
1772534336057495800,2.612495849609375,-0.9672698974609375,-0.168731689453125,0.0649871826171875
1772534336067511800,2.62251171875,-0.97198486328125,-0.17132568359375,0.0698394775390625
1772534336077527800,2.63252783203125,-0.98565673828125,-0.1761016845703125,0.079681396484375
1772534336087544000,2.6425439453125,-0.9905548095703125,-0.1757659912109375,0.090972900390625
1772534336097560800,2.652560791015625,-0.9817047119140625,-0.177001953125,0.0933837890625
1772534336107576800,2.662576904296875,-0.9753570556640625,-0.179351806640625,0.0876312255859375
1772534336117592800,2.6725927734375,-0.9745025634765625,-0.175323486328125,0.0802764892578125
1772534336127608800,2.68260888671875,-0.9752960205078125,-0.168914794921875,0.0728912353515625
1772534336137625000,2.692625,-0.979034423828125,-0.1608428955078125,0.0667266845703125
1772534336147641900,2.702641845703125,-0.9827117919921875,-0.15777587890625,0.0652618408203125
1772534336157657900,2.712657958984375,-0.983245849609375,-0.1627197265625,0.0671844482421875
1772534336167673900,2.722673828125,-0.9822540283203125,-0.168670654296875,0.0713043212890625
1772534336177689900,2.73268994140625,-0.98297119140625,-0.175384521484375,0.0793914794921875
1772534336187705900,2.742705810546875,-0.983428955078125,-0.17547607421875,0.0834808349609375
1772534336197723000,2.752722900390625,-0.98681640625,-0.17828369140625,0.083251953125
1772534336207739000,2.76273876953125,-0.990325927734375,-0.1746368408203125,0.0781707763671875
1772534336217755000,2.7727548828125,-0.9912261962890625,-0.1683197021484375,0.07452392578125
1772534336227771000,2.78277099609375,-0.9885406494140625,-0.164703369140625,0.07330322265625
1772534336237787000,2.792786865234375,-0.9817047119140625,-0.167999267578125,0.07171630859375
1772534336247804000,2.802803955078125,-0.971343994140625,-0.1714324951171875,0.0691680908203125
1772534336257820000,2.81281982421875,-0.9668121337890625,-0.1690216064453125,0.064971923828125
1772534336267836000,2.8228359375,-0.9705352783203125,-0.1670989990234375,0.0643157958984375
1772534336277852000,2.832851806640625,-0.976654052734375,-0.16595458984375,0.066314697265625
1772534336287868000,2.842867919921875,-0.9860076904296875,-0.1660308837890625,0.0715789794921875
1772534336297885000,2.852885009765625,-0.990875244140625,-0.1710662841796875,0.078338623046875
1772534336307901000,2.86290087890625,-0.9923553466796875,-0.1733245849609375,0.079376220703125
1772534336317917000,2.8729169921875,-0.982452392578125,-0.1721954345703125,0.074981689453125
1772534336327933000,2.882932861328125,-0.9770965576171875,-0.167205810546875,0.0654144287109375
1772534336337948700,2.89294873046875,-0.9794921875,-0.1634674072265625,0.0693817138671875
1772534336347966000,2.902966064453125,-0.98126220703125,-0.161407470703125,0.068603515625
1772534336357982000,2.91298193359375,-0.9899749755859375,-0.164276123046875,0.0744476318359375
1772534336367998000,2.922998046875,-1.0026092529296875,-0.1690521240234375,0.0813446044921875
1772534336378014000,2.933013916015625,-1.005889892578125,-0.173004150390625,0.086090087890625
1772534336388029700,2.94302978515625,-0.9993133544921875,-0.1738128662109375,0.086334228515625
1772534336398047000,2.953046875,-0.98931884765625,-0.173492431640625,0.082061767578125
1772534336408061700,2.963061767578125,-0.98095703125,-0.168853759765625,0.0794677734375
1772534336418077700,2.97307763671875,-0.973846435546875,-0.16510009765625,0.07708740234375
1772534336428093700,2.98309375,-0.9666748046875,-0.1652679443359375,0.0776824951171875
1772534336438110000,2.99310986328125,-0.9625701904296875,-0.1682281494140625,0.0769195556640625
1772534336448126700,3.003126708984375,-0.9589385986328125,-0.1711273193359375,0.07769775390625
1772534336458142700,3.013142822265625,-0.9574432373046875,-0.1716766357421875,0.078369140625
1772534336468158700,3.02315869140625,-0.9602203369140625,-0.1676483154296875,0.07830810546875
1772534336478174700,3.0331748046875,-0.9747161865234375,-0.1640625,0.083465576171875
1772534336488191000,3.04319091796875,-0.9945220947265625,-0.1692657470703125,0.088531494140625
1772534336498207700,3.053207763671875,-1.001251220703125,-0.172882080078125,0.08843994140625
1772534336508223700,3.0632236328125,-0.996612548828125,-0.175933837890625,0.0865478515625
1772534336518239700,3.07323974609375,-0.9892578125,-0.1755828857421875,0.0829620361328125
1772534336528255700,3.083255859375,-0.982147216796875,-0.171661376953125,0.079681396484375
1772534336538271700,3.093271728515625,-0.981353759765625,-0.168701171875,0.0778656005859375
1772534336548288800,3.103288818359375,-0.9899444580078125,-0.1662139892578125,0.0770263671875
1772534336558304800,3.1133046875,-0.99652099609375,-0.1638641357421875,0.07916259765625
1772534336568320800,3.12332080078125,-0.990966796875,-0.1647491455078125,0.0830230712890625
1772534336578336800,3.133336669921875,-0.9776611328125,-0.1717987060546875,0.0839691162109375
1772534336588352800,3.143352783203125,-0.963287353515625,-0.173736572265625,0.0814971923828125
1772534336598369800,3.153369873046875,-0.957916259765625,-0.1754913330078125,0.0819244384765625
1772534336608385800,3.1633857421875,-0.9652557373046875,-0.1748809814453125,0.084869384765625
1772534336618401800,3.17340185546875,-0.9752197265625,-0.171478271484375,0.083404541015625
1772534336628417800,3.183417724609375,-0.9786376953125,-0.16949462890625,0.0805206298828125
1772534336638433800,3.193433837890625,-0.9817047119140625,-0.171539306640625,0.076629638671875
1772534336648450800,3.203450927734375,-0.9807891845703125,-0.172027587890625,0.0753936767578125
1772534336658466800,3.213466796875,-0.9835052490234375,-0.1744232177734375,0.07568359375
1772534336668482800,3.22348291015625,-0.9915618896484375,-0.17266845703125,0.0773162841796875
1772534336678498800,3.233498779296875,-0.995880126953125,-0.1693878173828125,0.0760498046875
1772534336688514800,3.243514892578125,-0.9955596923828125,-0.169464111328125,0.0741424560546875
1772534336698531800,3.25353173828125,-0.9887542724609375,-0.1659088134765625,0.0722503662109375
1772534336708547800,3.2635478515625,-0.9796600341796875,-0.1663970947265625,0.0690460205078125
1772534336718563800,3.273563720703125,-0.97125244140625,-0.166900634765625,0.0671234130859375
1772534336728579800,3.283579833984375,-0.9705047607421875,-0.16668701171875,0.0709991455078125
1772534336738595800,3.293595947265625,-0.9740447998046875,-0.1674346923828125,0.07672119140625
1772534336748612900,3.30361279296875,-0.9795074462890625,-0.169464111328125,0.0816192626953125
1772534336758628900,3.31362890625,-0.9843597412109375,-0.1697540283203125,0.08612060546875
1772534336768644900,3.323644775390625,-0.9743804931640625,-0.168426513671875,0.0833282470703125
1772534336778660900,3.333660888671875,-0.976837158203125,-0.170867919921875,0.0853729248046875
1772534336788676900,3.3436767578125,-0.99176025390625,-0.1711883544921875,0.0929718017578125
1772534336798694000,3.35369384765625,-0.9980621337890625,-0.1698150634765625,0.0934600830078125
1772534336808710000,3.3637099609375,-0.9930877685546875,-0.1676025390625,0.0925445556640625
1772534336818726000,3.373725830078125,-0.988677978515625,-0.1682891845703125,0.090362548828125
1772534336828742000,3.383741943359375,-0.9879150390625,-0.169921875,0.0906829833984375
1772534336838757600,3.393757568359375,-0.9873046875,-0.1699981689453125,0.0888519287109375
1772534336848774700,3.403774658203125,-0.981842041015625,-0.1703948974609375,0.0853271484375
1772534336858791000,3.413791015625,-0.9769134521484375,-0.1687774658203125,0.081787109375
1772534336868807000,3.423806884765625,-0.976104736328125,-0.16949462890625,0.0805511474609375
1772534336878823000,3.433822998046875,-0.9756011962890625,-0.1689605712890625,0.0829620361328125
1772534336888838700,3.443838623046875,-0.970611572265625,-0.16986083984375,0.0833587646484375
1772534336898855700,3.453855712890625,-0.9705963134765625,-0.17218017578125,0.0848541259765625
1772534336908872000,3.463871826171875,-0.971343994140625,-0.1717987060546875,0.0836639404296875
1772534336918888000,3.473887939453125,-0.9736480712890625,-0.16839599609375,0.0829010009765625
1772534336928904000,3.483904052734375,-0.98272705078125,-0.16937255859375,0.080108642578125
1772534336938919700,3.493919677734375,-0.993408203125,-0.1675262451171875,0.07635498046875
1772534336948936700,3.503936767578125,-1.000152587890625,-0.1662445068359375,0.07421875
1772534336958952700,3.51395263671875,-0.9998321533203125,-0.1647186279296875,0.076141357421875
1772534336968969000,3.523968994140625,-0.9919891357421875,-0.167266845703125,0.0769805908203125
1772534336978985000,3.53398486328125,-0.9859466552734375,-0.1674041748046875,0.07586669921875
1772534336989000700,3.544000732421875,-0.979736328125,-0.167388916015625,0.078277587890625
1772534336999017700,3.554017822265625,-0.9752044677734375,-0.1674957275390625,0.0787353515625
1772534337009033700,3.56403369140625,-0.975494384765625,-0.166168212890625,0.0764007568359375
1772534337019050000,3.574050048828125,-0.98126220703125,-0.16595458984375,0.0749053955078125
1772534337029065700,3.584065673828125,-0.9840850830078125,-0.163604736328125,0.075592041015625
1772534337039081700,3.594081787109375,-0.9878692626953125,-0.16412353515625,0.076873779296875
1772534337049097700,3.60409765625,-0.987030029296875,-0.168426513671875,0.0772705078125
1772534337059114800,3.61411474609375,-0.98309326171875,-0.1685333251953125,0.07672119140625
1772534337069131000,3.624131103515625,-0.9805145263671875,-0.166839599609375,0.076324462890625
1772534337079146800,3.634146728515625,-0.98028564453125,-0.1646575927734375,0.0764617919921875
1772534337089162800,3.644162841796875,-0.9812164306640625,-0.1641693115234375,0.077789306640625
1772534337099178800,3.6541787109375,-0.9823455810546875,-0.1641693115234375,0.07794189453125
1772534337109195800,3.66419580078125,-0.9815826416015625,-0.165374755859375,0.078338623046875
1772534337119211800,3.674211669921875,-0.9883270263671875,-0.168182373046875,0.0830841064453125
1772534337129227800,3.684227783203125,-0.9987640380859375,-0.1679840087890625,0.0854644775390625
1772534337139243800,3.694243896484375,-0.99945068359375,-0.167633056640625,0.08782958984375
1772534337149259800,3.704259765625,-0.993804931640625,-0.16680908203125,0.087982177734375
1772534337159276800,3.71427685546875,-0.9863433837890625,-0.1673431396484375,0.0847015380859375
1772534337169292800,3.724292724609375,-0.9765472412109375,-0.1648712158203125,0.0840301513671875
1772534337179308800,3.734308837890625,-0.9658203125,-0.164520263671875,0.0843353271484375
1772534337189324800,3.74432470703125,-0.962860107421875,-0.1714019775390625,0.0851287841796875
1772534337199340800,3.7543408203125,-0.968719482421875,-0.173126220703125,0.087890625
1772534337209357800,3.76435791015625,-0.971893310546875,-0.1708526611328125,0.0927734375
1772534337219373800,3.774373779296875,-0.9762725830078125,-0.17144775390625,0.0919189453125
1772534337229389600,3.7843896484375,-0.9749755859375,-0.169891357421875,0.084808349609375
1772534337239405800,3.79440576171875,-0.9758148193359375,-0.16375732421875,0.078704833984375
1772534337249421800,3.804421875,-0.986846923828125,-0.1641693115234375,0.0836944580078125
1772534337259438800,3.81443896484375,-1.0030364990234375,-0.1667938232421875,0.088287353515625
1772534337269454600,3.82445458984375,-1.0059356689453125,-0.1684112548828125,0.0889739990234375
1772534337279470600,3.834470703125,-0.9917755126953125,-0.170013427734375,0.0843658447265625
1772534337289486800,3.84448681640625,-0.9772491455078125,-0.170440673828125,0.077911376953125
1772534337299502800,3.8545029296875,-0.97216796875,-0.167877197265625,0.073089599609375
1772534337309520000,3.864519775390625,-0.9790802001953125,-0.1626434326171875,0.0720367431640625
1772534337319535600,3.87453564453125,-0.989715576171875,-0.1595916748046875,0.0771636962890625
1772534337329551600,3.884551513671875,-0.9967498779296875,-0.1613922119140625,0.0841522216796875
1772534337339567900,3.89456787109375,-0.9944000244140625,-0.168304443359375,0.0840301513671875
1772534337349584000,3.904583984375,-0.98095703125,-0.17266845703125,0.0835723876953125
1772534337359601000,3.914600830078125,-0.9673614501953125,-0.1728057861328125,0.0833892822265625
1772534337369616600,3.92461669921875,-0.96026611328125,-0.169708251953125,0.082977294921875
1772534337379632600,3.934632568359375,-0.9645538330078125,-0.16741943359375,0.0837860107421875
1772534337389648600,3.944648681640625,-0.9770660400390625,-0.1662750244140625,0.0852508544921875
1772534337399665000,3.954664794921875,-0.991607666015625,-0.1655731201171875,0.0851898193359375
1772534337409681400,3.964681396484375,-0.9952392578125,-0.1680450439453125,0.0826263427734375
1772534337419698400,3.974698486328125,-0.9891510009765625,-0.170135498046875,0.0822296142578125
1772534337429714400,3.98471435546875,-0.9863128662109375,-0.170196533203125,0.0804595947265625
1772534337439730400,3.99473046875,-0.990325927734375,-0.16961669921875,0.080322265625
1772534337449746400,4.004746337890625,-0.9847869873046875,-0.167327880859375,0.0794525146484375
1772534337459762400,4.014762451171875,-0.977813720703125,-0.1651153564453125,0.0747833251953125
1772534337469779500,4.024779541015625,-0.9706878662109375,-0.1650390625,0.0680999755859375
1772534337479795500,4.03479541015625,-0.9700775146484375,-0.165252685546875,0.07135009765625
1772534337489811500,4.0448115234375,-0.978240966796875,-0.16729736328125,0.08026123046875
1772534337499827500,4.054827392578125,-0.9808502197265625,-0.1696624755859375,0.0828094482421875
1772534337509843500,4.064843505859375,-0.9790191650390625,-0.1727447509765625,0.083343505859375
1772534337519860500,4.074860595703125,-0.9772186279296875,-0.173828125,0.0811920166015625
1772534337529876500,4.08487646484375,-0.9815216064453125,-0.1705474853515625,0.07940673828125
1772534337539892500,4.094892578125,-0.9840545654296875,-0.1675567626953125,0.07916259765625
1772534337549908500,4.104908447265625,-0.987945556640625,-0.1664886474609375,0.07916259765625
1772534337559924500,4.114924560546875,-0.9867095947265625,-0.168121337890625,0.0787506103515625
1772534337569941500,4.12494140625,-0.9833526611328125,-0.1697845458984375,0.0761260986328125
1772534337579957500,4.13495751953125,-0.984375,-0.1689910888671875,0.075836181640625
1772534337589973500,4.144973388671875,-0.9886627197265625,-0.1684722900390625,0.08013916015625
1772534337599989500,4.154989501953125,-0.989532470703125,-0.1685943603515625,0.0814361572265625
1772534337610005500,4.165005615234375,-0.9861602783203125,-0.169219970703125,0.0772552490234375
1772534337620022300,4.175022216796875,-0.9825439453125,-0.168060302734375,0.0784912109375
1772534337630038500,4.18503857421875,-0.9796600341796875,-0.16766357421875,0.080535888671875
1772534337640054500,4.195054443359375,-0.9788970947265625,-0.171539306640625,0.08404541015625
1772534337650070500,4.205070556640625,-0.9841461181640625,-0.17156982421875,0.0842132568359375
1772534337660086300,4.215086181640625,-0.9847412109375,-0.1719512939453125,0.0841522216796875
1772534337670103300,4.225103271484375,-0.979644775390625,-0.173126220703125,0.0831756591796875
1772534337680119600,4.23511962890625,-0.97613525390625,-0.1741790771484375,0.081634521484375
1772534337690135600,4.245135498046875,-0.972137451171875,-0.173431396484375,0.0777587890625
1772534337700151600,4.255151611328125,-0.97381591796875,-0.1705780029296875,0.07855224609375
1772534337710167300,4.265167236328125,-0.9732513427734375,-0.17108154296875,0.0779571533203125
1772534337720184300,4.275184326171875,-0.9715576171875,-0.1682891845703125,0.074371337890625
1772534337730200300,4.285200439453125,-0.9680328369140625,-0.1684417724609375,0.07440185546875
1772534337740216600,4.295216552734375,-0.96612548828125,-0.1715545654296875,0.0767822265625
1772534337750232600,4.305232666015625,-0.9684600830078125,-0.1743011474609375,0.0765380859375
1772534337760248300,4.315248291015625,-0.9799652099609375,-0.17437744140625,0.077545166015625
1772534337770264300,4.325264404296875,-0.9860992431640625,-0.170654296875,0.0790557861328125
1772534337780281300,4.33528125,-0.9850311279296875,-0.171051025390625,0.079193115234375
1772534337790297600,4.345297607421875,-0.981536865234375,-0.1727142333984375,0.0766448974609375
1772534337800313600,4.355313720703125,-0.9794158935546875,-0.1701507568359375,0.073883056640625
1772534337810329300,4.365329345703125,-0.9867706298828125,-0.171722412109375,0.0786895751953125
1772534337820345300,4.375345458984375,-0.9947357177734375,-0.172027587890625,0.08331298828125
1772534337830362400,4.3853623046875,-0.9967803955078125,-0.1716156005859375,0.08734130859375
1772534337840378600,4.395378662109375,-0.99310302734375,-0.1720123291015625,0.0850677490234375
1772534337850394400,4.405394287109375,-0.9915924072265625,-0.1733245849609375,0.0848846435546875
1772534337860410400,4.415410400390625,-0.9886016845703125,-0.174774169921875,0.0859222412109375
1772534337870426400,4.42542626953125,-0.984375,-0.176025390625,0.0887451171875
1772534337880443400,4.435443359375,-0.977325439453125,-0.1754913330078125,0.0866546630859375
1772534337890459400,4.44545947265625,-0.969024658203125,-0.1757659912109375,0.082794189453125
1772534337900475400,4.455475341796875,-0.972564697265625,-0.1751861572265625,0.0814056396484375
1772534337910491400,4.465491455078125,-0.9720611572265625,-0.1730804443359375,0.0795440673828125
1772534337920507400,4.47550732421875,-0.968597412109375,-0.1707763671875,0.075531005859375
1772534337930524400,4.4855244140625,-0.9688568115234375,-0.1734161376953125,0.0721435546875
1772534337940540400,4.49554052734375,-0.97186279296875,-0.1758575439453125,0.0724029541015625
1772534337950556400,4.505556396484375,-0.975128173828125,-0.1778717041015625,0.0748748779296875
1772534337960572400,4.515572509765625,-0.9832763671875,-0.1770782470703125,0.0752410888671875
1772534337970588400,4.52558837890625,-0.986175537109375,-0.1737213134765625,0.0746307373046875
1772534337980605400,4.53560546875,-0.9902496337890625,-0.1712493896484375,0.0690155029296875
1772534337990621400,4.545621337890625,-0.9890899658203125,-0.168182373046875,0.0633392333984375
1772534338000637200,4.55563720703125,-0.9866485595703125,-0.16387939453125,0.060577392578125
1772534338010653400,4.5656533203125,-0.99560546875,-0.1679840087890625,0.0659637451171875
1772534338020669400,4.57566943359375,-1.0000457763671875,-0.1737060546875,0.0742034912109375
1772534338030686500,4.5856865234375,-0.998931884765625,-0.176849365234375,0.083160400390625
1772534338040702500,4.595702392578125,-0.988494873046875,-0.178802490234375,0.0850372314453125
1772534338050718200,4.60571826171875,-0.971527099609375,-0.1753997802734375,0.0836639404296875
1772534338060734500,4.615734375,-0.962890625,-0.170501708984375,0.078582763671875
1772534338070750500,4.62575048828125,-0.96185302734375,-0.166656494140625,0.079315185546875
1772534338080766500,4.635766357421875,-0.9653778076171875,-0.167938232421875,0.081512451171875
1772534338090783200,4.645783203125,-0.969879150390625,-0.1717529296875,0.0872955322265625
1772534338100799200,4.65579931640625,-0.9736328125,-0.176513671875,0.090087890625
1772534338110815500,4.6658154296875,-0.9782867431640625,-0.175689697265625,0.089813232421875
1772534338120831500,4.67583154296875,-0.981201171875,-0.17413330078125,0.0933990478515625
1772534338130847500,4.685847412109375,-0.9815673828125,-0.174591064453125,0.09393310546875
1772534338140864300,4.6958642578125,-0.9832305908203125,-0.1772308349609375,0.0902099609375
1772534338150880300,4.70588037109375,-0.9938201904296875,-0.178070068359375,0.0878753662109375
1772534338160896300,4.715896240234375,-0.999481201171875,-0.17437744140625,0.0882720947265625
1772534338170912500,4.72591259765625,-0.9978485107421875,-0.1708831787109375,0.084716796875
1772534338180928500,4.735928466796875,-0.990264892578125,-0.169677734375,0.077972412109375
1772534338190945300,4.7459453125,-0.97613525390625,-0.1666412353515625,0.0697784423828125
1772534338200961300,4.755961181640625,-0.969482421875,-0.1634368896484375,0.070465087890625
1772534338210977300,4.765977294921875,-0.9686126708984375,-0.1651153564453125,0.0736083984375
1772534338220993500,4.77599365234375,-0.9674530029296875,-0.1684722900390625,0.0739593505859375
1772534338231009500,4.786009521484375,-0.9668731689453125,-0.1697235107421875,0.07501220703125
1772534338241026300,4.7960263671875,-0.97161865234375,-0.171630859375,0.077850341796875
1772534338251042300,4.806042236328125,-0.9869384765625,-0.1721038818359375,0.07769775390625
1772534338261058300,4.816058349609375,-0.9967193603515625,-0.169158935546875,0.0814056396484375
1772534338271074300,4.82607421875,-1.0003509521484375,-0.1673431396484375,0.084564208984375
1772534338281090600,4.836090576171875,-0.99493408203125,-0.1683807373046875,0.0808868408203125
1772534338291107300,4.846107421875,-0.9882659912109375,-0.1679840087890625,0.079833984375
1772534338301123300,4.856123291015625,-0.9840850830078125,-0.166229248046875,0.0803985595703125
1772534338311139300,4.866139404296875,-0.9823150634765625,-0.1663970947265625,0.076202392578125
1772534338321155300,4.8761552734375,-0.9821319580078125,-0.167694091796875,0.074371337890625
1772534338331171600,4.886171630859375,-0.9882659912109375,-0.1650390625,0.076995849609375
1772534338341188400,4.896188232421875,-0.9907989501953125,-0.1663360595703125,0.0813751220703125
1772534338351204400,4.906204345703125,-0.98663330078125,-0.1696624755859375,0.0835418701171875
1772534338361220400,4.916220458984375,-0.9768829345703125,-0.1721649169921875,0.08392333984375
1772534338371236400,4.926236328125,-0.9716796875,-0.1743621826171875,0.0832977294921875
1772534338381252400,4.93625244140625,-0.9735565185546875,-0.17303466796875,0.081451416015625
1772534338391268600,4.9462685546875,-0.97296142578125,-0.16790771484375,0.0824432373046875
1772534338401285400,4.956285400390625,-0.9775543212890625,-0.16693115234375,0.078765869140625
1772534338411301000,4.966301025390625,-0.985809326171875,-0.1701812744140625,0.079559326171875
1772534338421317000,4.976317138671875,-0.9901123046875,-0.1676788330078125,0.0839691162109375
1772534338431333000,4.9863330078125,-0.9882049560546875,-0.1697235107421875,0.0837860107421875
1772534338441349400,4.996349365234375,-0.98468017578125,-0.1728057861328125,0.081268310546875
1772534338451366100,5.0063662109375,-0.9812469482421875,-0.171478271484375,0.0813140869140625
1772534338461382100,5.016382080078125,-0.9791717529296875,-0.1718902587890625,0.08233642578125
1772534338471398100,5.026398193359375,-0.9864501953125,-0.172943115234375,0.0793609619140625
1772534338481414100,5.0364140625,-0.9907379150390625,-0.168212890625,0.0771636962890625
1772534338491430100,5.04643017578125,-0.9907379150390625,-0.166778564453125,0.0781097412109375
1772534338501447200,5.056447265625,-0.9875335693359375,-0.1668243408203125,0.07666015625
1772534338511463200,5.066463134765625,-0.984130859375,-0.1719970703125,0.0766143798828125
1772534338521479200,5.076479248046875,-0.980926513671875,-0.173431396484375,0.0791778564453125
1772534338531495200,5.0864951171875,-0.9720001220703125,-0.17401123046875,0.0822601318359375
1772534338541511200,5.09651123046875,-0.9691314697265625,-0.1728668212890625,0.0821380615234375
1772534338551528200,5.106528076171875,-0.9658203125,-0.1695098876953125,0.0789031982421875
1772534338561544200,5.116544189453125,-0.9716033935546875,-0.1660003662109375,0.07452392578125
1772534338571560200,5.126560302734375,-0.97808837890625,-0.1663055419921875,0.0760040283203125
1772534338581576200,5.136576171875,-0.982421875,-0.1695556640625,0.079986572265625
1772534338591592200,5.14659228515625,-0.9870147705078125,-0.17388916015625,0.0829315185546875
1772534338601608000,5.15660791015625,-0.987457275390625,-0.1782073974609375,0.0863494873046875
1772534338611625200,5.166625244140625,-0.9883575439453125,-0.1760711669921875,0.0838775634765625
1772534338621641200,5.17664111328125,-0.986297607421875,-0.1722412109375,0.0787811279296875
1772534338631657200,5.1866572265625,-0.985626220703125,-0.1674041748046875,0.0701141357421875
1772534338641673200,5.196673095703125,-0.9862213134765625,-0.164886474609375,0.0677947998046875
1772534338651689000,5.20668896484375,-0.9891357421875,-0.16510009765625,0.0675201416015625
1772534338661706200,5.216706298828125,-0.99005126953125,-0.1678314208984375,0.0681610107421875
1772534338671722200,5.22672216796875,-0.9893035888671875,-0.1702880859375,0.0706939697265625
1772534338681738200,5.23673828125,-0.985107421875,-0.171783447265625,0.07318115234375
1772534338691754000,5.24675390625,-0.9821014404296875,-0.1737213134765625,0.074615478515625
1772534338701770000,5.25677001953125,-0.9815216064453125,-0.170745849609375,0.0737762451171875
1772534338711787300,5.266787353515625,-0.9766387939453125,-0.1670989990234375,0.0736541748046875
1772534338721803300,5.27680322265625,-0.975311279296875,-0.16717529296875,0.073272705078125
1772534338731819300,5.2868193359375,-0.977630615234375,-0.167022705078125,0.0767822265625
1772534338741835000,5.2968349609375,-0.9835205078125,-0.17041015625,0.0831756591796875
1772534338751851000,5.30685107421875,-0.9861907958984375,-0.1735687255859375,0.0879058837890625
1772534338761868300,5.316868408203125,-0.9837188720703125,-0.173675537109375,0.0871124267578125
1772534338772510000,5.327510009765625,-0.98291015625,-0.1741790771484375,0.0844879150390625
1772534338782526200,5.337526123046875,-0.978790283203125,-0.17327880859375,0.083770751953125
1772534338792542200,5.347542236328125,-0.971038818359375,-0.1717071533203125,0.0806427001953125
1772534338802558200,5.35755810546875,-0.96917724609375,-0.169647216796875,0.0792999267578125
1772534338812574200,5.36757421875,-0.9716796875,-0.1719207763671875,0.0798492431640625
1772534338822591000,5.377591064453125,-0.97332763671875,-0.173736572265625,0.0807342529296875
1772534338832607200,5.387607177734375,-0.97412109375,-0.172515869140625,0.08184814453125
1772534338842623200,5.397623291015625,-0.975921630859375,-0.1727752685546875,0.0844879150390625
1772534338852639200,5.40763916015625,-0.974395751953125,-0.17559814453125,0.083953857421875
1772534338862655200,5.4176552734375,-0.9700469970703125,-0.1757965087890625,0.080230712890625
1772534338872672000,5.427672119140625,-0.9687957763671875,-0.1733551025390625,0.0792694091796875
1772534338882688000,5.43768798828125,-0.977783203125,-0.1721954345703125,0.077423095703125
1772534338892704300,5.447704345703125,-0.9929962158203125,-0.1673431396484375,0.0770721435546875
1772534338902720300,5.45772021484375,-1.004425048828125,-0.16400146484375,0.0754852294921875
1772534338912736300,5.467736328125,-1.005279541015625,-0.164459228515625,0.078094482421875
1772534338922753000,5.4777529296875,-0.999176025390625,-0.16839599609375,0.078521728515625
1772534338932769000,5.48776904296875,-0.9841156005859375,-0.17352294921875,0.08203125
1772534338942785300,5.497785400390625,-0.97119140625,-0.1777801513671875,0.0883331298828125
1772534338952801300,5.50780126953125,-0.9637451171875,-0.1801910400390625,0.08856201171875
1772534338962817300,5.5178173828125,-0.965728759765625,-0.177154541015625,0.086883544921875
1772534338972833300,5.527833251953125,-0.9669647216796875,-0.1799163818359375,0.0908050537109375
1772534338982850000,5.53785009765625,-0.973907470703125,-0.1702423095703125,0.084075927734375
1772534338992866000,5.547865966796875,-0.9753875732421875,-0.1634979248046875,0.07586669921875
1772534339002882300,5.55788232421875,-0.9817657470703125,-0.163604736328125,0.0714111328125
1772534339012898300,5.567898193359375,-0.988433837890625,-0.1645050048828125,0.071624755859375
1772534339022914000,5.5779140625,-0.9892730712890625,-0.168701171875,0.0765380859375
1772534339032931000,5.58793115234375,-0.9986572265625,-0.17431640625,0.0811767578125
1772534339042947000,5.597947021484375,-0.9970855712890625,-0.177337646484375,0.0812835693359375
1772534339052963300,5.60796337890625,-0.9898681640625,-0.17718505859375,0.078460693359375
1772534339062979300,5.617979248046875,-0.9858551025390625,-0.1755828857421875,0.075439453125
1772534339072995000,5.6279951171875,-0.9782867431640625,-0.1726226806640625,0.0733642578125
1772534339083012000,5.63801220703125,-0.9750518798828125,-0.1664886474609375,0.06805419921875
1772534339093028000,5.648028076171875,-0.9749298095703125,-0.1622467041015625,0.06927490234375
1772534339103044400,5.65804443359375,-0.9734649658203125,-0.1649322509765625,0.0724334716796875
1772534339113060400,5.668060302734375,-0.972686767578125,-0.1675872802734375,0.077117919921875
1772534339123076000,5.678076171875,-0.9759674072265625,-0.1731414794921875,0.0860443115234375
1772534339133092000,5.688092041015625,-0.978302001953125,-0.1789398193359375,0.0913238525390625
1772534339143735300,5.6987353515625,-0.982330322265625,-0.17767333984375,0.09429931640625
1772534339153751000,5.7087509765625,-0.985260009765625,-0.1766815185546875,0.0931854248046875
1772534339163767000,5.71876708984375,-0.9841156005859375,-0.1760406494140625,0.0897369384765625
1772534339173783000,5.728782958984375,-0.9794921875,-0.174896240234375,0.0853118896484375
1772534339183800300,5.73880029296875,-0.979705810546875,-0.173370361328125,0.0830535888671875
1772534339193816000,5.748816162109375,-0.9804229736328125,-0.17047119140625,0.082427978515625
1772534339203832000,5.75883203125,-0.9750823974609375,-0.1665191650390625,0.0787506103515625
1772534339213848000,5.76884814453125,-0.970184326171875,-0.1680755615234375,0.0757598876953125
1772534339223864000,5.778864013671875,-0.9757843017578125,-0.1694793701171875,0.0727386474609375
1772534339233880000,5.788880126953125,-0.9874420166015625,-0.1709747314453125,0.074249267578125
1772534339243897000,5.79889697265625,-0.9963836669921875,-0.1697998046875,0.0788726806640625
1772534339253913000,5.8089130859375,-0.9975433349609375,-0.1701812744140625,0.083648681640625
1772534339263929000,5.81892919921875,-1.00042724609375,-0.17352294921875,0.0844573974609375
1772534339273945000,5.828945068359375,-0.996337890625,-0.1748046875,0.084686279296875
1772534339283961000,5.838961181640625,-0.9878387451171875,-0.1740264892578125,0.084808349609375
1772534339293978000,5.84897802734375,-0.9822540283203125,-0.1735687255859375,0.0830841064453125
1772534339303994000,5.858994140625,-0.9805450439453125,-0.1746978759765625,0.0841064453125
1772534339314010000,5.869010009765625,-0.97821044921875,-0.1753387451171875,0.0845489501953125
1772534339324026000,5.879026123046875,-0.975830078125,-0.1707763671875,0.082794189453125
1772534339334042000,5.8890419921875,-0.97088623046875,-0.16766357421875,0.083831787109375
1772534339344059100,5.89905908203125,-0.9679107666015625,-0.1690673828125,0.086578369140625
1772534339354075100,5.9090751953125,-0.9716644287109375,-0.17437744140625,0.0894317626953125
1772534339364091100,5.919091064453125,-0.977325439453125,-0.17694091796875,0.0913848876953125
1772534339374107100,5.929107177734375,-0.9839019775390625,-0.1787261962890625,0.0921783447265625
1772534339384123100,5.939123046875,-0.9890899658203125,-0.17535400390625,0.0876617431640625
1772534339394140200,5.94914013671875,-0.9920654296875,-0.1714630126953125,0.0831298828125
1772534339404156200,5.95915625,-0.99237060546875,-0.1676483154296875,0.07586669921875
1772534339414172700,5.969172607421875,-0.9896087646484375,-0.1639251708984375,0.0728607177734375
1772534339424188700,5.979188720703125,-0.9888458251953125,-0.1680145263671875,0.078338623046875
1772534339434204700,5.98920458984375,-0.989013671875,-0.17364501953125,0.085357666015625
1772534339444220400,5.999220458984375,-0.985870361328125,-0.178619384765625,0.0900726318359375
1772534339454237700,6.00923779296875,-0.9796142578125,-0.1785736083984375,0.0857696533203125
1772534339464253700,6.019253662109375,-0.9721832275390625,-0.17718505859375,0.0842742919921875
1772534339474269700,6.029269775390625,-0.9672698974609375,-0.17352294921875,0.07891845703125
1772534339484285700,6.03928564453125,-0.973388671875,-0.17071533203125,0.0778350830078125
1772534339494301400,6.049301513671875,-0.98236083984375,-0.169891357421875,0.0809173583984375
1772534339504318700,6.059318603515625,-0.9809417724609375,-0.1696929931640625,0.079681396484375
1772534339514334700,6.069334716796875,-0.9784393310546875,-0.1721649169921875,0.0791473388671875
1772534339524350700,6.079350830078125,-0.9809722900390625,-0.1753997802734375,0.0832977294921875
1772534339534366700,6.08936669921875,-0.9842987060546875,-0.1751708984375,0.08453369140625
1772534339544382500,6.099382568359375,-0.98809814453125,-0.1715087890625,0.0885009765625
1772534339554399700,6.109399658203125,-0.9875030517578125,-0.1741485595703125,0.08953857421875
1772534339564415700,6.119415771484375,-0.981353759765625,-0.175018310546875,0.090972900390625
1772534339574431700,6.129431640625,-0.9741668701171875,-0.17547607421875,0.0889434814453125
1772534339584447700,6.13944775390625,-0.97198486328125,-0.1739349365234375,0.0913848876953125
1772534339594463500,6.14946337890625,-0.9752044677734375,-0.1744384765625,0.0922088623046875
1772534339604480800,6.159480712890625,-0.9747467041015625,-0.1740570068359375,0.088134765625
1772534339614496800,6.169496826171875,-0.977294921875,-0.1703643798828125,0.085845947265625
1772534339624512800,6.1795126953125,-0.9811859130859375,-0.1678314208984375,0.0873565673828125
1772534339634528500,6.189528564453125,-0.9806976318359375,-0.16973876953125,0.0909271240234375
1772534339644544500,6.19954443359375,-0.9808502197265625,-0.1751251220703125,0.0949859619140625
1772534339654560500,6.209560546875,-0.9796905517578125,-0.180877685546875,0.099822998046875
1772534339664577800,6.219577880859375,-0.9738616943359375,-0.182525634765625,0.0987091064453125
1772534339674593800,6.22959375,-0.9693450927734375,-0.1793365478515625,0.0936279296875
1772534339684609500,6.239609619140625,-0.9674835205078125,-0.1739501953125,0.0863800048828125
1772534339694625500,6.24962548828125,-0.9683990478515625,-0.1680450439453125,0.07867431640625
1772534339704641500,6.2596416015625,-0.9685821533203125,-0.163177490234375,0.0730438232421875
1772534339714658800,6.269658935546875,-0.974639892578125,-0.166229248046875,0.0753326416015625
1772534339724674800,6.2796748046875,-0.9858856201171875,-0.1710357666015625,0.081756591796875
1772534339734690600,6.289690673828125,-0.9947662353515625,-0.1751708984375,0.0882110595703125
1772534339744706600,6.29970654296875,-0.9954071044921875,-0.17694091796875,0.0923309326171875
1772534339754722600,6.30972265625,-0.9889678955078125,-0.1765289306640625,0.08978271484375
1772534339764739800,6.31973974609375,-0.982086181640625,-0.17529296875,0.085205078125
1772534339774755800,6.329755859375,-0.980865478515625,-0.1725921630859375,0.08087158203125
1772534339784771600,6.339771484375,-0.9845428466796875,-0.1725616455078125,0.0825653076171875
1772534339794787600,6.34978759765625,-0.98760986328125,-0.1716156005859375,0.08331298828125
1772534339804803600,6.359803466796875,-0.9881134033203125,-0.17059326171875,0.0865631103515625
1772534339814819600,6.369819580078125,-0.98138427734375,-0.1733551025390625,0.0888214111328125
1772534339824836600,6.379836669921875,-0.9794769287109375,-0.173431396484375,0.0872344970703125
1772534339834852600,6.3898525390625,-0.9772491455078125,-0.1727752685546875,0.0899200439453125
1772534339844868600,6.39986865234375,-0.973968505859375,-0.17413330078125,0.0914306640625
1772534339854884600,6.409884521484375,-0.9737548828125,-0.1747894287109375,0.092254638671875
1772534339864900600,6.419900634765625,-0.97216796875,-0.1737060546875,0.0879974365234375
1772534339874917600,6.429917724609375,-0.973968505859375,-0.1716461181640625,0.085968017578125
1772534339884933600,6.43993359375,-0.9778289794921875,-0.170501708984375,0.085784912109375
1772534339894949600,6.44994970703125,-0.9781951904296875,-0.1719512939453125,0.0848236083984375
1772534339904965600,6.459965576171875,-0.9773406982421875,-0.1711273193359375,0.085052490234375
1772534339914981600,6.469981689453125,-0.9780120849609375,-0.172149658203125,0.0854339599609375
1772534339924998700,6.47999853515625,-0.98388671875,-0.173797607421875,0.0878753662109375
1772534339935014700,6.4900146484375,-0.984100341796875,-0.1732635498046875,0.088623046875
1772534339945030700,6.50003076171875,-0.984100341796875,-0.1701507568359375,0.08612060546875
1772534339955046700,6.510046630859375,-0.9839019775390625,-0.1685791015625,0.082794189453125
1772534339965062700,6.520062744140625,-0.981353759765625,-0.1682281494140625,0.0826263427734375
1772534339975079700,6.53007958984375,-0.983795166015625,-0.1703643798828125,0.0875091552734375
1772534339985095700,6.540095703125,-0.982879638671875,-0.171112060546875,0.0913848876953125
1772534339995111700,6.550111572265625,-0.98291015625,-0.17279052734375,0.0929107666015625
1772534340005127700,6.560127685546875,-0.976806640625,-0.1703338623046875,0.0928955078125
1772534340015143700,6.570143798828125,-0.9662017822265625,-0.169921875,0.091522216796875
1772534340025159700,6.58015966796875,-0.9592437744140625,-0.1720733642578125,0.0924530029296875
1772534340035176700,6.5901767578125,-0.9611053466796875,-0.1717376708984375,0.0928497314453125
1772534340045192700,6.600192626953125,-0.9682769775390625,-0.171661376953125,0.0960540771484375
1772534340055208700,6.610208740234375,-0.9784393310546875,-0.1712188720703125,0.0968780517578125
1772534340065224700,6.620224609375,-0.994384765625,-0.170074462890625,0.0972747802734375
1772534340075240700,6.63024072265625,-1.004302978515625,-0.1647186279296875,0.09564208984375
1772534340085257700,6.6402578125,-1.0043182373046875,-0.165069580078125,0.095947265625
1772534340095273700,6.650273681640625,-1.0012664794921875,-0.1662139892578125,0.09320068359375
1772534340105289700,6.660289794921875,-0.9911956787109375,-0.1667327880859375,0.0907440185546875
1772534340115305700,6.6703056640625,-0.9809112548828125,-0.1669769287109375,0.08984375
1772534340125321700,6.68032177734375,-0.9775238037109375,-0.1644287109375,0.086883544921875
1772534340135338500,6.69033837890625,-0.97869873046875,-0.162628173828125,0.081207275390625
1772534340145354800,6.700354736328125,-0.977569580078125,-0.1608734130859375,0.080322265625
1772534340155370800,6.710370849609375,-0.980316162109375,-0.162078857421875,0.080596923828125
1772534340165386800,6.72038671875,-0.9802398681640625,-0.1631622314453125,0.0826416015625
1772534340175402800,6.73040283203125,-0.9825439453125,-0.1663360595703125,0.087158203125
1772534340185418500,6.74041845703125,-0.9859771728515625,-0.1695709228515625,0.0906524658203125
1772534340195435800,6.750435791015625,-0.98101806640625,-0.169586181640625,0.0918426513671875
1772534340205451800,6.76045166015625,-0.9801025390625,-0.16778564453125,0.086883544921875
1772534340215467800,6.7704677734375,-0.983673095703125,-0.1637115478515625,0.0797119140625
1772534340225483800,6.78048388671875,-0.987335205078125,-0.15582275390625,0.0728607177734375
1772534340235499500,6.79049951171875,-0.9911956787109375,-0.152862548828125,0.0739288330078125
1772534340245516500,6.8005166015625,-0.9905853271484375,-0.1580810546875,0.078369140625
1772534340255532800,6.81053271484375,-0.9842071533203125,-0.1630859375,0.084442138671875
1772534340265548800,6.820548828125,-0.9759368896484375,-0.167633056640625,0.0907745361328125
1772534340275564500,6.830564453125,-0.9708404541015625,-0.170166015625,0.09405517578125
1772534340285580500,6.84058056640625,-0.97210693359375,-0.165863037109375,0.09375
1772534340295597600,6.85059765625,-0.9727783203125,-0.1625823974609375,0.09246826171875
1772534340305613800,6.86061376953125,-0.9787445068359375,-0.158355712890625,0.0897216796875
1772534340315629800,6.8706298828125,-0.9833984375,-0.15814208984375,0.0915374755859375
1772534340325645600,6.8806455078125,-0.990875244140625,-0.1651611328125,0.095855712890625
1772534340335661600,6.89066162109375,-0.993255615234375,-0.167083740234375,0.1036834716796875
1772534340345677600,6.900677490234375,-0.9900054931640625,-0.1688385009765625,0.10626220703125
1772534340355694800,6.91069482421875,-0.9840240478515625,-0.1680145263671875,0.104095458984375
1772534340365710800,6.9207109375,-0.97662353515625,-0.1654815673828125,0.0989990234375
1772534340375726600,6.9307265625,-0.9713287353515625,-0.160400390625,0.091217041015625
1772534340385742600,6.94074267578125,-0.9733123779296875,-0.15618896484375,0.0834808349609375
1772534340395758600,6.950758544921875,-0.9806365966796875,-0.155181884765625,0.0858154296875
1772534340405775600,6.960775634765625,-0.9852752685546875,-0.1574859619140625,0.0896148681640625
1772534340415791400,6.970791259765625,-0.988128662109375,-0.1622314453125,0.093994140625
1772534340425807400,6.980807373046875,-0.9903717041015625,-0.1666412353515625,0.0958709716796875
1772534340435823400,6.9908232421875,-0.9879150390625,-0.16644287109375,0.0952301025390625
1772534340445839400,7.00083935546875,-0.991180419921875,-0.162567138671875,0.0923309326171875
1772534340455856400,7.0108564453125,-0.9905853271484375,-0.1559295654296875,0.086578369140625
1772534340465872400,7.020872314453125,-0.9847412109375,-0.1529693603515625,0.0807647705078125
1772534340475888000,7.03088818359375,-0.978485107421875,-0.1542816162109375,0.07708740234375
1772534340485904400,7.040904296875,-0.978057861328125,-0.155426025390625,0.0782318115234375
1772534340495920400,7.05092041015625,-0.9753875732421875,-0.155548095703125,0.083587646484375
1772534340505936400,7.060936279296875,-0.9728240966796875,-0.1593017578125,0.08758544921875
1772534340515953400,7.070953369140625,-0.9717254638671875,-0.16546630859375,0.0906982421875
1772534340525969200,7.08096923828125,-0.978515625,-0.1644287109375,0.0910797119140625
1772534340535985400,7.0909853515625,-0.98431396484375,-0.159271240234375,0.0878448486328125
1772534340546001400,7.10100146484375,-0.99139404296875,-0.1548309326171875,0.08489990234375
1772534340556017400,7.111017333984375,-0.9969940185546875,-0.15423583984375,0.0856170654296875
1772534340566034400,7.121034423828125,-0.999725341796875,-0.1555023193359375,0.0885009765625
1772534340576050200,7.13105029296875,-0.99139404296875,-0.1572723388671875,0.0948944091796875
1772534340586066400,7.14106640625,-0.9790802001953125,-0.1640167236328125,0.098297119140625
1772534340596082400,7.15108251953125,-0.9688873291015625,-0.1665496826171875,0.0981903076171875
1772534340606098400,7.161098388671875,-0.96453857421875,-0.165008544921875,0.096710205078125
1772534340616115500,7.171115478515625,-0.9774932861328125,-0.163330078125,0.0965423583984375
1772534340626131200,7.181131103515625,-0.9924163818359375,-0.1585540771484375,0.092376708984375
1772534340636147200,7.191147216796875,-0.999176025390625,-0.154205322265625,0.089385986328125
1772534340646163500,7.20116357421875,-0.998687744140625,-0.1551513671875,0.090728759765625
1772534340656179500,7.211179443359375,-0.99151611328125,-0.15948486328125,0.091156005859375
1772534340666195500,7.221195556640625,-0.982177734375,-0.164581298828125,0.0904693603515625
1772534340676212200,7.231212158203125,-0.9743499755859375,-0.16265869140625,0.089996337890625
1772534340686228200,7.241228271484375,-0.9700164794921875,-0.1618804931640625,0.089874267578125
1772534340696244500,7.251244384765625,-0.9735260009765625,-0.159210205078125,0.0872344970703125
1772534340706260500,7.261260498046875,-0.978607177734375,-0.155670166015625,0.084136962890625
1772534340716276500,7.2712763671875,-0.9802093505859375,-0.1562347412109375,0.08526611328125
1772534340726293200,7.281293212890625,-0.98321533203125,-0.158905029296875,0.0920867919921875
1772534340736309200,7.291309326171875,-0.9836883544921875,-0.161712646484375,0.0948028564453125
1772534340746325200,7.3013251953125,-0.9864044189453125,-0.159149169921875,0.095428466796875
1772534340756341500,7.311341552734375,-0.988067626953125,-0.157684326171875,0.096954345703125
1772534340766357500,7.321357421875,-0.9885406494140625,-0.1576995849609375,0.0970001220703125
1772534340776373500,7.33137353515625,-0.9891204833984375,-0.1571502685546875,0.1012115478515625
1772534340786390300,7.341390380859375,-0.9860382080078125,-0.15911865234375,0.099578857421875
1772534340796406300,7.35140625,-0.985137939453125,-0.1552581787109375,0.0964202880859375
1772534340806422500,7.361422607421875,-0.9844512939453125,-0.1547088623046875,0.097381591796875
1772534340816438500,7.3714384765625,-0.982086181640625,-0.1547698974609375,0.09716796875
1772534340826454500,7.38145458984375,-0.981109619140625,-0.1582183837890625,0.0991973876953125
1772534340836471300,7.39147119140625,-0.980865478515625,-0.160797119140625,0.1013641357421875
1772534340846487300,7.4014873046875,-0.97943115234375,-0.158294677734375,0.10125732421875
1772534340856503300,7.41150341796875,-0.974884033203125,-0.15911865234375,0.0975494384765625
1772534340866519600,7.42151953125,-0.972564697265625,-0.158050537109375,0.0934906005859375
1772534340876535300,7.431535400390625,-0.9765472412109375,-0.1557464599609375,0.0873870849609375
1772534340886551300,7.44155126953125,-0.98382568359375,-0.151214599609375,0.0833587646484375
1772534340896568300,7.451568359375,-0.98828125,-0.150421142578125,0.083984375
1772534340906584300,7.461584228515625,-0.9909210205078125,-0.1518707275390625,0.082672119140625
1772534340916600600,7.4716005859375,-0.9918212890625,-0.1543731689453125,0.0841064453125
1772534340926616300,7.4816162109375,-0.9904632568359375,-0.1551513671875,0.08709716796875
1772534340936632300,7.49163232421875,-0.987030029296875,-0.1575927734375,0.0905303955078125
1772534340946649300,7.5016494140625,-0.9866180419921875,-0.1588897705078125,0.0898284912109375
1772534340956665300,7.511665283203125,-0.9877471923828125,-0.156219482421875,0.0867462158203125
1772534340966681600,7.521681640625,-0.98663330078125,-0.1518707275390625,0.09088134765625
1772534340976697300,7.531697265625,-0.984649658203125,-0.1505279541015625,0.095062255859375
1772534340986713300,7.54171337890625,-0.9832611083984375,-0.153594970703125,0.09478759765625
1772534340996729300,7.551729248046875,-0.980224609375,-0.15380859375,0.0951690673828125
1772534341006746400,7.561746337890625,-0.9771575927734375,-0.1543731689453125,0.0936737060546875
1772534341016762400,7.571762451171875,-0.975799560546875,-0.1558990478515625,0.0898895263671875
1772534341026778400,7.5817783203125,-0.981475830078125,-0.1553192138671875,0.0860443115234375
1772534341036794400,7.59179443359375,-0.989013671875,-0.154937744140625,0.084320068359375
1772534341046810400,7.601810302734375,-0.9979095458984375,-0.1522216796875,0.0800018310546875
1772534341056827400,7.611827392578125,-1.0030059814453125,-0.15008544921875,0.079742431640625
1772534341066843400,7.621843505859375,-1.001251220703125,-0.149200439453125,0.076202392578125
1772534341076859400,7.631859375,-1.0003509521484375,-0.1485137939453125,0.0742034912109375
1772534341086875400,7.64187548828125,-0.9886474609375,-0.146942138671875,0.07647705078125
1772534341096891400,7.651891357421875,-0.979522705078125,-0.1494903564453125,0.078125
1772534341106907400,7.661907470703125,-0.970489501953125,-0.1541290283203125,0.076507568359375
1772534341116924200,7.671924072265625,-0.9701690673828125,-0.157196044921875,0.0772552490234375
1772534341126940200,7.681940185546875,-0.9730682373046875,-0.1552581787109375,0.081451416015625
1772534341136956400,7.691956298828125,-0.9769287109375,-0.153961181640625,0.086639404296875
1772534341146972400,7.701972412109375,-0.982574462890625,-0.1559600830078125,0.0885162353515625
1772534341156988400,7.711988525390625,-0.98333740234375,-0.15728759765625,0.0887908935546875
1772534341167005200,7.722005126953125,-0.982818603515625,-0.155181884765625,0.08984375
1772534341177021200,7.732021240234375,-0.978118896484375,-0.15509033203125,0.09075927734375
1772534341187037400,7.742037353515625,-0.973388671875,-0.15625,0.0924530029296875
1772534341197053400,7.752053466796875,-0.969696044921875,-0.1600799560546875,0.0931243896484375
1772534341207069400,7.7620693359375,-0.9687347412109375,-0.1599273681640625,0.09405517578125
1772534341217085400,7.77208544921875,-0.9714508056640625,-0.1582183837890625,0.0909423828125
1772534341227102200,7.782102294921875,-0.9744720458984375,-0.151275634765625,0.0876922607421875
1772534341237118500,7.792118408203125,-0.9772491455078125,-0.147705078125,0.0872955322265625
1772534341247134500,7.802134521484375,-0.9815216064453125,-0.1540374755859375,0.091552734375
1772534341257150500,7.812150390625,-0.9893035888671875,-0.1584930419921875,0.092498779296875
1772534341267166500,7.82216650390625,-1.0006103515625,-0.1584320068359375,0.09185791015625
1772534341277183200,7.832183349609375,-1.0052032470703125,-0.157989501953125,0.0938568115234375
1772534341287199200,7.84219921875,-1.0023040771484375,-0.15777587890625,0.091766357421875
1772534341297215500,7.852215576171875,-0.99566650390625,-0.1534271240234375,0.0816650390625
1772534341307231500,7.8622314453125,-0.9833831787109375,-0.147979736328125,0.0740203857421875
1772534341317247500,7.87224755859375,-0.976593017578125,-0.1474151611328125,0.0712127685546875
1772534341327264300,7.88226416015625,-0.9763946533203125,-0.14801025390625,0.07159423828125
1772534341337280300,7.8922802734375,-0.981689453125,-0.1530609130859375,0.075042724609375
1772534341347296500,7.902296630859375,-0.987457275390625,-0.1580657958984375,0.082550048828125
1772534341357312500,7.9123125,-0.9879150390625,-0.160980224609375,0.0866546630859375
1772534341367328500,7.92232861328125,-0.9801025390625,-0.1612396240234375,0.08770751953125
1772534341377344300,7.93234423828125,-0.96954345703125,-0.1607513427734375,0.08831787109375
1772534341387361300,7.942361328125,-0.9631195068359375,-0.16082763671875,0.0855712890625
1772534341397377300,7.952377197265625,-0.9677581787109375,-0.158294677734375,0.0865631103515625
1772534341407393500,7.9623935546875,-0.9775390625,-0.1573638916015625,0.0865020751953125
1772534341417409000,7.972408935546875,-0.988616943359375,-0.157623291015625,0.0899505615234375
1772534341427425000,7.982425048828125,-0.9936065673828125,-0.1615142822265625,0.0928955078125
1772534341437442000,7.992442138671875,-0.99273681640625,-0.162109375,0.0951690673828125
1772534341447458000,8.0024580078125,-0.9884490966796875,-0.1638031005859375,0.095367431640625
1772534341457474000,8.01247412109375,-0.983917236328125,-0.1652374267578125,0.09539794921875
1772534341467490000,8.022489990234375,-0.9826202392578125,-0.1639404296875,0.0946044921875
1772534341477506000,8.032506103515624,-0.98394775390625,-0.1630859375,0.093902587890625
1772534341487521800,8.042521728515625,-0.9878387451171875,-0.1596832275390625,0.087310791015625
1772534341497539000,8.0525390625,-0.9856109619140625,-0.1598968505859375,0.08551025390625
1772534341507555000,8.06255517578125,-0.9842071533203125,-0.1587677001953125,0.08343505859375
1772534341517571000,8.072571044921874,-0.9818267822265625,-0.160308837890625,0.084991455078125
1772534341527586800,8.0825869140625,-0.9808807373046875,-0.161865234375,0.084747314453125
1772534341537602800,8.092602783203125,-0.980560302734375,-0.1629791259765625,0.0870208740234375
1772534341547620000,8.1026201171875,-0.9858551025390625,-0.1637420654296875,0.090576171875
1772534341557636000,8.112635986328126,-0.9875946044921875,-0.162933349609375,0.0918121337890625
1772534341567652000,8.122652099609375,-0.9876861572265625,-0.1604156494140625,0.090789794921875
1772534341577667800,8.132667724609375,-0.9856414794921875,-0.15972900390625,0.0883941650390625
1772534341587683800,8.142683837890624,-0.983673095703125,-0.1592864990234375,0.085418701171875
1772534341597699800,8.152699951171876,-0.9808197021484375,-0.1595916748046875,0.0845947265625
1772534341607717000,8.162717041015625,-0.982177734375,-0.1612091064453125,0.0887908935546875
1772534341617733000,8.172733154296875,-0.981353759765625,-0.1629791259765625,0.0949859619140625
1772534341627748900,8.182748779296874,-0.9794769287109375,-0.16455078125,0.0961761474609375
1772534341637764900,8.192764892578126,-0.9741973876953125,-0.1604156494140625,0.09515380859375
1772534341647780900,8.20278076171875,-0.9728240966796875,-0.1623077392578125,0.094635009765625
1772534341657797000,8.212797119140625,-0.9776153564453125,-0.162261962890625,0.092559814453125
1772534341667814100,8.222814208984374,-0.984283447265625,-0.158905029296875,0.0909271240234375
1772534341677830000,8.232829833984376,-0.9875640869140625,-0.155670166015625,0.08831787109375
1772534341687846000,8.242845947265625,-0.9851531982421875,-0.1544647216796875,0.0853118896484375
1772534341697862000,8.25286181640625,-0.98345947265625,-0.15777587890625,0.0846099853515625
1772534341707878000,8.2628779296875,-0.981414794921875,-0.1605682373046875,0.0866546630859375
1772534341717895000,8.27289501953125,-0.9813385009765625,-0.16241455078125,0.0904541015625
1772534341727911000,8.282910888671875,-0.9815673828125,-0.162109375,0.0914459228515625
1772534341737927000,8.292927001953124,-0.9841766357421875,-0.1602783203125,0.090972900390625
1772534341747943000,8.30294287109375,-0.98541259765625,-0.16131591796875,0.091766357421875
1772534341757959000,8.312958984375,-0.98602294921875,-0.1611480712890625,0.0925445556640625
1772534341767975200,8.32297509765625,-0.97955322265625,-0.1591949462890625,0.089508056640625
1772534341777992000,8.332991943359374,-0.9756011962890625,-0.15960693359375,0.0879058837890625
1772534341788008000,8.343008056640626,-0.9761962890625,-0.158966064453125,0.0883636474609375
1772534341798024000,8.35302392578125,-0.979034423828125,-0.1596527099609375,0.0912322998046875
1772534341808040000,8.3630400390625,-0.984649658203125,-0.1605072021484375,0.092041015625
1772534341818056200,8.37305615234375,-0.986846923828125,-0.1616363525390625,0.0922698974609375
1772534341828073000,8.383072998046876,-0.990692138671875,-0.162017822265625,0.089813232421875
1772534341838089000,8.3930888671875,-0.9959564208984375,-0.1585235595703125,0.0910797119140625
1772534341848105000,8.40310498046875,-0.9970855712890625,-0.160125732421875,0.090240478515625
1772534341858121000,8.413120849609374,-0.9947357177734375,-0.16229248046875,0.089385986328125
1772534341868137000,8.423136962890625,-0.9937744140625,-0.16192626953125,0.0902862548828125
1772534341878153000,8.433153076171875,-0.988189697265625,-0.16015625,0.092926025390625
1772534341888170000,8.443169921875,-0.980499267578125,-0.158966064453125,0.09185791015625
1772534341898186000,8.45318603515625,-0.9721221923828125,-0.157562255859375,0.0910186767578125
1772534341908202000,8.463201904296875,-0.96343994140625,-0.1575469970703125,0.08953857421875
1772534341918218000,8.473218017578125,-0.96026611328125,-0.156585693359375,0.0879364013671875
1772534341928234000,8.48323388671875,-0.966461181640625,-0.158905029296875,0.0904998779296875
1772534341938251000,8.4932509765625,-0.9783172607421875,-0.1620330810546875,0.095733642578125
1772534341948267000,8.50326708984375,-0.9931793212890625,-0.163055419921875,0.1003265380859375
1772534341958283000,8.513282958984375,-0.9969635009765625,-0.160400390625,0.0993194580078125
1772534341968299000,8.523299072265624,-0.99334716796875,-0.1584014892578125,0.094635009765625
1772534341978314800,8.533314697265626,-0.987213134765625,-0.15960693359375,0.088836669921875
1772534341988331000,8.5433310546875,-0.9871978759765625,-0.1571502685546875,0.08544921875
1772534341998348000,8.55334814453125,-0.9864654541015625,-0.151580810546875,0.085418701171875
1772534342008364000,8.563364013671874,-0.98138427734375,-0.151397705078125,0.0880584716796875
1772534342018380000,8.573380126953126,-0.9796142578125,-0.1553192138671875,0.0891265869140625
1772534342028395800,8.583395751953125,-0.9759674072265625,-0.16082763671875,0.08917236328125
1772534342038412000,8.593412109375,-0.9764862060546875,-0.1603546142578125,0.0872802734375
1772534342048429000,8.603428955078124,-0.9785614013671875,-0.15576171875,0.0866241455078125
1772534342058445000,8.613445068359376,-0.98101806640625,-0.155731201171875,0.0879669189453125
1772534342068461000,8.6234609375,-0.9808197021484375,-0.16241455078125,0.0904388427734375
1772534342078476800,8.633476806640624,-0.981353759765625,-0.1643524169921875,0.089569091796875
1772534342088493000,8.6434931640625,-0.97900390625,-0.1617431640625,0.08978271484375
1772534342098509000,8.653509033203125,-0.9757843017578125,-0.161590576171875,0.08624267578125
1772534342108526000,8.663526123046875,-0.979736328125,-0.1607666015625,0.0826873779296875
1772534342118542000,8.6735419921875,-0.9865875244140625,-0.1601715087890625,0.0804901123046875
1772534342128557800,8.683557861328126,-0.99078369140625,-0.1606597900390625,0.080047607421875
1772534342138573800,8.69357373046875,-0.99285888671875,-0.1619415283203125,0.07977294921875
1772534342148590000,8.703590087890625,-1.0015716552734375,-0.1597137451171875,0.0794677734375
1772534342158606000,8.713606201171874,-1.005279541015625,-0.1535797119140625,0.0760498046875
1772534342168622800,8.723622802734376,-1.0007476806640625,-0.1499786376953125,0.0732574462890625
1772534342178638800,8.733638916015625,-0.9891510009765625,-0.1514434814453125,0.0716705322265625
1772534342188654800,8.74365478515625,-0.9806671142578125,-0.1579742431640625,0.072113037109375
1772534342198671000,8.753671142578124,-0.977264404296875,-0.165252685546875,0.078704833984375
1772534342208687000,8.76368701171875,-0.980926513671875,-0.168609619140625,0.0839080810546875
1772534342218704000,8.773703857421875,-0.985137939453125,-0.1663360595703125,0.0849151611328125
1772534342228719900,8.783719970703125,-0.9869232177734375,-0.1630401611328125,0.081878662109375
1772534342238736000,8.79373583984375,-0.9901275634765625,-0.1615447998046875,0.0780487060546875
1772534342248751900,8.803751953125,-0.991424560546875,-0.1611175537109375,0.0748138427734375
1772534342258768100,8.81376806640625,-1.0039215087890625,-0.163665771484375,0.074920654296875
1772534342268784000,8.8237841796875,-1.00079345703125,-0.159820556640625,0.079437255859375
1772534342278801000,8.83380078125,-0.9944915771484375,-0.1609649658203125,0.0761566162109375
1772534342288817000,8.84381689453125,-0.9873504638671875,-0.1619720458984375,0.0777130126953125
1772534342298833000,8.8538330078125,-0.9769134521484375,-0.160797119140625,0.0797271728515625
1772534342308849200,8.86384912109375,-0.967437744140625,-0.1652679443359375,0.081787109375
1772534342318865200,8.873865234375,-0.955780029296875,-0.16717529296875,0.07958984375
1772534342328882000,8.8838818359375,-0.9498443603515625,-0.1659393310546875,0.0758819580078125
1772534342338898000,8.89389794921875,-0.952789306640625,-0.16650390625,0.074615478515625
1772534342348914000,8.903913818359374,-0.9577484130859375,-0.166473388671875,0.0775909423828125
1772534342358930000,8.913929931640626,-0.954315185546875,-0.1680908203125,0.0778961181640625
1772534342368946200,8.9239462890625,-0.942291259765625,-0.160980224609375,0.0647430419921875
1772534342378962000,8.9339619140625,-0.948486328125,-0.1799468994140625,0.06988525390625
1772534342388979000,8.94397900390625,-0.9806060791015625,-0.1743621826171875,0.06927490234375
1772534342398995000,8.953994873046875,-0.991485595703125,-0.1591339111328125,0.069244384765625
1772534342409011000,8.964010986328125,-1.011474609375,-0.1572723388671875,0.0678558349609375
1772534342419027500,8.97402734375,-1.0314483642578125,-0.1504669189453125,0.06146240234375
1772534342429043500,8.98404345703125,-1.028289794921875,-0.148956298828125,0.0660858154296875
1772534342439060500,8.994060546875,-1.0153045654296875,-0.152923583984375,0.0696868896484375
1772534342449076500,9.004076416015625,-0.992095947265625,-0.1586456298828125,0.0719146728515625
1772534342459092700,9.0140927734375,-0.96783447265625,-0.1635894775390625,0.075958251953125
1772534342469108500,9.0241083984375,-0.9546356201171875,-0.166107177734375,0.079681396484375
1772534342479124500,9.03412451171875,-0.9542388916015625,-0.1680450439453125,0.08245849609375
1772534342489140500,9.044140380859375,-0.957000732421875,-0.1652679443359375,0.0796966552734375
1772534342499157500,9.054157470703124,-0.9629058837890625,-0.1630706787109375,0.0789642333984375
1772534342509173500,9.064173583984376,-0.97216796875,-0.16217041015625,0.0785980224609375
1772534342519189500,9.074189453125,-0.984100341796875,-0.1656951904296875,0.0822601318359375
1772534342529205500,9.08420556640625,-0.9899139404296875,-0.168975830078125,0.08416748046875
1772534342539221500,9.094221435546874,-0.9906463623046875,-0.1711273193359375,0.088653564453125
1772534342549237500,9.104237548828126,-0.9855194091796875,-0.1712493896484375,0.0908050537109375
1772534342559254500,9.114254638671875,-0.98223876953125,-0.17010498046875,0.088836669921875
1772534342569270500,9.1242705078125,-0.975738525390625,-0.174896240234375,0.0880584716796875
1772534342579286500,9.13428662109375,-0.9681243896484375,-0.175506591796875,0.083221435546875
1772534342589302500,9.144302490234375,-0.9641265869140625,-0.16790771484375,0.078033447265625
1772534342599318500,9.154318603515625,-0.964691162109375,-0.1660919189453125,0.0757293701171875
1772534342609335300,9.164335205078125,-0.970245361328125,-0.1686248779296875,0.075042724609375
1772534342619351600,9.1743515625,-0.9807586669921875,-0.171295166015625,0.078155517578125
1772534342629367600,9.184367431640625,-0.9913330078125,-0.1717681884765625,0.0806427001953125
1772534342639383600,9.194383544921875,-0.9990234375,-0.1721038818359375,0.083770751953125
1772534342649399600,9.204399658203124,-1.004364013671875,-0.17352294921875,0.083984375
1772534342659415600,9.21441552734375,-0.998443603515625,-0.1700286865234375,0.0827178955078125
1772534342669432600,9.2244326171875,-0.990997314453125,-0.168243408203125,0.0805206298828125
1772534342679448600,9.234448486328125,-0.9803466796875,-0.1708984375,0.0764312744140625
1772534342689464600,9.244464599609374,-0.9747161865234375,-0.168731689453125,0.0787811279296875
1772534342699480600,9.25448046875,-0.9750518798828125,-0.1654510498046875,0.0786285400390625
1772534342709496600,9.26449658203125,-0.974822998046875,-0.162078857421875,0.0804901123046875
1772534342719512600,9.2745126953125,-0.977142333984375,-0.163848876953125,0.0797882080078125
1772534342729529600,9.284529541015624,-0.976837158203125,-0.1611480712890625,0.074462890625
1772534342739545600,9.294545654296876,-0.9788970947265625,-0.1586151123046875,0.0730438232421875
1772534342749561600,9.3045615234375,-0.981414794921875,-0.1605377197265625,0.075286865234375
1772534342759577600,9.31457763671875,-0.981842041015625,-0.1595916748046875,0.076416015625
1772534342770219500,9.325219482421875,-0.9820404052734375,-0.1613922119140625,0.08056640625
1772534342780236500,9.335236572265625,-0.98321533203125,-0.1617431640625,0.08349609375
1772534342790252500,9.34525244140625,-0.9892578125,-0.1615753173828125,0.087432861328125
1772534342800268500,9.3552685546875,-0.9954833984375,-0.1616973876953125,0.089569091796875
1772534342810284500,9.365284423828125,-0.9974212646484375,-0.161529541015625,0.0862884521484375
1772534342820300500,9.375300537109375,-0.993896484375,-0.1623077392578125,0.0846099853515625
1772534342830316500,9.385316650390624,-0.9903717041015625,-0.16339111328125,0.088226318359375
1772534342840333600,9.39533349609375,-0.9839935302734375,-0.1614532470703125,0.0857391357421875
1772534342850349300,9.405349365234375,-0.9842681884765625,-0.158172607421875,0.081817626953125
1772534342860365600,9.415365478515625,-0.984100341796875,-0.15740966796875,0.0820159912109375
1772534342870381600,9.425381591796874,-0.9853363037109375,-0.1567230224609375,0.08404541015625
1772534342880397600,9.4353974609375,-0.979248046875,-0.1638031005859375,0.08856201171875
1772534342890413600,9.44541357421875,-0.9758453369140625,-0.1695404052734375,0.086822509765625
1772534342900430300,9.455430419921875,-0.9763641357421875,-0.165435791015625,0.078125
1772534342910446600,9.465446533203124,-0.9781341552734375,-0.1561126708984375,0.075836181640625
1772534342920462600,9.475462646484376,-0.9806365966796875,-0.153564453125,0.0739593505859375
1772534342930478600,9.485478515625,-0.981201171875,-0.15521240234375,0.0791168212890625
1772534342940494600,9.49549462890625,-0.9781951904296875,-0.16400146484375,0.081207275390625
1772534342950511400,9.505511474609374,-0.983245849609375,-0.164825439453125,0.0833740234375
1772534342960527400,9.51552734375,-0.9806060791015625,-0.1646728515625,0.083465576171875
1772534342970543600,9.525543701171875,-0.974029541015625,-0.164031982421875,0.078155517578125
1772534342980559600,9.5355595703125,-0.975067138671875,-0.1617584228515625,0.0738372802734375
1772534342990575600,9.54557568359375,-0.9758453369140625,-0.1601409912109375,0.075714111328125
1772534343000591600,9.555591552734375,-0.9833221435546875,-0.16064453125,0.0770721435546875
1772534343010608400,9.5656083984375,-0.9926605224609375,-0.1606903076171875,0.0760345458984375
1772534343020624600,9.575624755859375,-0.9966583251953125,-0.160064697265625,0.0798187255859375
1772534343030640600,9.585640625,-0.997955322265625,-0.1608734130859375,0.08514404296875
1772534343040656600,9.59565673828125,-0.9950103759765625,-0.1650848388671875,0.0885467529296875
1772534343050672600,9.605672607421875,-0.986328125,-0.1644134521484375,0.0839080810546875
1772534343060688400,9.6156884765625,-0.9767608642578125,-0.1614532470703125,0.0779266357421875
1772534343070705400,9.625705322265626,-0.9730072021484375,-0.159027099609375,0.073455810546875
1772534343080721700,9.6357216796875,-0.9799346923828125,-0.1544342041015625,0.0703277587890625
1772534343090737700,9.645737548828125,-0.9891357421875,-0.1503143310546875,0.074188232421875
1772534343100753700,9.655753662109374,-0.9972686767578125,-0.1528167724609375,0.07977294921875
1772534343111395600,9.6663955078125,-0.998382568359375,-0.1570587158203125,0.0848541259765625
1772534343121412600,9.67641259765625,-0.9893798828125,-0.1595611572265625,0.084869384765625
1772534343131428600,9.6864287109375,-0.9808349609375,-0.158447265625,0.083709716796875
1772534343141444400,9.6964443359375,-0.9737091064453125,-0.156036376953125,0.0829010009765625
1772534343151460600,9.706460693359375,-0.9698638916015625,-0.1544036865234375,0.088104248046875
1772534343161476600,9.7164765625,-0.9672393798828125,-0.1566314697265625,0.093536376953125
1772534343171492600,9.72649267578125,-0.96710205078125,-0.1590118408203125,0.0921630859375
1772534343181509400,9.73650927734375,-0.969207763671875,-0.157867431640625,0.09185791015625
1772534343191525400,9.746525390625,-0.9728851318359375,-0.1528167724609375,0.091217041015625
1772534343201541400,9.756541259765624,-0.972320556640625,-0.1489410400390625,0.0892181396484375
1772534343211557600,9.7665576171875,-0.978057861328125,-0.1548614501953125,0.091552734375
1772534343221573600,9.77657373046875,-0.9932403564453125,-0.1606597900390625,0.0963897705078125
1772534343231589600,9.786589599609375,-1.0022430419921875,-0.1601715087890625,0.104705810546875
1772534343241606400,9.7966064453125,-1.001312255859375,-0.1580352783203125,0.104095458984375
1772534343251622400,9.806622314453126,-0.9972991943359375,-0.15948486328125,0.0948638916015625
1772534343261638700,9.816638671875,-0.9934539794921875,-0.1514892578125,0.079345703125
1772534343271654700,9.826654541015625,-0.997528076171875,-0.1434173583984375,0.0760345458984375
1772534343281670700,9.836670654296874,-1.003021240234375,-0.1393280029296875,0.0751953125
1772534343291687400,9.8466875,-1.010162353515625,-0.1291046142578125,0.07373046875
1772534343301703400,9.856703369140625,-1.0101165771484375,-0.134063720703125,0.07232666015625
1772534343311719400,9.866719482421875,-1.01666259765625,-0.1470794677734375,0.0662841796875
1772534343321735700,9.876735595703124,-1.0161285400390625,-0.1437225341796875,0.075714111328125
1772534343331751700,9.886751708984375,-1.002593994140625,-0.150115966796875,0.091644287109375
1772534343341767400,9.896767333984375,-0.9859161376953125,-0.156524658203125,0.092437744140625
1772534343351784400,9.906784423828125,-0.9683074951171875,-0.155059814453125,0.0839691162109375
1772534343361800400,9.916800537109374,-0.9737091064453125,-0.15924072265625,0.0822601318359375
1772534343371816700,9.926816650390625,-0.9782562255859375,-0.15252685546875,0.080780029296875
1772534343381832700,9.936832763671875,-0.9844207763671875,-0.14654541015625,0.0839996337890625
1772534343391848400,9.946848388671874,-0.98779296875,-0.152008056640625,0.0868072509765625
1772534343401864400,9.956864501953126,-0.984893798828125,-0.15374755859375,0.0849456787109375
1772534343411881500,9.966881591796875,-0.982177734375,-0.1520538330078125,0.0877685546875
1772534343421897700,9.976897705078125,-0.9802093505859375,-0.1536407470703125,0.0955047607421875
1772534343431913700,9.986913818359374,-0.9810791015625,-0.1582489013671875,0.1021575927734375
1772534343441929500,9.996929443359376,-0.98492431640625,-0.1621551513671875,0.106719970703125
1772534343451945500,10.006945556640625,-0.9851837158203125,-0.1591644287109375,0.101776123046875
1772534343461962500,10.01696240234375,-0.9781646728515625,-0.153900146484375,0.095001220703125
1772534343471978500,10.026978515625,-0.9738922119140625,-0.152557373046875,0.092254638671875
1772534343481994800,10.036994873046876,-0.9722900390625,-0.1559295654296875,0.0952911376953125
1772534343492010500,10.047010498046875,-0.9687957763671875,-0.1598968505859375,0.098724365234375
1772534343502026500,10.057026611328125,-0.96978759765625,-0.1653900146484375,0.100341796875
1772534343512042500,10.06704248046875,-0.97735595703125,-0.16473388671875,0.097991943359375
1772534343522059500,10.0770595703125,-0.977203369140625,-0.156768798828125,0.0904541015625
1772534343532075500,10.087075439453125,-0.973541259765625,-0.151611328125,0.0796661376953125
1772534343542091500,10.097091552734375,-0.9797515869140625,-0.1533966064453125,0.075653076171875
1772534343552107500,10.107107421875,-0.989898681640625,-0.1560821533203125,0.0789031982421875
1772534343562123500,10.11712353515625,-0.9984893798828125,-0.1596221923828125,0.08642578125
1772534343572139500,10.127139404296875,-0.9994354248046875,-0.163299560546875,0.0917816162109375
1772534343582156500,10.137156494140624,-0.9961090087890625,-0.16485595703125,0.085601806640625
1772534343592172500,10.147172607421876,-0.989501953125,-0.1614532470703125,0.0765380859375
1772534343602188500,10.1571884765625,-0.9807891845703125,-0.153076171875,0.0699462890625
1772534343612204500,10.16720458984375,-0.9743194580078125,-0.147216796875,0.068206787109375
1772534343622220500,10.177220458984374,-0.9736785888671875,-0.1531982421875,0.0665130615234375
1772534343632237300,10.1872373046875,-0.98126220703125,-0.1601409912109375,0.075653076171875
1772534343642253600,10.197253662109375,-0.9862518310546875,-0.158782958984375,0.08380126953125
1772534343652269600,10.20726953125,-0.98260498046875,-0.1589202880859375,0.0844268798828125
1772534343662285600,10.21728564453125,-0.97467041015625,-0.162994384765625,0.08197021484375
1772534343672301600,10.227301513671875,-0.9691009521484375,-0.168853759765625,0.0874786376953125
1772534343682317600,10.237317626953125,-0.9686279296875,-0.16986083984375,0.0938873291015625
1772534343692334300,10.247334228515625,-0.9758758544921875,-0.166839599609375,0.09210205078125
1772534343702350600,10.2573505859375,-0.9798431396484375,-0.163055419921875,0.0883941650390625
1772534343712366600,10.26736669921875,-0.9789886474609375,-0.1580352783203125,0.0887603759765625
1772534343722382600,10.277382568359375,-0.9833984375,-0.157440185546875,0.0861663818359375
1772534343732398600,10.287398681640624,-0.995147705078125,-0.165069580078125,0.0903778076171875
1772534343742414600,10.29741455078125,-1.00469970703125,-0.1623077392578125,0.0932464599609375
1772534343752431600,10.307431640625,-1.00042724609375,-0.1611480712890625,0.0952606201171875
1772534343762447600,10.317447509765625,-0.9964752197265625,-0.1676483154296875,0.099365234375
1772534343772463600,10.327463623046874,-0.985992431640625,-0.170684814453125,0.097900390625
1772534343782479600,10.337479736328126,-0.9794769287109375,-0.16656494140625,0.093414306640625
1772534343792495600,10.34749560546875,-0.9629974365234375,-0.1677703857421875,0.0901031494140625
1772534343802512600,10.3575126953125,-0.9445343017578125,-0.1709747314453125,0.0806121826171875
1772534343812528600,10.367528564453124,-0.944183349609375,-0.1697845458984375,0.0798492431640625
1772534343822544600,10.377544677734376,-0.947357177734375,-0.163604736328125,0.0784759521484375
1772534343832560600,10.387560546875,-0.961273193359375,-0.1663360595703125,0.0789642333984375
1772534343842576400,10.397576416015625,-0.9887847900390625,-0.1703643798828125,0.086822509765625
1772534343852592400,10.40759228515625,-1.0067596435546875,-0.1635284423828125,0.0884857177734375
1772534343862609700,10.417609619140626,-1.0072174072265625,-0.1664581298828125,0.087921142578125
1772534343872625700,10.427625732421875,-1.0017242431640625,-0.1731719970703125,0.089599609375
1772534343882641700,10.4376416015625,-0.9869842529296875,-0.166961669921875,0.07952880859375
1772534343892657400,10.447657470703126,-0.9762420654296875,-0.1659393310546875,0.0746002197265625
1772534343902673400,10.45767333984375,-0.9797821044921875,-0.1679229736328125,0.0808258056640625
1772534343912689400,10.467689453125,-0.97796630859375,-0.1676025390625,0.080780029296875
1772534343922706700,10.477706787109375,-0.978302001953125,-0.170501708984375,0.0799713134765625
1772534343932722700,10.48772265625,-0.981842041015625,-0.1692962646484375,0.083282470703125
1772534343942738400,10.497738525390625,-0.9821014404296875,-0.1661224365234375,0.08636474609375
1772534343952754400,10.50775439453125,-0.98260498046875,-0.1674346923828125,0.088134765625
1772534343962770400,10.5177705078125,-0.9812164306640625,-0.16925048828125,0.0892333984375
1772534343972787700,10.52778759765625,-0.9849090576171875,-0.17279052734375,0.0917205810546875
1772534343982803500,10.537803466796875,-0.985321044921875,-0.170257568359375,0.0922698974609375
1772534343992819500,10.5478193359375,-0.9846343994140625,-0.1696624755859375,0.0882720947265625
1772534344002835500,10.55783544921875,-0.983978271484375,-0.168975830078125,0.08953857421875
1772534344012851500,10.5678515625,-0.98095703125,-0.1699371337890625,0.0899810791015625
1772534344022867500,10.577867431640625,-0.9799346923828125,-0.1724090576171875,0.0893707275390625
1772534344032884500,10.587884521484375,-0.9803009033203125,-0.1730194091796875,0.092254638671875
1772534344042900500,10.597900390625,-0.980865478515625,-0.173309326171875,0.0933685302734375
1772534344052916500,10.60791650390625,-0.981536865234375,-0.1743621826171875,0.09124755859375
1772534344062932500,10.617932373046875,-0.9915771484375,-0.1739654541015625,0.0933990478515625
1772534344072948500,10.627948486328124,-0.980499267578125,-0.1738433837890625,0.08892822265625
1772534344082964500,10.637964599609376,-0.9803619384765625,-0.17352294921875,0.0775909423828125
1772534344092981500,10.6479814453125,-0.981781005859375,-0.1697998046875,0.082427978515625
1772534344102997500,10.65799755859375,-0.9838104248046875,-0.1695098876953125,0.0878753662109375
1772534344113013500,10.668013427734374,-0.9796905517578125,-0.175201416015625,0.08648681640625
1772534344123029500,10.678029541015626,-0.9755859375,-0.1775665283203125,0.0856475830078125
1772534344133045500,10.68804541015625,-0.9654693603515625,-0.1780242919921875,0.08587646484375
1772534344143061800,10.698061767578125,-0.9568634033203125,-0.1769561767578125,0.08489990234375
1772534344153078500,10.70807861328125,-0.9588623046875,-0.1795501708984375,0.08099365234375
1772534344163094500,10.718094482421876,-0.972900390625,-0.182525634765625,0.077545166015625
1772534344173110500,10.728110595703125,-1.007476806640625,-0.1824951171875,0.0781097412109375
1772534344183126500,10.73812646484375,-1.0119171142578125,-0.168426513671875,0.0939483642578125
1772534344193142500,10.748142578125,-0.997894287109375,-0.1714630126953125,0.0859375
1772534344203159600,10.75815966796875,-0.9876251220703125,-0.17626953125,0.072784423828125
1772534344213175600,10.768175537109375,-0.9659271240234375,-0.17840576171875,0.077789306640625
1772534344223191600,10.778191650390625,-0.963592529296875,-0.1807708740234375,0.081207275390625
1772534344233207600,10.78820751953125,-0.98345947265625,-0.1825408935546875,0.0857696533203125
1772534344243223600,10.7982236328125,-1.0086212158203125,-0.182373046875,0.0980072021484375
1772534344253239600,10.808239501953125,-1.0163421630859375,-0.1812896728515625,0.1066741943359375
1772534344263256600,10.818256591796874,-1.0057525634765625,-0.185089111328125,0.10491943359375
1772534344273272600,10.8282724609375,-0.970916748046875,-0.1828460693359375,0.0970001220703125
1772534344283288600,10.83828857421875,-0.939239501953125,-0.18157958984375,0.0904693603515625
1772534344293304300,10.84830419921875,-0.928192138671875,-0.176605224609375,0.0821685791015625
1772534344303320600,10.858320556640624,-0.9297943115234375,-0.1781005859375,0.0890655517578125
