time,seconds_elapsed,z,y,x
1772534333504615000,0.059614990234375,0.018782684579491615,-0.005576352123171091,0.02133084274828434
1772534333514631000,0.069630859375,0.0003389631456229836,0.007704832591116428,0.006807561032474041
1772534333524646700,0.079646728515625,-0.015702322125434875,0.021791355684399605,-0.007262984290719032
1772534333534662700,0.08966259765625,-0.028454972431063652,0.021235939115285873,-0.01493515633046627
1772534333544679700,0.0996796875,-0.03481060639023781,0.004259884357452393,-0.014482419937849045
1772534333554696000,0.109696044921875,-0.031686924397945404,-0.003022778546437621,-0.012287233024835587
1772534333564712000,0.1197119140625,-0.02743891440331936,-0.006889156065881252,0.005987377371639013
1772534333574727700,0.129727783203125,-0.01897573284804821,-0.008665919303894043,0.054874271154403687
1772534333584743700,0.13974365234375,-0.013696550391614437,-0.011089661158621311,0.0773761197924614
1772534333594760700,0.1497607421875,-0.018851403146982193,-0.020384710282087326,0.07320376485586166
1772534333604777000,0.15977685546875,-0.023789435625076294,-0.019289351999759674,0.06924311071634293
1772534333614792700,0.169792724609375,-0.02575208805501461,-0.005820847116410732,0.07033279538154602
1772534333624808700,0.17980859375,-0.02948610484600067,0.00094012008048594,0.059107840061187744
1772534333634825700,0.18982568359375,-0.03570607677102089,0.00203935569152236,0.04099608585238457
1772534333644841700,0.199841796875,-0.043511804193258286,0.014265928417444229,0.018233783543109894
1772534333654857700,0.209857666015625,-0.036745160818099976,0.01469091884791851,-0.01120755635201931
1772534333664873700,0.219873779296875,-0.013737578876316547,-0.00322363362647593,-0.032471831887960434
1772534333674889700,0.2298896484375,0.011723466217517853,-0.018944688141345978,-0.009285690262913704
1772534333684906800,0.23990673828125,0.02693890407681465,-0.02426035888493061,0.019760342314839363
1772534333694922800,0.2499228515625,0.021988188847899437,-0.03264628350734711,0.029152166098356247
1772534333704938800,0.259938720703125,0.010687596164643764,-0.02556494064629078,0.020597826689481735
1772534333714954800,0.269954833984375,-0.0003052163519896567,-0.0042843688279390335,-0.0000032298266887664795
1772534333724970800,0.279970703125,-0.010574632324278355,0.010948912240564823,-0.022430773824453354
1772534333734987800,0.28998779296875,-0.019206896424293518,0.016042090952396393,-0.03899469971656799
1772534333745003800,0.300003662109375,-0.02962757833302021,0.01716834120452404,-0.0467492900788784
1772534333755019800,0.310019775390625,-0.03135383129119873,0.02192666009068489,-0.055297818034887314
1772534333765035500,0.320035400390625,-0.02311401441693306,0.022143973037600517,-0.06872787326574326
1772534333775051800,0.3300517578125,0.009225504472851753,0.0009256384801119566,-0.07650662958621979
1772534333785068800,0.34006884765625,0.04861845076084137,-0.040599968284368515,-0.06334182620048523
1772534333795084800,0.350084716796875,0.0670446828007698,-0.017989780753850937,-0.020564628764986992
1772534333805100800,0.360100830078125,0.048012129962444305,-0.011497525498270988,0.01500002108514309
1772534333815116500,0.370116455078125,0.01784723997116089,-0.0160507969558239,0.017717882990837097
1772534333825132800,0.3801328125,-0.0017451044404879212,-0.006717483047395945,0.01211246196180582
1772534333835149800,0.39014990234375,-0.01179410982877016,-0.006170570384711027,0.00836973637342453
1772534333845165800,0.400165771484375,-0.011480656452476978,0.0054328227415680885,0.008618475869297981
1772534333855181600,0.410181640625,-0.006044140085577965,0.006006450392305851,0.017372610047459602
1772534333865197600,0.420197509765625,-0.004679270088672638,0.007913540117442608,0.02066161297261715
1772534333875214800,0.43021484375,-0.003552486654371023,0.005179006606340408,0.031004533171653748
1772534333885230800,0.44023095703125,0.0002060325932689011,-0.006869400851428509,0.034964919090270996
1772534333895246800,0.450246826171875,0.008833159692585468,-0.016559628769755363,0.047423627227544785
1772534333905262600,0.4602626953125,0.015660971403121948,-0.012335589155554771,0.05630340427160263
1772534333915278600,0.470278564453125,0.0124428765848279,-0.011717669665813446,0.046554259955883026
1772534333925295900,0.4802958984375,0.00617006653919816,-0.011296357028186321,0.031443752348423004
1772534333935312000,0.490311767578125,-0.005104981362819672,-0.003535306779667735,0.01018031220883131
1772534333945327900,0.500327880859375,-0.015382918529212475,0.00348318787291646,-0.012503162026405334
1772534333955343600,0.510343505859375,-0.026567036285996437,0.011688971891999245,-0.025721793994307518
1772534333965359600,0.520359619140625,-0.030090399086475372,0.01755698025226593,-0.031546659767627716
1772534333975377000,0.530376953125,-0.025647729635238647,0.01579408347606659,-0.03128861263394356
1772534333985393000,0.540392822265625,-0.01293166819959879,0.006067420355975628,-0.02432684227824211
1772534333995409000,0.550408935546875,0.004438045900315046,-0.005123849026858807,-0.012100339867174625
1772534334005424600,0.560424560546875,0.019627917557954788,-0.01136736385524273,0.007197989616543055
1772534334015440600,0.570440673828125,0.02710747718811035,-0.009513418190181255,0.022886939346790314
1772534334025458000,0.5804580078125,0.026356732472777367,-0.007522705011069775,0.02443503588438034
1772534334035474000,0.590473876953125,0.020370954647660255,-0.008656381629407406,0.028023656457662582
1772534334045489700,0.60048974609375,0.016924824565649033,-0.01093551516532898,0.03041171282529831
1772534334055505700,0.610505615234375,0.010647016577422619,-0.01161540299654007,0.025319958105683327
1772534334065521700,0.620521728515625,0.006242414470762014,0.0005243502091616392,0.01913609728217125
1772534334075538700,0.63053857421875,0.0017669112421572208,0.006311382167041302,0.010361839085817337
1772534334085555000,0.640554931640625,-0.00069598009577021,0.011101610027253628,0.003911928739398718
1772534334095570700,0.65057080078125,-0.000660049554426223,0.012480662204325199,0.004091460723429918
1772534334105586700,0.660586669921875,0.004510211292654276,0.01179010421037674,0.007324271835386753
1772534334115603700,0.670603759765625,0.01711895316839218,0.0051711322739720345,0.004981706850230694
1772534334125619700,0.68061962890625,0.020743517205119133,0.004398549906909466,0.0032722237519919872
1772534334135636000,0.690635986328125,0.019108112901449203,0.007423234172165394,0.003444191301241517
1772534334145651700,0.700651611328125,0.012433699332177639,0.003962723538279533,0.004994151182472706
1772534334155667700,0.710667724609375,0.005283272359520197,-0.002554448088631034,0.009938705712556839
1772534334165684700,0.720684814453125,-0.0033493642695248127,0.0008602570742368698,0.007605244405567646
1772534334175700700,0.73070068359375,-0.009303011931478977,0.004833145532757044,0.00004632771015167236
1772534334185716700,0.740716796875,-0.014726539142429829,0.012030604295432568,-0.015830906108021736
1772534334195732700,0.750732666015625,-0.016327792778611183,0.016571443527936935,-0.03843621164560318
1772534334205748700,0.760748779296875,-0.015132032334804535,0.021751292049884796,-0.05884641408920288
1772534334215765800,0.770765869140625,-0.01733436807990074,0.024770883843302727,-0.06274189800024033
1772534334225781800,0.78078173828125,-0.019051574170589447,0.018735628575086594,-0.0530831441283226
1772534334235797800,0.7907978515625,-0.02403467521071434,0.024219859391450882,-0.03255757316946983
1772534334245813800,0.800813720703125,-0.01939065381884575,0.02138226106762886,-0.027626462280750275
1772534334255829800,0.810829833984375,-0.013886128552258015,0.009801855310797691,-0.022202426567673683
1772534334265846800,0.8208466796875,-0.002441460033878684,0.009124080650508404,-0.021062325686216354
1772534334275862800,0.83086279296875,0.004201922565698624,0.0042154244147241116,-0.023112591356039047
1772534334285878800,0.840878662109375,0.011841733008623123,-0.007555481046438217,-0.017762035131454468
1772534334295894500,0.85089453125,0.023759834468364716,-0.018002696335315704,0.0019185026176273823
1772534334305910800,0.860910888671875,0.03773024305701256,-0.028370648622512817,0.01380525529384613
1772534334315927800,0.870927734375,0.05385354906320572,-0.012420226819813251,0.018525758758187294
1772534334325943800,0.88094384765625,0.05053258687257767,-0.015898315235972404,0.007040344178676605
1772534334335959600,0.89095947265625,0.041034501045942307,-0.007726289331912994,-0.019547218456864357
1772534334345975600,0.9009755859375,0.023154567927122116,-0.006098032929003239,-0.053948868066072464
1772534334355991800,0.91099169921875,0.007012311834841967,0.0038805329240858555,-0.07558664679527283
1772534334366008800,0.9210087890625,-0.006331722717732191,0.015817886218428612,-0.085062175989151
1772534334376024800,0.93102490234375,-0.008139393292367458,0.008736756630241871,-0.07302717864513397
1772534334386040600,0.94104052734375,-0.0003658923669718206,-0.008673392236232758,-0.0457521453499794
1772534334396056600,0.951056640625,0.00958534236997366,-0.012000680901110172,-0.026437677443027496
1772534334406072600,0.961072509765625,0.011717735789716244,-0.013906705193221569,-0.013992194086313248
1772534334416089900,0.97108984375,0.0077203307300806046,-0.010202780365943909,0.005510668270289898
1772534334426105900,0.98110595703125,-0.0006145642837509513,-0.00029315799474716187,0.024882234632968903
1772534334436121600,0.99112158203125,-0.01275809109210968,-0.0013947738334536552,0.040120650082826614
1772534334446137600,1.0011376953125,-0.02232389897108078,-0.0021063704043626785,0.05746128782629967
1772534334456154600,1.011154541015625,-0.023113299161195755,-0.012508228421211243,0.0800720751285553
1772534334466170600,1.021170654296875,-0.025334907695651054,-0.011937779374420643,0.08977184444665909
1772534334476187000,1.031186767578125,-0.017304839566349983,-0.034424565732479095,0.09830182045698166
1772534334486202600,1.04120263671875,0.007363490294665098,-0.005601170938462019,0.1098860427737236
1772534334496218600,1.051218505859375,0.0012126305373385549,0.000010176096111536026,0.11443129181861877
1772534334506235600,1.061235595703125,-0.004176808521151543,0.011277743615210056,0.12713909149169922
1772534334516251600,1.071251708984375,0.0066827405244112015,-0.017485659569501877,0.13293656706809998
1772534334526267600,1.081267578125,0.01605786569416523,-0.04333323612809181,0.1297530233860016
1772534334536283600,1.09128369140625,0.023980624973773956,-0.024259110912680626,0.09364151209592819
1772534334546299600,1.101299560546875,0.029558351263403893,-0.011942523531615734,0.06047077849507332
1772534334556316700,1.111316650390625,0.029041513800621033,-0.004005287773907185,0.02228201925754547
1772534334566332700,1.121332763671875,0.019780904054641724,0.006218054331839085,-0.02033122256398201
1772534334576348400,1.131348388671875,0.013097845949232578,0.005710422061383724,-0.05380650609731674
1772534334586364700,1.14136474609375,0.0105787618085742,0.009108349680900574,-0.06547834724187851
1772534334596380700,1.151380615234375,0.013159564696252346,-0.0015800462570041418,-0.07190071046352386
1772534334606397700,1.161397705078125,0.01826191507279873,-0.006980137899518013,-0.07544831186532974
1772534334616413700,1.17141357421875,0.01674461178481579,-0.0007684151642024517,-0.07187134027481079
1772534334626429400,1.181429443359375,0.01215172465890646,0.00821815524250269,-0.06096037104725838
1772534334636445700,1.19144580078125,0.010976982302963734,0.0009227592963725328,-0.03965717926621437
1772534334646461700,1.201461669921875,0.011017994955182076,-0.007401483599096537,-0.014543035998940468
1772534334656478700,1.211478759765625,0.0054217115975916386,-0.019701609387993813,0.009892172180116177
1772534334666494700,1.22149462890625,-0.004682854283601046,-0.012985383160412312,0.02781284973025322
1772534334676510500,1.231510498046875,-0.02407195419073105,-0.0011080852709710598,0.02511419542133808
1772534334686526700,1.241526611328125,-0.04544062167406082,0.0229964517056942,0.0035537772346287966
1772534334696542700,1.251542724609375,-0.06148742511868477,0.03688021004199982,-0.025819867849349976
1772534334706559700,1.261559814453125,-0.06629282981157303,0.03673746436834335,-0.03112754598259926
1772534334716575700,1.27157568359375,-0.051067013293504715,0.02227751724421978,-0.021246373653411865
1772534334726591500,1.281591552734375,-0.03453490883111954,0.008487403392791748,-0.019026363268494606
1772534334736607500,1.291607421875,-0.019979327917099,0.0014458526857197285,-0.009179213084280491
1772534334746623700,1.301623779296875,-0.007423323579132557,-0.0014335568994283676,-0.0027029383927583694
1772534334756640800,1.311640869140625,0.0015076329000294209,-0.004472889006137848,-0.008379273116588593
1772534334766656500,1.321656494140625,0.003994759172201157,-0.0031961698550730944,-0.016675550490617752
1772534334776672500,1.331672607421875,-0.002402260899543762,0.008470455184578896,-0.027521943673491478
1772534334786688500,1.3416884765625,-0.014077026396989822,0.020260268822312355,-0.045613329857587814
1772534334796704800,1.351704833984375,-0.024298405274748802,0.018477384001016617,-0.06414448469877243
1772534334806721800,1.3617216796875,-0.02891366370022297,0.010273249819874763,-0.0873454138636589
1772534334816737500,1.371737548828125,-0.03388887643814087,0.030864961445331573,-0.10323049128055573
1772534334826753500,1.38175341796875,-0.03598877787590027,0.037425924092531204,-0.10606063157320023
1772534334836769500,1.39176953125,-0.034573283046483994,0.02977326698601246,-0.10547903180122375
1772534334846785500,1.40178564453125,-0.023376822471618652,0.015048380941152573,-0.09401625394821167
1772534334856802800,1.411802734375,-0.008153052069246769,-0.0048886751756072044,-0.07451850175857544
1772534334866818600,1.421818603515625,0.0026031886227428913,-0.017691023647785187,-0.06419715285301208
1772534334876834600,1.43183447265625,0.007345129735767841,-0.01679774932563305,-0.06289531290531158
1772534334886850600,1.4418505859375,0.007505451794713736,-0.01928061433136463,-0.06874361634254456
1772534334896867800,1.451867919921875,0.002598866820335388,-0.0008766398532316089,-0.06380428373813629
1772534334906883800,1.4618837890625,-0.009878043085336685,0.016932183876633644,-0.05602758377790451
1772534334916899600,1.471899658203125,-0.01628703810274601,0.0058514708653092384,-0.04159583896398544
1772534334926915600,1.48191552734375,-0.009784398600459099,-0.020932737737894058,-0.011842734180390835
1772534334936931600,1.491931640625,-0.0034353076480329037,-0.014767803251743317,0.01836969703435898
1772534334946948900,1.501948974609375,-0.004629202652722597,-0.015768619254231453,0.04636724293231964
1772534334956964600,1.511964599609375,0.0018434952944517136,-0.01342528872191906,0.06813199073076248
1772534334966980600,1.521980712890625,-0.003922781441360712,-0.005916239693760872,0.08180439472198486
1772534334976996600,1.53199658203125,-0.004645736422389746,-0.0019057339522987604,0.10093171894550323
1772534334987012600,1.5420126953125,0.0026771575212478638,-0.018495894968509674,0.10871081054210663
1772534334997029600,1.552029541015625,0.025670204311609268,-0.03435402363538742,0.10162262618541718
1772534335007045600,1.562045654296875,0.036473579704761505,-0.031540658324956894,0.08027046918869019
1772534335017061600,1.5720615234375,0.03709714859724045,-0.015303332358598709,0.057234279811382294
1772534335027077600,1.58207763671875,0.04184529930353165,-0.01639416441321373,0.02580871433019638
1772534335037093600,1.59209375,0.0379970408976078,-0.013594547286629677,-0.001994093880057335
1772534335047110700,1.602110595703125,0.029584914445877075,0.0020832158625125885,-0.01567874662578106
1772534335057126700,1.612126708984375,0.023829791694879532,0.00010019098408520222,-0.02170364186167717
1772534335067142700,1.622142578125,0.021734682843089104,-0.005330527201294899,-0.021791793406009674
1772534335077158700,1.63215869140625,0.02051253616809845,-0.009330794215202332,-0.013940757140517235
1772534335087174700,1.642174560546875,0.022425752133131027,-0.016332246363162994,-0.002048145979642868
1772534335097191700,1.652191650390625,0.02220313996076584,-0.01839061826467514,0.01878301240503788
1772534335107207700,1.662207763671875,0.012084993533790112,-0.02128307893872261,0.02907612919807434
1772534335117223700,1.6722236328125,0.0041419630870223045,-0.01856320910155773,0.02356039360165596
1772534335127239700,1.68223974609375,-0.0011265682987868786,-0.012982821092009544,0.010165758430957794
1772534335137255700,1.692255615234375,-0.006337398197501898,-0.004771227948367596,-0.0045219664461910725
1772534335147272700,1.702272705078125,-0.006791200954467058,0.0006842573639005423,-0.017383169382810593
1772534335157288400,1.712288330078125,-0.009142987430095673,-0.0011536753736436367,-0.02656373754143715
1772534335167304700,1.7223046875,-0.013164627365767956,0.004764134995639324,-0.028088396415114403
1772534335177320700,1.73232080078125,-0.01631500944495201,0.010153225623071194,-0.03005976974964142
1772534335187336700,1.742336669921875,-0.017077738419175148,0.011215027421712875,-0.03162571042776108
1772534335197353700,1.752353759765625,-0.016934270039200783,0.012129923328757286,-0.027465542778372765
1772534335207369500,1.762369384765625,-0.015009605325758457,0.009166888892650604,-0.02394883893430233
1772534335217385700,1.7723857421875,-0.010117094963788986,0.0031735957600176334,-0.012152085080742836
1772534335227401700,1.782401611328125,-0.006024083122611046,0.001434018835425377,0.0031746728345751762
1772534335237417700,1.792417724609375,-0.0029247573111206293,0.004132050555199385,0.02291993983089924
1772534335247434500,1.8024345703125,-0.0006733209011144936,0.004387448076158762,0.03864670544862747
1772534335257450500,1.812450439453125,0.0009159770561382174,0.002043965505436063,0.05202407017350197
1772534335267466500,1.822466552734375,0.005182893946766853,0.00045352568849921227,0.055614542216062546
1772534335277482800,1.832482666015625,0.008306104689836502,-0.0004167619626969099,0.05627542734146118
1772534335287498800,1.842498779296875,0.01088058203458786,-0.002151012420654297,0.054083116352558136
1772534335297515500,1.852515625,0.013383520767092705,-0.0014896494103595614,0.04859186336398125
1772534335307531500,1.862531494140625,0.013411483727395535,0.0009522028267383575,0.042624782770872116
1772534335317547500,1.872547607421875,0.010332891717553139,0.004173229448497295,0.03276226297020912
1772534335327563800,1.882563720703125,0.005791403353214264,0.004057382233440876,0.030474074184894562
1772534335337579800,1.892579833984375,0.0005590681685134768,-0.0004456902388483286,0.03140435367822647
1772534335347596500,1.902596435546875,-0.00181673769839108,0.0007932120934128761,0.0322541669011116
1772534335357612500,1.912612548828125,0.0002669039531610906,-0.005029140505939722,0.034033942967653275
1772534335367628500,1.922628662109375,0.00424220459535718,-0.0093301460146904,0.041501980274915695
1772534335377644500,1.93264453125,0.013961676508188248,-0.020623814314603806,0.0582394115626812
1772534335387660800,1.942660888671875,0.019019553437829018,-0.02183954417705536,0.06463366746902466
1772534335397677600,1.952677490234375,0.013516419567167759,-0.01725524663925171,0.07073040306568146
1772534335407694800,1.96269482421875,0.007440151181071997,-0.011777658015489578,0.07182282954454422
1772534335417710800,1.9727109375,0.0042778910137712955,-0.013405847363173962,0.06553248316049576
1772534335427727000,1.98272705078125,0.0021825158037245274,-0.010459059849381447,0.048668280243873596
1772534335437742800,1.992742919921875,-0.0006336010410450399,-0.00540517782792449,0.03834334760904312
1772534335447760000,2.002759765625,-0.005328487604856491,-0.004796645604074001,0.027886180207133293
1772534335457775900,2.01277587890625,-0.004922333639115095,0.0004369316156953573,0.016257185488939285
1772534335467792000,2.0227919921875,-0.0024258862249553204,0.0007322761230170727,0.0044250269420444965
1772534335477807900,2.032807861328125,0.002500451635569334,-0.0024172449484467506,-0.009419452399015427
1772534335487824000,2.042823974609375,0.0025228222366422415,-0.0006230734288692474,-0.018659554421901703
1772534335497841000,2.0528408203125,0.0022851238027215004,0.004019648768007755,-0.020931612700223923
1772534335507857000,2.06285693359375,-0.005170395597815514,0.0058377888053655624,-0.024202240630984306
1772534335517873000,2.072872802734375,-0.004756668582558632,0.004436034709215164,-0.02561100758612156
1772534335527889000,2.082888916015625,-0.001151813892647624,-0.00720437616109848,-0.023666366934776306
1772534335537905000,2.09290478515625,0.00677923858165741,-0.013768952339887619,-0.006442241370677948
1772534335547922000,2.102921875,0.01730591617524624,-0.020292365923523903,0.021455436944961548
1772534335557938000,2.11293798828125,0.017202554270625114,-0.01951364055275917,0.04870978370308876
1772534335567954000,2.122953857421875,0.01191404927521944,0.011547073721885681,0.06891784816980362
1772534335577969700,2.1329697265625,-0.00655830604955554,-0.029085226356983185,0.09399054944515228
1772534335587985700,2.142985595703125,-0.00874263048171997,-0.06317368894815445,0.11059722304344177
1772534335598003000,2.1530029296875,-0.00883893296122551,-0.006538582965731621,0.07328958809375763
1772534335608019000,2.16301904296875,-0.02106097899377346,0.004809412639588118,0.05462402105331421
1772534335618035000,2.173034912109375,-0.026427624747157097,0.0066194599494338036,0.024677833542227745
1772534335628050700,2.18305078125,-0.020414473488926888,0.015557028353214264,-0.02059324085712433
1772534335638066700,2.193066650390625,-0.012273585423827171,0.013612787239253521,-0.05502067506313324
1772534335648084000,2.203083984375,-0.0021919230930507183,0.013115841895341873,-0.07856568694114685
1772534335658100000,2.213099853515625,0.007433774881064892,0.019354045391082764,-0.0908062756061554
1772534335668116000,2.223115966796875,0.012979009188711643,0.01765521615743637,-0.09062837809324265
1772534335678131700,2.233131591796875,0.017815232276916504,0.015300815925002098,-0.07795542478561401
1772534335688147700,2.243147705078125,0.02337990701198578,0.007046880200505257,-0.0508929081261158
1772534335698165000,2.2531650390625,0.03070605918765068,-0.006981570273637772,-0.017504919320344925
1772534335708181000,2.263180908203125,0.038907263427972794,-0.0175604447722435,0.012928620912134647
1772534335718197000,2.273197021484375,0.039818160235881805,-0.018412824720144272,0.0364847332239151
1772534335728212700,2.283212646484375,0.03423218056559563,-0.013240698724985123,0.04528621584177017
1772534335738228700,2.293228759765625,0.02608952298760414,-0.009634378366172314,0.03827951103448868
1772534335748246000,2.30324609375,0.018716029822826385,-0.0072199562564492226,0.019724469631910324
1772534335758262000,2.313261962890625,0.010220734402537346,0.001867914106696844,-0.0032689538784325123
1772534335768277800,2.32327783203125,-0.0008039530948735774,0.016815703362226486,-0.02936233952641487
1772534335778293800,2.333293701171875,-0.005698577035218477,0.02135053649544716,-0.05276833102107048
1772534335788309800,2.343309814453125,-0.0045201280154287815,0.016109168529510498,-0.064559206366539
1772534335798327000,2.3533271484375,0.0004732611123472452,0.012387850321829319,-0.06539276242256165
1772534335808343000,2.363343017578125,0.005959372967481613,0.010384087450802326,-0.06131811812520027
1772534335818358800,2.37335888671875,0.011486200615763664,0.005601333454251289,-0.047593433409929276
1772534335828374800,2.383374755859375,0.014208750799298286,0.00024278718046844006,-0.03389279916882515
1772534335838390800,2.393390869140625,0.01739398203790188,-0.003946632146835327,-0.017155777662992477
1772534335848408000,2.403407958984375,0.01577797532081604,-0.004350633360445499,0.0014818222261965275
1772534335858424000,2.413424072265625,0.012313058599829674,-0.0043343547731637955,0.01690513826906681
1772534335868439800,2.423439697265625,0.010618222877383232,-0.0034690939355641603,0.025530850514769554
1772534335878455800,2.433455810546875,0.008288177661597729,-0.0030564372427761555,0.02248905971646309
1772534335888471800,2.443471923828125,0.009858643636107445,0.0037593909073621035,0.012806073762476444
1772534335898488800,2.45348876953125,0.014143753796815872,0.011378377676010132,-0.003086965996772051
1772534335908505000,2.463505126953125,0.015581061132252216,0.014344872906804085,-0.02201804704964161
1772534335918520800,2.473520751953125,0.021371854469180107,0.013293607160449028,-0.03624117746949196
1772534335928536800,2.483536865234375,0.027036398649215698,0.013635823503136635,-0.047773197293281555
1772534335938552800,2.493552734375,0.029298312962055206,0.007690849248319864,-0.05822411924600601
1772534335948569900,2.50356982421875,0.03334391862154007,0.0036082230508327484,-0.06739763915538788
1772534335958585900,2.5135859375,0.03819897025823593,-0.008532711304724216,-0.05162360519170761
1772534335968601900,2.523601806640625,0.03979180380702019,-0.014762643724679947,-0.022336022928357124
1772534335978617900,2.533617919921875,0.03686464950442314,-0.016472244635224342,0.0002482756972312927
1772534335988633900,2.5436337890625,0.029711134731769562,-0.009481445886194706,0.00881140399724245
1772534335998651000,2.55365087890625,0.02314678393304348,-0.002697459189221263,0.007581927813589573
1772534336008667000,2.5636669921875,0.014640646986663342,0.005444889888167381,0.005985628813505173
1772534336018683000,2.573682861328125,0.009569288231432438,0.0011591638904064894,0.007873466238379478
1772534336028699000,2.583698974609375,0.0021145674400031567,-0.001460587722249329,0.014301272109150887
1772534336038715000,2.59371484375,-0.006879772525280714,0.001216288423165679,0.01595010794699192
1772534336048732000,2.60373193359375,-0.017318030819296837,0.006743146572262049,0.01116813626140356
1772534336058747600,2.61374755859375,-0.025401243939995766,0.013529829680919647,0.00035092304460704327
1772534336068764000,2.623763916015625,-0.026436947286128998,0.014969268813729286,-0.008223123848438263
1772534336078780000,2.63377978515625,-0.019209204241633415,0.0018722079694271088,-0.005959127563983202
1772534336088796000,2.6437958984375,-0.005260631442070007,-0.005060000345110893,0.002770713996142149
1772534336098813000,2.65381298828125,0.008966165594756603,-0.003061197465285659,0.004981711972504854
1772534336108828700,2.66382861328125,0.016095448285341263,-0.003657212946563959,0.00027457461692392826
1772534336118844700,2.6738447265625,0.016007639467716217,-0.0025065613444894552,-0.008600717410445213
1772534336128861000,2.68386083984375,0.01102885976433754,0.0017699426971375942,-0.012592263519763947
1772534336138877000,2.693876953125,0.002563127549365163,0.0006155627779662609,-0.01340688206255436
1772534336148894000,2.70389404296875,-0.008967560715973377,0.002841432811692357,-0.013280382379889488
1772534336158909700,2.71390966796875,-0.016055017709732056,0.005994765087962151,-0.015128600411117077
1772534336168925700,2.72392578125,-0.017789267003536224,0.003875155234709382,-0.019227471202611923
1772534336178942000,2.73394189453125,-0.011525031179189682,0.006098661571741104,-0.018979791551828384
1772534336188958000,2.7439580078125,-0.004405071027576923,0.004143635742366314,-0.01564444974064827
1772534336198974700,2.753974609375,0.0037169610150158405,0.0012997956946492195,-0.008073721081018448
1772534336208990700,2.76399072265625,0.002835454884916544,-0.0035615386441349983,-0.004508546553552151
1772534336219006700,2.7740068359375,0.002113151829689741,-0.005335969850420952,0.002768813632428646
1772534336229023000,2.78402294921875,-0.0002400173689238727,-0.007224950008094311,0.008262915536761284
1772534336239039000,2.7940390625,-0.0024686490651220083,-0.005138463340699673,0.006071743555366993
1772534336249055700,2.8040556640625,-0.008010687306523323,-0.0006204103119671345,-0.005925264675170183
1772534336259071700,2.81407177734375,-0.01479292195290327,0.005535835865885019,-0.019864004105329514
1772534336269087700,2.824087646484375,-0.02269691601395607,0.009823525324463844,-0.02718663215637207
1772534336279103700,2.834103759765625,-0.028225282207131386,0.010656879283487797,-0.028903067111968994
1772534336289120000,2.8441201171875,-0.026950692757964134,0.007437916472554207,-0.021028365939855576
1772534336299136800,2.85413671875,-0.020755883306264877,-0.001089543104171753,-0.013674400746822357
1772534336309152800,2.86415283203125,-0.01566791534423828,-0.00462089478969574,-0.007165900431573391
1772534336319168800,2.874168701171875,-0.016248436644673347,0.003098677610978484,-0.012525319121778011
1772534336329184800,2.884184814453125,-0.02582569792866707,0.011893500573933125,-0.013504830189049244
1772534336339201000,2.894200927734375,-0.03237390145659447,0.01663532480597496,-0.010542824864387512
1772534336349217800,2.9042177734375,-0.03917481750249863,0.013942336663603783,-0.0134462034329772
1772534336359233800,2.91423388671875,-0.038230933248996735,0.013269638642668724,0.00024824589490890503
1772534336369249800,2.924249755859375,-0.03224175050854683,0.001183148706331849,0.022739704698324203
1772534336379265800,2.934265869140625,-0.023458680137991905,-0.008649591356515884,0.045425862073898315
1772534336389281800,2.94428173828125,-0.018336888402700424,-0.012368962168693542,0.058430612087249756
1772534336399298800,2.954298828125,-0.013712379150092602,-0.015029260888695717,0.058576129376888275
1772534336409313800,2.964313720703125,-0.013808518648147583,-0.015631668269634247,0.05429963022470474
1772534336419329800,2.974329833984375,-0.018030138686299324,-0.009112315252423286,0.04846220836043358
1772534336429345800,2.984345703125,-0.020260002464056015,-0.0018639902118593454,0.03782793879508972
1772534336439361800,2.99436181640625,-0.02525070495903492,0.005683691240847111,0.026278551667928696
1772534336449378800,3.00437890625,-0.02784542366862297,0.013051592744886875,0.0069258930161595345
1772534336459394800,3.014394775390625,-0.026704054325819016,0.014228160493075848,-0.020994631573557854
1772534336469410800,3.024410888671875,-0.025505898520350456,0.010171633213758469,-0.04257741943001747
1772534336479426800,3.0344267578125,-0.01670560985803604,0.006974159739911556,-0.04057269170880318
1772534336489442800,3.04444287109375,-0.01212683878839016,-0.0038499925285577774,-0.024176673963665962
1772534336499459800,3.0544599609375,-0.004479959607124329,-0.007070586085319519,-0.005734436213970184
1772534336509475600,3.0644755859375,-0.0016341058071702719,-0.008964626118540764,0.0052827950567007065
1772534336519491600,3.07449169921875,0.0011367304250597954,-0.0043763164430856705,0.009315792471170425
1772534336529507800,3.0845078125,0.00013058813055977225,0.0021010239142924547,0.00699964165687561
1772534336539523800,3.09452392578125,-0.004668998997658491,0.007258950732648373,0.01044392865151167
1772534336549540900,3.104540771484375,-0.0056517054326832294,0.0031102788634598255,0.01854526437819004
1772534336559556600,3.114556640625,-0.005650350358337164,-0.0023170437198132277,0.03585018217563629
1772534336569572600,3.124572509765625,-0.0029163493309170008,-0.004654500633478165,0.043221015483140945
1772534336579588900,3.1345888671875,-0.003257302800193429,0.0008986569009721279,0.0377294197678566
1772534336589604900,3.14460498046875,-0.001635171240195632,0.009921712800860405,0.01806437037885189
1772534336599622000,3.154621826171875,0.003273389767855406,0.013101430609822273,-0.00414927676320076
1772534336609637600,3.1646376953125,0.0068337698467075825,0.011769318021833897,-0.016394492238759995
1772534336619653600,3.174653564453125,0.008646129630506039,0.010504046455025673,-0.0182658601552248
1772534336629669600,3.184669677734375,0.00638350797817111,0.011415911838412285,-0.018190493807196617
1772534336639686000,3.194685791015625,0.0029001766815781593,0.011798292398452759,-0.017627064138650894
1772534336649703000,3.204702880859375,0.0005749707925133407,0.015488102100789547,-0.021372532472014427
1772534336659718700,3.21471875,-0.00011007796274498105,0.011793015524744987,-0.02193037047982216
1772534336669734700,3.224734619140625,0.0015227061230689287,0.005523135419934988,-0.015156088396906853
1772534336679750700,3.234750732421875,0.0013197732623666525,0.0035702395252883434,-0.005623302888125181
1772534336689767000,3.244766845703125,-0.002468307036906481,0.003664249088615179,0.003351016901433468
1772534336699783700,3.25478369140625,-0.011072135530412197,0.0053022271022200584,0.006652996875345707
1772534336709799700,3.264799560546875,-0.020275752991437912,0.01109167281538248,-0.0008302191272377968
1772534336719815700,3.274815673828125,-0.02839055098593235,0.01879037171602249,-0.011389235034584999
1772534336729831700,3.284831787109375,-0.03635580092668533,0.024036534130573273,-0.021969441324472427
1772534336739848000,3.294847900390625,-0.03482181951403618,0.022726258262991905,-0.02793332189321518
1772534336749864700,3.30486474609375,-0.032820817083120346,0.020207606256008148,-0.031995367258787155
1772534336759880700,3.314880615234375,-0.027666626498103142,0.008648155257105827,-0.03549328073859215
1772534336769896700,3.324896728515625,-0.02596486732363701,0.005482988432049751,-0.055882975459098816
1772534336779912700,3.33491259765625,-0.02396850660443306,0.025281645357608795,-0.04640518128871918
1772534336789928700,3.3449287109375,-0.015981953591108322,0.008798808790743351,-0.03433014079928398
1772534336799945700,3.35494580078125,-0.007915065623819828,-0.0016548988642171025,-0.027117352932691574
1772534336809961700,3.364961669921875,-0.004565074574202299,-0.005008883774280548,-0.016836751252412796
1772534336819977700,3.374977783203125,-0.0013758835848420858,0.001800471218302846,-0.00906231440603733
1772534336829993700,3.38499365234375,0.0027275150641798973,0.0011599808931350708,-0.0011828197166323662
1772534336840009700,3.395009765625,0.006061044987291098,-0.00513123907148838,0.0024963351897895336
1772534336850026800,3.40502685546875,0.00783524289727211,-0.002813490107655525,-0.00179774546995759
1772534336860042800,3.415042724609375,0.005565548315644264,-0.00224177329801023,-0.0061484738253057
1772534336870058800,3.425058837890625,0.00630936911329627,-0.0025104861706495285,-0.010200738906860352
1772534336880074800,3.43507470703125,0.008257041685283184,-0.004588620737195015,-0.015938790515065193
1772534336890090800,3.4450908203125,0.011498374864459038,-0.0012325049610808492,-0.025980239734053612
1772534336900107800,3.455107666015625,0.012951661832630634,-0.001764870947226882,-0.03519238159060478
1772534336910123800,3.465123779296875,0.0162582416087389,0.0010034849401563406,-0.04320583492517471
1772534336920139800,3.475139892578125,0.018138177692890167,0.009646824561059475,-0.04446050152182579
1772534336930155800,3.48515576171875,0.014123727567493916,0.008966919966042042,-0.04011502116918564
1772534336940171800,3.495171875,0.01513601839542389,0.008654198609292507,-0.028950819745659828
1772534336950188800,3.505188720703125,0.009822745807468891,0.005943899974226952,-0.01030842587351799
1772534336960204800,3.515204833984375,0.008988984860479832,0.0022015252616256475,0.0028294394724071026
1772534336970220800,3.525220703125,0.009018812328577042,0.00003637513145804405,0.007066262420266867
1772534336980236800,3.53523681640625,0.009444432333111763,-0.0007070458959788084,0.003362530143931508
1772534336990252800,3.545252685546875,0.01092728041112423,0.0033063378650695086,0.0007771335076540709
1772534337000269800,3.555269775390625,0.00888863019645214,0.01140394527465105,0.0006173436995595694
1772534337010285800,3.565285888671875,0.003762844018638134,0.01575395278632641,-0.0034783314913511276
1772534337020301800,3.5753017578125,-0.0005555640091188252,0.015484439209103584,-0.0002789287827908993
1772534337030317800,3.58531787109375,-0.0044072940945625305,0.013861509039998055,0.0025424237828701735
1772534337040333800,3.595333740234375,-0.004626356065273285,0.008998513221740723,0.007050970569252968
1772534337050349800,3.605349853515625,-0.006321990396827459,0.004237046930938959,0.008827032521367073
1772534337060366800,3.615366943359375,-0.007998292334377766,0.005362881347537041,0.006616475060582161
1772534337070382800,3.6253828125,-0.012071064673364162,0.004015853628516197,0.002054746262729168
1772534337080398800,3.63539892578125,-0.018533939495682716,0.004358552396297455,0.002134013921022415
1772534337090414800,3.645414794921875,-0.01957363821566105,0.008357022888958454,0.0031268405728042126
1772534337100430800,3.655430908203125,-0.025676270946860313,0.01248465571552515,0.004931930918246508
1772534337110447900,3.66544775390625,-0.026126345619559288,0.014001325704157352,0.004897576291114092
1772534337120464000,3.6754638671875,-0.02419915981590748,0.00682041235268116,0.010221919044852257
1772534337130479900,3.68547998046875,-0.016365736722946167,-0.00234991661272943,0.023073801770806313
1772534337140496000,3.695495849609375,-0.011878867633640766,-0.007497474551200867,0.03531559184193611
1772534337150511600,3.70551171875,-0.011122796684503555,-0.008929722011089325,0.0427175834774971
1772534337160529000,3.71552880859375,-0.010042884387075901,-0.008369393646717072,0.04419110715389252
1772534337170545000,3.725544921875,-0.01024794764816761,-0.005551769398152828,0.037090055644512177
1772534337180561000,3.735560791015625,-0.009622105397284031,-0.00074795912951231,0.025533001869916916
1772534337190577000,3.745576904296875,-0.004343187436461449,0.00346382986754179,0.004702555015683174
1772534337200592600,3.755592529296875,0.002631037961691618,0.005310981534421444,-0.005400621797889471
1772534337210609700,3.765609619140625,0.009491074830293655,0.0054470691829919815,-0.009975666180253029
1772534337220626000,3.7756259765625,0.01552773267030716,0.004789869301021099,-0.014607015997171402
1772534337230642000,3.785641845703125,0.01429895032197237,0.0058924173936247826,-0.020329883322119713
1772534337240658000,3.795657958984375,0.012147008441388607,0.005525283515453339,-0.0234839990735054
1772534337250673700,3.805673583984375,0.013948370702564716,0.0004556903149932623,-0.02035052329301834
1772534337260690700,3.815690673828125,0.01663762889802456,-0.012737610377371311,0.002286080503836274
1772534337270707000,3.82570703125,0.021084042266011238,-0.021152133122086525,0.019836045801639557
1772534337280723000,3.835722900390625,0.022075902670621872,-0.01918742060661316,0.02719161845743656
1772534337290739000,3.845739013671875,0.018672116100788116,-0.007130757439881563,0.01689796894788742
1772534337300754700,3.855754638671875,0.010542972013354301,0.0006528822705149651,0.004143350291997194
1772534337310771700,3.865771728515625,0.0039862701669335365,-0.003322418313473463,-0.0017201313748955727
1772534337320787700,3.87578759765625,0.0029314658604562283,-0.0045856572687625885,0.008273608051240444
1772534337330804000,3.885803955078125,0.0055661313235759735,-0.010906403884291649,0.025444073602557182
1772534337340819700,3.89581982421875,0.006186162121593952,-0.013226415030658245,0.035930730402469635
1772534337350835700,3.905835693359375,0.008275678381323814,-0.010041806846857071,0.03136074170470238
1772534337360852700,3.915852783203125,0.012567123398184776,-0.004530363716185093,0.016980772837996483
1772534337370868700,3.92586865234375,0.015188473276793957,0.0000803670845925808,-0.007109117228537798
1772534337380885000,3.935885009765625,0.018473444506525993,-0.0009013572707772255,-0.01944832131266594
1772534337390900700,3.945900634765625,0.02189614064991474,0.0011620600707828999,-0.013239692896604538
1772534337400916700,3.955916748046875,0.022230837494134903,-0.0014387996634468436,0.00037071481347084045
1772534337410933500,3.96593359375,0.024215690791606903,-0.007751290686428547,0.009658223018050194
1772534337420950500,3.975950439453125,0.025725826621055603,-0.004394874908030033,0.017520025372505188
1772534337430966300,3.98596630859375,0.02534685842692852,-0.0023985696025192738,0.02083432860672474
1772534337440982300,3.995982177734375,0.026284605264663696,-0.0044461400248110294,0.02799602784216404
1772534337450998300,4.005998291015625,0.024829186499118805,-0.003746527712792158,0.03100273758172989
1772534337461014500,4.0160146484375,0.018014289438724518,0.0034187922719866037,0.0291277002543211
1772534337471031600,4.026031494140625,0.007732623256742954,0.010271371342241764,0.017264915630221367
1772534337481047300,4.03604736328125,0.004932929761707783,0.00582420639693737,0.0013711496721953154
1772534337491063300,4.046063232421875,0.00831754133105278,-0.000048596179112792015,-0.0008291536942124367
1772534337501079300,4.056079345703125,0.009790862910449505,-0.0004981213714927435,0.0011931932531297207
1772534337511095600,4.066095458984375,0.012477726675570011,0.0009008371271193027,0.0005865253042429686
1772534337521112300,4.0761123046875,0.012421738356351852,0.0007476888131350279,-0.0000778762623667717
1772534337531128300,4.08612841796875,0.010870713740587234,0.0015508984215557575,0.0013743455056101084
1772534337541144300,4.096144287109375,0.009673113003373146,0.00052045495249331,0.0056047397665679455
1772534337551160300,4.106160400390625,0.005100199952721596,-0.005357674323022366,0.012658653780817986
1772534337561176300,4.11617626953125,0.0037238546647131443,-0.0015114706475287676,0.017497388646006584
1772534337571193300,4.126193359375,0.0013112970627844334,0.0026012491434812546,0.017280874773859978
1772534337581209300,4.136209228515625,0.0023127158638089895,0.001719810301437974,0.016695132479071617
1772534337591225300,4.146225341796875,0.005765770561993122,0.0009690653532743454,0.021789761260151863
1772534337601241300,4.156241455078125,0.007309689186513424,0.0006544964853674173,0.03103562816977501
1772534337611257300,4.16625732421875,0.006241495255380869,0.0030433519277721643,0.03754891827702522
1772534337621274400,4.1762744140625,0.002726510399952531,0.0075348056852817535,0.03977547585964203
1772534337631290400,4.186290283203125,0.004960636142641306,0.006119336001574993,0.03485634922981262
1772534337641306400,4.196306396484375,0.0092454943805933,0.0038054140750318766,0.03344479948282242
1772534337651322400,4.206322265625,0.009565605781972408,0.003725253278389573,0.038371648639440536
1772534337661338400,4.21633837890625,0.011879893019795418,0.003792897565290332,0.04205053672194481
1772534337671355400,4.22635546875,0.016803544014692307,0.004134315066039562,0.03790506348013878
1772534337681371400,4.236371337890625,0.01496155746281147,0.0037686959840357304,0.031109090894460678
1772534337691387400,4.246387451171875,0.013900554738938808,0.00132125080563128,0.0194428488612175
1772534337701403400,4.2564033203125,0.01209652703255415,-0.0035910452716052532,0.013739879243075848
1772534337711419400,4.26641943359375,0.0102948984131217,-0.008091255091130733,0.006075035315006971
1772534337721436400,4.2764365234375,0.00415710499510169,-0.009201481938362122,-0.0029798494651913643
1772534337731452400,4.286452392578125,-0.0013255445519462228,-0.007056039292365313,-0.012525416910648346
1772534337741468400,4.296468505859375,-0.004428749438375235,-0.004569227807223797,-0.024715481325984
1772534337751484400,4.306484375,-0.005847948137670755,-0.0025228550657629967,-0.030086278915405273
1772534337761500400,4.31650048828125,-0.009653894230723381,-0.004357707221060991,-0.02696261927485466
1772534337771516400,4.326516357421875,-0.008466657251119614,-0.0053515988402068615,-0.021223507821559906
1772534337781533400,4.336533447265625,-0.009882988408207893,-0.004110315348953009,-0.017803417518734932
1772534337791549400,4.346549560546875,-0.014245245605707169,0.0010855118744075298,-0.021378712728619576
1772534337801565400,4.3565654296875,-0.01800711825489998,0.008500968106091022,-0.020990820601582527
1772534337811581400,4.36658154296875,-0.01879514753818512,0.009011762216687202,-0.011789333075284958
1772534337821597400,4.376597412109375,-0.014154273085296154,0.0025636814534664154,0.0013818596489727497
1772534337831614500,4.386614501953125,-0.005937888287007809,-0.0027128392830491066,0.011536226607859135
1772534337841630500,4.39663037109375,-0.0029043450485914946,-0.004151591565459967,0.01895151473581791
1772534337851646500,4.406646484375,0.00002806162228807807,-0.0060648065991699696,0.026463760063052177
1772534337861662500,4.416662353515625,0.0069928099401295185,-0.0033766478300094604,0.03171391412615776
1772534337871678500,4.426678466796875,0.015694955363869667,-0.007671793922781944,0.03176398202776909
1772534337881695500,4.436695556640625,0.020354459062218666,-0.005481261759996414,0.02487170137465
1772534337891711500,4.44671142578125,0.02326183207333088,0.0018176641315221786,0.01709633693099022
1772534337901727500,4.4567275390625,0.02333230897784233,0.0002897591330111027,0.00901304092258215
1772534337911743500,4.466743408203125,0.02501329593360424,0.00017018313519656658,-0.0018697003833949566
1772534337921759500,4.476759521484375,0.020637445151805878,0.0016699745319783688,-0.011078710667788982
1772534337931776500,4.486776611328125,0.014891675673425198,0.0036782645620405674,-0.021249324083328247
1772534337941792500,4.49679248046875,0.010281039401888847,0.005418375134468079,-0.029800882562994957
1772534337951808500,4.50680859375,0.01042058877646923,0.002577315317466855,-0.0308991689234972
1772534337961824500,4.516824462890625,0.009837319143116474,-0.0017261686734855175,-0.028167014941573143
1772534337971840300,4.52684033203125,0.006335262209177017,-0.0009613088332116604,-0.024944055825471878
1772534337981857300,4.536857177734375,-0.0034643816761672497,-0.003180040745064616,-0.017156383022665977
1772534337991873500,4.54687353515625,-0.018787678331136703,0.0010738265700638294,-0.010888900607824326
1772534338001889500,4.5568896484375,-0.03129445016384125,0.0063215033151209354,-0.0011430433951318264
1772534338011905500,4.566905517578125,-0.040376633405685425,0.003378709778189659,0.01119005586951971
1772534338021921300,4.57692138671875,-0.03865595906972885,-0.005193107761442661,0.023151446133852005
1772534338031938300,4.586938232421875,-0.03207448869943619,-0.01599249243736267,0.032794222235679626
1772534338041954600,4.59695458984375,-0.025088654831051826,-0.0192900188267231,0.03028617426753044
1772534338051970600,4.606970458984375,-0.023818327113986015,-0.014375420287251472,0.0173938125371933
1772534338061986600,4.616986572265625,-0.02799387462437153,-0.0038152539636939764,0.0037679774686694145
1772534338072002300,4.627002197265625,-0.031942542642354965,0.0019744583405554295,-0.00856405682861805
1772534338082018300,4.637018310546875,-0.031869757920503616,0.0016758681740611792,-0.021764375269412994
1772534338092035300,4.647035400390625,-0.025777775794267654,-0.0005124511662870646,-0.03292914479970932
1772534338102051600,4.657051513671875,-0.020311370491981506,0.0004774457775056362,-0.04057401418685913
1772534338112067600,4.667067626953125,-0.012011362239718437,-0.007024945691227913,-0.045595139265060425
1772534338122083300,4.677083251953125,-0.004445429425686598,-0.010068556293845177,-0.04772420600056648
1772534338132099300,4.687099365234375,0.00428387988358736,-0.00879103783518076,-0.04652312025427818
1772534338142116400,4.697116455078125,0.010094448924064636,-0.004581694956868887,-0.04119822010397911
1772534338152132600,4.707132568359375,0.013799438253045082,-0.007417162414640188,-0.027770565822720528
1772534338162148400,4.7171484375,0.01851939596235752,-0.012150582857429981,-0.01203822623938322
1772534338172164400,4.727164306640625,0.018863476812839508,-0.020810650661587715,-0.0034753652289509773
1772534338182180400,4.737180419921875,0.016062144190073013,-0.01784694939851761,0.00032728794030845165
1772534338192197400,4.747197265625,0.005688599310815334,-0.008624956011772156,-0.008980194106698036
1772534338202213600,4.757213623046875,-0.0024440404959023,-0.0076289004646241665,-0.01969953067600727
1772534338212229400,4.7672294921875,-0.007634008768945932,-0.004543362185359001,-0.03082435391843319
1772534338222245400,4.777245361328125,-0.012805708684027195,-0.0018316159257665277,-0.04519091174006462
1772534338232261400,4.787261474609375,-0.015570069663226604,0.005604994483292103,-0.05825052037835121
1772534338242278400,4.7972783203125,-0.014487690292298794,0.011211549863219261,-0.05988101661205292
1772534338252294400,4.80729443359375,-0.014708200469613075,0.007348634302616119,-0.047357767820358276
1772534338262310400,4.817310302734375,-0.01133727841079235,-0.0004876013845205307,-0.03203007951378822
1772534338272326400,4.827326416015625,-0.004940899088978767,-0.0028343789745122194,-0.015874013304710388
1772534338282342400,4.83734228515625,-0.0017755496082827449,-0.003643663600087166,-0.0038063391111791134
1772534338292359400,4.847359375,0.001374969957396388,-0.0025658824015408754,0.00014472706243395805
1772534338302375400,4.85737548828125,0.0007918737828731537,-0.0007291840156540275,0.0039122020825743675
1772534338312391400,4.867391357421875,-0.0005391741287894547,0.006008880212903023,0.0057748169638216496
1772534338322407400,4.877407470703125,-0.007547819521278143,0.011703419499099255,0.009333794936537743
1772534338332423400,4.88742333984375,-0.0046726712025702,0.007781381718814373,0.01594109646975994
1772534338342440400,4.8974404296875,-0.00040125090163201094,0.0008100911509245634,0.024076558649539948
1772534338352456400,4.90745654296875,0.0029106561560183764,-0.003269605338573456,0.024240342900156975
1772534338362472200,4.91747216796875,0.008051080629229546,0.00008326326496899128,0.018074914813041687
1772534338372488400,4.927488525390625,0.008968273177742958,0.0020880908705294132,0.009333087131381035
1772534338382504400,4.93750439453125,0.011414601467549801,0.00278081395663321,0.0004839387256652117
1772534338392520400,4.9475205078125,0.010336020961403847,0.0058272043243050575,-0.005785142537206411
1772534338402537500,4.957537353515625,0.008431993424892426,0.009617233648896217,-0.005250550806522369
1772534338412553000,4.967552978515625,0.008538253605365753,0.00307384692132473,-0.005059069953858852
1772534338422569200,4.9775693359375,0.008834325708448887,-0.006810011807829142,0.0001653679646551609
1772534338432585200,4.987585205078125,0.010818114504218102,-0.004159634001553059,0.006554823834449053
1772534338442601200,4.997601318359375,0.01062285527586937,-0.0021579659078270197,0.010111475363373756
1772534338452618200,5.0076181640625,0.011373067274689674,-0.0013976333430036902,0.007984674535691738
1772534338462634000,5.017634033203125,0.01371988095343113,0.0017529684118926525,0.009982826188206673
1772534338472650000,5.02764990234375,0.01534281112253666,-0.005556609947234392,0.012844925746321678
1772534338482666200,5.037666259765625,0.012771795503795147,-0.00847996212542057,0.019982995465397835
1772534338492682200,5.04768212890625,0.01218696590512991,-0.008216574788093567,0.027807362377643585
1772534338502699300,5.05769921875,0.008008843287825584,-0.0058522396720945835,0.031081661581993103
1772534338512715000,5.067715087890625,0.007645854260772467,-0.0032695061527192593,0.03452885523438454
1772534338522731000,5.07773095703125,0.009911961853504181,-0.002996598370373249,0.029381727799773216
1772534338532747300,5.087747314453125,0.01634828932583332,-0.008135434240102768,0.01737326756119728
1772534338542763300,5.09776318359375,0.01962997205555439,-0.0041144113056361675,0.003187843132764101
1772534338552780000,5.107780029296875,0.016540972515940666,0.004197580739855766,-0.006704468280076981
1772534338562796000,5.117796142578125,0.01023951731622219,0.007850841619074345,-0.01059473492205143
1772534338572812000,5.12781201171875,0.010224070399999619,0.0069826506078243256,-0.009650910273194313
1772534338582828000,5.137828125,0.00789625197649002,0.0016499015036970377,-0.008063668385148048
1772534338592844300,5.14784423828125,0.015678009018301964,-0.0001208342146128416,-0.0026776911690831184
1772534338602860300,5.1578603515625,0.02437545545399189,-0.003166156355291605,0.0018700382206588984
1772534338612877000,5.167876953125,0.02924957312643528,-0.007530544884502888,0.002460993593558669
1772534338622893000,5.17789306640625,0.028930405154824257,-0.0051912572234869,0.0068558561615645885
1772534338632909000,5.187908935546875,0.01997286267578602,0.002928721019998193,0.00926095712929964
1772534338642925300,5.19792529296875,0.012092532590031624,0.005873562768101692,0.011453555896878242
1772534338652941300,5.20794140625,0.003444183152168989,0.006215246394276619,0.014109525829553604
1772534338662958000,5.2179580078125,-0.0035274275578558445,0.008773094043135643,0.021687837317585945
1772534338672974000,5.22797412109375,-0.00875095184892416,0.0062548089772462845,0.02695477195084095
1772534338682990000,5.237989990234375,-0.008947092108428478,0.008180988021194935,0.030821852385997772
1772534338693006000,5.248006103515625,-0.012494688853621483,0.005727684125304222,0.03513351082801819
1772534338703022300,5.258022216796875,-0.015781737864017487,0.0034507305826991796,0.032752882689237595
1772534338713039000,5.2680390625,-0.017932239919900894,0.0057439785450696945,0.028895296156406403
1772534338723055000,5.27805517578125,-0.02210526540875435,0.00834926962852478,0.021581709384918213
1772534338733071000,5.288071044921875,-0.02234521508216858,0.010626272298395634,0.021058931946754456
1772534338743087000,5.298087158203125,-0.020557506009936333,0.009905551560223103,0.02611479163169861
1772534338753103400,5.308103271484375,-0.013896940276026726,0.005286832340061665,0.03129996359348297
1772534338763120000,5.3181201171875,-0.008943194523453712,0.006045034155249596,0.029274366796016693
1772534338773762300,5.32876220703125,-0.0038754658307880163,0.0021504273172467947,0.02955426275730133
1772534338783778300,5.3387783203125,-0.0020439140498638153,0.0029629613272845745,0.024098891764879227
1772534338793794000,5.3487939453125,-0.0009325515711680055,0.005517494399100542,0.017917999997735023
1772534338803810000,5.35881005859375,-0.002151675056666136,0.009174617007374763,0.0064942557364702225
1772534338813826000,5.368825927734375,-0.0007378028240054846,0.004811292979866266,-0.002701639663428068
1772534338823843300,5.37884326171875,-0.0014909447636455297,0.003372121136635542,-0.009507081471383572
1772534338833859300,5.388859375,-0.0007023463258519769,0.005536021664738655,-0.011968659237027168
1772534338843875000,5.398875,0.0025854106061160564,0.0010173870250582695,-0.01519730407744646
1772534338853891000,5.40889111328125,0.0036892907228320837,-0.0007861057529225945,-0.021893557161092758
1772534338863907000,5.418906982421875,0.004165841266512871,0.0037335255183279514,-0.03349114954471588
1772534338873924400,5.42892431640625,0.00354505842551589,0.011011944152414799,-0.03948299586772919
1772534338883940000,5.438940185546875,-0.00025803345488384366,0.014614569954574108,-0.03905627876520157
1772534338893956000,5.4489560546875,-0.004932413809001446,0.008658942766487598,-0.023373456671833992
1772534338903972000,5.45897216796875,-0.011187308467924595,0.0037859599106013775,0.0010097986087203026
1772534338913988000,5.468988037109375,-0.014210795052349567,-0.001701483502984047,0.018913697451353073
1772534338924005400,5.47900537109375,-0.015885546803474426,-0.003033882472664118,0.02795534022152424
1772534338934021000,5.489021240234375,-0.011475086212158203,0.0015126662328839302,0.02230730652809143
1772534338944037000,5.499037109375,-0.0035945118870586157,0.009779000654816628,0.011060794815421104
1772534338954053000,5.50905322265625,0.0021549866069108248,0.0120541388168931,-0.003398837987333536
1772534338964069000,5.519069091796875,0.010310856625437737,0.008800804615020752,-0.016190210357308388
1772534338974085000,5.529085205078125,0.01748328097164631,0.01366799883544445,-0.025616735219955444
1772534338984102100,5.53910205078125,0.01695783995091915,0.0036419956013560295,-0.03340701013803482
1772534338994118100,5.5491181640625,0.009347334504127502,0.00774411391466856,-0.0390058308839798
1772534339004134100,5.559134033203125,-0.00241421302780509,0.0072363317012786865,-0.03763166069984436
1772534339014150100,5.569150146484375,-0.01061754859983921,0.003934544511139393,-0.03439006209373474
1772534339024166100,5.579166259765625,-0.012449391186237335,0.004129987675696611,-0.02296871319413185
1772534339034183200,5.58918310546875,-0.010725260712206364,-0.005660591647028923,-0.01213843747973442
1772534339044199200,5.59919921875,-0.00848422385752201,-0.008237081579864025,-0.0020778318867087364
1772534339054215200,5.609215087890625,-0.009316462092101574,-0.001831113826483488,0.006034955848008394
1772534339064231200,5.619231201171875,-0.013079154305160046,0.0011466136202216148,0.010911182500422001
1772534339074247200,5.6292470703125,-0.018808679655194283,0.004257984925061464,0.0067776902578771114
1772534339084264000,5.639263916015625,-0.028861725702881813,0.009583008475601673,0.0010765467304736376
1772534339094280200,5.6492802734375,-0.036881569772958755,0.011442427523434162,-0.004246046766638756
1772534339104296200,5.659296142578125,-0.04283925145864487,0.011741302907466888,-0.011880643665790558
1772534339114312200,5.669312255859375,-0.04252047836780548,0.01054181344807148,-0.01767168566584587
1772534339124328200,5.679328125,-0.03739304840564728,0.009385918267071247,-0.02248423546552658
1772534339134345000,5.689344970703125,-0.02578219585120678,0.004182101227343082,-0.027808960527181625
1772534339144987100,5.699987060546875,-0.016482628881931305,0.0015755165368318558,-0.02444075606763363
1772534339155003100,5.710003173828125,-0.007372752297669649,0.0011829666327685118,-0.017255015671253204
1772534339165019400,5.720019287109375,-0.002236846601590514,0.0006085229106247425,-0.012518849223852158
1772534339175035100,5.73003515625,-0.00240239966660738,0.003919634036719799,-0.014137138612568378
1772534339185052200,5.74005224609375,-0.000023664208129048347,0.004621909931302071,-0.016015734523534775
1772534339195068200,5.750068115234375,-0.0004825379583053291,0.0037834940012544394,-0.017192259430885315
1772534339205084200,5.760084228515625,-0.0024383633863180876,0.0025872017722576857,-0.023860549554228783
1772534339215100200,5.77010009765625,-0.009141105227172375,0.010357675142586231,-0.030835822224617004
1772534339225116200,5.7801162109375,-0.019449668005108833,0.01874716393649578,-0.03221427649259567
1772534339235132200,5.790132080078125,-0.02361210621893406,0.018226999789476395,-0.023178797215223312
1772534339245149200,5.800149169921875,-0.025755152106285095,0.012682032771408558,-0.01291071530431509
1772534339255165200,5.810165283203125,-0.02619246579706669,0.011124681681394577,0.008017508313059807
1772534339265181200,5.82018115234375,-0.024303484708070755,0.003421221859753132,0.018832871690392494
1772534339275197200,5.830197265625,-0.020272519439458847,-0.0017902207328006625,0.021251626312732697
1772534339285213200,5.840213134765625,-0.02011113241314888,-0.001607261598110199,0.025863422080874443
1772534339295230200,5.850230224609375,-0.01773902401328087,0.001477462938055396,0.028057776391506195
1772534339305246200,5.86024609375,-0.016232207417488098,-0.0011550720082595944,0.025964265689253807
1772534339315262000,5.870261962890625,-0.012033781968057156,-0.004045098088681698,0.02219429425895214
1772534339325278000,5.88027783203125,-0.011908081360161304,-0.002613648772239685,0.017630435526371002
1772534339335294200,5.890294189453125,-0.010091320611536503,0.0028816487174481153,0.009471651166677475
1772534339345311200,5.900311279296875,-0.0075935423374176025,0.006090758368372917,-0.001939727459102869
1772534339355327200,5.9103271484375,-0.003227406647056341,0.00559227867051959,-0.00802646204829216
1772534339365343000,5.920343017578125,0.004755951464176178,0.004679080098867416,-0.009090927429497242
1772534339375359000,5.93035888671875,0.01252794824540615,0.004444990307092667,-0.005401533097028732
1772534339385375200,5.940375244140625,0.015345306135714054,0.0014579885173588991,0.0010193483904004097
1772534339395392300,5.950392333984375,0.012673103250563145,0.003639799077063799,0.013519179075956345
1772534339405408300,5.960408203125,0.005413326434791088,0.007867034524679184,0.024772899225354195
1772534339415424500,5.970424560546875,-0.0014442054089158773,0.011213446967303753,0.030634118244051933
1772534339425440500,5.9804404296875,-0.003989121876657009,0.0116723095998168,0.03307197615504265
1772534339435456800,5.990456787109375,0.0025110605638474226,0.006250097416341305,0.03900023177266121
1772534339445472800,6.00047265625,0.004688194952905178,0.006227460689842701,0.04417794942855835
1772534339455489500,6.010489501953125,0.008082697167992592,0.008065124042332172,0.04321972280740738
1772534339465505500,6.020505615234375,0.008321316912770271,0.010553315281867981,0.03342222049832344
1772534339475521500,6.030521484375,0.005244734697043896,0.013355393894016743,0.019089428707957268
1772534339485537800,6.040537841796875,0.0006039103609509766,0.01161927916109562,0.013202511705458164
1772534339495553800,6.0505537109375,-0.0018693674355745316,0.007864488288760185,0.013223283924162388
1772534339505570600,6.060570556640625,-0.005231341812759638,0.006191491149365902,0.014331425540149212
1772534339515586600,6.070586669921875,-0.00721833948045969,0.011533377692103386,0.011073295027017593
1772534339525602600,6.0806025390625,-0.00772540457546711,0.010427100583910942,0.012590231373906136
1772534339535618600,6.09061865234375,-0.007165547460317612,0.008544528856873512,0.01879667118191719
1772534339545634800,6.100634765625,-0.004368962254375219,0.009491016156971455,0.024658022448420525
1772534339555651600,6.110651611328125,-0.0013799387961626053,0.0072631314396858215,0.031190624460577965
1772534339565667600,6.12066748046875,-0.0003961671609431505,0.010867985896766186,0.029552247375249863
1772534339575683600,6.13068359375,0.002452191896736622,0.01334221288561821,0.020322130993008614
1772534339585699600,6.140699462890625,0.006874104496091604,0.014816539362072945,0.013120143674314022
1772534339595715800,6.1507158203125,0.010066520422697067,0.013781585730612278,0.01104065217077732
1772534339605732600,6.160732666015625,0.012014622800052166,0.017330780625343323,0.00830159056931734
1772534339615748600,6.17074853515625,0.008589399047195911,0.02227512001991272,0.008230390027165413
1772534339625764600,6.1807646484375,0.006800021044909954,0.014526120387017727,0.005425281822681427
1772534339635780600,6.190780517578125,0.008181232959032059,0.009961999021470547,0.006916765123605728
1772534339645796900,6.200796875,0.01513660978525877,0.0054655177518725395,0.007790814619511366
1772534339655812900,6.210812744140625,0.023697618395090103,0.00011990172788500786,0.005950856953859329
1772534339665829600,6.22082958984375,0.030805595219135284,0.0012168576940894127,0.00026074727065861225
1772534339675845600,6.230845703125,0.034940555691719055,0.00402800552546978,-0.006701916456222534
1772534339685861600,6.240861572265625,0.03311336040496826,0.009542346000671387,-0.017426732927560806
1772534339695877600,6.250877685546875,0.025449460372328758,0.012894701212644577,-0.02932295948266983
1772534339705893600,6.2608935546875,0.015218661166727543,0.019907334819436073,-0.03441945090889931
1772534339715910700,6.27091064453125,0.007584723178297281,0.020276864990592003,-0.039890632033348083
1772534339725926700,6.2809267578125,0.005718379747122526,0.015794232487678528,-0.0358162596821785
1772534339735942700,6.290942626953125,0.011631382629275322,0.007014974020421505,-0.02138034626841545
1772534339745958700,6.300958740234375,0.01715744100511074,-0.002094635274261236,-0.012118404731154442
1772534339755974700,6.310974609375,0.019637545570731163,-0.0014007141580805182,-0.008450357243418694
1772534339765991700,6.32099169921875,0.017674263566732407,0.009810129180550575,-0.006837014574557543
1772534339776007700,6.331007568359375,0.012594467028975487,0.016239581629633904,-0.002570535521954298
1772534339786023700,6.341023681640625,0.012111103162169456,0.019300885498523712,0.0030782953836023808
1772534339796039700,6.351039794921875,0.01134693156927824,0.013628106564283371,0.009362345561385155
1772534339806055400,6.361055419921875,0.013672403991222382,0.009346275590360165,0.01074852142482996
1772534339816071700,6.37107177734375,0.0161117035895586,0.009885013103485107,0.012331981211900711
1772534339826088700,6.381088623046875,0.016142062842845917,0.009561439044773579,0.010990813374519348
1772534339836104700,6.391104736328125,0.02043778821825981,0.008718149736523628,0.006533137988299131
1772534339846120700,6.40112060546875,0.023717205971479416,0.00720947002992034,-0.0014904337003827095
1772534339856136400,6.411136474609375,0.026220638304948807,0.0070528918877244,-0.005809871479868889
1772534339866152700,6.421152587890625,0.0220197681337595,0.01021166704595089,-0.011210229247808456
1772534339876169700,6.431169677734375,0.019410524517297745,0.012576321139931679,-0.017003517597913742
1772534339886185700,6.441185791015625,0.016998233273625374,0.007846547290682793,-0.020701849833130836
1772534339896201700,6.45120166015625,0.01426334772258997,0.0061930394731462,-0.025506630539894104
1772534339906217500,6.461217529296875,0.010752502828836441,0.00783088430762291,-0.028877127915620804
1772534339916233500,6.4712333984375,0.012467444874346256,0.010775893926620483,-0.031122079119086266
1772534339926250800,6.481250732421875,0.012004321441054344,0.008423255756497383,-0.026890315115451813
1772534339936266800,6.491266845703125,0.011901535093784332,0.0070015424862504005,-0.024392515420913696
1772534339946282800,6.50128271484375,0.006774151232093573,0.005139993503689766,-0.02031761221587658
1772534339956298500,6.511298583984375,-0.000010590360034257174,0.0074365390464663506,-0.018276529386639595
1772534339966314500,6.521314453125,-0.005613615270704031,0.00914868526160717,-0.015426414087414742
1772534339976331800,6.531331787109375,-0.007325482554733753,0.00706517556682229,-0.012945393100380898
1772534339986347800,6.54134765625,-0.004177360329777002,0.00679166940972209,-0.010839365422725677
1772534339996363500,6.551363525390625,-0.0005170984659343958,0.0008838607463985682,-0.011421779170632362
1772534340006379500,6.561379638671875,0.0021047836635261774,-0.00045224721543490887,-0.018520968034863472
1772534340016395500,6.5713955078125,0.0036362335085868835,0.006068853661417961,-0.0331975519657135
1772534340026411800,6.581411865234375,0.006011506542563438,0.01232275553047657,-0.05345382168889046
1772534340036428800,6.5914287109375,0.008745810948312283,0.02028169482946396,-0.07088156789541245
1772534340046444500,6.601444580078125,0.01399623230099678,0.023751793429255486,-0.08172090351581573
1772534340056460500,6.61146044921875,0.017438441514968872,0.022647546604275703,-0.08133051544427872
1772534340066476500,6.6214765625,0.02151547558605671,0.014279360882937908,-0.07082461565732956
1772534340076492500,6.631492431640625,0.023643244057893753,0.007261205464601517,-0.050030387938022614
1772534340086509800,6.641509765625,0.028535204008221626,0.0002938432153314352,-0.032415177673101425
1772534340096525600,6.651525634765625,0.029756324365735054,-0.004132485948503017,-0.020700175315141678
1772534340106541600,6.66154150390625,0.030527308583259583,-0.0054875025525689125,-0.01662873476743698
1772534340116557600,6.6715576171875,0.029273713007569313,0.0013518938794732094,-0.02112753875553608
1772534340126573600,6.681573486328125,0.02938210219144821,0.005174328573048115,-0.024790983647108078
1772534340136590600,6.691590576171875,0.022225823253393173,0.009883668273687363,-0.025875689461827278
1772534340146606600,6.701606689453125,0.016956226900219917,0.011501805856823921,-0.025918832048773766
1772534340156622600,6.71162255859375,0.012767561711370945,0.009461784735321999,-0.02706517092883587
1772534340166638600,6.721638671875,0.013674368150532246,0.010336632840335369,-0.024565527215600014
1772534340176654600,6.731654541015625,0.01620027795433998,0.009317608550190926,-0.023771561682224274
1772534340186670600,6.741670654296875,0.021587321534752846,0.006282137706875801,-0.024242674931883812
1772534340196687600,6.7516875,0.02615346945822239,0.004024159163236618,-0.025638306513428688
1772534340206703600,6.76170361328125,0.024206165224313736,0.006989588961005211,-0.025146687403321266
1772534340216719600,6.7717197265625,0.01519674900919199,0.009165843948721886,-0.021928653120994568
1772534340226735600,6.781735595703125,0.000819674227386713,0.010546160861849785,-0.012150324881076813
1772534340236751600,6.791751708984375,-0.009053293615579605,0.00586475757881999,-0.0019860295578837395
1772534340246768600,6.8017685546875,-0.017104029655456543,0.0039749788120388985,0.0046503012999892235
1772534340256784600,6.81178466796875,-0.017875872552394867,-0.0003111290279775858,0.0035605933517217636
1772534340266800600,6.821800537109375,-0.017155487090349197,0.0036433986388146877,-0.005513595417141914
1772534340276816600,6.831816650390625,-0.013755200430750847,0.00810287520289421,-0.012836126610636711
1772534340286832600,6.84183251953125,-0.010782047174870968,0.009048829786479473,-0.021750260144472122
1772534340296849700,6.851849609375,-0.01010949071496725,0.009654583409428596,-0.027317998930811882
1772534340306865700,6.86186572265625,-0.017031578347086906,0.013345991261303425,-0.02898833341896534
1772534340316881700,6.871881591796875,-0.015239719301462173,0.013679370284080505,-0.022891120985150337
1772534340326897700,6.881897705078125,-0.00866224430501461,0.0035670807119458914,-0.020359786227345467
1772534340336913700,6.89191357421875,0.004741107113659382,-0.0008794018067419529,-0.012512135319411755
1772534340346929700,6.9019296875,0.014873369596898556,-0.00315480655990541,-0.0050984276458621025
1772534340356946700,6.91194677734375,0.02605673298239708,-0.0031984462402760983,-0.00745905376970768
1772534340366962700,6.921962646484375,0.03175562992691994,0.0008940333500504494,-0.013676470145583153
1772534340376978700,6.931978759765625,0.02718469128012657,0.012063577771186829,-0.022871889173984528
1772534340386994700,6.94199462890625,0.019794685766100883,0.017956620082259178,-0.026642391458153725
1772534340397010700,6.9520107421875,0.016380149871110916,0.01838928461074829,-0.026354961097240448
1772534340407027700,6.96202783203125,0.016356447711586952,0.019924065098166466,-0.021897094324231148
1772534340417043500,6.97204345703125,0.02038644067943096,0.014750707894563675,-0.013905026018619537
1772534340427059500,6.9820595703125,0.026344463229179382,0.010824941098690033,-0.009437305852770805
1772534340437075500,6.992075439453125,0.0341666005551815,0.0056372713297605515,-0.006478458177298307
1772534340447091500,7.002091552734375,0.036830030381679535,-0.0011359466006979346,-0.0021162000484764576
1772534340457108200,7.012108154296875,0.03269048407673836,-0.003796375123783946,0.004741057753562927
1772534340467124500,7.02212451171875,0.023765964433550835,-0.0005824724212288857,0.0065538715571165085
1772534340477140500,7.032140380859375,0.0105919623747468,0.006168141029775143,0.008641942404210567
1772534340487156500,7.042156494140625,-0.000027126341592520475,0.008961796760559082,0.0029041620437055826
1772534340497172500,7.05217236328125,-0.0038718348369002342,0.011624789796769619,-0.007349350024014711
1772534340507188200,7.062188232421875,-0.0032419972121715546,0.010899878107011318,-0.020192177966237068
1772534340517205500,7.07220556640625,0.0011460940586403012,0.012887834571301937,-0.03098924830555916
1772534340527221500,7.082221435546875,0.00012024445459246635,0.014340587891638279,-0.033797815442085266
1772534340537237500,7.092237548828125,-0.0015309527516365051,0.016100149601697922,-0.027898283675312996
1772534340547253200,7.102253173828125,-0.009059975855052471,0.018027745187282562,-0.015982767567038536
1772534340557269200,7.112269287109375,-0.014658884145319462,0.011081722564995289,-0.0016002128832042217
1772534340567286300,7.122286376953125,-0.014004811644554138,0.002902888460084796,0.005440652370452881
1772534340577302500,7.132302490234375,-0.01037083100527525,0.0015036682598292828,0.008712190203368664
1772534340587318500,7.142318603515625,-0.0042082760483026505,0.003584662452340126,0.004156853072345257
1772534340597334300,7.152334228515625,0.00005043222336098552,0.011005789041519165,-0.011380025185644627
1772534340607350300,7.162350341796875,0.006185822654515505,0.02277669683098793,-0.02213919535279274
1772534340617367300,7.1723671875,0.007278614677488804,0.017759663984179497,-0.01992831565439701
1772534340627383600,7.182383544921875,0.006345442961901426,0.010722794570028782,-0.010338006541132927
1772534340637399600,7.192399658203125,0.0035127601586282253,0.0031618461944162846,0.004486365709453821
1772534340647415300,7.202415283203125,0.0036403252743184566,-0.003381274174898863,0.019431492313742638
1772534340657431300,7.212431396484375,0.0068246303126215935,-0.006128939799964428,0.021466434001922607
1772534340667447300,7.222447265625,0.008117594756186008,-0.003872709348797798,0.019216328859329224
1772534340677464300,7.23246435546875,0.009493189863860607,-0.0008835078915581107,0.009347336366772652
1772534340687480600,7.24248046875,0.01134728267788887,0.0016816488932818174,-0.000016337726265192032
1772534340697496300,7.252496337890625,0.0063019851222634315,0.00299487030133605,-0.00789668783545494
1772534340707512300,7.26251220703125,0.0003207916161045432,0.0016957800835371017,-0.011434432119131088
1772534340717528300,7.2725283203125,-0.002915638964623213,-0.000491228187456727,-0.014726420864462852
1772534340727545300,7.28254541015625,-0.0034466732759028673,-0.004842567257583141,-0.016355741769075394
1772534340737561300,7.292561279296875,-0.0009178445325233042,-0.005499548278748989,-0.017084062099456787
1772534340747577300,7.302577392578125,0.0012329242890700698,-0.005616460926830769,-0.0103641077876091
1772534340757593300,7.31259326171875,0.0038002117071300745,-0.007866566069424152,-0.0057099671103060246
1772534340767609300,7.322609375,0.00953745935112238,-0.014123663306236267,-0.005512360017746687
1772534340777625300,7.332625244140625,0.015187452547252178,-0.01841817796230316,-0.0038359747268259525
1772534340787642400,7.342642333984375,0.016353383660316467,-0.014851672574877739,-0.0020013232715427876
1772534340797658400,7.352658447265625,0.016205688938498497,-0.011998381465673447,0.00036244187504053116
1772534340807674400,7.36267431640625,0.020467812195420265,-0.010015659034252167,0.000924102496355772
1772534340817690400,7.3726904296875,0.020903082564473152,-0.011957844719290733,-0.0013334066607058048
1772534340827706400,7.382706298828125,0.027945544570684433,-0.014724336564540863,-0.0014516506344079971
1772534340837723100,7.39272314453125,0.035477180033922195,-0.022782931104302406,-0.005333661567419767
1772534340847739400,7.402739501953125,0.03892277926206589,-0.02333713509142399,-0.010965447872877121
1772534340857755400,7.41275537109375,0.045127205550670624,-0.02156558446586132,-0.02175956405699253
1772534340867771400,7.422771484375,0.044595103710889816,-0.021092873066663742,-0.032067593187093735
1772534340877787400,7.432787353515625,0.03708144649863243,-0.0201221015304327,-0.03655252605676651
1772534340887803400,7.442803466796875,0.030180394649505615,-0.019967637956142426,-0.032130349427461624
1772534340897820400,7.4528203125,0.02263094112277031,-0.01890922710299492,-0.026469917967915535
1772534340907836400,7.46283642578125,0.018435396254062653,-0.02125733718276024,-0.021053314208984375
1772534340917852400,7.472852294921875,0.016019774600863457,-0.024636976420879364,-0.016658924520015717
1772534340927868400,7.482868408203125,0.01426022406667471,-0.025910496711730957,-0.011204504407942295
1772534340937884400,7.492884521484375,0.017440522089600563,-0.026705320924520493,-0.009300800040364265
1772534340947901200,7.502901123046875,0.018120959401130676,-0.026664840057492256,-0.005102858878672123
1772534340957917400,7.51291748046875,0.01695364899933338,-0.023332390934228897,-0.0020167911425232887
1772534340967933400,7.522933349609375,0.024019548669457436,-0.02515186183154583,0.0029252367094159126
1772534340977949400,7.532949462890625,0.03151573985815048,-0.027687793597579002,0.004602612461894751
1772534340987965400,7.54296533203125,0.03767989203333855,-0.030546166002750397,-0.0005167820490896702
1772534340997981200,7.552981201171875,0.04457938298583031,-0.029312239959836006,-0.007053529378026724
1772534341007998500,7.56299853515625,0.04886520653963089,-0.020584529265761375,-0.012163868173956871
1772534341018014500,7.573014404296875,0.05152088776230812,-0.014703936874866486,-0.016421161592006683
1772534341028030500,7.583030517578125,0.051437266170978546,-0.007881185039877892,-0.01639186590909958
1772534341038046500,7.59304638671875,0.047608375549316406,-0.006360363215208054,-0.00574377179145813
1772534341048062200,7.603062255859375,0.039654847234487534,-0.010695723816752434,0.009891381487250328
1772534341058079500,7.61307958984375,0.032838739454746246,-0.014117232523858547,0.027867428958415985
1772534341068095500,7.623095458984375,0.022793563082814217,-0.013031994923949242,0.04256062209606171
1772534341078111500,7.633111572265625,0.011396224610507488,-0.016660889610648155,0.05539824068546295
1772534341088127500,7.64312744140625,0.004011279437690973,-0.020453762263059616,0.05633381009101868
1772534341098143200,7.653143310546875,-0.0026211661752313375,-0.015838390216231346,0.04808400571346283
1772534341108159200,7.6631591796875,-0.010194131173193455,-0.008286731317639351,0.034082699567079544
1772534341118176500,7.673176513671875,-0.017199840396642685,-0.0028632953763008118,0.023366324603557587
1772534341128192500,7.683192626953125,-0.0196310393512249,0.00034261797554790974,0.016672201454639435
1772534341138208500,7.69320849609375,-0.016178036108613014,-0.0034384082537144423,0.016712496057152748
1772534341148224300,7.703224365234375,-0.01759057678282261,-0.005654690787196159,0.015291966497898102
1772534341158240300,7.713240234375,-0.01657458022236824,-0.008051709271967411,0.01825081929564476
1772534341168257500,7.723257568359375,-0.014991064555943012,-0.013932500965893269,0.014114663004875183
1772534341178273500,7.7332734375,-0.013641375117003918,-0.014709877781569958,0.010706083849072456
1772534341188289300,7.743289306640625,-0.011239469982683659,-0.016648126766085625,0.003425533650442958
1772534341198305300,7.75330517578125,-0.008144499734044075,-0.015598326921463013,-0.008113469928503036
1772534341208321300,7.7633212890625,-0.0020860740914940834,-0.019775230437517166,-0.019040152430534363
1772534341218337300,7.773337158203125,-0.0015924717299640179,-0.01971537247300148,-0.026157107204198837
1772534341228354600,7.7833544921875,0.0014166338369250298,-0.022021669894456863,-0.034143924713134766
1772534341238370300,7.793370361328125,-0.0010944120585918427,-0.013438431546092033,-0.03466358780860901
1772534341248386300,7.80338623046875,0.0029109821189194918,-0.002122660167515278,-0.03111412562429905
1772534341258402300,7.81340234375,0.0045278966426849365,0.004114708863198757,-0.02144717238843441
1772534341268418300,7.823418212890625,0.010251029394567013,0.0024382490664720535,-0.0029331441037356853
1772534341278435600,7.833435546875,0.01732766628265381,-0.002934994176030159,0.01682794839143753
1772534341288451300,7.843451416015625,0.019451802596449852,-0.0049387565813958645,0.031949907541275024
1772534341298467300,7.85346728515625,0.014212856069207191,-0.002118534641340375,0.04067625105381012
1772534341308483300,7.8634833984375,0.00261292583309114,0.009088046848773956,0.038732677698135376
1772534341318499300,7.873499267578125,-0.013428043574094772,0.019272375851869583,0.03236817568540573
1772534341328516600,7.8835166015625,-0.028235219419002533,0.026623766869306564,0.02520960010588169
1772534341338532400,7.893532470703125,-0.0385449193418026,0.028316576033830643,0.02432892844080925
1772534341348548400,7.90354833984375,-0.04151727259159088,0.025187628343701363,0.030054990202188492
1772534341358564400,7.913564453125,-0.041751667857170105,0.01874474808573723,0.03078646957874298
1772534341368580400,7.923580322265625,-0.03971381485462189,0.012261549010872841,0.02229364588856697
1772534341378596400,7.933596435546875,-0.03883662074804306,0.014725008979439735,0.0034821443259716034
1772534341388613400,7.94361328125,-0.041268352419137955,0.028848549351096153,-0.01236472837626934
1772534341398629400,7.95362939453125,-0.043828584253787994,0.035571787506341934,-0.02236959896981716
1772534341408645400,7.963645263671875,-0.045098379254341125,0.03562132269144058,-0.02236666902899742
1772534341418660900,7.973660888671875,-0.043582700192928314,0.03211809694766998,-0.015176169574260712
1772534341428677000,7.983677001953125,-0.0370132140815258,0.020564239472150803,-0.00597681337967515
1772534341438694000,7.99369384765625,-0.03359656035900116,0.010880311019718647,-0.0013572047464549541
1772534341448710000,8.0037099609375,-0.02734638936817646,0.008904245682060719,-0.0005196407437324524
1772534341458726000,8.013725830078124,-0.020520949736237526,0.005604349076747894,-0.005691722966730595
1772534341468742000,8.023741943359376,-0.01826844923198223,0.004539351910352707,-0.008818008005619049
1772534341478758100,8.033758056640625,-0.014454919844865799,0.0023021718952804804,-0.005113254301249981
1772534341488774100,8.043774169921875,-0.018036605790257454,0.0035685051698237658,-0.0004870770499110222
1772534341498791000,8.053791015625,-0.02022590860724449,0.0027123417239636183,0.004670388996601105
1772534341508807000,8.063806884765626,-0.019249327480793,0.0020287081133574247,0.0065881311893463135
1772534341518823000,8.073822998046875,-0.020381290465593338,0.006311304401606321,0.005518719553947449
1772534341528839000,8.0838388671875,-0.02273579128086567,0.013005426153540611,0.004338672850281
1772534341538855200,8.093855224609374,-0.020899154245853424,0.01801646314561367,0.0041782367043197155
1772534341548872000,8.103871826171876,-0.01623675972223282,0.016829492524266243,0.006633138284087181
1772534341558888000,8.113887939453125,-0.013854573480784893,0.012977175414562225,0.009450022131204605
1772534341568904000,8.123904052734375,-0.011469712480902672,0.010618414729833603,0.012650609016418457
1772534341578920000,8.133919921875,-0.01217650342732668,0.006492698565125465,0.0171640757471323
1772534341588936200,8.143936279296875,-0.02070607617497444,0.010547361336648464,0.015747807919979095
1772534341598952000,8.153951904296875,-0.024655481800436974,0.012656867504119873,0.014199389144778252
1772534341608969000,8.163968994140625,-0.024555614218115807,0.00989543553441763,0.013692855834960938
1772534341618985000,8.17398486328125,-0.02139952778816223,0.007014227099716663,0.012083278968930244
1772534341629001000,8.1840009765625,-0.015373059548437595,0.0017819146160036325,0.005524179898202419
1772534341639017200,8.194017333984375,-0.008884618058800697,0.0016301639843732119,-0.0029533649794757366
1772534341649033000,8.204032958984374,-0.003693851176649332,0.004488267935812473,-0.008095130324363708
1772534341659049000,8.214049072265626,-0.002197626745328307,0.0041948044672608376,-0.010450752452015877
1772534341669066000,8.22406591796875,-0.005969195626676083,0.0009241763036698103,-0.008194256573915482
1772534341679082000,8.23408203125,-0.012839533388614655,-0.003386199241504073,-0.007194868288934231
1772534341689098000,8.244097900390624,-0.016757842153310776,-0.004968649707734585,-0.006928818300366402
1772534341699114000,8.254114013671876,-0.023872962221503258,-0.003388460725545883,-0.006762980949133635
1772534341709130000,8.2641298828125,-0.02774599753320217,-0.002200424438342452,-0.008029580116271973
1772534341719147000,8.27414697265625,-0.02861282043159008,-0.0010732929222285748,-0.00399464275687933
1772534341729163000,8.2841630859375,-0.02595658414065838,-0.0026586728636175394,-0.004414889961481094
1772534341739179000,8.294178955078126,-0.024297747761011124,-0.0033269948326051235,-0.0018744231201708317
1772534341749195000,8.304195068359375,-0.020326707512140274,-0.006664201617240906,0.0031586848199367523
1772534341759211000,8.3142109375,-0.020380456000566483,-0.009435352869331837,0.004461425822228193
1772534341769227000,8.32422705078125,-0.017630742862820625,-0.007207351736724377,-0.0006526419892907143
1772534341779244000,8.334244140625,-0.019911665469408035,-0.0031915009021759033,-0.005989734549075365
1772534341789260000,8.344260009765625,-0.01669430173933506,-0.0018934761174023151,-0.010745607316493988
1772534341799275800,8.35427587890625,-0.014228250831365585,0.0017878229264169931,-0.014970080927014351
1772534341809292000,8.3642919921875,-0.011623413302004337,0.0006618383340537548,-0.012297865003347397
1772534341819308000,8.37430810546875,-0.007208303548395634,0.0060680885799229145,-0.006172175984829664
1772534341829325000,8.384324951171875,-0.006820281036198139,0.00724547216668725,0.004636263474822044
1772534341839340800,8.3943408203125,-0.005177425220608711,0.004149317741394043,0.015024453401565552
1772534341849356800,8.404356689453126,-0.0023563385475426912,-0.0013644910650327802,0.028049973770976067
1772534341859373000,8.414373046875,-0.0009425028110854328,-0.008881250396370888,0.032559867948293686
1772534341869389000,8.42438916015625,0.0025395802222192287,-0.015965258702635765,0.03685448318719864
1772534341879405000,8.434405029296874,0.006130186840891838,-0.020687490701675415,0.03709159791469574
1772534341889421800,8.444421875,0.008497470989823341,-0.0216803178191185,0.03048136457800865
1772534341899437800,8.454437744140625,0.007962466217577457,-0.022648176178336143,0.01972588524222374
1772534341909454000,8.4644541015625,0.005197838414460421,-0.014709291979670525,-0.00027472106739878654
1772534341919470000,8.474469970703124,-0.001222425140440464,-0.007525197695940733,-0.016348060220479965
1772534341929486000,8.484486083984375,0.0002873207558877766,-0.004454306326806545,-0.026500828564167023
1772534341939502800,8.4945029296875,0.004778075963258743,-0.0137221934273839,-0.027827976271510124
1772534341949518800,8.504518798828125,0.014543354511260986,-0.025896836072206497,-0.020786043256521225
1772534341959534800,8.514534912109376,0.02110362984240055,-0.035363953560590744,-0.011537818238139153
1772534341969551000,8.524551025390625,0.022444531321525574,-0.03720419853925705,-0.0069220284931361675
1772534341979567000,8.534567138671875,0.01986599713563919,-0.03389390558004379,-0.00335120502859354
1772534341989583000,8.5445830078125,0.014237139374017715,-0.03368378058075905,0.0010829581879079342
1772534341999599900,8.554599853515626,0.008483660407364368,-0.03362780064344406,0.0027545623015612364
1772534342009616000,8.564615966796875,0.0044793314300477505,-0.030408570542931557,0.0035164926666766405
1772534342019632000,8.574632080078125,0.0030798870138823986,-0.026889774948358536,0.001113527687266469
1772534342029648100,8.584648193359374,0.0013837197329849005,-0.02397601120173931,-0.006173680070787668
1772534342039664000,8.5946640625,-0.0008467243169434369,-0.025265740230679512,-0.011251267977058887
1772534342049681000,8.604680908203125,-0.0000421833829022944,-0.02199591137468815,-0.014147189445793629
1772534342059697000,8.61469677734375,0.0022488716058433056,-0.02838076651096344,-0.017131654545664787
1772534342069713000,8.624712890625,0.0062928819097578526,-0.03007453680038452,-0.02040574513375759
1772534342079729200,8.634729248046876,0.01183280162513256,-0.029106594622135162,-0.023204173892736435
1772534342089745200,8.6447451171875,0.014196356758475304,-0.024449791759252548,-0.026143506169319153
1772534342099761000,8.654760986328125,0.017014913260936737,-0.017131604254245758,-0.03039514645934105
1772534342109778000,8.66477783203125,0.015239384025335312,-0.010555194690823555,-0.027803894132375717
1772534342119794000,8.6747939453125,0.013729519210755825,-0.010143328458070755,-0.024891961365938187
1772534342129810200,8.68481005859375,0.014323670417070389,-0.014607585966587067,-0.020206131041049957
1772534342139826200,8.694826171875,0.01852218061685562,-0.016694623976945877,-0.015160256065428257
1772534342149842000,8.704842041015626,0.019491838291287422,-0.02651050314307213,-0.0016766712069511414
1772534342159858000,8.71485791015625,0.01712530292570591,-0.032369062304496765,0.012492756359279156
1772534342169875000,8.724875,0.009577637538313866,-0.02998686209321022,0.02433796599507332
1772534342179891200,8.73489111328125,0.0036385939456522465,-0.022631848230957985,0.028809640556573868
1772534342189907200,8.7449072265625,0.00041030996362678707,-0.013291609473526478,0.022957347333431244
1772534342199923000,8.7549228515625,0.009384545497596264,-0.010221734642982483,0.016828443855047226
1772534342209939000,8.76493896484375,0.019336245954036713,-0.014639119617640972,0.012529567815363407
1772534342219956000,8.7749560546875,0.029506362974643707,-0.012944295071065426,0.012004559859633446
1772534342229972000,8.784971923828126,0.0322403647005558,-0.014643925242125988,0.01528131403028965
1772534342239988000,8.794988037109375,0.02996690757572651,-0.010273899883031845,0.018512245267629623
1772534342250004000,8.80500390625,0.027406809851527214,-0.0008564296877011657,0.029456505551934242
1772534342260020000,8.81502001953125,0.020206118002533913,-0.013108118437230587,0.0523567795753479
1772534342270036000,8.825035888671875,0.01681085303425789,-0.013917719013988972,0.07105856388807297
1772534342280053000,8.835052978515625,0.014998029917478561,-0.020897211506962776,0.0891784206032753
1772534342290069000,8.845069091796875,0.011665083467960358,-0.02067750133574009,0.10029205679893494
1772534342300085000,8.8550849609375,0.01378083135932684,-0.025433193892240524,0.1015670895576477
1772534342310101000,8.86510107421875,0.018224047496914864,-0.03039466217160225,0.09295309334993362
1772534342320117000,8.875116943359375,0.021320011466741562,-0.03174995630979538,0.06987696886062622
1772534342330134000,8.885134033203125,0.024103282019495964,-0.024305090308189392,0.04237690567970276
1772534342340149800,8.895149658203126,0.02435457333922386,-0.02480059117078781,0.017428278923034668
1772534342350166000,8.905166015625,0.029722973704338074,-0.027903439477086067,-0.00894899945706129
1772534342360182000,8.91518212890625,0.03290360048413277,-0.03710194304585457,-0.04390118643641472
1772534342370198000,8.925197998046874,0.023808905854821205,-0.012298326008021832,-0.07847647368907928
1772534342380214000,8.935214111328126,0.020047079771757126,0.021402493119239807,-0.07861881703138351
1772534342390230800,8.945230712890625,0.009945444762706757,-0.0051385704427957535,-0.08228892087936401
1772534342400247000,8.9552470703125,0.00007735437247902155,0.021309759467840195,-0.05468332767486572
1772534342410263000,8.965262939453124,-0.01829393021762371,0.02614819072186947,-0.0036209444515407085
1772534342420279600,8.975279541015626,-0.03340108320116997,0.01233785878866911,0.03556086868047714
1772534342430295600,8.985295654296875,-0.041636377573013306,-0.00018325913697481155,0.07222726941108704
1772534342440312600,8.9953125,-0.04576966539025307,-0.011251905001699924,0.08807792514562607
1772534342450328600,9.00532861328125,-0.04781657084822655,-0.007182062603533268,0.08909711986780167
1772534342460344600,9.015344482421876,-0.04490339756011963,-0.001229647547006607,0.07127982378005981
1772534342470360600,9.025360595703125,-0.041632238775491714,0.006617622449994087,0.048131633549928665
1772534342480376600,9.03537646484375,-0.03647519648075104,0.016155032441020012,0.02552824467420578
1772534342490392300,9.045392333984376,-0.03569062799215317,0.023870477452874184,0.004233075771480799
1772534342500409600,9.05540966796875,-0.03644392639398575,0.03229261189699173,-0.009381672367453575
1772534342510425600,9.065425537109375,-0.040158770978450775,0.03994360566139221,-0.006753398105502129
1772534342520441600,9.075441650390625,-0.03944922238588333,0.033455923199653625,0.003164466470479965
1772534342530457600,9.08545751953125,-0.03762202709913254,0.021851995959877968,0.011782988905906677
1772534342540473300,9.095473388671875,-0.028671808540821075,0.012652460485696793,0.013227580115199089
1772534342550489300,9.1054892578125,-0.020235979929566383,0.00446403818204999,0.01076868362724781
1772534342560506600,9.115506591796875,-0.013502794317901134,-0.000018279068171977997,0.00023491145111620426
1772534342570522600,9.125522705078126,-0.004941529594361782,-0.00045370589941740036,-0.009404134005308151
1772534342580538600,9.13553857421875,-0.0023076743818819523,0.0037299736868590117,-0.027652136981487274
1772534342590554400,9.145554443359375,-0.002356676384806633,0.010432351380586624,-0.045222874730825424
1772534342600570400,9.1555703125,-0.007018443662673235,0.016639478504657745,-0.06090603768825531
1772534342610587600,9.165587646484376,-0.011204932816326618,0.020607056096196175,-0.07485727220773697
1772534342620603600,9.175603759765625,-0.010815010406076908,0.014697316102683544,-0.07650046050548553
1772534342630619600,9.18561962890625,-0.007766223978251219,0.0094969617202878,-0.06585447490215302
1772534342640635400,9.195635498046874,-0.004943527281284332,0.0066888052970170975,-0.046355053782463074
1772534342650651400,9.2056513671875,-0.003390904515981674,-0.002204021904617548,-0.0324229896068573
1772534342660667400,9.21566748046875,-0.0015461933799088001,-0.00832371599972248,-0.022200658917427063
1772534342670684700,9.2256845703125,-0.0035140030086040497,-0.006851787678897381,-0.01772281900048256
1772534342680700400,9.235700439453124,-0.004029091447591782,-0.0020167252514511347,-0.024349629878997803
1772534342690716400,9.24571630859375,-0.0026908530853688717,0.0009694772306829691,-0.0334152951836586
1772534342700732400,9.255732421875,0.0014281340409070253,0.0017639570869505405,-0.04121922329068184
1772534342710748400,9.26574853515625,0.0031663791742175817,0.0010947047267109156,-0.047998033463954926
1772534342720764700,9.2757646484375,0.002997644478455186,-0.003973404876887798,-0.0561855249106884
1772534342730781400,9.285781494140625,-0.0022831375245004892,0.0005635563284158707,-0.06449539214372635
1772534342740797400,9.29579736328125,-0.00450779777020216,0.003671792568638921,-0.06713012605905533
1772534342750813400,9.3058134765625,-0.008558998815715313,0.0075488220900297165,-0.06729577481746674
1772534342760829400,9.315829345703126,-0.0118216248229146,0.012304482981562614,-0.06708624213933945
1772534342771471600,9.3264716796875,-0.011581407859921455,0.01884094439446926,-0.06594747304916382
1772534342781488400,9.33648828125,-0.007909506559371948,0.022395214065909386,-0.06314855068922043
1772534342791504600,9.346504638671876,0.0008662070031277835,0.018937617540359497,-0.05339786037802696
1772534342801520600,9.356520751953125,0.009876213036477566,0.011720184236764908,-0.0414850078523159
1772534342811536600,9.36653662109375,0.013833369128406048,0.008929110132157803,-0.03186911717057228
1772534342821552600,9.376552734375,0.01791439764201641,0.003497060853987932,-0.025502827018499374
1772534342831568400,9.386568359375,0.024243399500846863,-0.0019475056324154139,-0.025881264358758926
1772534342841585700,9.396585693359375,0.026049941778182983,0.002064845524728298,-0.023280002176761627
1772534342851601700,9.4066015625,0.027162067592144012,0.005877280607819557,-0.01673956587910652
1772534342861617700,9.41661767578125,0.023644031956791878,0.0097809424623847,-0.011819110251963139
1772534342871633400,9.42663330078125,0.024308480322360992,0.007131483405828476,-0.006750340107828379
1772534342881649400,9.4366494140625,0.03140713647007942,0.011052189394831657,-0.006281090434640646
1772534342891666700,9.446666748046875,0.031834471970796585,0.014975284226238728,-0.008875115774571896
1772534342901682700,9.4566826171875,0.029910871759057045,0.014753975905478,-0.011556386016309261
1772534342911698700,9.46669873046875,0.02179373800754547,0.018375659361481667,-0.015639714896678925
1772534342921714400,9.47671435546875,0.012021535076200962,0.014719936065375805,-0.018823791295289993
1772534342931730400,9.48673046875,0.013137871399521828,0.016801446676254272,-0.017118778079748154
1772534342941746400,9.496746337890626,0.014109659008681774,0.022911537438631058,-0.020849600434303284
1772534342951763700,9.506763671875,0.013983812183141708,0.004087548702955246,-0.02014104649424553
1772534342961779700,9.51677978515625,0.015381705947220325,0.011111103929579258,-0.022359726950526237
1772534342971795500,9.52679541015625,0.01269596815109253,0.013423275202512741,-0.027706613764166832
1772534342981811500,9.5368115234375,0.0027996620628982782,0.01967344805598259,-0.0361243300139904
1772534342991827500,9.546827392578125,0.0019010398536920547,0.022118866443634033,-0.038896381855010986
1772534343001843500,9.556843505859375,-0.001364794559776783,0.020975306630134583,-0.03619806468486786
1772534343011860700,9.56686083984375,-0.0033378947991877794,0.01779104396700859,-0.027450930327177048
1772534343021876500,9.57687646484375,-0.004292904399335384,0.013325990177690983,-0.01610346883535385
1772534343031892500,9.586892578125,0.001994552556425333,0.009147223085165024,-0.0025527719408273697
1772534343041908500,9.596908447265625,0.007478775922209024,0.002823346061632037,0.00659975316375494
1772534343051924500,9.606924560546876,0.008584669791162014,0.005073328036814928,0.006467421073466539
1772534343061941500,9.61694140625,0.0027880335692316294,0.01776755228638649,0.0018015627283602953
1772534343071957500,9.62695751953125,-0.004461904987692833,0.0302039235830307,-0.002375274430960417
1772534343081973500,9.636973388671874,-0.017701543867588043,0.03459414467215538,-0.003715110942721367
1772534343091989500,9.646989501953126,-0.02418275736272335,0.03414889797568321,0.007140618748962879
1772534343102005500,9.657005615234375,-0.029079511761665344,0.029546156525611877,0.019472653046250343
1772534343112647400,9.6676474609375,-0.029838694259524345,0.02342483215034008,0.030902042984962463
1772534343122664400,9.67766455078125,-0.02974441833794117,0.016830580309033394,0.029588039964437485
1772534343132680400,9.687680419921875,-0.03393574059009552,0.01671793684363365,0.022065777331590652
1772534343142696700,9.69769677734375,-0.03471524640917778,0.017960835248231888,0.0065347542986273766
1772534343152712700,9.707712646484374,-0.03067619912326336,0.01889241486787796,-0.00938444770872593
1772534343162728400,9.717728515625,-0.0274838674813509,0.020663416013121605,-0.02129650115966797
1772534343172745500,9.727745361328125,-0.025001876056194305,0.023515058681368828,-0.034873176366090775
1772534343182761500,9.737761474609375,-0.021703816950321198,0.017726678401231766,-0.05007423460483551
1772534343192777700,9.74777783203125,-0.024462245404720306,0.011952217668294907,-0.061651647090911865
1772534343202793500,9.75779345703125,-0.02514561265707016,0.010189737193286419,-0.07431657612323761
1772534343212809500,9.7678095703125,-0.023046337068080902,0.007539262063801289,-0.07863002270460129
1772534343222825500,9.777825439453125,-0.012611273676156998,-0.008155545219779015,-0.07596287131309509
1772534343232842500,9.787842529296874,0.00037358631379902363,-0.0193877425044775,-0.07127048075199127
1772534343242858800,9.797858642578126,0.010901061818003654,-0.024041082710027695,-0.05848251283168793
1772534343252874500,9.80787451171875,0.009251714684069157,-0.012714702636003494,-0.043426163494586945
1772534343262890500,9.817890380859374,-0.00325955031439662,0.002553465310484171,-0.03305075690150261
1772534343272906500,9.827906494140626,-0.01115198154002428,0.007741096429526806,-0.01830744929611683
1772534343282922500,9.837922607421875,-0.018539857119321823,0.013932946138083935,0.002155747264623642
1772534343292939500,9.847939453125,-0.03334378823637962,0.0064622084610164165,0.02930028922855854
1772534343302955500,9.85795556640625,-0.03363993391394615,0.0386185459792614,0.06545323133468628
1772534343312971500,9.867971435546876,-0.040008544921875,0.01834716834127903,0.0922466441988945
1772534343322987500,9.877987548828125,-0.032636117190122604,0.001720521366223693,0.10621332377195358
1772534343333003500,9.88800341796875,-0.014142556115984917,-0.018425943329930305,0.1118517518043518
1772534343343020500,9.8980205078125,-0.010234100744128227,-0.00587952695786953,0.10508120059967041
1772534343353036500,9.90803662109375,-0.016310876235365868,0.01573382504284382,0.09717636555433273
1772534343363052500,9.918052490234375,-0.01747973822057247,0.016003070399165154,0.09151581674814224
1772534343373068500,9.928068603515625,-0.025571003556251526,0.014973622746765614,0.08353359997272491
1772534343383084500,9.93808447265625,-0.03215966373682022,0.015244466252624989,0.08869347721338272
1772534343393100500,9.9481005859375,-0.03602297976613045,0.009152397513389587,0.09514223039150238
1772534343403117300,9.958117431640625,-0.039549801498651505,0.0020963524002581835,0.09273446351289749
1772534343413133600,9.968133544921875,-0.035112034529447556,0.0011650121305137873,0.08636456727981567
1772534343423149600,9.978149658203124,-0.025229841470718384,-0.007397849578410387,0.07673963904380798
1772534343433165600,9.98816552734375,-0.01456034742295742,-0.016755500808358192,0.06545551866292953
1772534343443181600,9.998181640625,-0.002926328219473362,-0.02161790058016777,0.06170738860964775
1772534343453197600,10.008197509765624,-0.0006090386887080967,-0.025822961702942848,0.05610983818769455
1772534343463214600,10.018214599609376,-0.006541762501001358,-0.027850959450006485,0.051385123282670975
1772534343473230600,10.028230712890625,-0.006111795548349619,-0.028442533686757088,0.03848281502723694
1772534343483246600,10.03824658203125,-0.004590331576764584,-0.034079380333423615,0.024243157356977463
1772534343493262600,10.0482626953125,0.0031740665435791016,-0.030909650027751923,0.009107612073421478
1772534343503278600,10.058278564453126,0.013836298137903214,-0.023056253790855408,0.0019133493769913912
1772534343513295600,10.068295654296875,0.019142430275678635,-0.020213458687067032,0.004877101629972458
1772534343523311600,10.0783115234375,0.01731816492974758,-0.016368387266993523,0.00482916459441185
1772534343533327600,10.08832763671875,0.011473904363811016,-0.01145382784307003,-0.0010889065451920033
1772534343543343600,10.098343505859376,0.004314261954277754,-0.009625567123293877,-0.006675951648503542
1772534343553359600,10.108359619140625,-0.0003837353433482349,-0.013102107681334019,-0.004680274985730648
1772534343563375400,10.118375244140625,0.0028211127500981092,-0.014317041262984276,0.011394831351935863
1772534343573392600,10.128392578125,0.005570539273321629,-0.013964731246232986,0.03167235851287842
1772534343583408600,10.13840869140625,0.006564697250723839,-0.0086645083501935,0.05107855051755905
1772534343593424600,10.148424560546875,0.0017253069672733545,-0.014604444615542889,0.05039433017373085
1772534343603440600,10.158440673828125,-0.010987558402121067,-0.012608406133949757,0.0461825430393219
1772534343613456400,10.168456298828126,-0.025586584582924843,-0.0006869172211736441,0.04624180123209953
1772534343623472400,10.178472412109375,-0.03273503854870796,0.0021794431377202272,0.04253148287534714
1772534343633489700,10.18848974609375,-0.034194380044937134,-0.005695986561477184,0.03443802148103714
1772534343643505700,10.198505615234374,-0.038828279823064804,-0.00445069232955575,0.04538600891828537
1772534343653521700,10.208521728515626,-0.037423182278871536,0.000019213184714317322,0.051461946219205856
1772534343663537400,10.218537353515625,-0.03628867492079735,-0.005976627580821514,0.04190013185143471
1772534343673553400,10.228553466796875,-0.03598608449101448,-0.002819609362632036,0.027580611407756805
1772534343683570700,10.23857080078125,-0.032033152878284454,0.006478551309555769,0.024100393056869507
1772534343693586700,10.248586669921876,-0.026191800832748413,0.0028279549442231655,0.024421874433755875
1772534343703602400,10.2586025390625,-0.024620801210403442,-0.002319402527064085,0.01699085719883442
1772534343713618400,10.268618408203125,-0.02452925592660904,-0.0028261886909604073,0.017574036493897438
1772534343723634400,10.278634521484374,-0.02351698838174343,0.0024655121378600597,0.024584008380770683
1772534343733650400,10.288650390625,-0.020555412396788597,-0.004820306319743395,0.036885082721710205
1772534343743667700,10.298667724609375,-0.019409719854593277,-0.015152305364608765,0.05113299563527107
1772534343753683500,10.308683349609375,-0.011881567537784576,-0.021754179149866104,0.06646085530519485
1772534343763699500,10.318699462890624,-0.005590115673840046,-0.027765465900301933,0.08136550337076187
1772534343773715500,10.328715576171875,-0.00035751546965911984,-0.029383042827248573,0.08229099959135056
1772534343783731500,10.3387314453125,0.001596179441548884,-0.04426718130707741,0.07885845005512238
1772534343793747500,10.34874755859375,0.005025556311011314,-0.02471006102859974,0.0542161762714386
1772534343803764500,10.358764404296876,-0.0032177260145545006,-0.011351377703249454,0.02365906722843647
1772534343813780500,10.368780517578125,-0.007562452461570501,-0.0018449188210070133,-0.006877275183796883
1772534343823796500,10.37879638671875,-0.01695169322192669,0.013134296983480453,-0.03117302805185318
1772534343833812500,10.3888125,-0.017762739211320877,0.011964310891926289,-0.04593710973858833
1772534343843828500,10.398828369140626,-0.014303025789558887,-0.000012191012501716614,-0.03901155665516853
1772534343853845500,10.408845458984375,-0.008646941743791103,-0.019499149173498154,-0.019520021975040436
1772534343863861500,10.418861572265625,-0.007275414187461138,-0.023778051137924194,0.004339505918323994
1772534343873877500,10.42887744140625,-0.0065490384586155415,-0.018514400348067284,0.026738997548818588
1772534343883893500,10.4388935546875,-0.015570229850709438,-0.01347143854945898,0.028213588520884514
1772534343893909500,10.448909423828125,-0.02213904820382595,-0.0058829402551054955,0.02222582697868347
1772534343903925500,10.458925537109375,-0.026790792122483253,-0.0029326905496418476,0.02480243518948555
1772534343913942500,10.468942626953124,-0.031251490116119385,0.006278215907514095,0.021749582141637802
1772534343923958500,10.47895849609375,-0.032338328659534454,0.005648644641041756,0.016240298748016357
1772534343933974500,10.488974609375,-0.03603171929717064,0.009130163118243217,0.018934201449155807
1772534343943990500,10.498990478515625,-0.03356270119547844,0.007218545768409967,0.018319543451070786
1772534343954006500,10.509006591796876,-0.03176567330956459,0.0022007219959050417,0.013869968242943287
1772534343964022500,10.5190224609375,-0.02490856684744358,-0.0017301039770245552,0.013538138009607792
1772534343974039600,10.52903955078125,-0.022082336246967316,-0.004437164403498173,0.013993260450661182
1772534343984055600,10.5390556640625,-0.019238078966736794,-0.00021418998949229717,0.01859467104077339
1772534343994071600,10.549071533203126,-0.019675055518746376,0.0012778486125171185,0.024017851799726486
1772534344004087600,10.559087646484375,-0.018181821331381798,0.0031375340186059475,0.02710844948887825
1772534344014103600,10.569103515625,-0.016682451590895653,0.001720879226922989,0.021075347438454628
1772534344024119600,10.57911962890625,-0.014876294881105423,-0.002866682130843401,0.014025427401065826
1772534344034136600,10.589136474609376,-0.011401389725506306,0.003140398534014821,0.023735251277685165
1772534344044152600,10.599152587890625,-0.00665856571868062,0.0013331775553524494,0.02718937210738659
1772534344054168600,10.60916845703125,-0.001964527415111661,-0.003514178330078721,0.02804405987262726
1772534344064184300,10.619184326171874,0.0033828336745500565,-0.014971096999943256,0.04012761637568474
1772534344074200600,10.62920068359375,0.005441943649202585,0.004331799224019051,0.038353681564331055
1772534344084217600,10.639217529296875,-0.0037187980487942696,-0.0028398274444043636,0.030834514647722244
1772534344094233600,10.649233642578125,-0.007450674660503864,0.001085818512365222,0.03844025731086731
1772534344104249600,10.65924951171875,-0.008439506404101849,-0.002013035584241152,0.046786606311798096
1772534344114265300,10.669265380859375,-0.007922109216451645,-0.00410265801474452,0.047845978289842606
1772534344124281600,10.679281494140625,-0.006243785377591848,0.00012218067422509193,0.04274336248636246
1772534344134297600,10.689297607421874,-0.008024546317756176,0.0011462629772722721,0.03728274255990982
1772534344144314600,10.699314697265624,-0.011505031026899815,0.011453494429588318,0.029309507459402084
1772534344154330400,10.709330322265625,-0.012254050001502037,0.02218603901565075,0.01247592456638813
1772534344164346400,10.719346435546875,-0.017975052818655968,0.018913013860583305,-0.014918414875864983
1772534344174362400,10.7293623046875,-0.01600145734846592,-0.012844014912843704,0.031608909368515015
1772534344184378600,10.739378662109376,-0.008556323125958443,-0.0012672528391703963,0.08603619784116745
1772534344194394600,10.74939453125,-0.016711745411157608,-0.015700988471508026,0.1114949882030487
1772534344204411400,10.759411376953125,-0.03285130113363266,-0.011615699157118797,0.11240819096565247
1772534344214427400,10.769427490234374,-0.041290055960416794,0.02743467316031456,0.0841093584895134
1772534344224443400,10.779443359375,-0.05072110891342163,0.03981411084532738,0.041546449065208435
1772534344234459600,10.789459716796875,-0.04796523600816727,0.028157269582152367,0.03263203427195549
1772534344244475600,10.7994755859375,-0.03745666891336441,0.008396081626415253,0.04176374897360802
1772534344254491600,10.80949169921875,-0.023177973926067352,-0.01624603383243084,0.05306340754032135
1772534344264508400,10.81950830078125,-0.012060606852173805,-0.031737640500068665,0.05732393264770508
1772534344274524400,10.8295244140625,-0.0076196398586034775,-0.01716405712068081,0.05153912678360939
1772534344284540400,10.83954052734375,0.0018327174475416541,0.012207679450511932,0.03890455886721611
1772534344294556700,10.849556640625,-0.011602106504142284,0.032102759927511215,0.013576528057456017
