time,seconds_elapsed,z,y,x
1772574142117695700,0.25469580078125,8.451449394226074,1.4638092517852783,-0.01136590726673603
1772574142127628500,0.264628662109375,7.957930088043213,1.7988044023513794,0.2805584669113159
1772574142137559300,0.274559326171875,7.709076404571533,2.139183521270752,0.4145565330982208
1772574142147491000,0.284490966796875,7.8382887840271,2.416750907897949,0.39062830805778503
1772574142157420500,0.294420654296875,8.111668586730957,2.531606435775757,0.4145565330982208
1772574142167351300,0.304351318359375,8.25523853302002,2.4837498664855957,0.5198407173156738
1772574142177286100,0.3142861328125,8.331808090209961,2.5220351219177246,0.582054078578949
1772574142187218400,0.324218505859375,8.389236450195312,2.6225335597991943,0.6299105882644653
1772574142197158000,0.334157958984375,8.34138011932373,2.6943182945251465,0.706480860710144
1772574142216986400,0.353986328125,8.082955360412598,2.6943182945251465,0.8123632669448853
1772574142236856800,0.37385693359375,7.737790107727051,2.837887763977051,0.836291491985321
1772574142246802400,0.383802490234375,7.685148239135742,2.867199659347534,0.9415757060050964
1772574142256740600,0.39374072265625,7.670791149139404,2.9389843940734863,1.1569297313690186
1772574142266669800,0.403669921875,7.57507848739624,3.092125177383423,1.4679967164993286
1772574142276604400,0.4136044921875,7.4841508865356445,3.331407308578491,1.7647067308425903
1772574142286532900,0.423532958984375,7.541578769683838,3.556332588195801,1.975873351097107
1772574142296465000,0.43346484375,7.728219032287598,3.714258909225464,2.105085611343384
1772574142306389000,0.443388916015625,8.034500122070312,3.690330743789673,2.1098713874816895
1772574142316318000,0.45331787109375,8.417949676513672,3.5371899604797363,1.8753747940063477
1772574142326253800,0.46325390625,8.781659126281738,3.384049415588379,1.511067509651184
1772574142336185600,0.473185546875,9.068798065185547,3.321835994720459,1.089930772781372
1772574142346108200,0.483108154296875,9.193822860717773,3.3074791431427,0.8219345808029175
1772574142356036000,0.4930361328125,9.107681274414062,3.3122646808624268,0.7160521745681763
1772574142365973200,0.50297314453125,8.987442016601562,3.422334671020508,0.6921239495277405
1772574142375905000,0.512905029296875,8.82951545715332,3.5371899604797363,0.6394818425178528
1772574142385835500,0.52283544921875,8.547162055969238,3.6424741744995117,0.5724828243255615
1772574142395766500,0.5327666015625,8.24566650390625,3.723830223083496,0.41934216022491455
1772574142405701000,0.542701171875,8.044071197509766,3.8434712886810303,0.20877377688884735
1772574142415633400,0.55263330078125,7.938787460327148,3.872185230255127,0.03170489892363548
1772574142425593000,0.562593017578125,7.862216949462891,3.9110686779022217,-0.12143574655056
1772574142435536400,0.572536376953125,7.8287177085876465,3.9397823810577393,-0.3038884699344635
1772574142445422600,0.582422607421875,7.9244303703308105,3.954139471054077,-0.519242525100708
1772574142455360500,0.592360595703125,8.068597793579102,4.001996040344238,-0.6245267391204834
1772574142465284600,0.60228466796875,8.312665939331055,4.131208419799805,-0.6101697683334351
1772574142475221000,0.612220947265625,8.60459041595459,4.25084924697876,-0.6484549641609192
1772574142485152000,0.622152099609375,8.796015739440918,4.346562385559082,-0.8255237936973572
1772574142495087900,0.632087890625,8.949156761169434,4.394418716430664,-1.0504491329193115
1772574142505013000,0.642012939453125,8.992227554321289,4.4135613441467285,-1.1413763761520386
1772574142514947600,0.651947509765625,9.020941734313965,4.466203689575195,-1.1509476900100708
1772574142524889600,0.6618896484375,8.901300430297852,4.432703971862793,-1.1988041400909424
1772574142534825000,0.671824951171875,8.86780071258545,4.552345275878906,-1.184447169303894
1772574142544766500,0.681766357421875,8.757730484008789,4.681557655334473,-1.1653046607971191
1772574142554702600,0.69170263671875,8.523234367370605,4.691128730773926,-1.347757339477539
1772574142564631000,0.701631103515625,8.504091262817383,4.901697158813477,-1.5822539329528809
1772574142574566400,0.71156640625,8.719446182250977,5.323431968688965,-1.591825246810913
1772574142584489000,0.721489013671875,9.016156196594238,5.5244293212890625,-1.4578272104263306
1772574142594422800,0.7314228515625,9.279964447021484,5.462215900421143,-1.2418749332427979
1772574142604344800,0.7413447265625,9.528818130493164,5.337789058685303,-1.0648061037063599
1772574142614278000,0.75127783203125,9.576674461364746,5.14157772064209,-1.1078768968582153
1772574142624209700,0.761209716796875,9.5862455368042,4.993222713470459,-1.2370892763137817
1772574142634142500,0.771142578125,9.610174179077148,4.9160542488098145,-1.4673985242843628
1772574142644086000,0.7810859375,9.815957069396973,4.8777689933776855,-1.654038667678833
1772574142654019800,0.791019775390625,10.204192161560059,4.925625324249268,-1.7353945970535278
1772574142663940900,0.80094091796875,10.5152587890625,5.194219589233398,-1.9411773681640625
1772574142673873400,0.810873291015625,10.48654556274414,5.534000396728516,-1.9459630250930786
1772574142683813400,0.8208134765625,10.074381828308105,5.639284610748291,-1.5439687967300415
1772574142693746400,0.830746337890625,9.777671813964844,5.529214859008789,-0.9978070259094238
1772574142703665700,0.840665771484375,9.691530227661133,5.42871618270874,-0.5623133182525635
1772574142713597700,0.85059765625,9.5862455368042,5.495715618133545,-0.1453639715909958
1772574142723528700,0.86052880859375,9.490532875061035,5.644070625305176,-0.04007977992296219
1772574142733460500,0.87046044921875,9.629316329956055,5.821139335632324,-0.28953152894973755
1772574142743391700,0.880391845703125,10.0073823928833,5.653641700744629,-0.8255237936973572
1772574142753323500,0.890323486328125,10.285548210144043,4.988437175750732,-1.4051851034164429
1772574142763268600,0.9002685546875,10.462616920471191,4.18863582611084,-1.9124635457992554
1772574142773201700,0.91020166015625,10.730612754821777,3.5467612743377686,-2.358126640319824
1772574142783125500,0.92012548828125,10.893324851989746,2.9772696495056152,-2.640479803085327
1772574142793057800,0.930057861328125,10.62532901763916,2.4885356426239014,-2.702693223953247
1772574142802987800,0.93998779296875,10.223334312438965,2.2540390491485596,-2.7218358516693115
1772574142812919800,0.949919921875,10.02173900604248,2.2779672145843506,-2.568695068359375
1772574142822822000,0.95982177734375,9.792028427124023,2.383251428604126,-2.2618155479431152
1772574142832750800,0.969750732421875,9.313464164733887,2.56510591506958,-1.8646070957183838
1772574142842691800,0.97969189453125,8.671588897705078,2.770888566970825,-1.5774682760238647
1772574142852622000,0.9896220703125,8.054241180419922,2.9629125595092773,-1.409970760345459
1772574142862574000,0.999573974609375,7.718647480010986,3.1208388805389404,-1.2993026971817017
1772574142872506600,1.009506591796875,7.694719314575195,3.235694408416748,-1.2179467678070068
1772574142882407400,1.019407470703125,7.771289825439453,3.3074791431427,-1.2323036193847656
1772574142892336600,1.029336669921875,7.934001445770264,3.3984062671661377,-1.2945170402526855
1772574142902294300,1.039294189453125,8.202595710754395,3.43190598487854,-1.4051851034164429
1772574142912226300,1.049226318359375,8.437092781066895,3.3984062671661377,-1.4626128673553467
1772574142922158800,1.059158935546875,8.590232849121094,3.3553354740142822,-1.5343974828720093
1772574142932091000,1.0690908203125,8.6907320022583,3.2883365154266357,-1.587039589881897
1772574142942027300,1.07902734375,8.834300994873047,3.1543383598327637,-1.4626128673553467
1772574142951959600,1.08895947265625,8.992227554321289,3.0203404426574707,-1.2610175609588623
1772574142961886000,1.098885986328125,9.08853816986084,3.0011978149414062,-0.9690931439399719
1772574142971818000,1.10881787109375,9.131608963012695,3.125624656677246,-0.6580262184143066
1772574142981732600,1.118732666015625,9.241679191589355,3.1543383598327637,-0.45224347710609436
1772574142991662800,1.128662841796875,9.43310546875,3.1064820289611816,-0.23629122972488403
1772574143001616600,1.13861669921875,9.509675025939941,3.0107691287994385,-0.07836493849754333
1772574143011549200,1.148549072265625,9.404391288757324,2.943770170211792,-0.06400800496339798
1772574143021485300,1.1584853515625,9.155537605285645,2.881556749343872,-0.16450655460357666
1772574143031418000,1.168418212890625,8.95394229888916,2.8522446155548096,-0.26560330390930176
1772574143041339400,1.17833935546875,8.738588333129883,2.775674343109131,-0.3038884699344635
1772574143051271000,1.18827099609375,8.451449394226074,2.799602508544922,-0.380458801984787
1772574143061175800,1.19817578125,8.149953842163086,2.9102704524993896,-0.45224347710609436
1772574143071104800,1.208104736328125,7.886145114898682,3.039483070373535,-0.6628118753433228
1772574143081073200,1.2180732421875,7.756932735443115,3.2213375568389893,-0.4953143000602722
1772574143091006200,1.228006103515625,7.642077445983887,3.455834150314331,-0.21236300468444824
1772574143100927000,1.237927001953125,7.65164852142334,3.7334015369415283,-0.27038896083831787
1772574143110858800,1.247858642578125,7.709076404571533,3.9158542156219482,-0.3086741268634796
1772574143120790800,1.257790771484375,7.46500825881958,3.833899974822998,-0.28953152894973755
1772574143130722600,1.26772265625,6.339783668518066,3.800400495529175,-0.576670229434967
1772574143140650000,1.27764990234375,5.123631477355957,4.016352653503418,-0.9595218896865845
1772574143150581200,1.287581298828125,5.219344615936279,4.303491592407227,-0.9786644577980042
1772574143160515600,1.297515625,6.330212116241455,4.4374895095825195,-0.5670989751815796
1772574143170447400,1.307447265625,7.488936901092529,4.399204254150391,-0.3086741268634796
1772574143180375000,1.317375,8.49452018737793,4.3417768478393555,-0.3613162338733673
1772574143190306300,1.327306396484375,9.1986083984375,4.212564468383789,-0.605384111404419
1772574143200252700,1.337252685546875,9.236893653869629,4.126422882080078,-0.8590233325958252
1772574143210185500,1.347185546875,8.805587768554688,3.9876389503479004,-0.9212366938591003
1772574143220106500,1.3571064453125,8.221738815307617,3.8195431232452393,-0.6628118753433228
1772574143230038000,1.3670380859375,7.584649562835693,3.978067636489868,-0.5144568681716919
1772574143239981000,1.37698095703125,7.431509017944336,4.408775806427002,-0.5479564070701599
1772574143249913900,1.386913818359375,8.116454124450684,4.820341110229492,-0.3278166949748993
1772574143259831300,1.396831298828125,8.93958568572998,4.9501519203186035,0.05563312768936157
1772574143269762600,1.406762451171875,9.418747901916504,4.969294548034668,0.2805584669113159
1772574143289625300,1.426625244140625,10.112667083740234,5.1320061683654785,0.3475574851036072
1772574143299555600,1.4365556640625,10.309475898742676,5.074578762054443,0.44805604219436646
1772574143309486800,1.44648681640625,10.314262390136719,4.978865623474121,0.41934216022491455
1772574143329351700,1.4663515625,10.040882110595703,4.868197441101074,0.0891326442360878
1772574143339282000,1.476281982421875,9.863813400268555,4.83469820022583,0.01734796352684498
1772574143349213200,1.486213134765625,9.744172096252441,4.863411903381348,0.0364905446767807
1772574143359156700,1.49615673828125,9.758528709411621,4.988437175750732,0.11306086927652359
1772574143369089300,1.50608935546875,9.949954986572266,5.155934810638428,0.3523431420326233
1772574143379006500,1.51600634765625,10.261619567871094,5.309075355529785,0.5198407173156738
1772574143388937500,1.5259375,10.563115119934082,5.438287734985352,0.6011967062950134
1772574143398873000,1.535873046875,10.687541961669922,5.691926956176758,0.5868397355079651
1772574143408804600,1.5458046875,10.567901611328125,5.892923831939697,0.6011967062950134
1772574143418744600,1.55574462890625,10.692328453063965,5.840281963348389,0.7734799385070801
1772574143428676900,1.5656767578125,11.103893280029297,5.519643783569336,0.9080761671066284
1772574143438606300,1.5756064453125,11.209775924682617,5.2181477546691895,0.8889335989952087
1772574143448538400,1.585538330078125,10.797612190246582,5.0602216720581055,0.7543373107910156
1772574143458460700,1.595460693359375,10.175477981567383,5.050650596618652,0.5581258535385132
1772574143468391700,1.6053916015625,9.490532875061035,4.959722995758057,0.44327038526535034
1772574143478323200,1.6153232421875,8.877371788024902,4.64805793762207,0.5246263742446899
1772574143488254200,1.625254150390625,8.528019905090332,4.260420799255371,0.5724828243255615
1772574143498191400,1.63519140625,8.805587768554688,3.857828378677368,0.5389832854270935
1772574143508123000,1.645122802734375,9.500103950500488,3.2883365154266357,0.529412031173706
1772574143518053000,1.65505322265625,10.137192726135254,2.6368906497955322,0.3762713670730591
1772574143527984600,1.664984619140625,10.601400375366211,2.234896421432495,0.0364905446767807
1772574143537890600,1.674890625,10.878968238830566,2.1200408935546875,-0.3756731450557709
1772574143547819500,1.684819580078125,10.965109825134277,2.1104695796966553,-0.576670229434967
1772574143557752600,1.694752685546875,10.601400375366211,2.1439690589904785,-0.3756731450557709
1772574143567681800,1.704681884765625,9.887741088867188,2.2779672145843506,-0.08315058797597885
1772574143577618200,1.7146181640625,9.093324661254883,2.4358935356140137,0.03170489892363548
1772574143587548200,1.724548095703125,8.513663291931152,2.5842485427856445,0.09391828626394272
1772574143597513700,1.734513671875,8.102097511291504,2.7661030292510986,0.2470589429140091
1772574143607447300,1.744447265625,7.689933776855469,3.039483070373535,0.45284169912338257
1772574143617350100,1.75435009765625,7.393223762512207,3.3649067878723145,0.4576273262500763
1772574143627280600,1.76428076171875,7.4123663902282715,3.6329028606414795,0.3236292600631714
1772574143637206300,1.774206298828125,7.5942206382751465,3.675973892211914,0.3236292600631714
1772574143647136300,1.78413623046875,7.723433494567871,3.5228331089019775,0.3810569941997528
1772574143657068500,1.794068603515625,7.804789066314697,3.3649067878723145,0.44327038526535034
1772574143666998800,1.803998779296875,7.914859294891357,3.331407308578491,0.44805604219436646
1772574143676939300,1.813939208984375,8.078168869018555,3.3409786224365234,0.5006981492042542
1772574143686870500,1.82387060546875,8.293522834777832,3.384049415588379,0.5533402562141418
1772574143696796700,1.833796630859375,8.49452018737793,3.384049415588379,0.6299105882644653
1772574143706727400,1.8437275390625,8.590232849121094,3.4127633571624756,0.7980063557624817
1772574143716660200,1.85366015625,8.49452018737793,3.40797758102417,0.8745766878128052
1772574143726591200,1.86359130859375,8.097311973571777,3.283550977706909,0.9128618240356445
1772574143736555500,1.873555419921875,7.618149280548096,3.173480987548828,0.9128618240356445
1772574143746489900,1.88348974609375,7.354938507080078,3.1543383598327637,0.9080761671066284
1772574143756399400,1.8933994140625,7.345367431640625,3.149552822113037,0.9032905697822571
1772574143766331400,1.903331298828125,7.4506516456604,3.0346972942352295,0.7495517134666443
1772574143776271400,1.913271240234375,7.680362701416016,2.8426733016967773,0.4384847581386566
1772574143786204200,1.9232041015625,8.049455642700195,2.809173822402954,0.10827522724866867
1772574143796120300,1.933120361328125,8.37009334564209,2.8283164501190186,-0.08315058797597885
1772574143806051300,1.94305126953125,8.446663856506348,2.8187451362609863,-0.21714866161346436
1772574143816006400,1.95300634765625,8.365307807922363,2.847458839416504,-0.3086741268634796
1772574143825939700,1.962939697265625,8.240880966186523,2.8624141216278076,-0.3326023519039154
1772574143835863600,1.972863525390625,8.164310455322266,2.9102704524993896,-0.4618147611618042
1772574143845796000,1.982796142578125,8.236095428466797,3.063411235809326,-0.605384111404419
1772574143855700500,1.992700439453125,8.250452041625977,3.1686954498291016,-0.6197410821914673
1772574143865630200,2.002630126953125,8.173882484436035,3.202194929122925,-0.6819544434547424
1772574143875592700,2.0125927734375,7.967501163482666,3.273979663848877,-0.6771687865257263
1772574143885525500,2.022525390625,7.780860900878906,3.297907829284668,-0.6963114142417908
1772574143895456000,2.0324560546875,7.771289825439453,3.34576416015625,-0.8973084688186646
1772574143905388500,2.042388427734375,7.9627156257629395,3.4366915225982666,-1.1413763761520386
1772574143915314700,2.052314697265625,8.13081169128418,3.5850465297698975,-1.2370892763137817
1772574143925246500,2.06224658203125,8.202595710754395,3.7716867923736572,-1.4291132688522339
1772574143935181000,2.07218115234375,8.236095428466797,4.011567115783691,-1.5296118259429932
1772574143945113000,2.082113037109375,8.178668022155762,4.2556352615356445,-1.4291132688522339
1772574143955091000,2.092091064453125,8.059026718139648,4.528416633605957,-1.1748759746551514
1772574143965027800,2.10202783203125,7.972286701202393,4.748556613922119,-1.0121639966964722
1772574143974905000,2.111905029296875,8.140382766723633,4.911268711090088,-0.9451649188995361
1772574143984836000,2.121836181640625,8.547162055969238,4.969294548034668,-0.8398807644844055
1772574143994750700,2.131750732421875,8.973084449768066,4.940580368041992,-0.7010970115661621
1772574144004680200,2.14168017578125,9.33739185333252,4.920839786529541,-0.6675975322723389
1772574144014640000,2.15164013671875,9.715457916259766,4.743771076202393,-0.763310432434082
1772574144024572400,2.161572509765625,10.175477981567383,4.442275047302246,-0.9499505758285522
1772574144034473500,2.171473388671875,10.72582721710205,4.198207378387451,-1.2083754539489746
1772574144044402700,2.181402587890625,11.410773277282715,4.030709743499756,-1.472184181213379
1772574144054357800,2.191357666015625,12.142976760864258,3.9014973640441895,-1.7306089401245117
1772574144064289500,2.20128955078125,12.751352310180664,3.7429728507995605,-1.8502501249313354
1772574144074222000,2.21122216796875,13.043275833129883,3.628117322921753,-1.8454644680023193
1772574144084153900,2.22115380859375,13.086346626281738,3.7046875953674316,-1.9268203973770142
1772574144094084000,2.231083984375,12.823136329650879,4.078566074371338,-2.1613171100616455
1772574144104016000,2.241015869140625,12.128620147705078,4.403990268707275,-2.1278176307678223
1772574144113954300,2.250954345703125,11.252846717834473,4.222135543823242,-1.6253247261047363
1772574144123886800,2.260886962890625,10.76411247253418,3.9876389503479004,-1.031306505203247
1772574144133818000,2.270818115234375,10.673185348510742,4.159922122955322,-0.7202396392822266
1772574144143750400,2.28075048828125,10.558329582214355,4.4614176750183105,-0.6580262184143066
1772574144153673200,2.290673095703125,10.419546127319336,4.590630054473877,-0.6532405614852905
1772574144163604500,2.3006044921875,10.338190078735352,4.485345840454102,-0.6340979933738708
1772574144173535500,2.310535400390625,10.457831382751465,4.18863582611084,-0.6436693072319031
1772574144183466800,2.320466796875,10.76411247253418,3.723830223083496,-0.8015955686569214
1772574144193409500,2.330409423828125,11.094322204589844,3.111267566680908,-1.0456634759902954
1772574144203341800,2.340341796875,11.362916946411133,2.5124638080596924,-1.323829174041748
1772574144213259300,2.35025927734375,11.449058532714844,1.9908283948898315,-1.5774682760238647
1772574144223190000,2.36018994140625,11.286346435546875,1.5643078088760376,-1.8167506456375122
1772574144233123600,2.37012353515625,10.744970321655273,1.339382529258728,-2.0273189544677734
1772574144243054600,2.3800546875,9.873384475708008,1.358525037765503,-2.1756739616394043
1772574144252993000,2.389992919921875,8.910871505737305,1.4733805656433105,-2.142174482345581
1772574144262925000,2.399925048828125,8.078168869018555,1.6456637382507324,-2.0656042098999023
1772574144272851200,2.409851318359375,7.374081134796143,1.7413766384124756,-1.9986051321029663
1772574144282782500,2.419782470703125,6.756134510040283,1.7078771591186523,-1.9746768474578857
1772574144292714500,2.429714599609375,6.311069488525391,1.7222341299057007,-2.0608184337615967
1772574144302645800,2.439645751953125,6.009573936462402,1.8759729862213135,-2.1852452754974365
1772574144312579300,2.449579345703125,6.028716564178467,2.124826431274414,-2.36291241645813
1772574144322510800,2.4595107421875,6.483353137969971,2.335394859313965,-2.348555326461792
1772574144332440600,2.469440673828125,7.086942672729492,2.3641088008880615,-2.070389747619629
1772574144342371800,2.479371826171875,7.613363265991211,2.383251428604126,-1.740180253982544
1772574144352316700,2.489316650390625,8.039285659790039,2.493321180343628,-1.4817553758621216
1772574144362249500,2.49924951171875,8.46580696105957,2.6225335597991943,-1.2658032178878784
1772574144372163800,2.509163818359375,8.86780071258545,2.6847469806671143,-1.00259268283844
1772574144382094800,2.5190947265625,9.145966529846191,2.589034080505371,-0.729810893535614
1772574144392032500,2.529032470703125,9.246464729309082,2.541177749633789,-0.5431707501411438
1772574144401964000,2.538964111328125,9.09811019897461,2.431107759475708,-0.48574298620224
1772574144411870500,2.548870361328125,8.824729919433594,2.2779672145843506,-0.5048855543136597
1772574144421799700,2.558799560546875,8.547162055969238,2.1678972244262695,-0.5240281820297241
1772574144431737600,2.568737548828125,8.327022552490234,2.091326951980591,-0.4570291340351105
1772574144441667600,2.57866748046875,8.240880966186523,2.029113531112671,-0.37088751792907715
1772574144451625000,2.588625,8.293522834777832,2.0482561588287354,-0.32303106784820557
1772574144461557800,2.598557861328125,8.35573673248291,2.062613010406494,-0.3038884699344635
1772574144471464700,2.608464599609375,8.365307807922363,2.0961127281188965,-0.31345975399017334
1772574144481395000,2.61839501953125,8.34138011932373,2.2061824798583984,-0.29431718587875366
1772574144491347500,2.628347412109375,8.240880966186523,2.383251428604126,-0.36610186100006104
1772574144501280000,2.638280029296875,8.14516830444336,2.5842485427856445,-0.47617170214653015
1772574144511215000,2.648215087890625,8.116454124450684,2.7661030292510986,-0.5527420043945312
1772574144521147600,2.658147705078125,8.13081169128418,2.9246275424957275,-0.5144568681716919
1772574144531078400,2.668078369140625,8.068597793579102,2.9964120388031006,-0.5000999569892883
1772574144541010700,2.6780107421875,7.895716667175293,3.0681967735290527,-0.5910272002220154
1772574144550948600,2.687948486328125,7.737790107727051,3.173480987548828,-0.7010970115661621
1772574144560881400,2.69788134765625,7.622934818267822,3.235694408416748,-0.8207381963729858
1772574144570797800,2.7077978515625,7.503293514251709,3.3266217708587646,-0.9068797826766968
1772574144580729000,2.71772900390625,7.517650604248047,3.4845480918884277,-0.882951557636261
1772574144590664000,2.727663818359375,7.728219032287598,3.556332588195801,-0.7824530005455017
1772574144600595700,2.737595703125,8.034500122070312,3.5371899604797363,-0.6293123364448547
1772574144610535700,2.74753564453125,8.346165657043457,3.527618885040283,-0.4905286431312561
1772574144620468200,2.75746826171875,8.781659126281738,3.5611183643341064,-0.4043870270252228
1772574144630391600,2.7673916015625,9.208179473876953,3.565903902053833,-0.4378865361213684
1772574144640323000,2.777322998046875,9.662816047668457,3.589832067489624,-0.48095735907554626
1772574144650249700,2.787249755859375,10.247262954711914,3.6568312644958496,-0.5527420043945312
1772574144660180700,2.7971806640625,10.601400375366211,3.652045488357544,-0.5335994362831116
1772574144670112800,2.80711279296875,10.706685066223145,3.637688636779785,-0.6005984544754028
1772574144680044000,2.8170439453125,10.419546127319336,3.541975736618042,-0.4713860750198364
1772574144690009300,2.82700927734375,10.299904823303223,3.589832067489624,-0.47617170214653015
1772574144699944000,2.83694384765625,10.50090217590332,3.7190446853637695,-0.5575276613235474
1772574144709817900,2.84681787109375,10.682756423950195,3.723830223083496,-0.5718846321105957
1772574144719746600,2.85674658203125,10.740184783935547,3.604189157485962,-0.5144568681716919
1772574144729688300,2.866688232421875,10.730612754821777,3.494119167327881,-0.4043870270252228
1772574144739618300,2.876618408203125,10.658828735351562,3.527618885040283,-0.26081767678260803
1772574144749550300,2.88655029296875,10.615757942199707,3.6807594299316406,-0.09272187948226929
1772574144759480300,2.896480224609375,10.649256706237793,3.8434712886810303,0.06520441919565201
1772574144769411000,2.9064111328125,10.759326934814453,3.9589250087738037,0.251844584941864
1772574144779341000,2.916341064453125,10.955538749694824,3.9876389503479004,0.37148571014404297
1772574144789283600,2.92628369140625,11.20499038696289,3.954139471054077,0.39541393518447876
1772574144799215000,2.936215087890625,11.520842552185059,3.978067636489868,0.2997010350227356
1772574144809140200,2.94614013671875,11.640483856201172,4.092923164367676,0.21355941891670227
1772574144819071000,2.956071044921875,11.525628089904785,4.097708702087402,0.2566302418708801
1772574144829003500,2.96600341796875,11.4921293258667,3.8865420818328857,0.34277185797691345
1772574144838934500,2.9759345703125,11.439486503601074,3.6329028606414795,0.3523431420326233
1772574144848866000,2.985865966796875,11.103893280029297,3.5228331089019775,0.14656038582324982
1772574144858797300,2.99579736328125,10.740184783935547,3.5228331089019775,-0.13579268753528595
1772574144868748500,3.00574853515625,10.534401893615723,3.4271202087402344,-0.22193430364131927
1772574144878681600,3.015681640625,10.476973533630371,3.125624656677246,-0.049651071429252625
1772574144888582700,3.025582763671875,10.476973533630371,2.60339093208313,0.20398813486099243
1772574144898512400,3.035512451171875,10.711470603942871,2.043470621109009,0.29012975096702576
1772574144908467000,3.045467041015625,11.267203330993652,1.5499508380889893,0.23748764395713806
1772574144918399200,3.055399169921875,11.870195388793945,1.0809576511383057,0.04127619042992592
1772574144928314400,3.065314453125,12.411571502685547,0.7890332937240601,-0.2554338276386261
1772574144938244900,3.075244873046875,12.445070266723633,0.5682953596115112,-0.42352959513664246
1772574144948179500,3.085179443359375,12.363714218139648,0.6400800347328186,-0.6340979933738708
1772574144958110700,3.09511083984375,11.669198036193848,0.8081758618354797,-0.7728816866874695
1772574144968069000,3.105069091796875,10.62532901763916,0.9469595551490784,-0.7585247755050659
1772574144978003000,3.1150029296875,9.859027862548828,1.2675977945327759,-0.763310432434082
1772574144987935500,3.124935546875,9.227322578430176,1.6169499158859253,-0.6675975322723389
1772574144997869000,3.134869140625,8.638090133666992,1.9381862878799438,-0.5527420043945312
1772574145007794400,3.14479443359375,8.059026718139648,2.201396942138672,-0.47617170214653015
1772574145017727200,3.154727294921875,7.666005611419678,2.4263222217559814,-0.4331009089946747
1772574145027657700,3.16465771484375,7.4841508865356445,2.5698914527893066,-0.3326023519039154
1772574145037590300,3.17459033203125,7.3884382247924805,2.4646072387695312,-0.3038884699344635
1772574145047519500,3.18451953125,7.522436141967773,2.321038007736206,-0.3278166949748993
1772574145057451800,3.19445166015625,7.895716667175293,2.201396942138672,-0.41874396800994873
1772574145067382300,3.20438232421875,8.303094863891602,2.124826431274414,-0.5048855543136597
1772574145077314600,3.214314453125,8.561519622802734,2.062613010406494,-0.5575276613235474
1772574145087243000,3.224242919921875,8.556734085083008,2.100898265838623,-0.5479564070701599
1772574145097174800,3.2341748046875,8.518448829650879,2.2205393314361572,-0.48574298620224
1772574145107106600,3.2441064453125,8.432307243347168,2.306680917739868,-0.4378865361213684
1772574145117038300,3.254038330078125,8.034500122070312,2.335394859313965,-0.4139583110809326
1772574145126971400,3.263971435546875,7.5080790519714355,2.4406790733337402,-0.39960137009620667
1772574145136903200,3.273903076171875,7.058228492736816,2.493321180343628,-0.5048855543136597
1772574145146833400,3.28383349609375,6.981060028076172,2.5363919734954834,-0.5431707501411438
1772574145156765200,3.29376513671875,7.130013465881348,2.4837498664855957,-0.519242525100708
1772574145166730000,3.30372998046875,7.3262248039245605,2.3784656524658203,-0.6149554252624512
1772574145176665000,3.3136650390625,7.579864025115967,2.416750907897949,-0.7154539823532104
1772574145186582300,3.323582275390625,7.742575645446777,2.4646072387695312,-0.8255237936973572
1772574145196515600,3.333515625,7.737790107727051,2.493321180343628,-0.9116654396057129
1772574145206437600,3.343437744140625,7.646862983703613,2.5986053943634033,-0.8638089895248413
1772574145216370000,3.353369873046875,7.565506935119629,2.7900311946868896,-0.7010970115661621
1772574145226288400,3.363288330078125,7.4602227210998535,2.9724838733673096,-0.5240281820297241
1772574145236219100,3.37321923828125,7.393223762512207,3.1830523014068604,-0.45224347710609436
1772574145246152400,3.38315234375,7.560721397399902,3.3553354740142822,-0.42831525206565857
1772574145256083500,3.39308349609375,7.8765740394592285,3.4893336296081543,-0.3613162338733673
1772574145266015000,3.403014892578125,8.164310455322266,3.5754752159118652,-0.29431718587875366
1772574145275946200,3.4129462890625,8.37009334564209,3.7334015369415283,-0.20757736265659332
1772574145285886700,3.42288671875,8.403593063354492,3.848257064819336,-0.21714866161346436
1772574145295818800,3.43281884765625,8.551948547363281,3.9014973640441895,-0.2991028428077698
1772574145305741000,3.442740966796875,8.791230201721191,3.881756544113159,-0.4091726839542389
1772574145315672000,3.452672119140625,9.059226989746094,3.8291144371032715,-0.6197410821914673
1772574145325606400,3.4626064453125,9.294321060180664,3.857828378677368,-0.8207381963729858
1772574145335538000,3.472537841796875,9.495318412780762,3.9828531742095947,-0.9068797826766968
1772574145345474800,3.482474853515625,9.619745254516602,4.207778453826904,-0.8255237936973572
1772574145355406800,3.49240673828125,9.667601585388184,4.4135613441467285,-0.7250252366065979
1772574145365333500,3.50233349609375,9.691530227661133,4.514060020446777,-0.6245267391204834
1772574145375264800,3.5122646484375,9.78245735168457,4.537988185882568,-0.5958128571510315
1772574145385203200,3.522203125,9.964311599731445,4.504488468170166,-0.5862415432929993
1772574145395135200,3.53213525390625,10.098309516906738,4.442275047302246,-0.6580262184143066
1772574145405069000,3.542069091796875,10.237691879272461,4.384847640991211,-0.8015955686569214
1772574145415001300,3.55200146484375,10.481760025024414,4.336990833282471,-0.9786644577980042
1772574145424922400,3.56192236328125,10.840682983398438,4.284348964691162,-1.1222338676452637
1772574145434853600,3.571853515625,11.238490104675293,4.145565032958984,-1.275374412536621
1772574145444791000,3.581791015625,11.583056449890137,4.073780536651611,-1.4578272104263306
1772574145454722600,3.59172265625,11.874980926513672,4.226921081542969,-1.8550357818603516
1772574145464657400,3.601657470703125,11.611769676208496,4.5475592613220215,-2.1134605407714844
1772574145474589700,3.611589599609375,10.802397727966309,4.657629489898682,-1.740180253982544
1772574145484517600,3.621517578125,9.997811317443848,4.5475592613220215,-0.9882357716560364
1772574145494449400,3.631449462890625,9.485747337341309,4.432703971862793,-0.4713860750198364
1772574145504376600,3.64137646484375,9.208179473876953,4.380061626434326,-0.25064817070961
1772574145514307800,3.651307861328125,9.29910659790039,4.480560302734375,-0.34217363595962524
1772574145524234000,3.66123388671875,9.629316329956055,4.475774765014648,-0.6771687865257263
1772574145534164700,3.671164794921875,9.873384475708008,4.088137626647949,-1.179661512374878
1772574145544099600,3.681099609375,10.299904823303223,3.5467612743377686,-1.8454644680023193
1772574145554030800,3.69103076171875,10.797612190246582,2.799602508544922,-2.3096721172332764
1772574145563962400,3.70096240234375,11.248061180114746,1.8951154947280884,-2.544766902923584
1772574145573893600,3.7108935546875,11.501700401306152,1.1958130598068237,-2.688336133956909
1772574145583826700,3.72082666015625,11.353344917297363,0.6831508874893188,-2.7457640171051025
1772574145593758200,3.73075830078125,11.238490104675293,0.6687939167022705,-2.6835505962371826
1772574145603692300,3.7406923828125,10.97468090057373,0.9278169870376587,-2.4011974334716797
1772574145613623800,3.750623779296875,10.280762672424316,1.2149556875228882,-1.9698911905288696
1772574145623536000,3.7605361328125,9.514460563659668,1.578664779663086,-1.5822539329528809
1772574145633465600,3.770465576171875,8.872586250305176,1.8903298377990723,-1.2083754539489746
1772574145643419600,3.780419677734375,8.260024070739746,2.0003998279571533,-0.9595218896865845
1772574145653351700,3.7903515625,8.063812255859375,2.234896421432495,-0.9882357716560364
1772574145663284000,3.800283935546875,7.455437183380127,1.9669002294540405,-1.275374412536621
1772574145673216000,3.810216064453125,7.599006652832031,1.9525432586669922,-1.5535401105880737
1772574145683154700,3.82015478515625,7.948358535766602,2.0195422172546387,-1.409970760345459
1772574145693087500,3.83008740234375,8.260024070739746,2.0243279933929443,-1.3334003686904907
1772574145703008300,3.84000830078125,8.791230201721191,2.0099709033966064,-1.3525429964065552
1772574145712940000,3.84993994140625,9.399605751037598,2.1104695796966553,-1.2945170402526855
1772574145722871300,3.859871337890625,9.65803050994873,2.172683000564575,-0.9834501147270203
1772574145732802800,3.869802734375,9.519247055053711,2.0865414142608643,-1.2131611108779907
1772574145742710500,3.87971044921875,9.67238712310791,2.2205393314361572,-1.0169496536254883
1772574145752640000,3.889639892578125,9.413962364196777,2.2444677352905273,-0.36610186100006104
1772574145762607400,3.899607421875,8.910871505737305,2.306680917739868,-0.11186445504426956
1772574145772540400,3.90954052734375,8.561519622802734,2.311466693878174,-0.09272187948226929
1772574145782464300,3.91946435546875,8.25523853302002,2.1822543144226074,0.0077766734175384045
1772574145792396300,3.929396240234375,7.642077445983887,1.693520188331604,-0.33738797903060913
1772574145802332700,3.939332763671875,7.675576686859131,1.6121642589569092,-0.6340979933738708
1772574145812265000,3.949264892578125,7.747361660003662,1.8233308792114258,-0.2315055876970291
1772574145822164500,3.95916455078125,7.369295597076416,1.828116536140442,-0.12143574655056
1772574145832094000,3.969093994140625,7.666005611419678,1.947757601737976,-0.24107688665390015
1772574145842024000,3.97902392578125,7.977072715759277,2.1296122074127197,0.12741780281066895
1772574145851953200,3.988953125,7.9244303703308105,2.1678972244262695,0.08434699475765228
1772574145861924600,3.998924560546875,8.398807525634766,2.407179594039917,-0.04007977992296219
1772574145871858200,4.008858154296875,8.85344409942627,2.612962245941162,0.30927231907844543
1772574145881753900,4.01875390625,8.575876235961914,2.6368906497955322,0.36191442608833313
1772574145891683600,4.02868359375,8.346165657043457,2.794816732406616,-0.05922235921025276
1772574145901649400,4.0386494140625,8.193024635314941,2.881556749343872,-0.28953152894973755
1772574145911582700,4.048582763671875,7.957930088043213,2.8767709732055664,-0.3900300860404968
1772574145921505500,4.058505615234375,7.857431411743164,2.9868409633636475,-0.5431707501411438
1772574145931438000,4.06843798828125,7.953144073486328,3.1830523014068604,-0.5910272002220154
1772574145941375200,4.078375244140625,8.14516830444336,3.3026933670043945,-0.5288137793540955
1772574145951308000,4.08830810546875,8.365307807922363,3.360121250152588,-0.39481574296951294
1772574145961211600,4.098211669921875,8.475378036499023,3.3553354740142822,-0.33738797903060913
1772574145971141600,4.1081416015625,8.609375953674316,3.331407308578491,-0.47617170214653015
1772574145981079600,4.11807958984375,8.662017822265625,3.422334671020508,-0.5575276613235474
1772574145991010300,4.12801025390625,8.772088050842285,3.479762315750122,-0.5814558863639832
1772574146000956400,4.137956298828125,9.068798065185547,3.4366915225982666,-0.5623133182525635
1772574146010888700,4.147888671875,9.380462646484375,3.3744781017303467,-0.4426721930503845
1772574146020800000,4.157800048828125,9.705886840820312,3.3744781017303467,-0.22193430364131927
1772574146030730000,4.16772998046875,10.0073823928833,3.479762315750122,-0.05922235921025276
1772574146040668400,4.17766845703125,10.333404541015625,3.4989049434661865,-0.01136590726673603
1772574146050599400,4.187599365234375,10.682756423950195,3.43190598487854,-0.054436713457107544
1772574146060530400,4.197530517578125,10.926824569702148,3.393620729446411,0.0364905446767807
1772574146070461400,4.20746142578125,11.108678817749023,3.4510483741760254,0.34277185797691345
1772574146080395000,4.21739501953125,11.20499038696289,3.5850465297698975,0.7639086246490479
1772574146090326000,4.227325927734375,11.248061180114746,3.699902057647705,1.1521440744400024
1772574146100252700,4.237252685546875,11.410773277282715,3.8386857509613037,1.573280930519104
1772574146110183400,4.247183349609375,11.48255729675293,3.8530426025390625,1.6785650253295898
1772574146120119300,4.257119384765625,11.45384407043457,3.7046875953674316,1.3962119817733765
1772574146130050600,4.267050537109375,11.4442720413208,3.503690481185913,0.8937192559242249
1772574146139984000,4.27698388671875,11.501700401306152,3.3649067878723145,0.45284169912338257
1772574146149915400,4.286915283203125,11.70269775390625,3.3984062671661377,0.09391828626394272
1772574146159862500,4.296862548828125,11.894123077392578,3.699902057647705,-0.049651071429252625
1772574146169795600,4.306795654296875,11.764910697937012,3.930211305618286,0.29012975096702576
1772574146179728100,4.31672802734375,11.626127243041992,3.7956149578094482,0.8554341197013855
1772574146189661200,4.3266611328125,11.511271476745605,3.666402578353882,1.1234302520751953
1772574146199593200,4.33659326171875,11.12303638458252,3.5467612743377686,0.8937192559242249
1772574146209526000,4.346526123046875,10.3621187210083,3.297907829284668,0.5868397355079651
1772574146219453400,4.356453369140625,9.65803050994873,2.857030153274536,0.4097708761692047
1772574146229350100,4.36635009765625,9.342177391052246,2.4119651317596436,0.26620152592658997
1772574146249249800,4.386249755859375,9.954740524291992,1.5068800449371338,0.046061836183071136
1772574146259185400,4.396185302734375,10.840682983398438,1.119242787361145,-0.11665010452270508
1772574146269116200,4.4061162109375,11.659626960754395,0.966102123260498,-0.2027917206287384
1772574146279051500,4.416051513671875,12.133405685424805,0.99481600522995,-0.2991028428077698
1772574146288980700,4.425980712890625,11.946764945983887,1.0091729164123535,-0.2315055876970291
1772574146298915600,4.43591552734375,11.286346435546875,1.0713863372802734,0.012562318705022335
1772574146308825900,4.445825927734375,10.366904258728027,1.0378868579864502,0.3284149169921875
1772574146318758000,4.4557578125,9.160323143005371,1.090528964996338,0.6299105882644653
1772574146328705000,4.465705078125,7.948358535766602,1.3537393808364868,0.6921239495277405
1772574146338638800,4.475638916015625,7.077371120452881,1.7030915021896362,0.6681957244873047
1772574146348545000,4.485544921875,6.617351055145264,2.00518536567688,0.5724828243255615
1772574146358476000,4.49547607421875,6.483353137969971,2.139183521270752,0.41934216022491455
1772574146368431900,4.505431884765625,6.669992923736572,2.1439690589904785,0.2470589429140091
1772574146378365200,4.515365234375,7.072585582733154,2.0338993072509766,0.06999006122350693
1772574146388304400,4.525304443359375,7.522436141967773,1.8759729862213135,-0.01136590726673603
1772574146398238500,4.535238525390625,7.938787460327148,1.731805443763733,0.0364905446767807
1772574146408158200,4.545158203125,8.350951194763184,1.6217355728149414,0.1704886108636856
1772574146418090800,4.5550908203125,8.81515884399414,1.6169499158859253,0.3332005441188812
1772574146428023300,4.565023193359375,9.150752067565918,1.6552350521087646,0.3332005441188812
1772574146437955800,4.574955810546875,9.189037322998047,1.6791633367538452,0.3236292600631714
1772574146447887600,4.5848876953125,8.949156761169434,1.7126628160476685,0.44327038526535034
1772574146457820000,4.59481982421875,8.528019905090332,1.8711873292922974,0.5629115104675293
1772574146467747300,4.604747314453125,8.044071197509766,2.124826431274414,0.5676971673965454
1772574146477679000,4.61467919921875,7.675576686859131,2.3497519493103027,0.5964110493659973
1772574146487610600,4.624610595703125,7.421937465667725,2.5076780319213867,0.6107679605484009
1772574146497542700,4.634542724609375,7.307082176208496,2.612962245941162,0.6011967062950134
1772574146507472400,4.644472412109375,7.264011383056641,2.66560435295105,0.4624129831790924
1772574146517404200,4.654404052734375,7.259225845336914,2.60339093208313,0.18005990982055664
1772574146527341600,4.664341552734375,7.211369037628174,2.4837498664855957,-0.14057832956314087
1772574146537273900,4.67427392578125,7.192226886749268,2.335394859313965,-0.4953143000602722
1772574146547220000,4.684219970703125,7.235297679901123,2.258824586868286,-0.8446664214134216
1772574146557153800,4.69415380859375,7.4362945556640625,2.2636101245880127,-1.1030912399291992
1772574146567039200,4.704039306640625,7.670791149139404,2.321038007736206,-1.2562319040298462
1772574146576968200,4.71396826171875,7.895716667175293,2.421536445617676,-1.275374412536621
1772574146586934500,4.7239345703125,8.13081169128418,2.60339093208313,-1.2179467678070068
1772574146596867000,4.7338671875,8.24566650390625,2.794816732406616,-1.1365907192230225
1772574146606785500,4.74378564453125,8.298309326171875,2.9150562286376953,-1.1174482107162476
1772574146616716800,4.753716796875,8.298309326171875,3.029911756515503,-1.1748759746551514
1772574146626652400,4.76365234375,8.307880401611328,3.187838077545166,-1.246660590171814
1772574146636584200,4.773584228515625,8.417949676513672,3.3744781017303467,-1.2897313833236694
1772574146646495500,4.78349560546875,8.676374435424805,3.5754752159118652,-1.3046865463256836
1772574146656425000,4.793425048828125,9.06401252746582,3.8626139163970947,-1.2945170402526855
1772574146666370600,4.80337060546875,9.500103950500488,4.222135543823242,-1.323829174041748
1772574146676301800,4.8133017578125,9.863813400268555,4.552345275878906,-1.4195420742034912
1772574146686223400,4.823223388671875,10.16590690612793,4.762913703918457,-1.4865410327911377
1772574146696153600,4.833153564453125,10.314262390136719,4.940580368041992,-1.414756417274475
1772574146706114800,4.84311474609375,10.189835548400879,5.031507968902588,-1.3334003686904907
1772574146716048400,4.85304833984375,9.988240242004395,5.012365341186523,-1.3716856241226196
1772574146725973200,4.86297314453125,9.92124080657959,4.945366382598877,-1.4243277311325073
1772574146735905800,4.87290576171875,9.978668212890625,4.930410861968994,-1.3908281326293945
1772574146745821400,4.882821533203125,10.218548774719238,4.89691162109375,-1.3621143102645874
1772574146755752400,4.89275244140625,10.634900093078613,4.782055854797363,-1.3286148309707642
1772574146765697300,4.902697265625,11.12303638458252,4.64805793762207,-1.347757339477539
1772574146775629300,4.91262939453125,11.755339622497559,4.4614176750183105,-1.5391831398010254
1772574146785561000,4.92256103515625,12.54556941986084,4.265206336975098,-1.8454644680023193
1772574146795493000,4.9324931640625,13.302299499511719,4.303491592407227,-2.2331018447875977
1772574146805434600,4.9424345703125,13.220345497131348,4.131208419799805,-2.237887382507324
1772574146815367700,4.95236767578125,12.39721393585205,3.494119167327881,-1.567897081375122
1772574146825301200,4.96230126953125,11.870195388793945,3.1208388805389404,-1.1461620330810547
1772574146835234600,4.972234619140625,11.774481773376465,3.297907829284668,-1.2562319040298462
1772574146845152300,4.98215234375,11.645269393920898,3.565903902053833,-1.4243277311325073
1772574146855083800,4.992083740234375,11.506485939025879,3.589832067489624,-1.4673985242843628
1772574146865015600,5.002015625,11.377273559570312,3.4366915225982666,-1.6253247261047363
1772574146874947000,5.011947021484375,11.209775924682617,3.1208388805389404,-1.8406788110733032
1772574146884851700,5.021851806640625,10.969895362854004,2.5842485427856445,-2.213959217071533
1772574146894780700,5.03178076171875,10.721041679382324,1.8616160154342651,-2.7314071655273438
1772574146904745700,5.041745849609375,10.63968563079834,1.186241865158081,-3.119044303894043
1772574146914678300,5.05167822265625,10.797612190246582,0.7357929348945618,-3.2578279972076416
1772574146924607700,5.061607666015625,11.041680335998535,0.5682953596115112,-3.1477582454681396
1772574146934540000,5.0715400390625,11.195419311523438,0.7501499056816101,-2.8654050827026367
1772574146944444000,5.08144384765625,10.99860954284668,1.0474581718444824,-2.5112674236297607
1772574146954373000,5.091373046875,10.433902740478516,1.3058829307556152,-1.9411773681640625
1772574146964334600,5.10133447265625,9.591031074523926,1.516451358795166,-1.2610175609588623
1772574146974267400,5.111267333984375,8.671588897705078,1.7700905799865723,-0.672383189201355
1772574146984191200,5.121191162109375,7.847859859466553,2.0482561588287354,-0.4139583110809326
1772574146994122800,5.131122802734375,7.321439266204834,2.2444677352905273,-0.5527420043945312
1772574147004067300,5.1410673828125,7.201797962188721,2.273181438446045,-0.8685946464538574
1772574147014000400,5.15100048828125,7.441080093383789,2.1343977451324463,-1.2562319040298462
1772574147023922700,5.160922607421875,7.8382887840271,1.9908283948898315,-1.6875381469726562
1772574147033854700,5.170854736328125,8.21695327758789,1.8083757162094116,-1.9555343389511108
1772574147043782100,5.1807822265625,8.681160926818848,1.7270197868347168,-2.0033907890319824
1772574147053713700,5.190713623046875,9.073583602905273,1.8131613731384277,-1.7928223609924316
1772574147063652600,5.200652587890625,9.131608963012695,1.9573289155960083,-1.5056836605072021
1772574147073585000,5.2105849609375,8.958727836608887,2.091326951980591,-1.3094722032546997
1772574147083522600,5.2205224609375,8.738588333129883,2.225325107574463,-1.1078768968582153
1772574147093455400,5.230455322265625,8.504091262817383,2.196611166000366,-0.882951557636261
1772574147103374300,5.240374267578125,8.173882484436035,2.1200408935546875,-0.7202396392822266
1772574147113305900,5.250305908203125,7.943572998046875,2.0961127281188965,-0.638883650302887
1772574147123236000,5.260236083984375,7.910073280334473,1.9956140518188477,-0.7202396392822266
1772574147133167400,5.27016748046875,7.967501163482666,1.7700905799865723,-0.8638089895248413
1772574147143100700,5.2801005859375,7.981858253479004,1.5643078088760376,-0.9499505758285522
1772574147153032200,5.2900322265625,8.034500122070312,1.4590235948562622,-0.9786644577980042
1772574147162975200,5.299975341796875,8.087740898132324,1.44945228099823,-0.9930213689804077
1772574147172908000,5.309907958984375,8.09252643585205,1.5260226726531982,-0.9834501147270203
1772574147182814700,5.319814697265625,8.102097511291504,1.731805443763733,-0.9834501147270203
1772574147192745000,5.329744873046875,8.183453559875488,1.919043779373169,-1.0265209674835205
1772574147202666800,5.339666748046875,8.173882484436035,1.9908283948898315,-0.9499505758285522
1772574147212596000,5.349595947265625,7.991429328918457,2.124826431274414,-0.8063812255859375
1772574147222552000,5.359552001953125,7.819146156311035,2.3976082801818848,-0.638883650302887
1772574147232484000,5.369484130859375,7.71386194229126,2.699103832244873,-0.5144568681716919
1772574147242428000,5.379427978515625,7.680362701416016,2.9629125595092773,-0.5479564070701599
1772574147252361000,5.38936083984375,7.733004570007324,3.178266763687134,-0.7058826684951782
1772574147262254800,5.3992548828125,7.785646915435791,3.2404799461364746,-0.9116654396057129
1772574147272184000,5.40918408203125,7.809575080871582,3.2787652015686035,-1.0791629552841187
1772574147282121700,5.419121826171875,7.800003528594971,3.321835994720459,-1.2849457263946533
1772574147292051700,5.4290517578125,7.761718273162842,3.36969256401062,-1.4626128673553467
1772574147301984300,5.438984375,7.766504287719727,3.36969256401062,-1.5535401105880737
1772574147311914500,5.44891455078125,7.938787460327148,3.36969256401062,-1.500898003578186
1772574147321850400,5.458850341796875,8.327022552490234,3.360121250152588,-1.4578272104263306
1772574147331781000,5.468781005859375,8.877371788024902,3.3026933670043945,-1.3142578601837158
1772574147341709000,5.478708984375,9.413962364196777,3.3170504570007324,-1.098305583000183
1772574147351639600,5.4886396484375,9.753743171691895,3.360121250152588,-0.8255237936973572
1772574147361597400,5.498597412109375,10.002596855163574,3.4606196880340576,-0.576670229434967
1772574147371530800,5.50853076171875,10.170692443847656,3.5754752159118652,-0.3565305769443512
1772574147381460700,5.518460693359375,10.319047927856445,3.604189157485962,-0.25064817070961
1772574147391393500,5.5283935546875,10.433902740478516,3.527618885040283,-0.29431718587875366
1772574147401301500,5.538301513671875,10.328619003295898,3.422334671020508,-0.3565305769443512
1772574147411232000,5.54823193359375,10.175477981567383,3.3744781017303467,-0.3613162338733673
1772574147421181700,5.558181640625,10.141979217529297,3.321835994720459,-0.39960137009620667
1772574147431114200,5.5681142578125,10.3621187210083,3.259622573852539,-0.3086741268634796
1772574147441075700,5.57807568359375,10.730612754821777,3.187838077545166,-0.06400800496339798
1772574147451011000,5.588010986328125,11.017751693725586,3.2165517807006836,0.05563312768936157
1772574147460916000,5.597916015625,11.286346435546875,3.518047571182251,0.0077766734175384045
1772574147470848500,5.6078486328125,11.45384407043457,4.0833516120910645,0.07956135272979736
1772574147480788000,5.6177880859375,11.439486503601074,4.327419757843018,0.47676992416381836
1772574147490721000,5.627720947265625,11.544771194458008,4.150351047515869,1.0803594589233398
1772574147500637700,5.6376376953125,11.549556732177734,3.9110686779022217,1.4009976387023926
1772574147510569000,5.64756884765625,11.286346435546875,3.661616802215576,1.2717852592468262
1772574147520500700,5.657500732421875,10.926824569702148,3.331407308578491,1.0325030088424683
1772574147530432300,5.667432373046875,10.529616355895996,2.867199659347534,0.706480860710144
1772574147540365600,5.677365478515625,10.280762672424316,2.273181438446045,0.4049852192401886
1772574147550297300,5.68729736328125,10.314262390136719,1.669592022895813,0.1704886108636856
1772574147560241400,5.697241455078125,10.768898010253906,0.9565308690071106,0.12263216078281403
1772574147570174500,5.707174560546875,11.635698318481445,0.28115665912628174,0.2709871530532837
1772574147580094500,5.717094482421875,12.674781799316406,-0.13998012244701385,0.4049852192401886
1772574147590026000,5.72702587890625,13.503296852111816,-0.24047867953777313,0.5437689423561096
1772574147599960800,5.7369609375,13.86221981048584,-0.13519448041915894,0.7160521745681763
1772574147609892900,5.746892822265625,13.579866409301758,0.08015955984592438,0.8745766878128052
1772574147619823000,5.756822998046875,12.674781799316406,0.36251261830329895,0.9463613629341125
1772574147629755000,5.7667548828125,11.410773277282715,0.4295116662979126,0.8554341197013855
1772574147639683600,5.77668359375,10.170692443847656,0.5491527915000916,0.5868397355079651
1772574147649615000,5.786614990234375,9.068798065185547,0.8464609980583191,0.18005990982055664
1772574147659545000,5.796545166015625,8.149953842163086,1.1766705513000488,-0.1788634955883026
1772574147669476400,5.806476318359375,7.5272216796875,1.5355939865112305,-0.44745782017707825
1772574147679408400,5.816408447265625,7.173084259033203,1.76051926612854,-0.5383850932121277
1772574147689339600,5.826339599609375,6.93320369720459,1.755733609199524,-0.4426721930503845
1772574147699273500,5.8362734375,6.937989234924316,1.6983058452606201,-0.275174617767334
1772574147709205000,5.846205078125,7.264011383056641,1.669592022895813,-0.18843477964401245
1772574147719136000,5.856135986328125,7.785646915435791,1.6169499158859253,-0.1740778535604477
1772574147729067500,5.866067626953125,8.446663856506348,1.5308083295822144,-0.16929219663143158
1772574147739004200,5.876004150390625,9.160323143005371,1.4925230741500854,-0.09272187948226929
1772574147748936200,5.885936279296875,9.720243453979492,1.44945228099823,0.046061836183071136
1772574147758864100,5.895864013671875,9.964311599731445,1.3537393808364868,0.1944168359041214
1772574147768796000,5.9057958984375,9.892526626586914,1.334596872329712,0.2805584669113159
1772574147778728200,5.915728271484375,9.605388641357422,1.425524115562439,0.22791635990142822
1772574147788660000,5.925659912109375,9.102895736694336,1.5355939865112305,0.10827522724866867
1772574147798591700,5.935591796875,8.575876235961914,1.6648063659667969,0.06041877344250679
1772574147808523500,5.9455234375,8.039285659790039,1.919043779373169,0.1657029688358307
1772574147818432800,5.955432861328125,7.618149280548096,2.1918256282806396,0.2757728099822998
1772574147828362200,5.9653623046875,7.354938507080078,2.455035924911499,0.2709871530532837
1772574147838321700,5.97532177734375,7.192226886749268,2.5363919734954834,0.15134602785110474
1772574147848254000,5.98525390625,7.11565637588501,2.469393014907837,-0.001794616924598813
1772574147858199600,5.995199462890625,7.173084259033203,2.416750907897949,-0.2027917206287384
1772574147868133400,6.00513330078125,7.383652687072754,2.392822742462158,-0.36610186100006104
1772574147878017000,6.01501708984375,7.622934818267822,2.4406790733337402,-0.4139583110809326
1772574147887945700,6.02494580078125,7.929215908050537,2.4885356426239014,-0.4570291340351105
1772574147897915000,6.034914794921875,8.288737297058105,2.5124638080596924,-0.5479564070701599
1772574147907847700,6.04484765625,8.595019340515137,2.5986053943634033,-0.5623133182525635
1772574147917770200,6.054770263671875,8.810373306274414,2.7038896083831787,-0.5288137793540955
1772574147927702000,6.064701904296875,8.819944381713867,2.8043880462646484,-0.4378865361213684
1772574147937612800,6.07461279296875,8.685946464538574,2.9629125595092773,-0.45224347710609436
1772574147947542500,6.08454248046875,8.508877754211426,3.1447670459747314,-0.5335994362831116
1772574147957495600,6.09449560546875,8.432307243347168,3.3505499362945557,-0.6436693072319031
1772574147967427600,6.104427490234375,8.461020469665527,3.6089746952056885,-0.7154539823532104
1772574147977364000,6.114364013671875,8.528019905090332,3.8673996925354004,-0.7489534616470337
1772574147987296300,6.124296142578125,8.590232849121094,4.102494239807129,-0.8398807644844055
1772574147997231400,6.1342314453125,8.63330364227295,4.308277130126953,-0.9355936646461487
1772574148007164200,6.1441640625,8.61894702911377,4.432703971862793,-0.9643075466156006
1772574148017083600,6.154083740234375,8.666803359985352,4.5236310958862305,-1.007378339767456
1772574148027015200,6.16401513671875,8.85344409942627,4.566701889038086,-1.0887342691421509
1772574148036951300,6.173951416015625,9.078369140625,4.490131855010986,-1.1509476900100708
1772574148046883300,6.18388330078125,9.356534957885742,4.418346881866455,-1.184447169303894
1772574148056813600,6.1938134765625,9.777671813964844,4.399204254150391,-1.155733346939087
1772574148066745300,6.203745361328125,10.409975051879883,4.3752760887146,-1.0121639966964722
1772574148076675000,6.213675048828125,11.176276206970215,4.31306266784668,-0.7585247755050659
1772574148086606600,6.223606689453125,11.96590805053711,4.384847640991211,-0.39481574296951294
1772574148096539100,6.2335390625,12.679567337036133,4.480560302734375,-0.07836493849754333
1772574148106471000,6.243470947265625,13.283156394958496,4.600201606750488,-0.4091726839542389
1772574148116406500,6.253406494140625,13.254443168640137,4.767699241638184,-1.179661512374878
1772574148126338600,6.263338623046875,12.306286811828613,4.518845558166504,-1.716252088546753
1772574148136267800,6.273267822265625,11.12303638458252,3.8673996925354004,-1.716252088546753
1772574148146199600,6.283199462890625,10.189835548400879,3.4893336296081543,-1.7066807746887207
1772574148156109000,6.293109130859375,9.552745819091797,3.556332588195801,-1.893320918083191
1772574148166038800,6.303038818359375,9.189037322998047,3.7812578678131104,-2.204387903213501
1772574148175992600,6.31299267578125,9.246464729309082,3.824328899383545,-2.5256242752075195
1772574148185924600,6.322924560546875,9.710672378540039,3.4510483741760254,-2.827120065689087
1772574148195862300,6.3328623046875,10.3621187210083,2.7421748638153076,-3.157329559326172
1772574148205794800,6.342794921875,10.926824569702148,1.9525432586669922,-3.6460635662078857
1772574148215698200,6.3526982421875,11.291131973266602,1.2915260791778564,-4.119842529296875
1772574148225628000,6.3626279296875,11.57827091217041,0.7986045479774475,-4.2346978187561035
1772574148235582000,6.37258203125,11.764910697937012,0.5060819983482361,-4.062414646148682
1772574148245514000,6.382513916015625,11.630912780761719,0.4055834412574768,-3.7561333179473877
1772574148255447600,6.392447509765625,11.046465873718262,0.5587241053581238,-3.3343982696533203
1772574148265379800,6.4023798828125,10.132407188415527,0.8656035661697388,-2.8175487518310547
1772574148275307800,6.412307861328125,9.203393936157227,1.1718848943710327,-2.2187447547912598
1772574148285239600,6.422239501953125,8.408378601074219,1.3441680669784546,-1.6875381469726562
1772574148305104100,6.442104248046875,7.201797962188721,1.731805443763733,-1.5343974828720093
1772574148315033600,6.45203369140625,6.966702938079834,1.9525432586669922,-1.6827524900436401
1772574148324965000,6.461965087890625,7.029514789581299,2.1200408935546875,-1.7976080179214478
1772574148334898400,6.4718984375,7.268796920776367,2.210968017578125,-1.80717933177948
1772574148344830200,6.481830322265625,7.642077445983887,2.1774685382843018,-1.7832510471343994
1772574148354783700,6.49178369140625,8.173882484436035,2.1056840419769287,-1.74496591091156
1772574148364717800,6.5017177734375,8.671588897705078,2.1200408935546875,-1.6348960399627686
1772574148374609200,6.511609130859375,9.068798065185547,2.187039852142334,-1.5391831398010254
1772574148384539000,6.521538818359375,9.318249702453613,2.210968017578125,-1.4530415534973145
1772574148394502000,6.531501953125,9.509675025939941,2.2444677352905273,-1.347757339477539
1772574148404435000,6.54143505859375,9.5862455368042,2.1918256282806396,-1.222732424736023
1772574148414338300,6.55133837890625,9.485747337341309,2.076970100402832,-1.155733346939087
1772574148424268300,6.561268310546875,9.284749984741211,1.9812572002410889,-1.155733346939087
1772574148434201600,6.57120166015625,9.078369140625,1.8664016723632812,-1.2323036193847656
1772574148444132000,6.581132080078125,8.934800148010254,1.7174484729766846,-1.2993026971817017
1772574148454059300,6.591059326171875,8.8438720703125,1.607378602027893,-1.2275179624557495
1772574148463989200,6.6009892578125,8.757730484008789,1.5499508380889893,-1.1078768968582153
1772574148473924600,6.610924560546875,8.762516975402832,1.602592945098877,-1.0648061037063599
1772574148483855400,6.62085546875,8.805587768554688,1.6600207090377808,-0.973878800868988
1772574148493782300,6.6307822265625,8.800801277160645,1.8083757162094116,-0.8685946464538574
1772574148503712500,6.64071240234375,8.685946464538574,1.9908283948898315,-0.8590233325958252
1772574148513647400,6.6506474609375,8.523234367370605,2.1583259105682373,-0.8973084688186646
1772574148523578000,6.660578125,8.293522834777832,2.359323024749756,-0.9403793215751648
1772574148533512700,6.6705126953125,8.044071197509766,2.550748825073242,-0.9786644577980042
1772574148543443700,6.680443603515625,7.8526458740234375,2.746960401535034,-1.0121639966964722
1772574148553396200,6.690396240234375,7.709076404571533,2.9150562286376953,-1.098305583000183
1772574148563329500,6.70032958984375,7.613363265991211,3.077768087387085,-1.1988041400909424
1772574148573258500,6.710258544921875,7.65164852142334,3.2452657222747803,-1.3668999671936035
1772574148583191300,6.72019140625,7.704290866851807,3.2883365154266357,-1.5439687967300415
1772574148593107700,6.730107666015625,7.608577728271484,3.226123094558716,-1.716252088546753
1772574148603038700,6.740038818359375,7.469794273376465,3.178266763687134,-1.8837496042251587
1772574148612971800,6.7499716796875,7.4123663902282715,3.187838077545166,-1.9986051321029663
1772574148622903000,6.759903076171875,7.5702924728393555,3.2691938877105713,-2.0416758060455322
1772574148632858400,6.7698583984375,7.943572998046875,3.297907829284668,-1.9746768474578857
1772574148642792200,6.779792236328125,8.336593627929688,3.2691938877105713,-1.8598214387893677
1772574148652718600,6.789718505859375,8.695517539978027,3.297907829284668,-1.6875381469726562
1772574148662651600,6.799651611328125,9.102895736694336,3.4606196880340576,-1.4386845827102661
1772574148672574700,6.80957470703125,9.500103950500488,3.5706896781921387,-1.2179467678070068
1772574148682506500,6.819506591796875,9.81117057800293,3.5754752159118652,-1.0504491329193115
1772574148692431600,6.829431640625,10.079167366027832,3.494119167327881,-0.9355936646461487
1772574148702363000,6.83936279296875,10.333404541015625,3.441477060317993,-0.8638089895248413
1772574148712305000,6.849304931640625,10.472187995910645,3.43190598487854,-0.8638089895248413
1772574148722237200,6.8592373046875,10.567901611328125,3.384049415588379,-0.9643075466156006
1772574148732171800,6.869171875,10.716256141662598,3.273979663848877,-1.0360921621322632
1772574148742104600,6.8791044921875,10.926824569702148,3.1591241359710693,-0.9882357716560364
1772574148752042500,6.88904248046875,11.200204849243164,3.101696252822876,-0.882951557636261
1772574148761975800,6.898975830078125,11.405987739562988,3.0586254596710205,-0.8111668825149536
1772574148771891700,6.9088916015625,11.597413063049316,3.0011978149414062,-0.729810893535614
1772574148781823200,6.9188232421875,11.932408332824707,3.1447670459747314,-0.6819544434547424
1772574148791757800,6.9287578125,12.277572631835938,3.652045488357544,-0.729810893535614
1772574148801689300,6.938689453125,12.114262580871582,4.021138668060303,-0.6149554252624512
1772574148811598300,6.948598388671875,11.740982055664062,3.8673996925354004,-0.08793623000383377
1772574148821527800,6.95852783203125,11.92762279510498,3.7046875953674316,0.3284149169921875
1772574148831483000,6.96848291015625,12.085549354553223,3.7908291816711426,0.44327038526535034
1772574148841414700,6.97841455078125,11.669198036193848,3.8291144371032715,0.3044866919517517
1772574148851348000,6.988347900390625,11.027322769165039,3.6329028606414795,0.15613168478012085
1772574148861280000,6.998280029296875,10.529616355895996,3.1830523014068604,0.1178465187549591
1772574148871210500,7.00821044921875,10.25204849243164,2.6273193359375,0.10348957777023315
1772574148881142500,7.018142578125,10.29033374786377,2.0817556381225586,0.03170489892363548
1772574148891072500,7.028072509765625,10.826326370239258,1.4781662225723267,-0.04486542567610741
1772574148901004300,7.03800439453125,11.56869888305664,0.9182456731796265,-0.049651071429252625
1772574148910949400,7.047949462890625,12.147762298583984,0.6400800347328186,-0.15493527054786682
1772574148920882400,7.05788232421875,12.421142578125,0.6448656916618347,-0.19322042167186737
1772574148930814700,7.067814697265625,12.152547836303711,0.908674418926239,-0.24586252868175507
1772574148940747800,7.077747802734375,11.209775924682617,1.277169108390808,-0.12622138857841492
1772574148950676200,7.08767626953125,9.940383911132812,1.5260226726531982,0.15613168478012085
1772574148960608800,7.09760888671875,8.767302513122559,1.693520188331604,0.3810569941997528
1772574148970525700,7.107525634765625,7.814360618591309,1.9094724655151367,0.3762713670730591
1772574148980457000,7.11745703125,7.05344295501709,2.196611166000366,0.24227328598499298
1772574148990390000,7.12739013671875,6.488138675689697,2.4981069564819336,0.06999006122350693
1772574149000321300,7.1373212890625,6.205785751342773,2.7804598808288574,0.012562318705022335
1772574149010260500,7.147260498046875,6.244070529937744,2.958127021789551,0.01734796352684498
1772574149020192300,7.157192138671875,6.4594244956970215,2.9964120388031006,0.0364905446767807
1772574149030119700,7.16711962890625,6.770491600036621,2.9389843940734863,0.09391828626394272
1772574149040051200,7.17705126953125,7.149155616760254,2.8624141216278076,0.13220344483852386
1772574149049978600,7.186978515625,7.541578769683838,2.7565317153930664,0.11306086927652359
1772574149059909600,7.19690966796875,7.905287742614746,2.6177480220794678,0.16091732680797577
1772574149069845000,7.206844970703125,8.23130989074707,2.5842485427856445,0.2470589429140091
1772574149079776500,7.216776611328125,8.791230201721191,2.723032236099243,0.1417747437953949
1772574149089699600,7.226699462890625,9.1986083984375,2.7565317153930664,0.2183450609445572
1772574149099630000,7.236630126953125,9.29910659790039,2.641676187515259,0.4097708761692047
1772574149109571300,7.2465712890625,8.93958568572998,2.5842485427856445,0.5533402562141418
1772574149119502800,7.2565029296875,8.331808090209961,2.6560330390930176,0.5629115104675293
1772574149129438200,7.266438232421875,7.800003528594971,2.7517459392547607,0.3810569941997528
1772574149139370200,7.276370361328125,7.3262248039245605,2.7661030292510986,0.1944168359041214
1772574149149312500,7.2863125,7.039085865020752,2.794816732406616,0.04127619042992592
1772574149159245600,7.29624560546875,7.067800045013428,2.8139593601226807,-0.12143574655056
1772574149169164500,7.30616455078125,7.230511665344238,2.809173822402954,-0.275174617767334
1772574149179096300,7.316096435546875,7.40279483795166,2.8187451362609863,-0.3278166949748993
1772574149189058600,7.32605859375,7.608577728271484,2.785245656967163,-0.42831525206565857
1772574149198993200,7.3359931640625,7.8287177085876465,2.7182464599609375,-0.6484549641609192
1772574149208867600,7.34586767578125,8.097311973571777,2.6560330390930176,-0.8925228714942932
1772574149218796300,7.35579638671875,8.346165657043457,2.6368906497955322,-1.031306505203247
1772574149228752600,7.365752685546875,8.595019340515137,2.699103832244873,-1.0456634759902954
1772574149238684000,7.375683837890625,8.848658561706543,2.785245656967163,-1.069591760635376
1772574149248619000,7.385618896484375,8.97787094116211,2.847458839416504,-1.1509476900100708
1772574149258550800,7.39555078125,8.920442581176758,2.8911280632019043,-1.2705888748168945
1772574149268480300,7.405480224609375,8.738588333129883,3.0107691287994385,-1.3668999671936035
1772574149278411800,7.415411865234375,8.666803359985352,3.125624656677246,-1.4434702396392822
1772574149288402700,7.425402587890625,8.752944946289062,3.2069804668426514,-1.4626128673553467
1772574149298340400,7.43534033203125,8.896514892578125,3.393620729446411,-1.3908281326293945
1772574149308212700,7.445212646484375,8.910871505737305,3.6472599506378174,-1.3334003686904907
1772574149318143700,7.455143798828125,8.86780071258545,3.954139471054077,-1.3621143102645874
1772574149328069400,7.4650693359375,8.915657043457031,4.207778453826904,-1.3381860256195068
1772574149338000000,7.474999755859375,8.944371223449707,4.4135613441467285,-1.2275179624557495
1772574149347911200,7.4849111328125,8.93958568572998,4.5714874267578125,-1.2035897970199585
1772574149357839600,7.494839599609375,8.934800148010254,4.705485820770264,-1.3286148309707642
1772574149367802600,7.504802734375,8.963513374328613,4.738985061645508,-1.4386845827102661
1772574149377734700,7.514734619140625,9.06401252746582,4.724628448486328,-1.4626128673553467
1772574149387659300,7.5246591796875,9.380462646484375,4.652843475341797,-1.4626128673553467
1772574149397590500,7.534590576171875,9.729815483093262,4.518845558166504,-1.4051851034164429
1772574149407522000,7.54452197265625,10.012167930603027,4.384847640991211,-1.3094722032546997
1772574149417453300,7.554453369140625,10.309475898742676,4.231706619262695,-1.3286148309707642
1772574149427386000,7.56438623046875,10.716256141662598,4.155136585235596,-1.4578272104263306
1772574149437317600,7.574317626953125,11.262417793273926,4.380061626434326,-1.721037745475769
1772574149447257300,7.58425732421875,11.425129890441895,4.839483737945557,-1.7736797332763672
1772574149457189400,7.594189453125,10.840682983398438,4.8059844970703125,-1.1988041400909424
1772574149467115800,7.60411572265625,10.37647533416748,4.399204254150391,-0.26081767678260803
1772574149477047600,7.614047607421875,10.429117202758789,4.346562385559082,0.26620152592658997
1772574149486975000,7.62397509765625,10.759326934814453,4.4997029304504395,0.22791635990142822
1772574149496906200,7.63390625,11.142178535461426,4.403990268707275,-0.13579268753528595
1772574149506847500,7.643847412109375,11.602198600769043,4.001996040344238,-0.6197410821914673
1772574149516779800,7.65377978515625,12.032906532287598,3.4127633571624756,-1.179661512374878
1772574149526704600,7.66370458984375,12.32542896270752,2.8187451362609863,-1.7306089401245117
1772574149536636200,7.67363623046875,12.492926597595215,2.2923240661621094,-2.1373889446258545
1772574149546558500,7.683558349609375,12.358928680419922,1.7461622953414917,-2.266601324081421
1772574149556489000,7.693489013671875,11.975479125976562,1.3202399015426636,-2.142174482345581
1772574149566406700,7.70340673828125,11.530414581298828,1.1910275220870972,-1.922034740447998
1772574149576336000,7.7133359375,11.060822486877441,1.090528964996338,-1.7353945970535278
1772574149586278400,7.7232783203125,10.520044326782227,1.0426725149154663,-1.6348960399627686
1772574149596209200,7.733209228515625,10.069596290588379,1.1766705513000488,-1.4578272104263306
1772574149606164200,7.743164306640625,9.595816612243652,1.454237937927246,-1.3334003686904907
1772574149616097300,7.75309716796875,9.179466247558594,1.7030915021896362,-1.160519003868103
1772574149626001200,7.763001220703125,8.82951545715332,1.923829436302185,-0.9978070259094238
1772574149635931400,7.772931396484375,8.523234367370605,2.0673987865448,-0.8685946464538574
1772574149645864400,7.782864501953125,8.336593627929688,2.163111686706543,-0.8303094506263733
1772574149655794700,7.792794677734375,8.23130989074707,2.2396819591522217,-0.8590233325958252
1772574149665759700,7.802759765625,8.173882484436035,2.3545374870300293,-0.8446664214134216
1772574149675693800,7.81269384765625,8.178668022155762,2.455035924911499,-0.9834501147270203
1772574149685592000,7.822592041015625,8.24566650390625,2.531606435775757,-1.1892328262329102
1772574149695522300,7.832522216796875,8.374878883361816,2.5076780319213867,-1.3525429964065552
1772574149705487600,7.842487548828125,8.556734085083008,2.4358935356140137,-1.3860424757003784
1772574149715421700,7.852421630859375,8.671588897705078,2.4023938179016113,-1.3142578601837158
1772574149725339600,7.862339599609375,8.772088050842285,2.3545374870300293,-1.1174482107162476
1772574149735272000,7.87227197265625,8.95394229888916,2.3018953800201416,-0.8350951075553894
1772574149745201400,7.882201416015625,9.217751502990723,2.2923240661621094,-0.5814558863639832
1772574149755133400,7.892133544921875,9.404391288757324,2.2683959007263184,-0.4043870270252228
1772574149765075000,7.902074951171875,9.413962364196777,2.249253273010254,-0.27038896083831787
1772574149775007700,7.9120078125,9.294321060180664,2.196611166000366,-0.2554338276386261
1772574149784928500,7.921928466796875,9.06401252746582,2.1343977451324463,-0.3517449200153351
1772574149794860300,7.9318603515625,8.891729354858398,2.0578274726867676,-0.39481574296951294
1772574149804804000,7.94180419921875,8.662017822265625,1.923829436302185,-0.47617170214653015
1772574149814737000,7.95173681640625,8.303094863891602,1.7365909814834595,-0.6005984544754028
1772574149824655400,7.9616552734375,7.953144073486328,1.6504493951797485,-0.6915257573127747
1772574149834587000,7.9715869140625,7.747361660003662,1.7365909814834595,-0.7537391185760498
1772574149844522000,7.98152197265625,7.632505893707275,1.9381862878799438,-0.763310432434082
1772574149854454000,7.9914541015625,7.541578769683838,2.1822543144226074,-0.672383189201355
1772574149864386300,8.00138623046875,7.51286506652832,2.4598217010498047,-0.5383850932121277
1772574149884223200,8.02122314453125,7.192226886749268,2.929413080215454,-0.5288137793540955
1772574149894152400,8.03115234375,7.153941631317139,3.139981508255005,-0.5862415432929993
1772574149904112000,8.041112060546874,7.311867713928223,3.283550977706909,-0.6532405614852905
1772574149914044400,8.05104443359375,7.584649562835693,3.336193084716797,-0.6580262184143066
1772574149923976400,8.0609765625,7.938787460327148,3.336193084716797,-0.7010970115661621
1772574149933908500,8.070908447265625,8.360522270202637,3.3409786224365234,-0.7728816866874695
1772574149943836700,8.080836669921876,8.657232284545898,3.34576416015625,-0.8877372145652771
1772574149953768400,8.0907685546875,8.767302513122559,3.360121250152588,-1.093519926071167
1772574149963676400,8.100676513671875,8.772088050842285,3.3649067878723145,-1.3142578601837158
1772574149973606000,8.11060595703125,8.767302513122559,3.3026933670043945,-1.4626128673553467
1772574149983572500,8.120572509765625,8.796015739440918,3.273979663848877,-1.4913266897201538
1772574149993505800,8.130505859375,8.925228118896484,3.3505499362945557,-1.323829174041748
1772574150003438600,8.1404384765625,9.141180992126465,3.4606196880340576,-1.1078768968582153
1772574150013371600,8.15037158203125,9.33739185333252,3.5132617950439453,-0.8446664214134216
1772574150023301600,8.160301513671875,9.42353343963623,3.5611183643341064,-0.6340979933738708
1772574150033234400,8.170234375,9.576674461364746,3.589832067489624,-0.519242525100708
1772574150043166200,8.180166259765626,9.878170013427734,3.5754752159118652,-0.4570291340351105
1772574150053098800,8.1900986328125,10.314262390136719,3.5467612743377686,-0.380458801984787
1772574150063022800,8.20002294921875,10.797612190246582,3.494119167327881,-0.2799602448940277
1772574150072954600,8.20995458984375,11.161321640014648,3.3744781017303467,-0.15972091257572174
1772574150082890800,8.219890869140626,11.372488021850586,3.283550977706909,-0.10707881301641464
1772574150092823000,8.229822998046876,11.511271476745605,3.2452657222747803,-0.1788634955883026
1772574150102746400,8.239746337890624,11.59262752532959,3.163909673690796,-0.19322042167186737
1772574150112678000,8.249677978515624,11.621341705322266,3.087339401245117,-0.2027917206287384
1772574150122615300,8.259615234375,11.669198036193848,3.1304101943969727,-0.2554338276386261
1772574150132547000,8.269547119140626,11.755339622497559,3.446262836456299,-0.4953143000602722
1772574150142473700,8.2794736328125,11.549556732177734,3.7525441646575928,-0.4953143000602722
1772574150152405200,8.2894052734375,11.181061744689941,3.652045488357544,0.10827522724866867
1772574150162331400,8.299331298828125,11.161321640014648,3.5850465297698975,0.7591229677200317
1772574150172262100,8.30926220703125,11.224132537841797,3.8195431232452393,0.865005373954773
1772574150182198800,8.31919873046875,10.969895362854004,3.9876389503479004,0.7447660565376282
1772574150192130300,8.32913037109375,10.61097240447998,3.8291144371032715,0.7016952633857727
1772574150202066700,8.339066650390626,10.472187995910645,3.4366915225982666,0.6586244106292725
1772574150211998700,8.348998779296876,10.543972969055176,2.895913600921631,0.6107679605484009
1772574150221867500,8.358867431640626,10.826326370239258,2.297109842300415,0.5629115104675293
1772574150231793200,8.368793212890624,11.310274124145508,1.693520188331604,0.5533402562141418
1772574150241760500,8.378760498046875,11.9132661819458,1.2005987167358398,0.5533402562141418
1772574150251690500,8.3886904296875,12.526426315307617,0.8560323119163513,0.4624129831790924
1772574150261624600,8.39862451171875,12.789636611938477,0.6879364848136902,0.1704886108636856
1772574150271554800,8.408554931640625,12.354143142700195,0.8321040868759155,-0.030508488416671753
1772574150281488400,8.41848828125,11.21934700012207,1.2149556875228882,0.0029910283628851175
1772574150291419000,8.4284189453125,9.78245735168457,1.4877375364303589,0.251844584941864
1772574150301379600,8.438379638671876,8.484949111938477,1.731805443763733,0.47676992416381836
1772574150311313200,8.448313232421874,7.517650604248047,2.0482561588287354,0.47676992416381836
1772574150321238300,8.45823828125,6.8518476486206055,2.3545374870300293,0.4336991012096405
1772574150331171000,8.468171142578125,6.521637916564941,2.5363919734954834,0.31405797600746155
1772574150341110300,8.4781103515625,6.531209468841553,2.6464617252349854,0.06520441919565201
1772574150351043800,8.4880439453125,6.760920524597168,2.651247501373291,-0.19322042167186737
1772574150360965600,8.497965576171875,7.029514789581299,2.5459632873535156,-0.39960137009620667
1772574150370898000,8.50789794921875,7.46500825881958,2.3880369663238525,-0.4331009089946747
1772574150380827400,8.517827392578125,8.020143508911133,2.234896421432495,-0.4331009089946747
1772574150390759400,8.527759521484375,8.551948547363281,2.1056840419769287,-0.42352959513664246
1772574150400710400,8.53771044921875,8.930013656616211,2.0578274726867676,-0.3326023519039154
1772574150410644500,8.54764453125,9.217751502990723,2.1104695796966553,-0.1788634955883026
1772574150420563700,8.557563720703126,9.380462646484375,2.1822543144226074,0.03170489892363548
1772574150430496000,8.56749609375,9.313464164733887,2.258824586868286,0.17527425289154053
1772574150440424200,8.577424072265625,9.141180992126465,2.297109842300415,0.26620152592658997
1772574150450356200,8.587356201171875,8.992227554321289,2.3784656524658203,0.26141586899757385
1772574150460280800,8.59728076171875,8.781659126281738,2.416750907897949,0.2183450609445572
1772574150470212000,8.607212158203126,8.417949676513672,2.4406790733337402,0.13698910176753998
1772574150480156000,8.617156005859375,8.020143508911133,2.550748825073242,0.04127619042992592
1772574150490088400,8.62708837890625,7.747361660003662,2.6177480220794678,-0.07836493849754333
1772574150500017000,8.637016845703124,7.555935859680176,2.6321048736572266,-0.2554338276386261
1772574150509949000,8.646948974609375,7.383652687072754,2.6273193359375,-0.4378865361213684
1772574150519876900,8.656876953125,7.331010341644287,2.6799614429473877,-0.5527420043945312
1772574150529808400,8.666808349609376,7.398009300231934,2.7661030292510986,-0.6245267391204834
1772574150539739100,8.6767392578125,7.565506935119629,2.87198543548584,-0.6915257573127747
1772574150549670700,8.686670654296876,7.656434059143066,2.919841766357422,-0.7058826684951782
1772574150559572700,8.69657275390625,7.694719314575195,2.967698335647583,-0.7058826684951782
1772574150569501400,8.70650146484375,7.704290866851807,3.029911756515503,-0.729810893535614
1772574150579464000,8.7164638671875,7.800003528594971,3.0586254596710205,-0.8111668825149536
1772574150589396000,8.72639599609375,8.073383331298828,3.0969107151031494,-0.882951557636261
1772574150599325000,8.736324951171875,8.312665939331055,3.1064820289611816,-0.8781659007072449
1772574150609256700,8.746256591796875,8.499305725097656,3.1447670459747314,-0.8398807644844055
1772574150619198000,8.756197998046876,8.61894702911377,3.297907829284668,-0.9020941257476807
1772574150629130800,8.766130859375,8.700303077697754,3.441477060317993,-0.9882357716560364
1772574150639055000,8.77605517578125,8.791230201721191,3.5850465297698975,-1.0600204467773438
1772574150648987100,8.785987060546875,8.85344409942627,3.7812578678131104,-1.0791629552841187
1772574150658917400,8.79591748046875,8.858229637145996,4.040280818939209,-0.973878800868988
1772574150668849200,8.80584912109375,8.839086532592773,4.322634220123291,-0.7968099117279053
1772574150678772700,8.815772705078125,8.748159408569336,4.628915309906006,-0.6197410821914673
1772574150688703700,8.825703857421875,8.657232284545898,4.901697158813477,-0.5814558863639832
1772574150698655500,8.835655517578125,8.58066177368164,5.007579803466797,-0.6532405614852905
1772574150708588300,8.84558837890625,8.561519622802734,5.012365341186523,-0.8015955686569214
1772574150718495700,8.855495849609374,8.671588897705078,4.892126083374023,-0.973878800868988
1772574150728426200,8.86542626953125,8.906085968017578,4.734199523925781,-1.069591760635376
1772574150738351600,8.8753515625,9.356534957885742,4.590630054473877,-1.1413763761520386
1772574150748281600,8.885281494140624,9.830313682556152,4.403990268707275,-1.184447169303894
1772574150758243600,8.89524365234375,10.213763236999512,4.150351047515869,-1.2131611108779907
1772574150768176600,8.9051767578125,10.658828735351562,4.045066833496094,-1.1653046607971191
1772574150778074400,8.915074462890624,11.161321640014648,4.092923164367676,-1.2610175609588623
1772574150788004000,8.925004150390626,11.472986221313477,4.4135613441467285,-1.6444673538208008
1772574150797935900,8.934935791015626,11.036894798278809,4.624129772186279,-1.6636099815368652
1772574150807865900,8.944865966796876,10.204192161560059,4.380061626434326,-0.7824530005455017
1772574150817804500,8.954804443359375,9.897313117980957,4.126422882080078,0.15613168478012085
1772574150827735300,8.9647353515625,9.945169448852539,4.217350006103516,0.5198407173156738
1772574150837670000,8.974669921875,10.137192726135254,4.418346881866455,0.36670008301734924
1772574150847601200,8.98460107421875,10.634900093078613,4.207778453826904,-0.25064817070961
1772574150857524700,8.994524658203124,11.224132537841797,3.6807594299316406,-1.074377417564392
1772574150867455200,9.004455322265626,11.774481773376465,3.226123094558716,-1.7545372247695923
1772574150877390300,9.014390380859375,12.06640625,2.7326035499572754,-2.252244234085083
1772574150887321300,9.0243212890625,12.05204963684082,2.139183521270752,-2.530410051345825
1772574150897256400,9.03425634765625,11.918051719665527,1.6169499158859253,-2.6356940269470215
1772574150907187700,9.044187744140626,11.635698318481445,1.3489537239074707,-2.4873390197753906
1772574150917145600,9.0541455078125,11.334202766418457,1.296311616897583,-2.2091734409332275
1772574150927079700,9.06407958984375,10.926824569702148,1.358525037765503,-1.9363917112350464
1772574150936981000,9.07398095703125,10.357333183288574,1.4638092517852783,-1.6396816968917847
1772574150946911500,9.083911376953125,9.849455833435059,1.6552350521087646,-1.342971682548523
1772574150956848400,9.093848388671875,9.55753231048584,1.7748762369155884,-1.0648061037063599
1772574150966779600,9.103779541015625,9.43310546875,1.7653049230575562,-0.973878800868988
1772574150976731400,9.1137314453125,9.57188892364502,1.7270197868347168,-1.155733346939087
1772574150986664700,9.123664794921876,9.849455833435059,1.674377679824829,-1.3908281326293945
1772574150996568800,9.13356884765625,10.0073823928833,1.6360924243927002,-1.5200406312942505
1772574151006499000,9.1434990234375,10.02173900604248,1.6408780813217163,-1.6301103830337524
1772574151016416800,9.153416748046874,9.911669731140137,1.6265212297439575,-1.7832510471343994
1772574151026346000,9.163345947265626,9.67238712310791,1.7030915021896362,-1.8693926334381104
1772574151036316700,9.173316650390625,9.361320495605469,1.8807586431503296,-1.7928223609924316
1772574151046250200,9.183250244140625,9.112466812133789,2.0721843242645264,-1.6301103830337524
1772574151056186400,9.193186279296874,8.901300430297852,2.258824586868286,-1.4386845827102661
1772574151066120000,9.203119873046875,8.676374435424805,2.306680917739868,-1.1126625537872314
1772574151076044000,9.2130439453125,8.595019340515137,2.2636101245880127,-0.7920243144035339
1772574151085976600,9.2229765625,8.834300994873047,2.2061824798583984,-0.6149554252624512
1772574151095907300,9.2329072265625,9.17467975616455,2.0721843242645264,-0.5144568681716919
1772574151105839900,9.24283984375,9.327820777893066,1.8711873292922974,-0.4618147611618042
1772574151115750100,9.252750244140625,9.327820777893066,1.7988044023513794,-0.45224347710609436
1772574151125680400,9.262680419921875,9.21296501159668,1.8233308792114258,-0.33738797903060913
1772574151135641600,9.2726416015625,8.973084449768066,1.94297194480896,-0.10229317098855972
1772574151145575000,9.282574951171876,8.676374435424805,2.076970100402832,0.08434699475765228
1772574151155469600,9.292469482421875,8.264809608459473,2.1056840419769287,0.09870393574237823
1772574151165399000,9.30239892578125,7.871788501739502,2.1056840419769287,-0.04007977992296219
1772574151175362300,9.3123623046875,7.4841508865356445,2.1343977451324463,-0.16450655460357666
1772574151185295000,9.322295166015625,7.225726127624512,2.2157537937164307,-0.26560330390930176
1772574151195206700,9.33220654296875,7.197012424468994,2.416750907897949,-0.3038884699344635
1772574151205137400,9.342137451171874,7.220940589904785,2.641676187515259,-0.28953152894973755
1772574151215068200,9.352068115234376,7.158727169036865,2.7517459392547607,-0.26081767678260803
1772574151224999000,9.3619990234375,7.130013465881348,2.847458839416504,-0.26081767678260803
1772574151234934000,9.37193408203125,7.201797962188721,2.943770170211792,-0.3038884699344635
1772574151244865300,9.381865234375,7.359724044799805,2.991626501083374,-0.47617170214653015
1772574151254819800,9.39181982421875,7.445865631103516,2.9006991386413574,-0.7058826684951782
1772574151264753400,9.40175341796875,7.455437183380127,2.8767709732055664,-0.8542376756668091
1772574151274681300,9.411681396484376,7.632505893707275,2.881556749343872,-1.0360921621322632
1772574151284614400,9.421614501953124,8.078168869018555,2.929413080215454,-1.098305583000183
1772574151294543000,9.431543212890626,8.537590980529785,2.8624141216278076,-1.1030912399291992
1772574151304475600,9.4414755859375,8.738588333129883,2.87198543548584,-0.9930213689804077
1772574151314404400,9.451404296875,8.85344409942627,3.0586254596710205,-0.7441678643226624
1772574151324336400,9.46133642578125,9.040083885192871,3.197409152984619,-0.4570291340351105
1772574151334269000,9.47126904296875,9.394820213317871,3.321835994720459,-0.1453639715909958
1772574151344201000,9.481200927734376,9.78245735168457,3.3266217708587646,0.022133609279990196
1772574151354138600,9.491138671875,9.997811317443848,3.3409786224365234,0.0077766734175384045
1772574151364071200,9.5010712890625,10.098309516906738,3.422334671020508,-0.13100704550743103
1772574151373996300,9.510996337890624,10.199406623840332,3.360121250152588,-0.23629122972488403
1772574151383928300,9.52092822265625,10.543972969055176,3.2787652015686035,-0.08793623000383377
1772574151393860900,9.53086083984375,10.893324851989746,3.273979663848877,0.0364905446767807
1772574151403793000,9.54079296875,10.9028959274292,3.2883365154266357,0.07956135272979736
1772574151413741000,9.550740966796875,10.773683547973633,3.2213375568389893,-0.19322042167186737
1772574151423674600,9.560674560546875,10.395618438720703,3.053839921951294,-0.5479564070701599
1772574151433588200,9.570588134765625,10.342975616455078,2.9246275424957275,-0.8925228714942932
1772574151443519700,9.580519775390625,9.64367389678955,3.2644083499908447,-1.5822539329528809
1772574151453447200,9.590447265625,9.016156196594238,3.7094733715057373,-1.673181176185608
1772574151463378400,9.60037841796875,9.686744689941406,4.202992916107178,-0.5958128571510315
1772574151473309700,9.610309814453124,10.711470603942871,4.595416069030762,0.2709871530532837
1772574151483241000,9.620240966796874,11.195419311523438,4.825126647949219,0.12741780281066895
1772574151493175800,9.63017578125,11.477771759033203,4.614558696746826,-0.11665010452270508
1772574151503107300,9.640107421875,11.922837257385254,3.954139471054077,-0.275174617767334
1772574151513046300,9.65004638671875,12.123833656311035,3.565903902053833,-0.7680960893630981
