time,seconds_elapsed,z,y,x
1772574142008157700,0.14515771484375,-0.22582940757274628,0.13208889961242676,-0.4770912528038025
1772574142058092500,0.195092529296875,-0.2577863931655884,0.06710968166589737,-0.39506828784942627
1772574142077897000,0.21489697265625,-0.2119813710451126,0.12250179797410965,-0.05858781561255455
1772574142107776300,0.2447763671875,-0.05006595328450203,0.256721168756485,0.4344819188117981
1772574142117695700,0.25469580078125,0.07030537724494934,0.21091613173484802,0.5101134777069092
1772574142127628500,0.264628662109375,0.15339355170726776,0.1821548491716385,0.5324833393096924
1772574142137559300,0.274559326171875,0.1693720519542694,0.11397993564605713,0.5069177746772766
1772574142147491000,0.284490966796875,0.1501978635787964,-0.02236989326775074,0.4568518102169037
1772574142157420500,0.294420654296875,0.12037133425474167,-0.1608501821756363,0.42596006393432617
1772574142167351300,0.304351318359375,0.09800143539905548,-0.23967742919921875,0.42915576696395874
1772574142177286100,0.3142861328125,0.08734910935163498,-0.2780258059501648,0.44087332487106323
1772574142187218400,0.324218505859375,0.08628387749195099,-0.28122150897979736,0.43980807065963745
1772574142197158000,0.334157958984375,0.08628387749195099,-0.23861220479011536,0.41850343346595764
1772574142216986400,0.353986328125,0.07243584841489792,-0.03941362351179123,0.29080861806869507
1772574142236856800,0.37385693359375,0.0852186381816864,-0.10332760214805603,0.24180789291858673
1772574142246802400,0.383802490234375,0.09906667470932007,-0.20026381313800812,0.2119813710451126
1772574142256740600,0.39374072265625,0.11611039936542511,-0.299330472946167,0.17789392173290253
1772574142266669800,0.403669921875,0.12356702983379364,-0.3684374690055847,0.1374150663614273
1772574142276604400,0.4136044921875,0.11184946447610855,-0.40572062134742737,0.05752258375287056
1772574142286532900,0.423532958984375,0.07243584841489792,-0.4131772518157959,-0.06071828305721283
1772574142296465000,0.43346484375,0.0063913981430232525,-0.38548120856285095,-0.19600287079811096
1772574142306389000,0.443388916015625,-0.07776200771331787,-0.33008909225463867,-0.3290238380432129
1772574142316318000,0.45331787109375,-0.16298064589500427,-0.2673735022544861,-0.4334166944026947
1772574142326253800,0.46325390625,-0.22582940757274628,-0.20558997988700867,-0.4866783320903778
1772574142336185600,0.473185546875,-0.2545906901359558,-0.14700216054916382,-0.4898740351200104
1772574142346108200,0.483108154296875,-0.252460241317749,-0.0958709716796875,-0.44087332487106323
1772574142356036000,0.4930361328125,-0.2343512624502182,-0.0532616525888443,-0.3567199110984802
1772574142365973200,0.50297314453125,-0.22582940757274628,-0.03621792420744896,-0.2577863931655884
1772574142375905000,0.512905029296875,-0.2332860380411148,-0.03621792420744896,-0.15765449404716492
1772574142385835500,0.52283544921875,-0.2545906901359558,-0.0213046595454216,-0.06924014538526535
1772574142395766500,0.5327666015625,-0.28015628457069397,-0.0063913981430232525,-0.0021304660476744175
1772574142405701000,0.542701171875,-0.3055887222290039,-0.00852186419069767,0.03941362351179123
1772574142415633400,0.55263330078125,-0.3279586136341095,-0.0106523297727108,0.07137060910463333
1772574142425593000,0.562593017578125,-0.34393709897994995,-0.0063913981430232525,0.09480573982000351
1772574142435536400,0.572536376953125,-0.34393709897994995,0.0021304660476744175,0.11291470378637314
1772574142445422600,0.582422607421875,-0.32369768619537354,0.02236989326775074,0.1288931965827942
1772574142455360500,0.592360595703125,-0.28015628457069397,0.05965305119752884,0.1491326242685318
1772574142465284600,0.60228466796875,-0.22582940757274628,0.09480573982000351,0.18428531289100647
1772574142475221000,0.612220947265625,-0.191741943359375,0.13208889961242676,0.23967742919921875
1772574142485152000,0.622152099609375,-0.1704372763633728,0.18641577661037445,0.3151758313179016
1772574142495087900,0.632087890625,-0.14061075448989868,0.2332860380411148,0.39932921528816223
1772574142505013000,0.642012939453125,-0.0958709716796875,0.28122150897979736,0.48241740465164185
1772574142514947600,0.651947509765625,-0.03941362351179123,0.3577851355075836,0.5484618544578552
1772574142524889600,0.6618896484375,0.03515268862247467,0.47283029556274414,0.5868102312088013
1772574142534825000,0.671824951171875,0.13634982705116272,0.6081148982048035,0.5772231221199036
1772574142544766500,0.681766357421875,0.21517707407474518,0.7487256526947021,0.5335485935211182
1772574142554702600,0.69170263671875,0.275895357131958,0.8595098853111267,0.4643084406852722
1772574142564631000,0.701631103515625,0.3375457227230072,0.9085106253623962,0.35458943247795105
1772574142574566400,0.71156640625,0.3918725848197937,0.8967930674552917,0.21943800151348114
1772574142584489000,0.721489013671875,0.41956865787506104,0.8850755095481873,0.09480573982000351
1772574142594422800,0.7314228515625,0.4121120274066925,0.8754884004592896,0.0031956990715116262
1772574142604344800,0.7413447265625,0.3801550269126892,0.8531184792518616,-0.05539211630821228
1772574142614278000,0.75127783203125,0.3503285050392151,0.8531184792518616,-0.07030537724494934
1772574142624209700,0.761209716796875,0.3567199110984802,0.8243572115898132,-0.06284874677658081
1772574142634142500,0.771142578125,0.3918725848197937,0.7231600880622864,-0.03834838792681694
1772574142644086000,0.7810859375,0.45898228883743286,0.5250267386436462,0.0053261648863554
1772574142654019800,0.791019775390625,0.5431357026100159,0.2982652485370636,0.10226237028837204
1772574142663940900,0.80094091796875,0.6251586079597473,0.16404588520526886,0.2535254657268524
1772574142673873400,0.810873291015625,0.7007901668548584,0.12463226169347763,0.4344819188117981
1772574142683813400,0.8208134765625,0.7433995008468628,0.0852186381816864,0.6027887463569641
1772574142693746400,0.830746337890625,0.703985869884491,-0.01810896210372448,0.7050511240959167
1772574142703665700,0.840665771484375,0.6038539409637451,-0.15232832729816437,0.7433995008468628
1772574142713597700,0.85059765625,0.48348262906074524,-0.24180789291858673,0.7210295796394348
1772574142723528700,0.86052880859375,0.31304535269737244,-0.2748301327228546,0.6123758554458618
1772574142733460500,0.87046044921875,0.0958709716796875,-0.2673735022544861,0.4110468029975891
1772574142743391700,0.880391845703125,-0.11504516750574112,-0.19706811010837555,0.17469821870326996
1772574142753323500,0.890323486328125,-0.26098209619522095,-0.04473978653550148,-0.03728315606713295
1772574142763268600,0.9002685546875,-0.32156720757484436,0.1491326242685318,-0.20452474057674408
1772574142773201700,0.91020166015625,-0.3003957271575928,0.33328479528427124,-0.32369768619537354
1772574142783125500,0.92012548828125,-0.20772044360637665,0.49200451374053955,-0.3705679476261139
1772574142793057800,0.930057861328125,-0.06071828305721283,0.6390066742897034,-0.3386109471321106
1772574142802987800,0.93998779296875,0.11184946447610855,0.7306166887283325,-0.28228676319122314
1772574142812919800,0.949919921875,0.29080861806869507,0.7295514941215515,-0.20878566801548004
1772574142822822000,0.95982177734375,0.44300377368927,0.6677679419517517,-0.09480573982000351
1772574142832750800,0.969750732421875,0.5484618544578552,0.5665708184242249,0.04367455467581749
1772574142842691800,0.97969189453125,0.5995930433273315,0.423829585313797,0.17363297939300537
1772574142852622000,0.9896220703125,0.6038539409637451,0.24287313222885132,0.2588516175746918
1772574142862574000,0.999573974609375,0.5868102312088013,0.0319569893181324,0.29400432109832764
1772574142872506600,1.009506591796875,0.5623098611831665,-0.1810896098613739,0.29293906688690186
1772574142882407400,1.019407470703125,0.5228962898254395,-0.335415244102478,0.26950395107269287
1772574142892336600,1.029336669921875,0.4770912528038025,-0.42596006393432617,0.22795987129211426
1772574142902294300,1.039294189453125,0.44087332487106323,-0.484547883272171,0.18322007358074188
1772574142912226300,1.049226318359375,0.4216991364955902,-0.5069177746772766,0.14061075448989868
1772574142922158800,1.059158935546875,0.423829585313797,-0.4973306655883789,0.10545806586742401
1772574142932091000,1.0690908203125,0.44300377368927,-0.4675041437149048,0.07137060910463333
1772574142942027300,1.07902734375,0.4749607741832733,-0.44939517974853516,0.04047885537147522
1772574142951959600,1.08895947265625,0.5111786723136902,-0.44832995533943176,0.01810896210372448
1772574142961886000,1.098885986328125,0.5442008972167969,-0.43022099137306213,0.0031956990715116262
1772574142971818000,1.10881787109375,0.5623098611831665,-0.37695932388305664,-0.02663082629442215
1772574142981732600,1.118732666015625,0.5537880063056946,-0.29400432109832764,-0.07243584841489792
1772574142991662800,1.128662841796875,0.5335485935211182,-0.18322007358074188,-0.11078423261642456
1772574143001616600,1.13861669921875,0.5079829692840576,-0.06924014538526535,-0.11611039936542511
1772574143011549200,1.148549072265625,0.47069984674453735,0.05432688444852829,-0.09906667470932007
1772574143021485300,1.1584853515625,0.43874284625053406,0.17363297939300537,-0.07669677585363388
1772574143031418000,1.168418212890625,0.4312862157821655,0.27056917548179626,-0.05858781561255455
1772574143041339400,1.17833935546875,0.4451342523097992,0.3567199110984802,-0.03941362351179123
1772574143051271000,1.18827099609375,0.47283029556274414,0.4547213613986969,-0.02982652559876442
1772574143061175800,1.19817578125,0.5079829692840576,0.5548532605171204,-0.03408745676279068
1772574143071104800,1.208104736328125,0.5601794123649597,0.6400718688964844,-0.05432688444852829
1772574143081073200,1.2180732421875,0.6358109712600708,0.6975944638252258,-0.08415340632200241
1772574143091006200,1.228006103515625,0.6528546810150146,0.7348776459693909,-0.09480573982000351
1772574143100927000,1.237927001953125,0.6230281591415405,0.7167686820030212,-0.07243584841489792
1772574143110858800,1.247858642578125,0.6049191951751709,0.6624417901039124,-0.03408745676279068
1772574143120790800,1.257790771484375,0.587875485420227,0.6517894268035889,0.03089175745844841
1772574143130722600,1.26772265625,0.5537880063056946,0.6784203052520752,0.10545806586742401
1772574143140650000,1.27764990234375,0.527157187461853,0.6411371231079102,0.09054480493068695
1772574143150581200,1.287581298828125,0.5197005867958069,0.3194367587566376,-0.07350108027458191
1772574143160515600,1.297515625,0.5015916228294373,-0.007456631399691105,-0.24074266850948334
1772574143170447400,1.307447265625,0.44087332487106323,-0.13421936333179474,-0.3045234978199005
1772574143180375000,1.317375,0.339676171541214,-0.15339355170726776,-0.27269965410232544
1772574143190306300,1.327306396484375,0.24819929897785187,-0.16298064589500427,-0.1491326242685318
1772574143200252700,1.337252685546875,0.21091613173484802,-0.16298064589500427,0.03621792420744896
1772574143210185500,1.347185546875,0.22795987129211426,-0.19493764638900757,0.19919857382774353
1772574143220106500,1.3571064453125,0.26311254501342773,-0.25032976269721985,0.29080861806869507
1772574143230038000,1.3670380859375,0.28335198760032654,-0.24287313222885132,0.2886781394481659
1772574143239981000,1.37698095703125,0.2876129150390625,-0.2439383566379547,0.1704372763633728
1772574143249913900,1.386913818359375,0.2897433936595917,-0.3151758313179016,-0.0053261648863554
1772574143259831300,1.396831298828125,0.26950395107269287,-0.31198012828826904,-0.1288931965827942
1772574143269762600,1.406762451171875,0.2023942768573761,-0.20772044360637665,-0.17895914614200592
1772574143289625300,1.426625244140625,0.03621792420744896,-0.03621792420744896,-0.16511112451553345
1772574143299555600,1.4365556640625,-0.03515268862247467,0.05858781561255455,-0.11824086308479309
1772574143309486800,1.44648681640625,-0.09906667470932007,0.15552401542663574,-0.05752258375287056
1772574143319420400,1.45642041015625,-0.14593692123889923,0.20985090732574463,0.00852186419069767
1772574143329351700,1.4663515625,-0.16511112451553345,0.2141118347644806,0.06924014538526535
1772574143339282000,1.476281982421875,-0.15339355170726776,0.1821548491716385,0.11291470378637314
1772574143349213200,1.486213134765625,-0.11397993564605713,0.13208889961242676,0.13315412402153015
1772574143359156700,1.49615673828125,-0.06710968166589737,0.05645735189318657,0.13634982705116272
1772574143369089300,1.50608935546875,-0.0319569893181324,-0.05219641700387001,0.1395455300807953
1772574143379006500,1.51600634765625,-0.01810896210372448,-0.15552401542663574,0.15552401542663574
1772574143388937500,1.5259375,-0.01704372838139534,-0.24180789291858673,0.191741943359375
1772574143398873000,1.535873046875,-0.01917419396340847,-0.3003957271575928,0.2439383566379547
1772574143408804600,1.5458046875,-0.03089175745844841,-0.339676171541214,0.29400432109832764
1772574143418744600,1.55574462890625,-0.06497921794652939,-0.3929378390312195,0.2961347699165344
1772574143428676900,1.5656767578125,-0.12356702983379364,-0.400394469499588,0.275895357131958
1772574143438606300,1.5756064453125,-0.18641577661037445,-0.28228676319122314,0.2769605815410614
1772574143448538400,1.585538330078125,-0.2354165017604828,-0.08947957307100296,0.28122150897979736
1772574143458460700,1.595460693359375,-0.275895357131958,0.0852186381816864,0.2343512624502182
1772574143468391700,1.6053916015625,-0.3183715343475342,0.18854624032974243,0.12569749355316162
1772574143478323200,1.6153232421875,-0.37482887506484985,0.18748101592063904,-0.0213046595454216
1772574143488254200,1.625254150390625,-0.46004751324653625,0.0852186381816864,-0.20772044360637665
1772574143498191400,1.63519140625,-0.550592303276062,-0.07563154399394989,-0.4312862157821655
1772574143508123000,1.645122802734375,-0.618767261505127,-0.22156846523284912,-0.6283543109893799
1772574143518053000,1.65505322265625,-0.6539199352264404,-0.2897433936595917,-0.7338123917579651
1772574143527984600,1.664984619140625,-0.6507242321968079,-0.2961347699165344,-0.7252905368804932
1772574143537890600,1.674890625,-0.5910711884498596,-0.30252617597579956,-0.618767261505127
1772574143547819500,1.684819580078125,-0.4760259985923767,-0.32263246178627014,-0.42915576696395874
1772574143557752600,1.694752685546875,-0.3513937294483185,-0.33221954107284546,-0.18535055220127106
1772574143567681800,1.704681884765625,-0.2535254657268524,-0.35565468668937683,0.04367455467581749
1772574143577618200,1.7146181640625,-0.19706811010837555,-0.3790898025035858,0.19387240707874298
1772574143587548200,1.724548095703125,-0.15765449404716492,-0.3908073604106903,0.2556559145450592
1772574143597513700,1.734513671875,-0.11930610239505768,-0.37589409947395325,0.2588516175746918
1772574143607447300,1.744447265625,-0.09906667470932007,-0.33221954107284546,0.2332860380411148
1772574143617350100,1.75435009765625,-0.11824086308479309,-0.2897433936595917,0.17363297939300537
1772574143627280600,1.76428076171875,-0.1693720519542694,-0.3003957271575928,0.09374050796031952
1772574143637206300,1.774206298828125,-0.22689463198184967,-0.36417654156684875,0.02556559257209301
1772574143647136300,1.78413623046875,-0.2769605815410614,-0.400394469499588,-0.02556559257209301
1772574143657068500,1.794068603515625,-0.316241055727005,-0.3897421360015869,-0.08095771074295044
1772574143666998800,1.803998779296875,-0.3375457227230072,-0.36524176597595215,-0.1501978635787964
1772574143676939300,1.813939208984375,-0.34393709897994995,-0.3173062801361084,-0.2236989289522171
1772574143686870500,1.82387060546875,-0.3471328020095825,-0.2332860380411148,-0.28228676319122314
1772574143696796700,1.833796630859375,-0.35458943247795105,-0.1374150663614273,-0.316241055727005
1772574143706727400,1.8437275390625,-0.3716331720352173,-0.03834838792681694,-0.32369768619537354
1772574143716660200,1.85366015625,-0.4131772518157959,0.08095771074295044,-0.32263246178627014
1772574143726591200,1.86359130859375,-0.4738955497741699,0.19919857382774353,-0.33328479528427124
1772574143736555500,1.873555419921875,-0.5378095507621765,0.29293906688690186,-0.37589409947395325
1772574143746489900,1.88348974609375,-0.5942668914794922,0.3513937294483185,-0.46004751324653625
1772574143756399400,1.8933994140625,-0.6539199352264404,0.39719876646995544,-0.5718969702720642
1772574143766331400,1.903331298828125,-0.726355791091919,0.4355471432209015,-0.6837464570999146
1772574143776271400,1.913271240234375,-0.7710955739021301,0.4685693681240082,-0.7774869799613953
1772574143786204200,1.9232041015625,-0.7593780159950256,0.4983958899974823,-0.8424661755561829
1772574143796120300,1.933120361328125,-0.7018554210662842,0.5282224416732788,-0.8531184792518616
1772574143806051300,1.94305126953125,-0.634745717048645,0.5463314056396484,-0.8073135018348694
1772574143816006400,1.95300634765625,-0.5804188251495361,0.503722071647644,-0.7295514941215515
1772574143825939700,1.962939697265625,-0.550592303276062,0.4025249183177948,-0.6464632749557495
1772574143835863600,1.972863525390625,-0.535679042339325,0.28015628457069397,-0.5750926733016968
1772574143845796000,1.982796142578125,-0.5154396295547485,0.15658925473690033,-0.5154396295547485
1772574143855700500,1.992700439453125,-0.4973306655883789,0.05645735189318657,-0.4451342523097992
1772574143865630200,2.002630126953125,-0.4770912528038025,-0.02769605815410614,-0.3609808385372162
1772574143875592700,2.0125927734375,-0.4461994767189026,-0.08202294260263443,-0.29080861806869507
1772574143885525500,2.022525390625,-0.4216991364955902,-0.1171756312251091,-0.252460241317749
1772574143895456000,2.0324560546875,-0.400394469499588,-0.1597849577665329,-0.23648172616958618
1772574143905388500,2.042388427734375,-0.3609808385372162,-0.2023942768573761,-0.2247641682624817
1772574143915314700,2.052314697265625,-0.30252617597579956,-0.2141118347644806,-0.191741943359375
1772574143925246500,2.06224658203125,-0.2460688352584839,-0.2023942768573761,-0.14061075448989868
1772574143935181000,2.07218115234375,-0.17363297939300537,-0.16830681264400482,-0.09374050796031952
1772574143945113000,2.082113037109375,-0.10226237028837204,-0.10119713842868805,-0.05752258375287056
1772574143955091000,2.092091064453125,-0.05645735189318657,-0.02556559257209301,-0.04154408723115921
1772574143965027800,2.10202783203125,-0.04900071769952774,0.02663082629442215,-0.05645735189318657
1772574143974905000,2.111905029296875,-0.07243584841489792,0.02769605815410614,-0.09800143539905548
1772574143984836000,2.121836181640625,-0.1171756312251091,-0.02236989326775074,-0.1395455300807953
1772574143994750700,2.131750732421875,-0.17895914614200592,-0.06710968166589737,-0.1608501821756363
1772574144004680200,2.14168017578125,-0.26204732060432434,-0.09480573982000351,-0.17682868242263794
1772574144014640000,2.15164013671875,-0.35245898365974426,-0.13208889961242676,-0.20772044360637665
1772574144024572400,2.161572509765625,-0.42596006393432617,-0.16830681264400482,-0.24819929897785187
1772574144034473500,2.171473388671875,-0.4664389193058014,-0.18322007358074188,-0.29506954550743103
1772574144044402700,2.181402587890625,-0.47176507115364075,-0.16617634892463684,-0.33008909225463867
1772574144054357800,2.191357666015625,-0.43767762184143066,-0.10332760214805603,-0.33435001969337463
1772574144064289500,2.20128955078125,-0.36417654156684875,0.00852186419069767,-0.2886781394481659
1772574144074222000,2.21122216796875,-0.2673735022544861,0.15658925473690033,-0.18428531289100647
1772574144084153900,2.22115380859375,-0.16511112451553345,0.30359140038490295,-0.03515268862247467
1772574144094084000,2.231083984375,-0.06178351491689682,0.42702528834342957,0.13634982705116272
1772574144104016000,2.241015869140625,0.04580501839518547,0.5143743753433228,0.30359140038490295
1772574144113954300,2.250954345703125,0.1267627328634262,0.4866783320903778,0.41850343346595764
1772574144123886800,2.260886962890625,0.1501978635787964,0.2961347699165344,0.46111273765563965
1772574144133818000,2.270818115234375,0.11504516750574112,0.08095771074295044,0.4781564772129059
1772574144143750400,2.28075048828125,0.04473978653550148,-0.05113118514418602,0.48135218024253845
1772574144153673200,2.290673095703125,-0.04793548583984375,-0.1597849577665329,0.4557865858078003
1772574144163604500,2.3006044921875,-0.15232832729816437,-0.29080861806869507,0.39613354206085205
1772574144173535500,2.310535400390625,-0.26098209619522095,-0.42596006393432617,0.32263246178627014
1772574144183466800,2.320466796875,-0.3695026934146881,-0.535679042339325,0.24819929897785187
1772574144193409500,2.330409423828125,-0.4419385492801666,-0.5782883763313293,0.18428531289100647
1772574144203341800,2.340341796875,-0.4525908827781677,-0.5143743753433228,0.14700216054916382
1772574144213259300,2.35025927734375,-0.39506828784942627,-0.3460675776004791,0.1501978635787964
1772574144223190000,2.36018994140625,-0.28228676319122314,-0.11078423261642456,0.2023942768573761
1772574144233123600,2.37012353515625,-0.12463226169347763,0.1587197184562683,0.2982652485370636
1772574144243054600,2.3800546875,0.05113118514418602,0.39719876646995544,0.41637295484542847
1772574144252993000,2.389992919921875,0.20985090732574463,0.5463314056396484,0.512243926525116
1772574144262925000,2.399925048828125,0.3268933892250061,0.5793536305427551,0.5591141581535339
1772574144272851200,2.409851318359375,0.3940030634403229,0.534613847732544,0.5623098611831665
1772574144282782500,2.419782470703125,0.41956865787506104,0.4312862157821655,0.5250267386436462
1772574144292714500,2.429714599609375,0.4344819188117981,0.3077192008495331,0.44087332487106323
1772574144302645800,2.439645751953125,0.4568518102169037,0.2034595012664795,0.31411057710647583
1772574144312579300,2.449579345703125,0.4898740351200104,0.10865376889705658,0.15445879101753235
1772574144322510800,2.4595107421875,0.5303528904914856,-0.0031956990715116262,-0.0021304660476744175
1772574144332440600,2.469440673828125,0.5708317756652832,-0.11504516750574112,-0.11824086308479309
1772574144342371800,2.479371826171875,0.5953320860862732,-0.1928071826696396,-0.18854624032974243
1772574144352316700,2.489316650390625,0.6006582975387573,-0.24926452338695526,-0.2236989289522171
1772574144362249500,2.49924951171875,0.5921363830566406,-0.29506954550743103,-0.24926452338695526
1772574144372163800,2.509163818359375,0.5718969702720642,-0.3066539466381073,-0.26204732060432434
1772574144382094800,2.5190947265625,0.5314181447029114,-0.28228676319122314,-0.24926452338695526
1772574144392032500,2.529032470703125,0.4749607741832733,-0.2354165017604828,-0.21091613173484802
1772574144401964000,2.538964111328125,0.4131772518157959,-0.1810896098613739,-0.16830681264400482
1772574144411870500,2.548870361328125,0.36311131715774536,-0.11824086308479309,-0.14380645751953125
1772574144421799700,2.558799560546875,0.335415244102478,-0.05645735189318657,-0.15339355170726776
1772574144431737600,2.568737548828125,0.3290238380432129,0.0031956990715116262,-0.19600287079811096
1772574144441667600,2.57866748046875,0.33115431666374207,0.07882724702358246,-0.26098209619522095
1772574144451625000,2.588625,0.33328479528427124,0.16724158823490143,-0.33115431666374207
1772574144461557800,2.598557861328125,0.3386109471321106,0.2641777992248535,-0.3897421360015869
1772574144471464700,2.608464599609375,0.35458943247795105,0.36630702018737793,-0.42702528834342957
1772574144481395000,2.61839501953125,0.37482887506484985,0.4685693681240082,-0.44832995533943176
1772574144491347500,2.628347412109375,0.3918725848197937,0.5463314056396484,-0.4440690279006958
1772574144501280000,2.638280029296875,0.40572062134742737,0.5793536305427551,-0.42063388228416443
1772574144511215000,2.648215087890625,0.4121120274066925,0.5655055642127991,-0.3790898025035858
1772574144521147600,2.658147705078125,0.4142425060272217,0.5143743753433228,-0.3173062801361084
1772574144531078400,2.668078369140625,0.39613354206085205,0.43767762184143066,-0.23754696547985077
1772574144541010700,2.6780107421875,0.36524176597595215,0.35352420806884766,-0.15339355170726776
1772574144550948600,2.687948486328125,0.3375457227230072,0.2556559145450592,-0.08415340632200241
1772574144560881400,2.69788134765625,0.3173062801361084,0.15552401542663574,-0.03728315606713295
1772574144570797800,2.7077978515625,0.3087844252586365,0.06924014538526535,-0.0159784946590662
1772574144580729000,2.71772900390625,0.3055887222290039,-0.0021304660476744175,-0.03089175745844841
1772574144590664000,2.727663818359375,0.2972000241279602,-0.04367455467581749,-0.08202294260263443
1772574144600595700,2.737595703125,0.2854824364185333,-0.03515268862247467,-0.1480673849582672
1772574144610535700,2.74753564453125,0.26311254501342773,0.01491326279938221,-0.21091613173484802
1772574144620468200,2.75746826171875,0.23115555942058563,0.07563154399394989,-0.26311254501342773
1772574144630391600,2.7673916015625,0.19493764638900757,0.13634982705116272,-0.2897433936595917
1772574144640323000,2.777322998046875,0.1608501821756363,0.17895914614200592,-0.2780258059501648
1772574144650249700,2.787249755859375,0.13634982705116272,0.18961147964000702,-0.22582940757274628
1772574144660180700,2.7971806640625,0.11824086308479309,0.1906767040491104,-0.1267627328634262
1772574144670112800,2.80711279296875,0.09800143539905548,0.18428531289100647,0.0021304660476744175
1772574144680044000,2.8170439453125,0.08202294260263443,0.13102366030216217,0.13634982705116272
1772574144690009300,2.82700927734375,0.03728315606713295,-0.01491326279938221,0.2236989289522171
1772574144699944000,2.83694384765625,-0.0010652330238372087,-0.15765449404716492,0.2854824364185333
1772574144709817900,2.84681787109375,-0.02663082629442215,-0.24819929897785187,0.3364804685115814
1772574144719746600,2.85674658203125,-0.0426093190908432,-0.2982652485370636,0.3684374690055847
1772574144729688300,2.866688232421875,-0.03515268862247467,-0.28122150897979736,0.3695026934146881
1772574144739618300,2.876618408203125,-0.0053261648863554,-0.18854624032974243,0.33328479528427124
1772574144749550300,2.88655029296875,0.02663082629442215,-0.05113118514418602,0.25991687178611755
1772574144759480300,2.896480224609375,0.0426093190908432,0.10119713842868805,0.15765449404716492
1772574144769411000,2.9064111328125,0.03728315606713295,0.23648172616958618,0.05219641700387001
1772574144779341000,2.916341064453125,0.01171756349503994,0.316241055727005,-0.03408745676279068
1772574144789283600,2.92628369140625,-0.02023942768573761,0.34180665016174316,-0.08628387749195099
1772574144799215000,2.936215087890625,-0.03941362351179123,0.3268933892250061,-0.0958709716796875
1772574144809140200,2.94614013671875,-0.05006595328450203,0.2854824364185333,-0.05006595328450203
1772574144819071000,2.956071044921875,-0.07350108027458191,0.2023942768573761,0.01917419396340847
1772574144829003500,2.96600341796875,-0.11930610239505768,0.07669677585363388,0.07243584841489792
1772574144838934500,2.9759345703125,-0.17789392173290253,-0.04367455467581749,0.1278279572725296
1772574144848866000,2.985865966796875,-0.25032976269721985,-0.11504516750574112,0.18322007358074188
1772574144858797300,2.99579736328125,-0.32050198316574097,-0.1810896098613739,0.191741943359375
1772574144868748500,3.00574853515625,-0.3790898025035858,-0.275895357131958,0.13315412402153015
1772574144878681600,3.015681640625,-0.44939517974853516,-0.3620460629463196,0.01917419396340847
1772574144888582700,3.025582763671875,-0.5442008972167969,-0.4014596939086914,-0.14167599380016327
1772574144898512400,3.035512451171875,-0.6464632749557495,-0.40572062134742737,-0.34074142575263977
1772574144908467000,3.045467041015625,-0.7284862399101257,-0.39613354206085205,-0.5186353325843811
1772574144918399200,3.055399169921875,-0.764704167842865,-0.3684374690055847,-0.6102453470230103
1772574144928314400,3.065314453125,-0.7519213557243347,-0.2854824364185333,-0.5836145281791687
1772574144938244900,3.075244873046875,-0.7018554210662842,-0.18854624032974243,-0.4568518102169037
1772574144948179500,3.085179443359375,-0.6368761658668518,-0.1267627328634262,-0.2780258059501648
1772574144958110700,3.09511083984375,-0.5420704483985901,-0.03728315606713295,-0.03621792420744896
1772574144968069000,3.105069091796875,-0.43980807065963745,-0.01704372838139534,0.1928071826696396
1772574144978003000,3.1150029296875,-0.3609808385372162,-0.12143656611442566,0.3599156141281128
1772574144987935500,3.124935546875,-0.3066539466381073,-0.2556559145450592,0.4866783320903778
1772574144997869000,3.134869140625,-0.2780258059501648,-0.3695026934146881,0.5761579275131226
1772574145007794400,3.14479443359375,-0.2673735022544861,-0.46004751324653625,0.618767261505127
1772574145017727200,3.154727294921875,-0.2790910601615906,-0.535679042339325,0.6038539409637451
1772574145027657700,3.16465771484375,-0.3151758313179016,-0.5782883763313293,0.5335485935211182
1772574145037590300,3.17459033203125,-0.36311131715774536,-0.5782883763313293,0.41743817925453186
1772574145047519500,3.18451953125,-0.4014596939086914,-0.550592303276062,0.27269965410232544
1772574145057451800,3.19445166015625,-0.41850343346595764,-0.4973306655883789,0.1374150663614273
1772574145067382300,3.20438232421875,-0.41743817925453186,-0.4227643609046936,0.04580501839518547
1772574145077314600,3.214314453125,-0.3940030634403229,-0.3471328020095825,0.012782796286046505
1772574145087243000,3.224242919921875,-0.3609808385372162,-0.2854824364185333,0.02236989326775074
1772574145097174800,3.2341748046875,-0.335415244102478,-0.23648172616958618,0.03941362351179123
1772574145107106600,3.2441064453125,-0.3173062801361084,-0.18428531289100647,0.05645735189318657
1772574145117038300,3.254038330078125,-0.30984964966773987,-0.1395455300807953,0.0852186381816864
1772574145126971400,3.263971435546875,-0.31198012828826904,-0.15232832729816437,0.10758853703737259
1772574145136903200,3.273903076171875,-0.3173062801361084,-0.24074266850948334,0.10545806586742401
1772574145146833400,3.28383349609375,-0.3087844252586365,-0.36311131715774536,0.06604444980621338
1772574145156765200,3.29376513671875,-0.2854824364185333,-0.44087332487106323,0.0159784946590662
1772574145166730000,3.30372998046875,-0.24926452338695526,-0.40891632437705994,-0.04154408723115921
1772574145176665000,3.3136650390625,-0.191741943359375,-0.2556559145450592,-0.12356702983379364
1772574145186582300,3.323582275390625,-0.12356702983379364,0.0021304660476744175,-0.22582940757274628
1772574145196515600,3.333515625,-0.0426093190908432,0.32156720757484436,-0.33008909225463867
1772574145206437600,3.343437744140625,0.04687025398015976,0.6006582975387573,-0.423829585313797
1772574145216370000,3.353369873046875,0.11824086308479309,0.7785521745681763,-0.5005263686180115
1772574145226288400,3.363288330078125,0.14593692123889923,0.8350095152854919,-0.5431357026100159
1772574145236219100,3.37321923828125,0.13634982705116272,0.7636389136314392,-0.5548532605171204
1772574145246152400,3.38315234375,0.10119713842868805,0.5889406800270081,-0.5388747453689575
1772574145256083500,3.39308349609375,0.05432688444852829,0.36417654156684875,-0.49093925952911377
1772574145266015000,3.403014892578125,-0.0010652330238372087,0.15445879101753235,-0.4131772518157959
1772574145275946200,3.4129462890625,-0.05965305119752884,-0.0159784946590662,-0.32050198316574097
1772574145285886700,3.42288671875,-0.1288931965827942,-0.1501978635787964,-0.23009033501148224
1772574145295818800,3.43281884765625,-0.20026381313800812,-0.27163442969322205,-0.1608501821756363
1772574145305741000,3.442740966796875,-0.25139498710632324,-0.3705679476261139,-0.11078423261642456
1772574145315672000,3.452672119140625,-0.28228676319122314,-0.44087332487106323,-0.05752258375287056
1772574145325606400,3.4626064453125,-0.2854824364185333,-0.4898740351200104,0.004260932095348835
1772574145335538000,3.472537841796875,-0.26311254501342773,-0.5079829692840576,0.06604444980621338
1772574145345474800,3.482474853515625,-0.22902509570121765,-0.49093925952911377,0.11611039936542511
1772574145355406800,3.49240673828125,-0.20452474057674408,-0.40998154878616333,0.14700216054916382
1772574145365333500,3.50233349609375,-0.1928071826696396,-0.2790910601615906,0.14380645751953125
1772574145375264800,3.5122646484375,-0.18961147964000702,-0.12463226169347763,0.11291470378637314
1772574145385203200,3.522203125,-0.1906767040491104,0.01704372838139534,0.08095771074295044
1772574145395135200,3.53213525390625,-0.2023942768573761,0.13208889961242676,0.06284874677658081
1772574145405069000,3.542069091796875,-0.21730753779411316,0.1810896098613739,0.06497921794652939
1772574145415001300,3.55200146484375,-0.2236989289522171,0.1501978635787964,0.09267527610063553
1772574145424922400,3.56192236328125,-0.2119813710451126,0.09161003679037094,0.14380645751953125
1772574145434853600,3.571853515625,-0.17895914614200592,0.04154408723115921,0.22050324082374573
1772574145444791000,3.581791015625,-0.13102366030216217,0.007456631399691105,0.32476291060447693
1772574145454722600,3.59172265625,-0.05858781561255455,0.01810896210372448,0.4547213613986969
1772574145464657400,3.601657470703125,0.05113118514418602,0.10865376889705658,0.6091801524162292
1772574145474589700,3.611589599609375,0.17256775498390198,0.2013290375471115,0.7380733489990234
1772574145484517600,3.621517578125,0.24180789291858673,0.19919857382774353,0.7774869799613953
1772574145494449400,3.631449462890625,0.23648172616958618,0.15658925473690033,0.7178338766098022
1772574145504376600,3.64137646484375,0.17576344311237335,0.15445879101753235,0.5644403696060181
1772574145514307800,3.651307861328125,0.06178351491689682,0.18641577661037445,0.32263246178627014
1772574145524234000,3.66123388671875,-0.08308817446231842,0.2556559145450592,0.05006595328450203
1772574145534164700,3.671164794921875,-0.22050324082374573,0.3609808385372162,-0.2023942768573761
1772574145544099600,3.681099609375,-0.31411057710647583,0.4547213613986969,-0.423829585313797
1772574145554030800,3.69103076171875,-0.32050198316574097,0.512243926525116,-0.5718969702720642
1772574145563962400,3.70096240234375,-0.2535254657268524,0.5090482234954834,-0.6240934133529663
1772574145573893600,3.7108935546875,-0.12356702983379364,0.4877435564994812,-0.5804188251495361
1772574145583826700,3.72082666015625,0.05432688444852829,0.44832995533943176,-0.4536561071872711
1772574145593758200,3.73075830078125,0.2577863931655884,0.33115431666374207,-0.29506954550743103
1772574145603692300,3.7406923828125,0.4440690279006958,0.2247641682624817,-0.09374050796031952
1772574145613623800,3.750623779296875,0.5825493335723877,0.13208889961242676,0.11930610239505768
1772574145623536000,3.7605361328125,0.6539199352264404,-0.0053261648863554,0.28015628457069397
1772574145633465600,3.770465576171875,0.6603113412857056,-0.14167599380016327,0.3620460629463196
1772574145643419600,3.780419677734375,0.6155715584754944,-0.2226337045431137,0.3705679476261139
1772574145653351700,3.7903515625,0.5452661514282227,-0.23115555942058563,0.3173062801361084
1772574145663284000,3.800283935546875,0.4781564772129059,-0.2119813710451126,0.23115555942058563
1772574145673216000,3.810216064453125,0.4781564772129059,-0.28441721200942993,0.05113118514418602
1772574145683154700,3.82015478515625,0.5143743753433228,-0.2545906901359558,-0.10971900075674057
1772574145693087500,3.83008740234375,0.5207657814025879,-0.21837277710437775,-0.23115555942058563
1772574145703008300,3.84000830078125,0.5005263686180115,-0.252460241317749,-0.32263246178627014
1772574145712940000,3.84993994140625,0.488808810710907,-0.2854824364185333,-0.35245898365974426
1772574145722871300,3.859871337890625,0.4451342523097992,-0.2854824364185333,-0.2790910601615906
1772574145732802800,3.869802734375,0.4035901725292206,-0.3801550269126892,-0.15765449404716492
1772574145742710500,3.87971044921875,0.4419385492801666,-0.4568518102169037,-0.06817491352558136
1772574145752640000,3.889639892578125,0.4632432162761688,-0.38654643297195435,0.03408745676279068
1772574145762607400,3.899607421875,0.404655396938324,-0.32156720757484436,0.1171756312251091
1772574145772540400,3.90954052734375,0.31091487407684326,-0.32156720757484436,0.1501978635787964
1772574145782464300,3.91946435546875,0.20985090732574463,-0.3087844252586365,0.15765449404716492
1772574145792396300,3.929396240234375,0.13102366030216217,-0.3290238380432129,0.1384802907705307
1772574145802332700,3.939332763671875,0.16617634892463684,-0.381220281124115,0.04580501839518547
1772574145812265000,3.949264892578125,0.2343512624502182,-0.28335198760032654,-0.02556559257209301
1772574145822164500,3.95916455078125,0.24074266850948334,-0.2013290375471115,-0.07989247888326645
1772574145832094000,3.969093994140625,0.2641777992248535,-0.23115555942058563,-0.19493764638900757
1772574145842024000,3.97902392578125,0.28335198760032654,-0.17256775498390198,-0.26098209619522095
1772574145851953200,3.988953125,0.27056917548179626,-0.09693620353937149,-0.27269965410232544
1772574145861924600,3.998924560546875,0.3173062801361084,-0.04793548583984375,-0.3151758313179016
1772574145871858200,4.008858154296875,0.3705679476261139,0.15445879101753235,-0.34074142575263977
1772574145881753900,4.01875390625,0.34500235319137573,0.4461994767189026,-0.316241055727005
1772574145891683600,4.02868359375,0.3268933892250061,0.6081148982048035,-0.2982652485370636
1772574145901649400,4.0386494140625,0.34180665016174316,0.680550754070282,-0.28122150897979736
1772574145911582700,4.048582763671875,0.3577851355075836,0.6943987607955933,-0.24074266850948334
1772574145921505500,4.058505615234375,0.3620460629463196,0.596397340297699,-0.19387240707874298
1772574145931438000,4.06843798828125,0.35565468668937683,0.423829585313797,-0.1384802907705307
1772574145941375200,4.078375244140625,0.335415244102478,0.256721168756485,-0.0852186381816864
1772574145951308000,4.08830810546875,0.3066539466381073,0.14061075448989868,-0.04154408723115921
1772574145961211600,4.098211669921875,0.2748301327228546,0.18748101592063904,-0.0532616525888443
1772574145971141600,4.1081416015625,0.24926452338695526,0.33328479528427124,-0.11824086308479309
1772574145981079600,4.11807958984375,0.23009033501148224,0.3183715343475342,-0.10545806586742401
1772574145991010300,4.12801025390625,0.2034595012664795,0.22689463198184967,-0.08415340632200241
1772574146000956400,4.137956298828125,0.17469821870326996,0.14167599380016327,-0.08308817446231842
1772574146010888700,4.147888671875,0.15339355170726776,0.05645735189318657,-0.06497921794652939
1772574146020800000,4.157800048828125,0.14380645751953125,-0.01917419396340847,-0.04154408723115921
1772574146030730000,4.16772998046875,0.12143656611442566,-0.08202294260263443,-0.02663082629442215
1772574146040668400,4.17766845703125,0.09054480493068695,-0.13208889961242676,-0.01491326279938221
1772574146050599400,4.187599365234375,0.07350108027458191,-0.16617634892463684,-0.0063913981430232525
1772574146060530400,4.197530517578125,0.08308817446231842,-0.16404588520526886,0.0053261648863554
1772574146070461400,4.20746142578125,0.10226237028837204,-0.1288931965827942,0.02343512699007988
1772574146080395000,4.21739501953125,0.10545806586742401,-0.06497921794652939,0.03728315606713295
1772574146090326000,4.227325927734375,0.07563154399394989,0.03515268862247467,0.03089175745844841
1772574146100252700,4.237252685546875,0.01384802907705307,0.1480673849582672,0.0106523297727108
1772574146110183400,4.247183349609375,-0.0745663121342659,0.2588516175746918,-0.004260932095348835
1772574146120119300,4.257119384765625,-0.16830681264400482,0.3279586136341095,-0.0021304660476744175
1772574146130050600,4.267050537109375,-0.2343512624502182,0.31304535269737244,0.02450035884976387
1772574146139984000,4.27698388671875,-0.2354165017604828,0.20665520429611206,0.08095771074295044
1772574146149915400,4.286915283203125,-0.16724158823490143,0.05006595328450203,0.17256775498390198
1772574146159862500,4.296862548828125,-0.05645735189318657,-0.1065233051776886,0.30359140038490295
1772574146169795600,4.306795654296875,0.04900071769952774,-0.22902509570121765,0.44300377368927
1772574146179728100,4.31672802734375,0.09374050796031952,-0.335415244102478,0.5324833393096924
1772574146189661200,4.3266611328125,0.05219641700387001,-0.35352420806884766,0.5580489635467529
1772574146199593200,4.33659326171875,-0.02769605815410614,-0.22156846523284912,0.5378095507621765
1772574146209526000,4.346526123046875,-0.10439283400774002,-0.04154408723115921,0.45046040415763855
1772574146219453400,4.356453369140625,-0.17682868242263794,0.07350108027458191,0.26204732060432434
1772574146229350100,4.36635009765625,-0.2450035959482193,0.12463226169347763,-0.0031956990715116262
1772574146249249800,4.386249755859375,-0.3460675776004791,0.0426093190908432,-0.5228962898254395
1772574146259185400,4.396185302734375,-0.3481980562210083,-0.0745663121342659,-0.6400718688964844
1772574146269116200,4.4061162109375,-0.3077192008495331,-0.17895914614200592,-0.6081148982048035
1772574146279051500,4.416051513671875,-0.2588516175746918,-0.23967742919921875,-0.4355471432209015
1772574146288980700,4.425980712890625,-0.20665520429611206,-0.2226337045431137,-0.16404588520526886
1772574146298915600,4.43591552734375,-0.17469821870326996,-0.19387240707874298,0.12463226169347763
1772574146308825900,4.445825927734375,-0.16298064589500427,-0.14061075448989868,0.3599156141281128
1772574146318758000,4.4557578125,-0.15552401542663574,0.004260932095348835,0.4994611442089081
1772574146328705000,4.465705078125,-0.16404588520526886,0.18535055220127106,0.503722071647644
1772574146338638800,4.475638916015625,-0.19493764638900757,0.30252617597579956,0.38548120856285095
1772574146348545000,4.485544921875,-0.24713405966758728,0.31411057710647583,0.21517707407474518
1772574146358476000,4.49547607421875,-0.3194367587566376,0.23222079873085022,0.0426093190908432
1772574146368431900,4.505431884765625,-0.400394469499588,0.09267527610063553,-0.11930610239505768
1772574146378365200,4.515365234375,-0.4664389193058014,-0.03621792420744896,-0.256721168756485
1772574146388304400,4.525304443359375,-0.4973306655883789,-0.09480573982000351,-0.3567199110984802
1772574146398238500,4.535238525390625,-0.503722071647644,-0.10865376889705658,-0.41956865787506104
1772574146408158200,4.545158203125,-0.4962654411792755,-0.11611039936542511,-0.4451342523097992
1772574146418090800,4.5550908203125,-0.49093925952911377,-0.12569749355316162,-0.4248948097229004
1772574146428023300,4.565023193359375,-0.4898740351200104,-0.12250179797410965,-0.35458943247795105
1772574146437955800,4.574955810546875,-0.47176507115364075,-0.10226237028837204,-0.2247641682624817
1772574146447887600,4.5848876953125,-0.4461994767189026,-0.09693620353937149,-0.07776200771331787
1772574146457820000,4.59481982421875,-0.4312862157821655,-0.12356702983379364,0.0426093190908432
1772574146467747300,4.604747314453125,-0.43874284625053406,-0.1704372763633728,0.11291470378637314
1772574146477679000,4.61467919921875,-0.4632432162761688,-0.23009033501148224,0.13315412402153015
1772574146487610600,4.624610595703125,-0.5047873258590698,-0.28015628457069397,0.10865376889705658
1772574146497542700,4.634542724609375,-0.5676360726356506,-0.2961347699165344,0.04687025398015976
1772574146507472400,4.644472412109375,-0.6390066742897034,-0.2673735022544861,-0.03728315606713295
1772574146517404200,4.654404052734375,-0.7029206156730652,-0.20026381313800812,-0.12569749355316162
1772574146527341600,4.664341552734375,-0.7391385436058044,-0.1278279572725296,-0.20878566801548004
1772574146537273900,4.67427392578125,-0.7444647550582886,-0.08095771074295044,-0.27376487851142883
1772574146547220000,4.684219970703125,-0.7220948338508606,-0.0852186381816864,-0.3194367587566376
1772574146557153800,4.69415380859375,-0.680550754070282,-0.12250179797410965,-0.33435001969337463
1772574146567039200,4.704039306640625,-0.6315500140190125,-0.17363297939300537,-0.316241055727005
1772574146576968200,4.71396826171875,-0.5793536305427551,-0.23009033501148224,-0.2748301327228546
1772574146586934500,4.7239345703125,-0.5335485935211182,-0.27269965410232544,-0.21624229848384857
1772574146596867000,4.7338671875,-0.5111786723136902,-0.29506954550743103,-0.1491326242685318
1772574146606785500,4.74378564453125,-0.4973306655883789,-0.29506954550743103,-0.0958709716796875
1772574146616716800,4.753716796875,-0.48135218024253845,-0.2876129150390625,-0.06497921794652939
1772574146626652400,4.76365234375,-0.4568518102169037,-0.2790910601615906,-0.05432688444852829
1772574146636584200,4.773584228515625,-0.423829585313797,-0.2780258059501648,-0.05965305119752884
1772574146646495500,4.78349560546875,-0.38654643297195435,-0.2876129150390625,-0.06604444980621338
1772574146656425000,4.793425048828125,-0.3460675776004791,-0.2886781394481659,-0.06497921794652939
1772574146666370600,4.80337060546875,-0.30984964966773987,-0.2556559145450592,-0.04367455467581749
1772574146676301800,4.8133017578125,-0.28122150897979736,-0.19919857382774353,-0.0010652330238372087
1772574146686223400,4.823223388671875,-0.2545906901359558,-0.14167599380016327,0.05752258375287056
1772574146696153600,4.833153564453125,-0.2236989289522171,-0.0745663121342659,0.13208889961242676
1772574146706114800,4.84311474609375,-0.20558997988700867,0.0106523297727108,0.20878566801548004
1772574146716048400,4.85304833984375,-0.1928071826696396,0.04047885537147522,0.26204732060432434
1772574146725973200,4.86297314453125,-0.17256775498390198,0.0021304660476744175,0.2865476906299591
1772574146735905800,4.87290576171875,-0.15339355170726776,-0.07243584841489792,0.2972000241279602
1772574146745821400,4.882821533203125,-0.14380645751953125,-0.16191542148590088,0.29506954550743103
1772574146755752400,4.89275244140625,-0.14167599380016327,-0.23648172616958618,0.2780258059501648
1772574146765697300,4.902697265625,-0.1374150663614273,-0.2897433936595917,0.2577863931655884
1772574146775629300,4.91262939453125,-0.13528458774089813,-0.33435001969337463,0.25032976269721985
1772574146785561000,4.92256103515625,-0.11184946447610855,-0.3492632806301117,0.275895357131958
1772574146795493000,4.9324931640625,-0.05539211630821228,-0.28228676319122314,0.3513937294483185
1772574146805434600,4.9424345703125,0.03834838792681694,-0.07669677585363388,0.4877435564994812
1772574146815367700,4.95236767578125,0.13634982705116272,0.1065233051776886,0.6134410500526428
1772574146825301200,4.96230126953125,0.18961147964000702,0.13634982705116272,0.6613765358924866
1772574146835234600,4.972234619140625,0.1821548491716385,0.10971900075674057,0.6645722389221191
1772574146845152300,4.98215234375,0.1491326242685318,0.08841434121131897,0.6592460870742798
1772574146855083800,4.992083740234375,0.10119713842868805,0.05858781561255455,0.611310601234436
1772574146865015600,5.002015625,0.03515268862247467,0.05432688444852829,0.4994611442089081
1772574146874947000,5.011947021484375,-0.0426093190908432,0.10332760214805603,0.33115431666374207
1772574146884851700,5.021851806640625,-0.10119713842868805,0.20985090732574463,0.12463226169347763
1772574146894780700,5.03178076171875,-0.10226237028837204,0.37695932388305664,-0.10439283400774002
1772574146904745700,5.041745849609375,-0.01171756349503994,0.5324833393096924,-0.3386109471321106
1772574146914678300,5.05167822265625,0.15339355170726776,0.6379414200782776,-0.5207657814025879
1772574146924607700,5.061607666015625,0.3513937294483185,0.7093120217323303,-0.6038539409637451
1772574146934540000,5.0715400390625,0.549527108669281,0.7700303196907043,-0.5772231221199036
1772574146944444000,5.08144384765625,0.7252905368804932,0.8392704725265503,-0.4579170346260071
1772574146954373000,5.091373046875,0.872292697429657,0.8914669156074524,-0.28015628457069397
1772574146964334600,5.10133447265625,0.9573782086372375,0.8754884004592896,-0.08841434121131897
1772574146974267400,5.111267333984375,0.9584434032440186,0.7902697324752808,0.05539211630821228
1772574146984191200,5.121191162109375,0.8765535950660706,0.6443328261375427,0.12037133425474167
1772574146994122800,5.131122802734375,0.7487256526947021,0.43980807065963745,0.11291470378637314
1772574147004067300,5.1410673828125,0.6177020072937012,0.2023942768573761,0.05539211630821228
1772574147014000400,5.15100048828125,0.5111786723136902,-0.0319569893181324,-0.01704372838139534
1772574147023922700,5.160922607421875,0.45046040415763855,-0.22902509570121765,-0.06604444980621338
1772574147033854700,5.170854736328125,0.4451342523097992,-0.35245898365974426,-0.09693620353937149
1772574147043782100,5.1807822265625,0.4877435564994812,-0.40998154878616333,-0.11078423261642456
1772574147053713700,5.190713623046875,0.5463314056396484,-0.39613354206085205,-0.10013190656900406
1772574147063652600,5.200652587890625,0.5836145281791687,-0.299330472946167,-0.05645735189318657
1772574147073585000,5.2105849609375,0.5846797823905945,-0.17576344311237335,-0.01384802907705307
1772574147083522600,5.2205224609375,0.5612446665763855,-0.07882724702358246,0.01171756349503994
1772574147093455400,5.230455322265625,0.5282224416732788,0.0106523297727108,0.02343512699007988
1772574147103374300,5.240374267578125,0.4866783320903778,0.10013190656900406,0.0213046595454216
1772574147113305900,5.250305908203125,0.4344819188117981,0.14167599380016327,-0.0010652330238372087
1772574147123236000,5.260236083984375,0.3780245780944824,0.1288931965827942,-0.0319569893181324
1772574147133167400,5.27016748046875,0.34074142575263977,0.10865376889705658,-0.05965305119752884
1772574147143100700,5.2801005859375,0.34180665016174316,0.11930610239505768,-0.08415340632200241
1772574147153032200,5.2900322265625,0.3673722445964813,0.1384802907705307,-0.1065233051776886
1772574147162975200,5.299975341796875,0.39826399087905884,0.14061075448989868,-0.10971900075674057
1772574147172908000,5.309907958984375,0.4344819188117981,0.1278279572725296,-0.08734910935163498
1772574147182814700,5.319814697265625,0.46963462233543396,0.09267527610063553,-0.05113118514418602
1772574147192745000,5.329744873046875,0.484547883272171,0.05752258375287056,-0.004260932095348835
1772574147202666800,5.339666748046875,0.49413496255874634,0.05006595328450203,0.05113118514418602
1772574147212596000,5.349595947265625,0.5058525204658508,0.07243584841489792,0.09267527610063553
1772574147222552000,5.359552001953125,0.5015916228294373,0.11824086308479309,0.09906667470932007
1772574147232484000,5.369484130859375,0.4749607741832733,0.16298064589500427,0.07350108027458191
1772574147242428000,5.379427978515625,0.42702528834342957,0.20878566801548004,0.0319569893181324
1772574147252361000,5.38936083984375,0.3684374690055847,0.26311254501342773,-0.01171756349503994
1772574147262254800,5.3992548828125,0.3194367587566376,0.3183715343475342,-0.04687025398015976
1772574147272184000,5.40918408203125,0.29187384247779846,0.3577851355075836,-0.0745663121342659
1772574147282121700,5.419121826171875,0.2769605815410614,0.3908073604106903,-0.10013190656900406
1772574147292051700,5.4290517578125,0.2684387266635895,0.39932921528816223,-0.1267627328634262
1772574147301984300,5.438984375,0.27269965410232544,0.36311131715774536,-0.16191542148590088
1772574147311914500,5.44891455078125,0.2790910601615906,0.2790910601615906,-0.2023942768573761
1772574147321850400,5.458850341796875,0.2769605815410614,0.17256775498390198,-0.24074266850948334
1772574147331781000,5.468781005859375,0.28015628457069397,0.07030537724494934,-0.2577863931655884
1772574147341709000,5.478708984375,0.2886781394481659,0.01491326279938221,-0.24180789291858673
1772574147351639600,5.4886396484375,0.29187384247779846,0.01491326279938221,-0.20665520429611206
1772574147361597400,5.498597412109375,0.2790910601615906,0.03515268862247467,-0.16724158823490143
1772574147371530800,5.50853076171875,0.2535254657268524,0.06710968166589737,-0.13421936333179474
1772574147381460700,5.518460693359375,0.2119813710451126,0.10865376889705658,-0.1065233051776886
1772574147391393500,5.5283935546875,0.16617634892463684,0.14593692123889923,-0.08308817446231842
1772574147401301500,5.538301513671875,0.12995843589305878,0.17789392173290253,-0.05752258375287056
1772574147411232000,5.54823193359375,0.1171756312251091,0.17682868242263794,-0.04367455467581749
1772574147421181700,5.558181640625,0.11291470378637314,0.12569749355316162,-0.04687025398015976
1772574147431114200,5.5681142578125,0.11824086308479309,0.03728315606713295,-0.06284874677658081
1772574147441075700,5.57807568359375,0.13315412402153015,-0.04367455467581749,-0.07030537724494934
1772574147451011000,5.588010986328125,0.14700216054916382,-0.09374050796031952,-0.05645735189318657
1772574147460916000,5.597916015625,0.16191542148590088,-0.13634982705116272,-0.01704372838139534
1772574147470848500,5.6078486328125,0.17363297939300537,-0.16511112451553345,0.03834838792681694
1772574147480788000,5.6177880859375,0.16191542148590088,-0.19600287079811096,0.08415340632200241
1772574147490721000,5.627720947265625,0.10439283400774002,-0.24074266850948334,0.09906667470932007
1772574147500637700,5.6376376953125,-0.00852186419069767,-0.19600287079811096,0.09906667470932007
1772574147510569000,5.64756884765625,-0.1597849577665329,-0.07882724702358246,0.08628387749195099
1772574147520500700,5.657500732421875,-0.3077192008495331,0.0063913981430232525,0.03515268862247467
1772574147530432300,5.667432373046875,-0.4344819188117981,0.01171756349503994,-0.06710968166589737
1772574147540365600,5.677365478515625,-0.5399399995803833,-0.06497921794652939,-0.2141118347644806
1772574147550297300,5.68729736328125,-0.6027887463569641,-0.2226337045431137,-0.39613354206085205
1772574147560241400,5.697241455078125,-0.618767261505127,-0.4312862157821655,-0.5889406800270081
1772574147570174500,5.707174560546875,-0.587875485420227,-0.6166367530822754,-0.7497909069061279
1772574147580094500,5.717094482421875,-0.5143743753433228,-0.6943987607955933,-0.8179658055305481
1772574147590026000,5.72702587890625,-0.40998154878616333,-0.611310601234436,-0.7678998708724976
1772574147599960800,5.7369609375,-0.30359140038490295,-0.3897421360015869,-0.6006582975387573
1772574147609892900,5.746892822265625,-0.22582940757274628,-0.10865376889705658,-0.339676171541214
1772574147619823000,5.756822998046875,-0.1928071826696396,0.13528458774089813,-0.03941362351179123
1772574147629755000,5.7667548828125,-0.2013290375471115,0.29400432109832764,0.21730753779411316
1772574147639683600,5.77668359375,-0.21517707407474518,0.35352420806884766,0.38548120856285095
1772574147649615000,5.786614990234375,-0.22156846523284912,0.34393709897994995,0.48028692603111267
1772574147659545000,5.796545166015625,-0.22582940757274628,0.2535254657268524,0.5165048837661743
1772574147669476400,5.806476318359375,-0.22902509570121765,0.08202294260263443,0.5015916228294373
1772574147679408400,5.816408447265625,-0.24180789291858673,-0.11930610239505768,0.43874284625053406
1772574147689339600,5.826339599609375,-0.2652430236339569,-0.28335198760032654,0.3258281648159027
1772574147699273500,5.8362734375,-0.2865476906299591,-0.38761165738105774,0.1597849577665329
1772574147709205000,5.846205078125,-0.31198012828826904,-0.43767762184143066,-0.03515268862247467
1772574147719136000,5.856135986328125,-0.339676171541214,-0.4451342523097992,-0.21730753779411316
1772574147729067500,5.866067626953125,-0.3513937294483185,-0.39719876646995544,-0.3492632806301117
1772574147739004200,5.876004150390625,-0.3375457227230072,-0.2961347699165344,-0.4153077304363251
1772574147748936200,5.885936279296875,-0.3183715343475342,-0.16298064589500427,-0.40572062134742737
1772574147758864100,5.895864013671875,-0.3055887222290039,-0.0319569893181324,-0.3173062801361084
1772574147768796000,5.9057958984375,-0.3077192008495331,0.05539211630821228,-0.1693720519542694
1772574147778728200,5.915728271484375,-0.32369768619537354,0.06604444980621338,0.004260932095348835
1772574147788660000,5.925659912109375,-0.3386109471321106,0.0031956990715116262,0.17789392173290253
1772574147798591700,5.935591796875,-0.34287187457084656,-0.08628387749195099,0.31198012828826904
1772574147808523500,5.9455234375,-0.339676171541214,-0.1693720519542694,0.3897421360015869
1772574147818432800,5.955432861328125,-0.3609808385372162,-0.2439383566379547,0.40572062134742737
1772574147828362200,5.9653623046875,-0.40785109996795654,-0.3087844252586365,0.3673722445964813
1772574147838321700,5.97532177734375,-0.4579170346260071,-0.34074142575263977,0.2886781394481659
1772574147848254000,5.98525390625,-0.4898740351200104,-0.3151758313179016,0.17576344311237335
1772574147858199600,5.995199462890625,-0.49093925952911377,-0.2577863931655884,0.04154408723115921
1772574147868133400,6.00513330078125,-0.45898228883743286,-0.18428531289100647,-0.09054480493068695
1772574147878017000,6.01501708984375,-0.41743817925453186,-0.11184946447610855,-0.19600287079811096
1772574147887945700,6.02494580078125,-0.37589409947395325,-0.05432688444852829,-0.2641777992248535
1772574147897915000,6.034914794921875,-0.33008909225463867,-0.01171756349503994,-0.28441721200942993
1772574147907847700,6.04484765625,-0.28228676319122314,0.0213046595454216,-0.2535254657268524
1772574147917770200,6.054770263671875,-0.24074266850948334,0.02982652559876442,-0.1810896098613739
1772574147927702000,6.064701904296875,-0.20772044360637665,0.01491326279938221,-0.0745663121342659
1772574147937612800,6.07461279296875,-0.191741943359375,-0.0159784946590662,0.03621792420744896
1772574147947542500,6.08454248046875,-0.17789392173290253,-0.07030537724494934,0.1288931965827942
1772574147957495600,6.09449560546875,-0.15552401542663574,-0.1384802907705307,0.19813334941864014
1772574147967427600,6.104427490234375,-0.13315412402153015,-0.191741943359375,0.24713405966758728
1772574147977364000,6.114364013671875,-0.11611039936542511,-0.2119813710451126,0.2769605815410614
1772574147987296300,6.124296142578125,-0.1065233051776886,-0.19813334941864014,0.2886781394481659
1772574147997231400,6.1342314453125,-0.10226237028837204,-0.15232832729816437,0.2854824364185333
1772574148007164200,6.1441640625,-0.09693620353937149,-0.06924014538526535,0.2577863931655884
1772574148017083600,6.154083740234375,-0.08947957307100296,0.02556559257209301,0.2034595012664795
1772574148027015200,6.16401513671875,-0.09161003679037094,0.09480573982000351,0.14061075448989868
1772574148036951300,6.173951416015625,-0.09480573982000351,0.14487169682979584,0.09267527610063553
1772574148046883300,6.18388330078125,-0.09161003679037094,0.1693720519542694,0.0639139786362648
1772574148056813600,6.1938134765625,-0.09054480493068695,0.17256775498390198,0.0532616525888443
1772574148066745300,6.203745361328125,-0.09267527610063553,0.1715025156736374,0.05752258375287056
1772574148076675000,6.213675048828125,-0.10013190656900406,0.19706811010837555,0.09374050796031952
1772574148086606600,6.223606689453125,-0.11504516750574112,0.2769605815410614,0.17363297939300537
1772574148096539100,6.2335390625,-0.1587197184562683,0.3940030634403229,0.28122150897979736
1772574148106471000,6.243470947265625,-0.23009033501148224,0.5623098611831665,0.40998154878616333
1772574148116406500,6.253406494140625,-0.2961347699165344,0.8850755095481873,0.5750926733016968
1772574148126338600,6.263338623046875,-0.316241055727005,1.2247517108917236,0.7370080947875977
1772574148136267800,6.273267822265625,-0.29293906688690186,1.3440577983856201,0.810509204864502
1772574148146199600,6.283199462890625,-0.29080861806869507,1.267361044883728,0.7806826233863831
1772574148156109000,6.293109130859375,-0.3279586136341095,1.1022498607635498,0.6752246022224426
1772574148166038800,6.303038818359375,-0.38761165738105774,0.8509880304336548,0.5015916228294373
1772574148175992600,6.31299267578125,-0.4643084406852722,0.5282224416732788,0.2790910601615906
1772574148185924600,6.322924560546875,-0.5527228116989136,0.23009033501148224,0.03089175745844841
1772574148195862300,6.3328623046875,-0.6166367530822754,0.03408745676279068,-0.191741943359375
1772574148205794800,6.342794921875,-0.6102453470230103,-0.05965305119752884,-0.35458943247795105
1772574148215698200,6.3526982421875,-0.4962654411792755,-0.07669677585363388,-0.43661239743232727
1772574148225628000,6.3626279296875,-0.2865476906299591,-0.05219641700387001,-0.44300377368927
1772574148235582000,6.37258203125,-0.02876129187643528,-0.0010652330238372087,-0.3790898025035858
1772574148245514000,6.382513916015625,0.23648172616958618,0.1065233051776886,-0.24074266850948334
1772574148255447600,6.392447509765625,0.48028692603111267,0.23754696547985077,-0.05539211630821228
1772574148265379800,6.4023798828125,0.6667027473449707,0.335415244102478,0.12143656611442566
1772574148275307800,6.412307861328125,0.7870740294456482,0.36417654156684875,0.24819929897785187
1772574148285239600,6.422239501953125,0.82648766040802,0.31198012828826904,0.3173062801361084
1772574148305104100,6.442104248046875,0.7306166887283325,0.07137060910463333,0.299330472946167
1772574148315033600,6.45203369140625,0.6741593480110168,-0.08095771074295044,0.2130466103553772
1772574148324965000,6.461965087890625,0.6326152682304382,-0.21517707407474518,0.08947957307100296
1772574148334898400,6.4718984375,0.6006582975387573,-0.3151758313179016,-0.04367455467581749
1772574148344830200,6.481830322265625,0.5665708184242249,-0.3940030634403229,-0.17789392173290253
1772574148354783700,6.49178369140625,0.5367442965507507,-0.4312862157821655,-0.29293906688690186
1772574148364717800,6.5017177734375,0.5218310356140137,-0.4110468029975891,-0.37589409947395325
1772574148374609200,6.511609130859375,0.5058525204658508,-0.35458943247795105,-0.41637295484542847
1772574148384539000,6.521538818359375,0.49306973814964294,-0.27163442969322205,-0.41743817925453186
1772574148394502000,6.531501953125,0.48135218024253845,-0.18535055220127106,-0.39506828784942627
1772574148404435000,6.54143505859375,0.4536561071872711,-0.11291470378637314,-0.3492632806301117
1772574148414338300,6.55133837890625,0.41637295484542847,-0.05539211630821228,-0.28335198760032654
1772574148424268300,6.561268310546875,0.3801550269126892,-0.02450035884976387,-0.2119813710451126
1772574148434201600,6.57120166015625,0.35245898365974426,-0.02343512699007988,-0.1608501821756363
1772574148444132000,6.581132080078125,0.3492632806301117,-0.03621792420744896,-0.13421936333179474
1772574148454059300,6.591059326171875,0.37482887506484985,-0.02450035884976387,-0.12995843589305878
1772574148463989200,6.6009892578125,0.4110468029975891,0.01704372838139534,-0.13634982705116272
1772574148473924600,6.610924560546875,0.44832995533943176,0.06178351491689682,-0.14593692123889923
1772574148483855400,6.62085546875,0.48241740465164185,0.11397993564605713,-0.15339355170726776
1772574148493782300,6.6307822265625,0.503722071647644,0.1800243854522705,-0.14380645751953125
1772574148503712500,6.64071240234375,0.5079829692840576,0.25032976269721985,-0.12569749355316162
1772574148513647400,6.6506474609375,0.5058525204658508,0.3066539466381073,-0.10119713842868805
1772574148523578000,6.660578125,0.4983958899974823,0.3460675776004791,-0.07137060910463333
1772574148533512700,6.6705126953125,0.48241740465164185,0.3567199110984802,-0.0426093190908432
1772574148543443700,6.680443603515625,0.4579170346260071,0.33435001969337463,-0.01171756349503994
1772574148553396200,6.690396240234375,0.42596006393432617,0.2876129150390625,0.02556559257209301
1772574148563329500,6.70032958984375,0.3929378390312195,0.2236989289522171,0.05752258375287056
1772574148573258500,6.710258544921875,0.35352420806884766,0.17682868242263794,0.08095771074295044
1772574148583191300,6.72019140625,0.316241055727005,0.15765449404716492,0.0958709716796875
1772574148593107700,6.730107666015625,0.2897433936595917,0.16830681264400482,0.10013190656900406
1772574148603038700,6.740038818359375,0.2865476906299591,0.1906767040491104,0.07989247888326645
1772574148612971800,6.7499716796875,0.299330472946167,0.19600287079811096,0.03728315606713295
1772574148622903000,6.759903076171875,0.32156720757484436,0.1693720519542694,-0.0213046595454216
1772574148632858400,6.7698583984375,0.34074142575263977,0.11824086308479309,-0.07350108027458191
1772574148642792200,6.779792236328125,0.3471328020095825,0.05006595328450203,-0.09267527610063553
1772574148652718600,6.789718505859375,0.3503285050392151,-0.02236989326775074,-0.0852186381816864
1772574148662651600,6.799651611328125,0.34074142575263977,-0.08202294260263443,-0.0639139786362648
1772574148672574700,6.80957470703125,0.30984964966773987,-0.11078423261642456,-0.04154408723115921
1772574148682506500,6.819506591796875,0.2577863931655884,-0.10013190656900406,-0.02343512699007988
1772574148692431600,6.829431640625,0.20452474057674408,-0.05752258375287056,-0.0213046595454216
1772574148702363000,6.83936279296875,0.1608501821756363,0.01171756349503994,-0.02343512699007988
1772574148712305000,6.849304931640625,0.12250179797410965,0.08415340632200241,-0.01917419396340847
1772574148722237200,6.8592373046875,0.08734910935163498,0.11184946447610855,-0.0021304660476744175
1772574148732171800,6.869171875,0.06284874677658081,0.08202294260263443,0.02450035884976387
1772574148742104600,6.8791044921875,0.05432688444852829,0.03408745676279068,0.05219641700387001
1772574148752042500,6.88904248046875,0.05752258375287056,-0.0053261648863554,0.07563154399394989
1772574148761975800,6.898975830078125,0.06497921794652939,-0.0159784946590662,0.09480573982000351
1772574148771891700,6.9088916015625,0.08628387749195099,-0.01810896210372448,0.11291470378637314
1772574148781823200,6.9188232421875,0.12356702983379364,-0.04154408723115921,0.13528458774089813
1772574148791757800,6.9287578125,0.1597849577665329,-0.0639139786362648,0.1821548491716385
1772574148801689300,6.938689453125,0.1800243854522705,-0.05752258375287056,0.25991687178611755
1772574148811598300,6.948598388671875,0.1810896098613739,-0.11291470378637314,0.30359140038490295
1772574148821527800,6.95852783203125,0.1501978635787964,-0.2034595012664795,0.28441721200942993
1772574148831483000,6.96848291015625,0.09054480493068695,-0.1597849577665329,0.2652430236339569
1772574148841414700,6.97841455078125,0.01704372838139534,-0.00852186419069767,0.2556559145450592
1772574148851348000,6.988347900390625,-0.05645735189318657,0.09054480493068695,0.20452474057674408
1772574148861280000,6.998280029296875,-0.13102366030216217,0.1065233051776886,0.09374050796031952
1772574148871210500,7.00821044921875,-0.20878566801548004,0.07137060910463333,-0.06178351491689682
1772574148881142500,7.018142578125,-0.2769605815410614,-0.0021304660476744175,-0.23754696547985077
1772574148891072500,7.028072509765625,-0.30984964966773987,-0.10119713842868805,-0.3929378390312195
1772574148901004300,7.03800439453125,-0.29400432109832764,-0.17256775498390198,-0.4664389193058014
1772574148910949400,7.047949462890625,-0.23967742919921875,-0.19706811010837555,-0.41743817925453186
1772574148920882400,7.05788232421875,-0.1587197184562683,-0.18641577661037445,-0.2460688352584839
1772574148930814700,7.067814697265625,-0.06604444980621338,-0.1395455300807953,0.01917419396340847
1772574148940747800,7.077747802734375,0.01810896210372448,-0.08841434121131897,0.32369768619537354
1772574148950676200,7.08767626953125,0.06924014538526535,-0.09693620353937149,0.5900059342384338
1772574148960608800,7.09760888671875,0.0745663121342659,-0.1597849577665329,0.7529866099357605
1772574148970525700,7.107525634765625,0.04367455467581749,-0.2332860380411148,0.8094439506530762
1772574148980457000,7.11745703125,0.009587096981704235,-0.28015628457069397,0.7785521745681763
1772574148990390000,7.12739013671875,-0.01384802907705307,-0.3077192008495331,0.6752246022224426
1772574149000321300,7.1373212890625,-0.02876129187643528,-0.33435001969337463,0.5207657814025879
1772574149010260500,7.147260498046875,-0.05113118514418602,-0.35245898365974426,0.335415244102478
1772574149020192300,7.157192138671875,-0.08308817446231842,-0.3471328020095825,0.13634982705116272
1772574149030119700,7.16711962890625,-0.11824086308479309,-0.3066539466381073,-0.06071828305721283
1772574149040051200,7.17705126953125,-0.15765449404716492,-0.2343512624502182,-0.2354165017604828
1772574149049978600,7.186978515625,-0.19493764638900757,-0.15765449404716492,-0.3695026934146881
1772574149059909600,7.19690966796875,-0.22689463198184967,-0.10439283400774002,-0.45152565836906433
1772574149069845000,7.206844970703125,-0.26950395107269287,-0.08947957307100296,-0.48135218024253845
1772574149079776500,7.216776611328125,-0.299330472946167,-0.10119713842868805,-0.46004751324653625
1772574149089699600,7.226699462890625,-0.31304535269737244,-0.07563154399394989,-0.3801550269126892
1772574149099630000,7.236630126953125,-0.3268933892250061,-0.03941362351179123,-0.24926452338695526
1772574149109571300,7.2465712890625,-0.3503285050392151,0.01917419396340847,-0.09800143539905548
1772574149119502800,7.2565029296875,-0.39506828784942627,0.01704372838139534,0.01810896210372448
1772574149129438200,7.266438232421875,-0.4568518102169037,-0.05432688444852829,0.08095771074295044
1772574149139370200,7.276370361328125,-0.5058525204658508,-0.1288931965827942,0.08734910935163498
1772574149149312500,7.2863125,-0.5399399995803833,-0.20026381313800812,0.03089175745844841
1772574149159245600,7.29624560546875,-0.5633751153945923,-0.23648172616958618,-0.07776200771331787
1772574149169164500,7.30616455078125,-0.5633751153945923,-0.2013290375471115,-0.2034595012664795
1772574149179096300,7.316096435546875,-0.5473966002464294,-0.1171756312251091,-0.32050198316574097
1772574149189058600,7.32605859375,-0.5399399995803833,-0.03408745676279068,-0.4142425060272217
1772574149198993200,7.3359931640625,-0.5303528904914856,0.0021304660476744175,-0.47069984674453735
1772574149208867600,7.34586767578125,-0.5111786723136902,-0.012782796286046505,-0.4792217016220093
1772574149218796300,7.35579638671875,-0.4738955497741699,-0.05645735189318657,-0.4451342523097992
1772574149228752600,7.365752685546875,-0.42915576696395874,-0.11397993564605713,-0.37695932388305664
1772574149238684000,7.375683837890625,-0.3918725848197937,-0.1693720519542694,-0.28228676319122314
1772574149248619000,7.385618896484375,-0.3609808385372162,-0.2013290375471115,-0.17469821870326996
1772574149258550800,7.39555078125,-0.3268933892250061,-0.2141118347644806,-0.05858781561255455
1772574149268480300,7.405480224609375,-0.28335198760032654,-0.22689463198184967,0.03728315606713295
1772574149278411800,7.415411865234375,-0.23009033501148224,-0.24819929897785187,0.10013190656900406
1772574149288402700,7.425402587890625,-0.1715025156736374,-0.2588516175746918,0.13634982705116272
1772574149298340400,7.43534033203125,-0.11184946447610855,-0.2343512624502182,0.15658925473690033
1772574149308212700,7.445212646484375,-0.05858781561255455,-0.1693720519542694,0.17576344311237335
1772574149318143700,7.455143798828125,-0.02236989326775074,-0.10758853703737259,0.19493764638900757
1772574149328069400,7.4650693359375,0.0010652330238372087,-0.07882724702358246,0.2119813710451126
1772574149338000000,7.474999755859375,0.01810896210372448,-0.05219641700387001,0.23009033501148224
1772574149347911200,7.4849111328125,0.01384802907705307,-0.02450035884976387,0.2460688352584839
1772574149357839600,7.494839599609375,-0.007456631399691105,-0.01810896210372448,0.25032976269721985
1772574149367802600,7.504802734375,-0.02343512699007988,-0.0319569893181324,0.2439383566379547
1772574149377734700,7.514734619140625,-0.02663082629442215,-0.05645735189318657,0.22582940757274628
1772574149387659300,7.5246591796875,-0.02769605815410614,-0.08947957307100296,0.2013290375471115
1772574149397590500,7.534590576171875,-0.01917419396340847,-0.10226237028837204,0.191741943359375
1772574149407522000,7.54452197265625,0.0031956990715116262,-0.10013190656900406,0.19813334941864014
1772574149417453300,7.554453369140625,0.03408745676279068,-0.10439283400774002,0.20772044360637665
1772574149427386000,7.56438623046875,0.08095771074295044,-0.09906667470932007,0.2141118347644806
1772574149437317600,7.574317626953125,0.14700216054916382,-0.06817491352558136,0.23009033501148224
1772574149447257300,7.58425732421875,0.22050324082374573,0.03302222490310669,0.2790910601615906
1772574149457189400,7.594189453125,0.26950395107269287,0.1288931965827942,0.33435001969337463
1772574149467115800,7.60411572265625,0.2641777992248535,0.09161003679037094,0.3194367587566376
1772574149477047600,7.614047607421875,0.1906767040491104,-0.02450035884976387,0.2354165017604828
1772574149486975000,7.62397509765625,0.04580501839518547,-0.12356702983379364,0.1288931965827942
1772574149496906200,7.63390625,-0.12143656611442566,-0.20452474057674408,0.01491326279938221
1772574149506847500,7.643847412109375,-0.2460688352584839,-0.26311254501342773,-0.11078423261642456
1772574149516779800,7.65377978515625,-0.3045234978199005,-0.2577863931655884,-0.21943800151348114
1772574149526704600,7.66370458984375,-0.2876129150390625,-0.16298064589500427,-0.29080861806869507
1772574149536636200,7.67363623046875,-0.19919857382774353,-0.00852186419069767,-0.33115431666374207
1772574149546558500,7.683558349609375,-0.05645735189318657,0.2013290375471115,-0.3588503897190094
1772574149556489000,7.693489013671875,0.12037133425474167,0.43661239743232727,-0.37376365065574646
1772574149566406700,7.70340673828125,0.29080861806869507,0.6251586079597473,-0.3833507299423218
1772574149576336000,7.7133359375,0.42596006393432617,0.7593780159950256,-0.3705679476261139
1772574149586278400,7.7232783203125,0.5367442965507507,0.8158353567123413,-0.34180665016174316
1772574149596209200,7.733209228515625,0.6304848194122314,0.7860088348388672,-0.2876129150390625
1772574149606164200,7.743164306640625,0.6890726089477539,0.7157034277915955,-0.20558997988700867
1772574149616097300,7.75309716796875,0.7146382331848145,0.5921363830566406,-0.1171756312251091
1772574149626001200,7.763001220703125,0.7114425301551819,0.43661239743232727,-0.0319569893181324
1772574149635931400,7.772931396484375,0.6848116517066956,0.2780258059501648,0.04687025398015976
1772574149645864400,7.782864501953125,0.6453980803489685,0.10865376889705658,0.11184946447610855
1772574149655794700,7.792794677734375,0.6017234921455383,-0.06178351491689682,0.1693720519542694
1772574149665759700,7.802759765625,0.5537880063056946,-0.21091613173484802,0.21837277710437775
1772574149675693800,7.81269384765625,0.5026568174362183,-0.32050198316574097,0.24287313222885132
1772574149685592000,7.822592041015625,0.45898228883743286,-0.3673722445964813,0.23648172616958618
1772574149695522300,7.832522216796875,0.43767762184143066,-0.3705679476261139,0.2013290375471115
1772574149705487600,7.842487548828125,0.43767762184143066,-0.34287187457084656,0.15552401542663574
1772574149715421700,7.852421630859375,0.44939517974853516,-0.29400432109832764,0.10971900075674057
1772574149725339600,7.862339599609375,0.4632432162761688,-0.24713405966758728,0.06178351491689682
1772574149735272000,7.87227197265625,0.4664389193058014,-0.22582940757274628,0.012782796286046505
1772574149745201400,7.882201416015625,0.44832995533943176,-0.21517707407474518,-0.02876129187643528
1772574149755133400,7.892133544921875,0.4121120274066925,-0.18748101592063904,-0.04793548583984375
1772574149765075000,7.902074951171875,0.36524176597595215,-0.14380645751953125,-0.04687025398015976
1772574149775007700,7.9120078125,0.31411057710647583,-0.07776200771331787,-0.04047885537147522
1772574149784928500,7.921928466796875,0.27056917548179626,0.004260932095348835,-0.0426093190908432
1772574149794860300,7.9318603515625,0.24180789291858673,0.07563154399394989,-0.0532616525888443
1772574149804804000,7.94180419921875,0.22902509570121765,0.16830681264400482,-0.06924014538526535
1772574149814737000,7.95173681640625,0.2439383566379547,0.2876129150390625,-0.0958709716796875
1772574149824655400,7.9616552734375,0.2897433936595917,0.39719876646995544,-0.1384802907705307
1772574149834587000,7.9715869140625,0.3460675776004791,0.46217799186706543,-0.18428531289100647
1772574149844522000,7.98152197265625,0.3908073604106903,0.4653736650943756,-0.20985090732574463
1772574149854454000,7.9914541015625,0.4216991364955902,0.41850343346595764,-0.20558997988700867
1772574149864386300,8.00138623046875,0.4334166944026947,0.3460675776004791,-0.1821548491716385
1772574149884223200,8.02122314453125,0.404655396938324,0.25991687178611755,-0.16830681264400482
1772574149894152400,8.03115234375,0.3780245780944824,0.22156846523284912,-0.19919857382774353
1772574149904112000,8.041112060546874,0.3492632806301117,0.1715025156736374,-0.2354165017604828
1772574149914044400,8.05104443359375,0.3194367587566376,0.12356702983379364,-0.2588516175746918
1772574149923976400,8.0609765625,0.2854824364185333,0.09054480493068695,-0.26098209619522095
1772574149933908500,8.070908447265625,0.24713405966758728,0.06497921794652939,-0.23648172616958618
1772574149943836700,8.080836669921876,0.2141118347644806,0.05965305119752884,-0.1800243854522705
1772574149953768400,8.0907685546875,0.18748101592063904,0.05965305119752884,-0.10332760214805603
1772574149963676400,8.100676513671875,0.1704372763633728,0.03834838792681694,-0.02663082629442215
1772574149973606000,8.11060595703125,0.16830681264400482,-0.007456631399691105,0.03834838792681694
1772574149983572500,8.120572509765625,0.1810896098613739,-0.06284874677658081,0.08415340632200241
1772574149993505800,8.130505859375,0.19600287079811096,-0.09693620353937149,0.1065233051776886
1772574150003438600,8.1404384765625,0.19706811010837555,-0.10332760214805603,0.1065233051776886
1772574150013371600,8.15037158203125,0.18748101592063904,-0.09480573982000351,0.09906667470932007
1772574150023301600,8.160301513671875,0.16191542148590088,-0.07989247888326645,0.09267527610063553
1772574150033234400,8.170234375,0.12356702983379364,-0.08628387749195099,0.0745663121342659
1772574150043166200,8.180166259765626,0.07989247888326645,-0.10971900075674057,0.05113118514418602
1772574150053098800,8.1900986328125,0.04154408723115921,-0.12037133425474167,0.03089175745844841
1772574150063022800,8.20002294921875,0.00852186419069767,-0.10545806586742401,0.02450035884976387
1772574150072954600,8.20995458984375,-0.01704372838139534,-0.0639139786362648,0.03941362351179123
1772574150082890800,8.219890869140626,-0.04580501839518547,-0.0031956990715116262,0.06924014538526535
1772574150092823000,8.229822998046876,-0.06604444980621338,0.04793548583984375,0.10971900075674057
1772574150102746400,8.239746337890624,-0.06924014538526535,0.08202294260263443,0.15552401542663574
1772574150112678000,8.249677978515624,-0.05858781561255455,0.09054480493068695,0.20452474057674408
1772574150122615300,8.259615234375,-0.03728315606713295,0.0745663121342659,0.252460241317749
1772574150132547000,8.269547119140626,-0.00852186419069767,0.05219641700387001,0.3045234978199005
1772574150142473700,8.2794736328125,0.03621792420744896,0.04047885537147522,0.35352420806884766
1772574150152405200,8.2894052734375,0.07989247888326645,-0.02023942768573761,0.3599156141281128
1772574150162331400,8.299331298828125,0.07030537724494934,-0.12569749355316162,0.3066539466381073
1772574150172262100,8.30926220703125,-0.0021304660476744175,-0.14487169682979584,0.23967742919921875
1772574150182198800,8.31919873046875,-0.09054480493068695,-0.09267527610063553,0.16724158823490143
1772574150192130300,8.32913037109375,-0.17789392173290253,-0.07882724702358246,0.05965305119752884
1772574150202066700,8.339066650390626,-0.27163442969322205,-0.11078423261642456,-0.08095771074295044
1772574150211998700,8.348998779296876,-0.3567199110984802,-0.15126308798789978,-0.2343512624502182
1772574150221867500,8.358867431640626,-0.4153077304363251,-0.19600287079811096,-0.38654643297195435
1772574150231793200,8.368793212890624,-0.43980807065963745,-0.24926452338695526,-0.5026568174362183
1772574150241760500,8.378760498046875,-0.4312862157821655,-0.29187384247779846,-0.5473966002464294
1772574150251690500,8.3886904296875,-0.4014596939086914,-0.299330472946167,-0.488808810710907
1772574150261624600,8.39862451171875,-0.3503285050392151,-0.22582940757274628,-0.31411057710647583
1772574150271554800,8.408554931640625,-0.2663082480430603,-0.09480573982000351,-0.03834838792681694
1772574150281488400,8.41848828125,-0.17256775498390198,0.0159784946590662,0.27056917548179626
1772574150291419000,8.4284189453125,-0.11184946447610855,0.02982652559876442,0.5186353325843811
1772574150301379600,8.438379638671876,-0.10545806586742401,-0.04473978653550148,0.6635070443153381
1772574150311313200,8.448313232421874,-0.1374150663614273,-0.16298064589500427,0.6975944638252258
1772574150321238300,8.45823828125,-0.18535055220127106,-0.26204732060432434,0.6422023773193359
1772574150331171000,8.468171142578125,-0.24287313222885132,-0.32050198316574097,0.5165048837661743
1772574150341110300,8.4781103515625,-0.30146095156669617,-0.33008909225463867,0.3460675776004791
1772574150351043800,8.4880439453125,-0.3386109471321106,-0.2876129150390625,0.16511112451553345
1772574150360965600,8.497965576171875,-0.3503285050392151,-0.21091613173484802,-0.0031956990715116262
1772574150370898000,8.50789794921875,-0.3513937294483185,-0.15126308798789978,-0.14700216054916382
1772574150380827400,8.517827392578125,-0.34500235319137573,-0.12143656611442566,-0.24819929897785187
1772574150390759400,8.527759521484375,-0.3279586136341095,-0.09054480493068695,-0.29400432109832764
1772574150400710400,8.53771044921875,-0.3055887222290039,-0.05113118514418602,-0.2961347699165344
1772574150410644500,8.54764453125,-0.2854824364185333,-0.01917419396340847,-0.26950395107269287
1772574150420563700,8.557563720703126,-0.275895357131958,0.01171756349503994,-0.22156846523284912
1772574150430496000,8.56749609375,-0.2897433936595917,0.03089175745844841,-0.15339355170726776
1772574150440424200,8.577424072265625,-0.3183715343475342,0.02343512699007988,-0.08202294260263443
1772574150450356200,8.587356201171875,-0.35245898365974426,-0.004260932095348835,-0.0159784946590662
1772574150460280800,8.59728076171875,-0.38548120856285095,-0.03408745676279068,0.04047885537147522
1772574150470212000,8.607212158203126,-0.40785109996795654,-0.04367455467581749,0.07989247888326645
1772574150480156000,8.617156005859375,-0.42809051275253296,-0.04687025398015976,0.08308817446231842
1772574150490088400,8.62708837890625,-0.4451342523097992,-0.04473978653550148,0.04793548583984375
1772574150500017000,8.637016845703124,-0.45152565836906433,-0.02023942768573761,-0.012782796286046505
1772574150509949000,8.646948974609375,-0.43980807065963745,0.01491326279938221,-0.07989247888326645
1772574150519876900,8.656876953125,-0.40998154878616333,0.03408745676279068,-0.14167599380016327
1772574150529808400,8.666808349609376,-0.37589409947395325,0.02663082629442215,-0.18641577661037445
1772574150539739100,8.6767392578125,-0.3481980562210083,-0.0031956990715116262,-0.2034595012664795
1772574150549670700,8.686670654296876,-0.32369768619537354,-0.04793548583984375,-0.1928071826696396
1772574150559572700,8.69657275390625,-0.2982652485370636,-0.09161003679037094,-0.1597849577665329
1772574150569501400,8.70650146484375,-0.28122150897979736,-0.13421936333179474,-0.1267627328634262
1772574150579464000,8.7164638671875,-0.2641777992248535,-0.17363297939300537,-0.10758853703737259
1772574150589396000,8.72639599609375,-0.24074266850948334,-0.2013290375471115,-0.09374050796031952
1772574150599325000,8.736324951171875,-0.20985090732574463,-0.20878566801548004,-0.07030537724494934
1772574150609256700,8.746256591796875,-0.17363297939300537,-0.18641577661037445,-0.03408745676279068
1772574150619198000,8.756197998046876,-0.14274121820926666,-0.16724158823490143,0.012782796286046505
1772574150629130800,8.766130859375,-0.11397993564605713,-0.16724158823490143,0.06817491352558136
1772574150639055000,8.77605517578125,-0.08202294260263443,-0.16617634892463684,0.1278279572725296
1772574150648987100,8.785987060546875,-0.0426093190908432,-0.1491326242685318,0.18428531289100647
1772574150658917400,8.79591748046875,-0.0053261648863554,-0.12250179797410965,0.23115555942058563
1772574150668849200,8.80584912109375,0.01171756349503994,-0.09054480493068695,0.26950395107269287
1772574150678772700,8.815772705078125,0.0010652330238372087,-0.05219641700387001,0.2972000241279602
1772574150688703700,8.825703857421875,-0.03941362351179123,-0.0159784946590662,0.299330472946167
1772574150698655500,8.835655517578125,-0.09906667470932007,0.0031956990715116262,0.275895357131958
1772574150708588300,8.84558837890625,-0.15339355170726776,0.0159784946590662,0.22795987129211426
1772574150718495700,8.855495849609374,-0.19493764638900757,0.01917419396340847,0.16511112451553345
1772574150728426200,8.86542626953125,-0.2119813710451126,0.01384802907705307,0.10119713842868805
1772574150738351600,8.8753515625,-0.2119813710451126,0.0053261648863554,0.04367455467581749
1772574150748281600,8.885281494140624,-0.19600287079811096,0,0.01491326279938221
1772574150758243600,8.89524365234375,-0.1608501821756363,0.004260932095348835,0.02876129187643528
1772574150768176600,8.9051767578125,-0.11291470378637314,0.009587096981704235,0.06497921794652939
1772574150778074400,8.915074462890624,-0.06071828305721283,0.03728315606713295,0.11611039936542511
1772574150788004000,8.925004150390626,-0.004260932095348835,0.14700216054916382,0.18428531289100647
1772574150797935900,8.934935791015626,0.07137060910463333,0.3290238380432129,0.26204732060432434
1772574150807865900,8.944865966796876,0.13421936333179474,0.4025249183177948,0.29080861806869507
1772574150817804500,8.954804443359375,0.11930610239505768,0.32369768619537354,0.23754696547985077
1772574150827735300,8.9647353515625,0.01491326279938221,0.23115555942058563,0.1278279572725296
1772574150837670000,8.974669921875,-0.16404588520526886,0.13102366030216217,-0.012782796286046505
1772574150847601200,8.98460107421875,-0.36524176597595215,0.0319569893181324,-0.1704372763633728
1772574150857524700,8.994524658203124,-0.4877435564994812,-0.0159784946590662,-0.3194367587566376
1772574150867455200,9.004455322265626,-0.5101134777069092,0.0053261648863554,-0.423829585313797
1772574150877390300,9.014390380859375,-0.46111273765563965,0.10119713842868805,-0.4749607741832733
1772574150887321300,9.0243212890625,-0.3471328020095825,0.2439383566379547,-0.4962654411792755
1772574150897256400,9.03425634765625,-0.18428531289100647,0.3940030634403229,-0.5015916228294373
1772574150907187700,9.044187744140626,0.00852186419069767,0.5260919332504272,-0.48028692603111267
1772574150917145600,9.0541455078125,0.18322007358074188,0.5995930433273315,-0.42809051275253296
1772574150927079700,9.06407958984375,0.32156720757484436,0.6070496439933777,-0.3492632806301117
1772574150936981000,9.07398095703125,0.4312862157821655,0.5846797823905945,-0.25991687178611755
1772574150946911500,9.083911376953125,0.5005263686180115,0.5079829692840576,-0.19706811010837555
1772574150956848400,9.093848388671875,0.527157187461853,0.37695932388305664,-0.1597849577665329
1772574150966779600,9.103779541015625,0.5133091807365417,0.23648172616958618,-0.13634982705116272
1772574150976731400,9.1137314453125,0.48028692603111267,0.08415340632200241,-0.11397993564605713
1772574150986664700,9.123664794921876,0.4547213613986969,-0.05539211630821228,-0.06817491352558136
1772574150996568800,9.13356884765625,0.4579170346260071,-0.13208889961242676,0.009587096981704235
1772574151006499000,9.1434990234375,0.4792217016220093,-0.1587197184562683,0.08841434121131897
1772574151016416800,9.153416748046874,0.512243926525116,-0.15658925473690033,0.15232832729816437
1772574151026346000,9.163345947265626,0.5612446665763855,-0.1288931965827942,0.19919857382774353
1772574151036316700,9.173316650390625,0.6166367530822754,-0.10013190656900406,0.21517707407474518
1772574151046250200,9.183250244140625,0.6603113412857056,-0.06924014538526535,0.19493764638900757
1772574151056186400,9.193186279296874,0.6837464570999146,-0.03302222490310669,0.14593692123889923
1772574151066120000,9.203119873046875,0.6922683119773865,0.004260932095348835,0.07989247888326645
1772574151076044000,9.2130439453125,0.6794854998588562,0.03834838792681694,-0.00852186419069767
1772574151085976600,9.2229765625,0.6528546810150146,0.06817491352558136,-0.09693620353937149
1772574151095907300,9.2329072265625,0.6230281591415405,0.1065233051776886,-0.14593692123889923
1772574151105839900,9.24283984375,0.5995930433273315,0.12250179797410965,-0.13315412402153015
1772574151115750100,9.252750244140625,0.596397340297699,0.11824086308479309,-0.0745663121342659
1772574151125680400,9.262680419921875,0.6102453470230103,0.12250179797410965,0.00852186419069767
1772574151135641600,9.2726416015625,0.619832456111908,0.13102366030216217,0.09161003679037094
1772574151145575000,9.282574951171876,0.596397340297699,0.1395455300807953,0.1608501821756363
1772574151155469600,9.292469482421875,0.5431357026100159,0.1384802907705307,0.2141118347644806
1772574151165399000,9.30239892578125,0.49306973814964294,0.12356702983379364,0.24713405966758728
1772574151175362300,9.3123623046875,0.46217799186706543,0.10013190656900406,0.2535254657268524
1772574151185295000,9.322295166015625,0.4419385492801666,0.06071828305721283,0.23222079873085022
1772574151195206700,9.33220654296875,0.4312862157821655,0.0213046595454216,0.19706811010837555
1772574151205137400,9.342137451171874,0.41956865787506104,0.0106523297727108,0.1597849577665329
1772574151215068200,9.352068115234376,0.3897421360015869,0.02450035884976387,0.12356702983379364
1772574151224999000,9.3619990234375,0.35565468668937683,0.06924014538526535,0.07563154399394989
1772574151234934000,9.37193408203125,0.31304535269737244,0.15126308798789978,0.009587096981704235
1772574151244865300,9.381865234375,0.2588516175746918,0.22689463198184967,-0.06178351491689682
1772574151254819800,9.39181982421875,0.21943800151348114,0.3003957271575928,-0.11824086308479309
1772574151264753400,9.40175341796875,0.20558997988700867,0.3599156141281128,-0.16724158823490143
1772574151274681300,9.411681396484376,0.2013290375471115,0.35458943247795105,-0.21943800151348114
1772574151284614400,9.421614501953124,0.20026381313800812,0.2673735022544861,-0.2460688352584839
1772574151294543000,9.431543212890626,0.20878566801548004,0.15552401542663574,-0.22795987129211426
1772574151304475600,9.4414755859375,0.22902509570121765,0.0745663121342659,-0.17469821870326996
1772574151314404400,9.451404296875,0.24287313222885132,-0.0021304660476744175,-0.12356702983379364
1772574151324336400,9.46133642578125,0.2332860380411148,-0.07669677585363388,-0.09374050796031952
1772574151334269000,9.47126904296875,0.19919857382774353,-0.12463226169347763,-0.07669677585363388
1772574151344201000,9.481200927734376,0.13634982705116272,-0.11397993564605713,-0.05645735189318657
1772574151354138600,9.491138671875,0.06817491352558136,-0.03302222490310669,-0.02343512699007988
1772574151364071200,9.5010712890625,0.0031956990715116262,0.07030537724494934,0.0053261648863554
1772574151373996300,9.510996337890624,-0.04687025398015976,0.15339355170726776,0.03089175745844841
1772574151383928300,9.52092822265625,-0.0745663121342659,0.256721168756485,0.05113118514418602
1772574151393860900,9.53086083984375,-0.09480573982000351,0.47176507115364075,0.0639139786362648
1772574151403793000,9.54079296875,-0.11824086308479309,0.7785521745681763,0.06284874677658081
1772574151413741000,9.550740966796875,-0.1597849577665329,1.047922968864441,0.03302222490310669
1772574151423674600,9.560674560546875,-0.19387240707874298,1.232208251953125,-0.0159784946590662
1772574151433588200,9.570588134765625,-0.20772044360637665,1.2918612957000732,-0.05752258375287056
1772574151453447200,9.590447265625,-0.20665520429611206,0.5601794123649597,0.18428531289100647
1772574151463378400,9.60037841796875,-0.1288931965827942,-0.05645735189318657,0.1597849577665329
1772574151473309700,9.610309814453124,-0.15339355170726776,-0.3886769115924835,0.18322007358074188
1772574151483241000,9.620240966796874,-0.2641777992248535,-0.5623098611831665,0.2961347699165344
1772574151493175800,9.63017578125,-0.35352420806884766,-0.6453980803489685,0.4035901725292206
1772574151503107300,9.640107421875,-0.42702528834342957,-0.7593780159950256,0.4983958899974823
1772574151513046300,9.65004638671875,-0.47176507115364075,-0.8893364071846008,0.6485937833786011
