time,seconds_elapsed,z,y,x
1772534795412142800,0.041142822265625,-0.7756500244140625,-0.3322906494140625,-0.030059814453125
1772534795422159600,0.05115966796875,-0.7842559814453125,-0.3372650146484375,-0.0449371337890625
1772534795432175600,0.061175537109375,-0.7853851318359375,-0.3353729248046875,-0.0673980712890625
1772534795442193000,0.07119287109375,-0.7823333740234375,-0.332244873046875,-0.0814666748046875
1772534795452209700,0.081209716796875,-0.79071044921875,-0.3330230712890625,-0.097625732421875
1772534795462226700,0.091226806640625,-0.8116912841796875,-0.342620849609375,-0.1224365234375
1772534795472243700,0.10124365234375,-0.84735107421875,-0.335845947265625,-0.1595916748046875
1772534795482260700,0.1112607421875,-0.8760223388671875,-0.3243560791015625,-0.205657958984375
1772534795492277500,0.121277587890625,-0.8990325927734375,-0.312591552734375,-0.2334747314453125
1772534795502294800,0.131294677734375,-0.89697265625,-0.3060760498046875,-0.2519073486328125
1772534795512310800,0.141310791015625,-0.8965606689453125,-0.3049468994140625,-0.2608795166015625
1772534795522327600,0.15132763671875,-0.922149658203125,-0.3031463623046875,-0.26824951171875
1772534795532344800,0.1613447265625,-0.94158935546875,-0.295623779296875,-0.2741241455078125
1772534795542361900,0.17136181640625,-0.938507080078125,-0.2767791748046875,-0.27520751953125
1772534795552378600,0.181378662109375,-0.9154205322265625,-0.280303955078125,-0.2932891845703125
1772534795562396000,0.19139599609375,-0.89703369140625,-0.30108642578125,-0.3101654052734375
1772534795572412700,0.20141259765625,-0.9170074462890625,-0.2970428466796875,-0.320159912109375
1772534795582429700,0.2114296875,-0.9534912109375,-0.2847900390625,-0.328460693359375
1772534795592446700,0.22144677734375,-0.9644927978515625,-0.2811126708984375,-0.3409271240234375
1772534795602462700,0.231462646484375,-0.9341583251953125,-0.288665771484375,-0.34521484375
1772534795612479700,0.241479736328125,-0.873931884765625,-0.2939300537109375,-0.3457489013671875
1772534795622496800,0.251496826171875,-0.82501220703125,-0.289031982421875,-0.3459930419921875
1772534795632513800,0.261513671875,-0.807708740234375,-0.2837066650390625,-0.3419036865234375
1772534795642530600,0.271530517578125,-0.8032073974609375,-0.286865234375,-0.330902099609375
1772534795652547800,0.2815478515625,-0.775299072265625,-0.2841339111328125,-0.3218536376953125
1772534795662564900,0.29156494140625,-0.7372283935546875,-0.2713775634765625,-0.3155670166015625
1772534795672581600,0.30158154296875,-0.7314605712890625,-0.2606964111328125,-0.3212432861328125
1772534795682597600,0.31159765625,-0.73858642578125,-0.2567138671875,-0.323974609375
1772534795692615000,0.321614990234375,-0.7415618896484375,-0.257354736328125,-0.3124542236328125
1772534795702631700,0.331631591796875,-0.744781494140625,-0.2435302734375,-0.3011474609375
1772534795712648700,0.341648681640625,-0.7532958984375,-0.2312164306640625,-0.3010406494140625
1772534795722665700,0.351665771484375,-0.7677154541015625,-0.2397003173828125,-0.3017120361328125
1772534795732682800,0.361682861328125,-0.769866943359375,-0.2436370849609375,-0.3170623779296875
1772534795742699500,0.371699462890625,-0.7627105712890625,-0.2425537109375,-0.3585052490234375
1772534795752716800,0.381716796875,-0.7703094482421875,-0.2311859130859375,-0.4164886474609375
1772534795762732800,0.39173291015625,-0.761962890625,-0.2152099609375,-0.464202880859375
1772534795772749600,0.40174951171875,-0.6908416748046875,-0.205902099609375,-0.4922943115234375
1772534795782766800,0.411766845703125,-0.6709136962890625,-0.1930999755859375,-0.487152099609375
1772534795792783600,0.42178369140625,-0.7430267333984375,-0.1811065673828125,-0.4394683837890625
1772534795802800600,0.431800537109375,-0.8050079345703125,-0.18798828125,-0.3980712890625
1772534795812818000,0.44181787109375,-0.8433380126953125,-0.1931610107421875,-0.3625335693359375
1772534795822834700,0.451834716796875,-0.875579833984375,-0.1981658935546875,-0.3614654541015625
1772534795832851700,0.461851806640625,-0.91204833984375,-0.2043609619140625,-0.399566650390625
1772534795842868700,0.47186865234375,-0.938232421875,-0.20404052734375,-0.4430389404296875
1772534795852884700,0.481884765625,-0.9341888427734375,-0.201629638671875,-0.4773406982421875
1772534795862902000,0.491902099609375,-0.92510986328125,-0.1908416748046875,-0.4751739501953125
1772534795872918800,0.501918701171875,-0.9094085693359375,-0.17535400390625,-0.439605712890625
1772534795882935800,0.511935791015625,-0.891845703125,-0.157623291015625,-0.4010009765625
1772534795892952800,0.521952880859375,-0.8633270263671875,-0.1381072998046875,-0.35430908203125
1772534795902969900,0.531969970703125,-0.8650970458984375,-0.135986328125,-0.3118896484375
1772534795912987000,0.54198681640625,-0.865875244140625,-0.1320648193359375,-0.277740478515625
1772534795923004000,0.55200390625,-0.839019775390625,-0.1222076416015625,-0.2462310791015625
1772534795933020000,0.56202001953125,-0.8386383056640625,-0.126556396484375,-0.2373199462890625
1772534795943036700,0.57203662109375,-0.8642578125,-0.123016357421875,-0.26397705078125
1772534795953053700,0.5820537109375,-0.88897705078125,-0.1055450439453125,-0.2979583740234375
1772534795963071000,0.592071044921875,-0.90777587890625,-0.081085205078125,-0.3000946044921875
1772534795973087700,0.602087646484375,-0.909912109375,-0.0541229248046875,-0.26947021484375
1772534795983104800,0.612104736328125,-0.8969268798828125,-0.0352935791015625,-0.2332763671875
1772534795993121800,0.622121826171875,-0.886260986328125,-0.016876220703125,-0.186798095703125
1772534796003138800,0.632138916015625,-0.87158203125,-0.0068817138671875,-0.131622314453125
1772534796013155600,0.642155517578125,-0.8497161865234375,-0.0373992919921875,-0.11541748046875
1772534796023171800,0.652171875,-0.7835235595703125,-0.051177978515625,-0.134765625
1772534796033188900,0.66218896484375,-0.6983184814453125,-0.0445404052734375,-0.1441192626953125
1772534796043205600,0.67220556640625,-0.6334991455078125,-0.0441131591796875,-0.157745361328125
1772534796053223000,0.682222900390625,-0.5931549072265625,-0.0436859130859375,-0.158538818359375
1772534796063240000,0.692239990234375,-0.58758544921875,-0.0454559326171875,-0.1369171142578125
1772534796073256700,0.702256591796875,-0.5785980224609375,-0.0441436767578125,-0.222412109375
1772534796083274000,0.71227392578125,-0.6231689453125,-0.02117919921875,-0.2831268310546875
1772534796093290800,0.722290771484375,-0.71258544921875,-0.061920166015625,-0.232147216796875
1772534796103306800,0.732306640625,-0.7435760498046875,-0.138275146484375,-0.180755615234375
1772534796113324000,0.742323974609375,-0.771484375,-0.1612701416015625,-0.149810791015625
1772534796123340800,0.7523408203125,-0.8212127685546875,-0.1946868896484375,-0.0950927734375
1772534796133357800,0.76235791015625,-0.803985595703125,-0.2343292236328125,-0.1324005126953125
1772534796143374800,0.772374755859375,-0.808197021484375,-0.2178192138671875,-0.1722564697265625
1772534796153391900,0.782391845703125,-0.899688720703125,-0.1917572021484375,-0.2153778076171875
1772534796163408600,0.79240869140625,-1.1011962890625,-0.30767822265625,-0.1048583984375
1772534796173426000,0.802426025390625,-1.21905517578125,-0.40911865234375,-0.142791748046875
1772534796183443000,0.81244287109375,-1.183990478515625,-0.380706787109375,-0.240936279296875
1772534796193458700,0.822458740234375,-1.2940826416015625,-0.3184814453125,-0.2917633056640625
1772534796203475700,0.832475830078125,-1.41009521484375,-0.3094329833984375,-0.38690185546875
1772534796213493000,0.842492919921875,-1.512847900390625,-0.266845703125,-0.48919677734375
1772534796223509800,0.852509765625,-1.6810760498046875,-0.206573486328125,-0.5468292236328125
1772534796233526800,0.86252685546875,-1.839569091796875,-0.233612060546875,-0.560211181640625
1772534796243543800,0.872543701171875,-1.970947265625,-0.21331787109375,-0.6181640625
1772534796253560800,0.882560791015625,-2.0152435302734375,-0.1351776123046875,-0.70233154296875
1772534796267333600,0.896333740234375,-1.9422607421875,-0.0556182861328125,-0.7804718017578125
1772534796277351000,0.906350830078125,-1.9439239501953125,-0.0435028076171875,-0.8438873291015625
1772534796287367000,0.916366943359375,-2.0243682861328125,-0.0831146240234375,-0.921905517578125
1772534796297383700,0.9263837890625,-2.122283935546875,-0.11676025390625,-0.9968719482421875
1772534796307400700,0.936400634765625,-2.224151611328125,-0.126220703125,-1.0282440185546875
1772534796317418000,0.94641796875,-2.25787353515625,-0.1225433349609375,-0.98492431640625
1772534796327434800,0.956434814453125,-2.2277374267578125,-0.105987548828125,-0.904449462890625
1772534796337451800,0.96645166015625,-2.164337158203125,-0.0901336669921875,-0.8178253173828125
1772534796347468800,0.97646875,-2.0561676025390625,-0.098175048828125,-0.7661285400390625
1772534796357485800,0.98648583984375,-1.9263916015625,-0.1065216064453125,-0.7917938232421875
1772534796367501800,0.996501708984375,-1.766021728515625,-0.1046295166015625,-0.81121826171875
1772534796377518800,1.006518798828125,-1.5873260498046875,-0.08160400390625,-0.7854156494140625
1772534796387536000,1.016535888671875,-1.39874267578125,-0.0966949462890625,-0.725189208984375
1772534796397552600,1.026552734375,-1.1560516357421875,-0.1851959228515625,-0.6858062744140625
1772534796407570000,1.03656982421875,-0.956024169921875,-0.22747802734375,-0.65081787109375
1772534796417586700,1.046586669921875,-0.8323516845703125,-0.240631103515625,-0.6193695068359375
1772534796427603700,1.056603759765625,-0.7664031982421875,-0.239715576171875,-0.590362548828125
1772534796437621000,1.06662109375,-0.800994873046875,-0.190399169921875,-0.471832275390625
1772534796447637800,1.0766376953125,-0.8001251220703125,-0.1907806396484375,-0.31243896484375
1772534796457653800,1.08665380859375,-0.757843017578125,-0.169677734375,-0.1646270751953125
1772534796467671000,1.096671142578125,-0.7226409912109375,-0.135711669921875,-0.04302978515625
1772534796477687800,1.106687744140625,-0.583831787109375,-0.126373291015625,0.0416412353515625
1772534796487704800,1.116704833984375,-0.3998260498046875,-0.1258392333984375,0.0663299560546875
1772534796497721900,1.126721923828125,-0.2682342529296875,-0.1009979248046875,0.063568115234375
1772534796507739000,1.13673876953125,-0.1673736572265625,-0.086212158203125,0.0309906005859375
1772534796517755600,1.146755615234375,-0.1251220703125,-0.0906524658203125,-0.0045318603515625
1772534796527773000,1.15677294921875,-0.121826171875,-0.089996337890625,-0.0306243896484375
1772534796537789000,1.166788818359375,-0.086517333984375,-0.08953857421875,-0.018218994140625
1772534796547805700,1.1768056640625,-0.03045654296875,-0.0929718017578125,0.025146484375
1772534796557822700,1.18682275390625,0.0123138427734375,-0.1028900146484375,0.050872802734375
1772534796567839700,1.19683984375,0.0797882080078125,-0.128082275390625,0.0566558837890625
1772534796577856800,1.206856689453125,0.110382080078125,-0.131561279296875,0.03338623046875
1772534796587873800,1.216873779296875,0.0550079345703125,-0.109771728515625,0.0297088623046875
1772534796597890800,1.226890869140625,-0.0542755126953125,-0.08465576171875,0.025543212890625
1772534796607907800,1.236907958984375,-0.1451568603515625,-0.07379150390625,-0.0091400146484375
1772534796617924900,1.2469248046875,-0.1739959716796875,-0.0607757568359375,-0.011993408203125
1772534796627940900,1.25694091796875,-0.165191650390625,-0.0445556640625,0.0088043212890625
1772534796637958000,1.2669580078125,-0.1889801025390625,-0.0323944091796875,0.0273590087890625
1772534796647974700,1.276974609375,-0.2698822021484375,-0.0187225341796875,0.0394134521484375
1772534796657992000,1.286991943359375,-0.377777099609375,-0.0068817138671875,0.0572052001953125
1772534796668008700,1.2970087890625,-0.4613189697265625,-0.0052642822265625,0.090850830078125
1772534796678025700,1.307025634765625,-0.4535064697265625,0.0218963623046875,0.094482421875
1772534796688042800,1.317042724609375,-0.360382080078125,0.0619964599609375,0.0906219482421875
1772534796698059800,1.327059814453125,-0.3121490478515625,0.0831756591796875,0.082855224609375
1772534796708075800,1.33707568359375,-0.3472747802734375,0.093017578125,0.06170654296875
1772534796718092800,1.3470927734375,-0.404815673828125,0.109344482421875,0.034423828125
1772534796728109800,1.35710986328125,-0.4417877197265625,0.1067962646484375,0.0360565185546875
1772534796738126800,1.367126953125,-0.4821319580078125,0.072174072265625,0.036712646484375
1772534796748143900,1.377143798828125,-0.52166748046875,0.0481109619140625,0.0198822021484375
1772534796758161000,1.387160888671875,-0.5579986572265625,0.0266571044921875,-0.01593017578125
1772534796768177700,1.397177734375,-0.6117095947265625,-0.0167083740234375,-0.0643463134765625
1772534796778195000,1.40719482421875,-0.733306884765625,-0.0325775146484375,-0.100311279296875
1772534796788211700,1.417211669921875,-0.948883056640625,-0.0570068359375,-0.0919036865234375
1772534796798227700,1.427227783203125,-1.2347564697265625,-0.0997772216796875,-0.0802764892578125
1772534796808244700,1.43724462890625,-1.5148162841796875,-0.1269073486328125,-0.1016082763671875
1772534796818261800,1.44726171875,-1.7574310302734375,-0.1624755859375,-0.163360595703125
1772534796828278800,1.45727880859375,-1.925933837890625,-0.2282257080078125,-0.251129150390625
1772534796838295800,1.4672958984375,-1.9799652099609375,-0.286865234375,-0.3896942138671875
1772534796848312600,1.4773125,-1.93927001953125,-0.2972412109375,-0.5385589599609375
1772534796858329900,1.487329833984375,-1.9317169189453125,-0.324371337890625,-0.670074462890625
1772534796868346600,1.4973466796875,-2.0239410400390625,-0.338897705078125,-0.7371826171875
1772534796878362600,1.507362548828125,-2.1840667724609375,-0.3397674560546875,-0.7220458984375
1772534796888379600,1.517379638671875,-2.3034820556640625,-0.3697967529296875,-0.6251678466796875
1772534796898396700,1.527396728515625,-2.3583831787109375,-0.374725341796875,-0.4836578369140625
1772534796908413700,1.53741357421875,-2.3565216064453125,-0.30511474609375,-0.3838348388671875
1772534796918430700,1.5474306640625,-2.33404541015625,-0.2623443603515625,-0.2981109619140625
1772534796928447700,1.55744775390625,-2.32025146484375,-0.246246337890625,-0.24627685546875
1772534796938464800,1.56746484375,-2.264373779296875,-0.2010955810546875,-0.2458648681640625
1772534796948481800,1.577481689453125,-2.220794677734375,-0.158172607421875,-0.226165771484375
1772534796958498800,1.587498779296875,-2.170928955078125,-0.0909271240234375,-0.2401885986328125
1772534796968514600,1.5975146484375,-2.0193328857421875,-0.0419158935546875,-0.3060302734375
1772534796978531600,1.607531494140625,-1.757232666015625,-0.04833984375,-0.403045654296875
1772534796988548900,1.617548828125,-1.4264373779296875,-0.0532989501953125,-0.49298095703125
1772534796998565600,1.627565673828125,-1.102783203125,-0.090362548828125,-0.5139312744140625
1772534797008582700,1.637582763671875,-0.82098388671875,-0.1263275146484375,-0.5022430419921875
1772534797018599700,1.647599609375,-0.61083984375,-0.15460205078125,-0.468963623046875
1772534797028616700,1.65761669921875,-0.47027587890625,-0.161895751953125,-0.4187774658203125
1772534797038633500,1.667633544921875,-0.3789215087890625,-0.146728515625,-0.3747406005859375
1772534797048650800,1.677650634765625,-0.3241424560546875,-0.1419525146484375,-0.339569091796875
1772534797058666800,1.687666748046875,-0.27642822265625,-0.1325531005859375,-0.3146820068359375
1772534797068683500,1.69768359375,-0.2006072998046875,-0.1016387939453125,-0.2660369873046875
1772534797078700800,1.70770068359375,-0.1595001220703125,-0.0530242919921875,-0.1925048828125
1772534797088717800,1.7177177734375,-0.149658203125,-0.011383056640625,-0.1058349609375
1772534797098734600,1.727734619140625,-0.1705322265625,0.001678466796875,-0.02294921875
1772534797108752000,1.737751953125,-0.1770172119140625,-0.0076904296875,0.03558349609375
1772534797118768600,1.7477685546875,-0.151824951171875,-0.02398681640625,0.085174560546875
1772534797128785700,1.75778564453125,-0.1152496337890625,-0.051544189453125,0.1255950927734375
1772534797138801700,1.7678017578125,-0.0744781494140625,-0.0810394287109375,0.1410980224609375
1772534797148818700,1.777818603515625,-0.0317840576171875,-0.0891876220703125,0.11376953125
1772534797158835700,1.787835693359375,0.0040130615234375,-0.089019775390625,0.083282470703125
1772534797168852700,1.797852783203125,-0.0021514892578125,-0.0948028564453125,0.0492095947265625
1772534797178869800,1.807869873046875,-0.0188751220703125,-0.1066436767578125,-0.0097198486328125
1772534797188886500,1.817886474609375,-0.036407470703125,-0.1131134033203125,-0.065155029296875
1772534797198903800,1.82790380859375,-0.0483245849609375,-0.1335296630859375,-0.087249755859375
1772534797208920800,1.8379208984375,-0.0812835693359375,-0.14947509765625,-0.094085693359375
1772534797218937600,1.8479375,-0.12493896484375,-0.1509857177734375,-0.092437744140625
1772534797228953600,1.85795361328125,-0.167755126953125,-0.14215087890625,-0.1046600341796875
1772534797238971000,1.867970947265625,-0.2264862060546875,-0.1584014892578125,-0.0963287353515625
1772534797248987600,1.877987548828125,-0.293670654296875,-0.1701202392578125,-0.0869903564453125
1772534797259004700,1.888004638671875,-0.3431396484375,-0.1631622314453125,-0.0860748291015625
1772534797269021700,1.898021728515625,-0.358428955078125,-0.155120849609375,-0.0916900634765625
1772534797279038700,1.908038818359375,-0.3694305419921875,-0.1778106689453125,-0.0799713134765625
1772534797289055500,1.918055419921875,-0.399993896484375,-0.2173004150390625,-0.087249755859375
1772534797299072800,1.92807275390625,-0.4144439697265625,-0.24346923828125,-0.105010986328125
1772534797309089500,1.938089599609375,-0.43170166015625,-0.2588958740234375,-0.1133880615234375
1772534797319105500,1.94810546875,-0.484649658203125,-0.2497100830078125,-0.1100006103515625
1772534797329122800,1.958122802734375,-0.5977020263671875,-0.2203521728515625,-0.113433837890625
1772534797339139600,1.9681396484375,-0.770233154296875,-0.17083740234375,-0.1489105224609375
1772534797349156600,1.978156494140625,-0.936553955078125,-0.1566009521484375,-0.194549560546875
1772534797359174000,1.988173828125,-1.1374359130859375,-0.204986572265625,-0.2908935546875
1772534797369190700,1.998190673828125,-1.3517303466796875,-0.340576171875,-0.3643951416015625
1772534797379207700,2.008207763671875,-1.5699615478515625,-0.4485321044921875,-0.384918212890625
1772534797389224700,2.018224609375,-1.7323455810546875,-0.445770263671875,-0.416168212890625
1772534797399241700,2.02824169921875,-1.8158111572265625,-0.4202880859375,-0.4538421630859375
1772534797409257700,2.0382578125,-1.9031982421875,-0.3309783935546875,-0.551300048828125
1772534797419274800,2.048274658203125,-2.04296875,-0.2393341064453125,-0.673126220703125
1772534797429291800,2.058291748046875,-2.2643280029296875,-0.23828125,-0.7653961181640625
1772534797439308500,2.06830859375,-2.5415191650390625,-0.2429656982421875,-0.86907958984375
1772534797449325800,2.078325927734375,-2.8084259033203125,-0.277191162109375,-0.9318695068359375
1772534797459342600,2.088342529296875,-2.9404754638671875,-0.287628173828125,-0.94384765625
1772534797469359600,2.098359619140625,-2.9710845947265625,-0.2359161376953125,-0.9722747802734375
1772534797479377000,2.108376953125,-2.918853759765625,-0.1616363525390625,-1.00640869140625
1772534797489392600,2.118392578125,-2.75836181640625,-0.1156463623046875,-0.980010986328125
1772534797499409700,2.12840966796875,-2.5527191162109375,-0.0956268310546875,-0.85760498046875
1772534797509426700,2.1384267578125,-2.359100341796875,-0.077972412109375,-0.7038726806640625
1772534797519443700,2.148443603515625,-2.2188720703125,-0.09930419921875,-0.5345916748046875
1772534797529460700,2.158460693359375,-2.1227264404296875,-0.133575439453125,-0.361907958984375
1772534797539477500,2.1684775390625,-1.9713287353515625,-0.1330108642578125,-0.2596282958984375
1772534797549494800,2.178494873046875,-1.8671875,-0.104156494140625,-0.206787109375
1772534797559511600,2.188511474609375,-1.8537139892578125,-0.06646728515625,-0.1809539794921875
1772534797569528600,2.198528564453125,-1.7489776611328125,-0.038970947265625,-0.228668212890625
1772534797579544800,2.208544921875,-1.4647216796875,-0.021697998046875,-0.29388427734375
1772534797589561600,2.2185615234375,-1.1499481201171875,-0.0591278076171875,-0.326690673828125
1772534797599578600,2.22857861328125,-0.8674163818359375,-0.11322021484375,-0.40570068359375
1772534797609595600,2.238595703125,-0.607421875,-0.1700439453125,-0.4605865478515625
1772534797619612700,2.24861279296875,-0.3636932373046875,-0.20751953125,-0.438629150390625
1772534797629629700,2.258629638671875,-0.1280975341796875,-0.214447021484375,-0.3603515625
1772534797639646700,2.268646728515625,0.0595855712890625,-0.206085205078125,-0.2689056396484375
1772534797649663700,2.278663818359375,0.1598358154296875,-0.1822967529296875,-0.21343994140625
1772534797659680500,2.288680419921875,0.188568115234375,-0.11907958984375,-0.1640167236328125
1772534797669696800,2.29869677734375,0.143646240234375,-0.069671630859375,-0.0618133544921875
1772534797679713800,2.3087138671875,0.0681915283203125,-0.0285491943359375,0.0482940673828125
1772534797689730600,2.31873046875,0.0215606689453125,0.0086212158203125,0.139068603515625
1772534797699747800,2.328747802734375,0.0119171142578125,0.016845703125,0.1795501708984375
1772534797709764600,2.3387646484375,0.0425872802734375,0.012542724609375,0.16961669921875
1772534797719781600,2.34878173828125,0.0949554443359375,0.00408935546875,0.15765380859375
1772534797729799000,2.358798828125,0.14593505859375,-0.0315093994140625,0.1635284423828125
1772534797739815700,2.368815673828125,0.189300537109375,-0.0570526123046875,0.1569976806640625
1772534797749831700,2.378831787109375,0.2130584716796875,-0.06036376953125,0.1333770751953125
1772534797759848700,2.3888486328125,0.190185546875,-0.0592498779296875,0.0886383056640625
1772534797769865700,2.39886572265625,0.11383056640625,-0.0648956298828125,0.0391845703125
1772534797779882800,2.4088828125,0.0212860107421875,-0.0710906982421875,-0.0108795166015625
1772534797789899500,2.4188994140625,-0.0363311767578125,-0.0760040283203125,-0.051025390625
1772534797799916800,2.428916748046875,-0.0568695068359375,-0.0908966064453125,-0.074493408203125
1772534797809933600,2.43893359375,-0.0703277587890625,-0.10980224609375,-0.09356689453125
1772534797819950600,2.44895068359375,-0.1011199951171875,-0.1252899169921875,-0.1029815673828125
1772534797829967600,2.458967529296875,-0.1882171630859375,-0.1313323974609375,-0.1046142578125
1772534797839983600,2.468983642578125,-0.2877960205078125,-0.1307373046875,-0.1070098876953125
1772534797850001000,2.4790009765625,-0.3575897216796875,-0.134490966796875,-0.1060638427734375
1772534797860018000,2.489017822265625,-0.3774261474609375,-0.125244140625,-0.0822296142578125
1772534797870035000,2.499034912109375,-0.3728485107421875,-0.0985107421875,-0.03704833984375
1772534797880052000,2.509052001953125,-0.3691558837890625,-0.086639404296875,-0.0267181396484375
1772534797890069000,2.519069091796875,-0.3986053466796875,-0.0903167724609375,-0.0398406982421875
1772534797900086000,2.5290859375,-0.466766357421875,-0.0764007568359375,-0.058929443359375
1772534797910102800,2.539102783203125,-0.5541839599609375,-0.046142578125,-0.1002197265625
1772534797920120000,2.5491201171875,-0.680419921875,-0.023773193359375,-0.11895751953125
1772534797930136000,2.559135986328125,-0.862548828125,0.003936767578125,-0.115264892578125
1772534797940152800,2.56915283203125,-1.00244140625,0.0116119384765625,-0.1508941650390625
1772534797950170000,2.579170166015625,-1.0905914306640625,-0.0419769287109375,-0.215667724609375
1772534797960187000,2.589186767578125,-1.18597412109375,-0.1519317626953125,-0.278717041015625
1772534797970204000,2.599203857421875,-1.384735107421875,-0.3026580810546875,-0.3599090576171875
1772534797980221000,2.609220947265625,-1.6456298828125,-0.4172515869140625,-0.462860107421875
1772534797990238000,2.619238037109375,-1.9707489013671875,-0.367431640625,-0.593475341796875
1772534798000255000,2.6292548828125,-2.3662261962890625,-0.2402801513671875,-0.6886444091796875
1772534798010272000,2.63927197265625,-2.8150634765625,-0.14666748046875,-0.70599365234375
1772534798020288000,2.6492880859375,-3.1524505615234375,-0.057708740234375,-0.7359771728515625
1772534798030305000,2.659304931640625,-3.271209716796875,-0.0189208984375,-0.8052215576171875
1772534798040321800,2.66932177734375,-3.2172393798828125,-0.0767974853515625,-0.8573150634765625
1772534798050339000,2.679339111328125,-3.0188751220703125,-0.2176971435546875,-0.849334716796875
1772534798060355800,2.68935595703125,-2.67205810546875,-0.3720703125,-0.805877685546875
1772534798070372900,2.699372802734375,-2.3224945068359375,-0.456451416015625,-0.7741546630859375
1772534798080390000,2.709389892578125,-2.2573394775390625,-0.45452880859375,-0.6781158447265625
1772534798090407000,2.719406982421875,-2.339080810546875,-0.362152099609375,-0.610382080078125
1772534798100424000,2.729423828125,-2.445831298828125,-0.2307586669921875,-0.5490264892578125
1772534798110440000,2.73943994140625,-2.5462493896484375,-0.1230621337890625,-0.4956817626953125
1772534798120457000,2.74945703125,-2.5769500732421875,-0.0548095703125,-0.4619903564453125
1772534798130473700,2.7594736328125,-2.4696044921875,0.0192413330078125,-0.4046783447265625
1772534798140491000,2.769490966796875,-2.2331695556640625,0.053314208984375,-0.389892578125
1772534798150508000,2.779508056640625,-1.8428802490234375,0.0302276611328125,-0.4695892333984375
1772534798160524800,2.78952490234375,-1.3924102783203125,-0.030181884765625,-0.6087799072265625
1772534798170542000,2.7995419921875,-0.9179229736328125,-0.1280517578125,-0.6892852783203125
1772534798180558800,2.809558837890625,-0.423370361328125,-0.1883087158203125,-0.683990478515625
1772534798190575900,2.819575927734375,0.0534820556640625,-0.198822021484375,-0.6181488037109375
1772534798200592100,2.829592041015625,0.4023284912109375,-0.15814208984375,-0.534576416015625
1772534798210609000,2.83960888671875,0.566070556640625,-0.093902587890625,-0.43408203125
1772534798220626000,2.8496259765625,0.5501556396484375,-0.0252532958984375,-0.3162078857421875
1772534798230643000,2.859642822265625,0.4135284423828125,0.0575408935546875,-0.19219970703125
1772534798240660000,2.869659912109375,0.2381439208984375,0.1312713623046875,-0.10064697265625
1772534798250677000,2.879677001953125,0.1387939453125,0.1425018310546875,-0.029449462890625
1772534798260694000,2.889694091796875,0.1238861083984375,0.1197662353515625,0.01007080078125
1772534798270711000,2.8997109375,0.1792755126953125,0.0794830322265625,0.03070068359375
1772534798280726800,2.909726806640625,0.2805633544921875,0.017974853515625,0.046875
1772534798290743800,2.919743896484375,0.369110107421875,-0.0402984619140625,0.055999755859375
1772534798300761000,2.929760986328125,0.3876495361328125,-0.091644287109375,0.03338623046875
1772534798310777900,2.93977783203125,0.3714447021484375,-0.149688720703125,-0.01904296875
1772534798320795000,2.949794921875,0.296112060546875,-0.1875152587890625,-0.0965118408203125
1772534798330812000,2.95981201171875,0.1721954345703125,-0.2049407958984375,-0.1594390869140625
1772534798340829000,2.969828857421875,0.0625,-0.207733154296875,-0.15411376953125
1772534798350846000,2.979845947265625,-0.01605224609375,-0.2111968994140625,-0.0930633544921875
1772534798360863000,2.989863037109375,-0.0659332275390625,-0.213531494140625,-0.0077667236328125
1772534798370880000,2.9998798828125,-0.0969696044921875,-0.21246337890625,0.07147216796875
1772534798380895700,3.009895751953125,-0.1092071533203125,-0.214447021484375,0.1300811767578125
1772534798390913000,3.0199130859375,-0.104644775390625,-0.215728759765625,0.1839447021484375
1772534798400930000,3.029929931640625,-0.149169921875,-0.205841064453125,0.1756591796875
1772534798410946800,3.03994677734375,-0.23236083984375,-0.1934967041015625,0.137451171875
1772534798420964000,3.049964111328125,-0.3244781494140625,-0.1699066162109375,0.126678466796875
1772534798430980900,3.05998095703125,-0.3914031982421875,-0.1298675537109375,0.130645751953125
1772534798440998000,3.069997802734375,-0.440521240234375,-0.089508056640625,0.0961761474609375
1772534798451015000,3.080014892578125,-0.4902801513671875,-0.08123779296875,0.0532073974609375
1772534798461031000,3.090031005859375,-0.5477447509765625,-0.102325439453125,0.0108795166015625
1772534798471048000,3.1000478515625,-0.5764923095703125,-0.1120147705078125,-0.0203857421875
1772534798481065000,3.11006494140625,-0.6080474853515625,-0.111572265625,-0.0301971435546875
1772534798491082000,3.12008203125,-0.6511688232421875,-0.078155517578125,-0.0827789306640625
1772534798501098800,3.1300986328125,-0.709991455078125,-0.0430755615234375,-0.195770263671875
1772534798511116000,3.140115966796875,-0.8205413818359375,-0.016754150390625,-0.3502960205078125
1772534798521133000,3.150133056640625,-1.0455169677734375,-0.03961181640625,-0.4810028076171875
1772534798531149800,3.16014990234375,-1.361572265625,-0.13970947265625,-0.55010986328125
1772534798541167000,3.1701669921875,-1.7109222412109375,-0.215240478515625,-0.5760040283203125
1772534798551183000,3.18018310546875,-2.0728759765625,-0.231842041015625,-0.625274658203125
1772534798561199900,3.190199951171875,-2.4447021484375,-0.1373291015625,-0.743896484375
1772534798571217000,3.200216796875,-2.6951446533203125,0.0484161376953125,-0.96868896484375
1772534798581234000,3.21023388671875,-2.775604248046875,0.1503448486328125,-1.242645263671875
1772534798591251000,3.2202509765625,-2.7520599365234375,0.177764892578125,-1.4992828369140625
1772534798601268000,3.23026806640625,-2.735809326171875,0.174957275390625,-1.616424560546875
1772534798611285000,3.240284912109375,-2.798431396484375,0.1161346435546875,-1.491973876953125
1772534798621302000,3.250302001953125,-2.9169158935546875,0.0511474609375,-1.194580078125
1772534798631319000,3.260319091796875,-3.041107177734375,0.0228271484375,-0.8292999267578125
1772534798641335000,3.2703349609375,-3.062286376953125,0.009521484375,-0.453460693359375
1772534798651351800,3.280351806640625,-2.8957061767578125,0.0029296875,-0.13433837890625
1772534798661368800,3.290368896484375,-2.575164794921875,-0.0052947998046875,0.0682220458984375
1772534798671386000,3.30038623046875,-2.242645263671875,-0.077606201171875,0.1766357421875
1772534798681403000,3.31040283203125,-1.9782562255859375,-0.168548583984375,0.171234130859375
1772534798691420000,3.320419921875,-1.767791748046875,-0.23468017578125,0.0333404541015625
1772534798701437000,3.33043701171875,-1.5803680419921875,-0.2799072265625,-0.23577880859375
1772534798711454000,3.340453857421875,-1.4195709228515625,-0.28192138671875,-0.4731597900390625
1772534798721470700,3.350470703125,-1.2667083740234375,-0.265533447265625,-0.5927886962890625
1772534798731487000,3.360487060546875,-1.0629119873046875,-0.2270355224609375,-0.5932464599609375
1772534798741504000,3.37050390625,-0.855987548828125,-0.2012176513671875,-0.528076171875
1772534798751520800,3.380520751953125,-0.6986083984375,-0.2389373779296875,-0.4005889892578125
1772534798761538000,3.3905380859375,-0.5261077880859375,-0.2689971923828125,-0.2357025146484375
1772534798771555000,3.40055517578125,-0.2783660888671875,-0.26666259765625,-0.072052001953125
1772534798781571800,3.41057177734375,-0.003509521484375,-0.2375640869140625,0.0850372314453125
1772534798791589000,3.420589111328125,0.204620361328125,-0.1788330078125,0.1693878173828125
1772534798801606000,3.43060595703125,0.295562744140625,-0.118316650390625,0.184844970703125
1772534798811622000,3.440621826171875,0.2635345458984375,-0.0906219482421875,0.1764984130859375
1772534798821639000,3.450638916015625,0.1539459228515625,-0.0823974609375,0.15533447265625
1772534798831656000,3.460656005859375,0.099090576171875,-0.0837249755859375,0.1207275390625
1772534798841673000,3.4706728515625,0.0811004638671875,-0.09454345703125,0.070831298828125
1772534798851690200,3.480690185546875,0.0994110107421875,-0.1345062255859375,0.0259857177734375
1772534798861707300,3.490707275390625,0.149383544921875,-0.1654510498046875,-0.0205841064453125
1772534798871724000,3.50072412109375,0.1951751708984375,-0.189666748046875,-0.058837890625
1772534798881741300,3.5107412109375,0.21240234375,-0.21063232421875,-0.1005096435546875
1772534798891758000,3.520758056640625,0.2099151611328125,-0.2261810302734375,-0.125640869140625
1772534798901775000,3.530775146484375,0.1879730224609375,-0.23712158203125,-0.1248626708984375
1772534798911791000,3.540791015625,0.1058502197265625,-0.228546142578125,-0.125762939453125
1772534798921808100,3.55080810546875,-0.037994384765625,-0.21319580078125,-0.1134033203125
1772534798931825200,3.5608251953125,-0.1796875,-0.199615478515625,-0.0875091552734375
1772534798941842200,3.57084228515625,-0.287353515625,-0.17132568359375,-0.04571533203125
1772534798951859200,3.580859130859375,-0.3657073974609375,-0.1501007080078125,-0.00347900390625
1772534798961876200,3.590876220703125,-0.4156646728515625,-0.15087890625,0.0179290771484375
1772534798971893000,3.60089306640625,-0.43572998046875,-0.1513824462890625,0.02105712890625
1772534798981910300,3.61091015625,-0.434600830078125,-0.1547698974609375,0.0153045654296875
1772534798991927000,3.620927001953125,-0.409149169921875,-0.16595458984375,-0.0211639404296875
1772534799001943000,3.630943115234375,-0.389801025390625,-0.165740966796875,-0.0757293701171875
1772534799011960300,3.640960205078125,-0.36346435546875,-0.1531524658203125,-0.1280059814453125
1772534799021977000,3.65097705078125,-0.321044921875,-0.1464080810546875,-0.1850433349609375
1772534799031994000,3.660994140625,-0.3007965087890625,-0.1384124755859375,-0.191619873046875
1772534799042011100,3.67101123046875,-0.334197998046875,-0.12939453125,-0.1790313720703125
1772534799052028200,3.681028076171875,-0.41436767578125,-0.1298980712890625,-0.165924072265625
1772534799062045200,3.691045166015625,-0.5635833740234375,-0.1646881103515625,-0.151092529296875
1772534799072062200,3.701062255859375,-0.764801025390625,-0.21246337890625,-0.17279052734375
1772534799082078200,3.711078125,-0.959930419921875,-0.2420654296875,-0.227142333984375
1772534799092095200,3.72109521484375,-1.1280364990234375,-0.2782745361328125,-0.30181884765625
1772534799102112300,3.7311123046875,-1.2296142578125,-0.34075927734375,-0.3840789794921875
1772534799112129300,3.74112939453125,-1.291595458984375,-0.45135498046875,-0.3964691162109375
1772534799122146000,3.75114599609375,-1.422698974609375,-0.50201416015625,-0.3896942138671875
1772534799132163300,3.761163330078125,-1.717010498046875,-0.4088592529296875,-0.41766357421875
1772534799142180000,3.77118017578125,-2.2180938720703125,-0.3254547119140625,-0.445343017578125
1772534799152197000,3.781197021484375,-2.763824462890625,-0.27618408203125,-0.492156982421875
1772534799162214400,3.79121435546875,-3.224395751953125,-0.241912841796875,-0.5859375
1772534799172230100,3.801230224609375,-3.542388916015625,-0.19366455078125,-0.6689605712890625
1772534799182247200,3.8112470703125,-3.6474761962890625,-0.1225128173828125,-0.7662353515625
1772534799192264200,3.82126416015625,-3.5395965576171875,-0.0671234130859375,-0.88714599609375
1772534799202281200,3.83128125,-3.24285888671875,-0.0870819091796875,-0.90179443359375
1772534799212298200,3.84129833984375,-2.905731201171875,-0.1691131591796875,-0.779449462890625
1772534799222315000,3.85131494140625,-2.6266326904296875,-0.2342376708984375,-0.66253662109375
1772534799232332300,3.861332275390625,-2.383087158203125,-0.2823638916015625,-0.5420379638671875
1772534799242349000,3.87134912109375,-2.1362762451171875,-0.329925537109375,-0.4591217041015625
1772534799252366300,3.881366455078125,-1.8845977783203125,-0.3539276123046875,-0.4297027587890625
1772534799262382300,3.89138232421875,-1.6367950439453125,-0.363006591796875,-0.4322357177734375
1772534799272399000,3.901399169921875,-1.42327880859375,-0.355987548828125,-0.479095458984375
1772534799282416000,3.911416015625,-1.2570648193359375,-0.3353424072265625,-0.553619384765625
1772534799292433200,3.92143310546875,-1.0726776123046875,-0.3197021484375,-0.6061859130859375
1772534799302450200,3.9314501953125,-0.888885498046875,-0.33154296875,-0.6271820068359375
1772534799312467200,3.94146728515625,-0.71063232421875,-0.3397369384765625,-0.624267578125
1772534799322484200,3.951484130859375,-0.5139617919921875,-0.33917236328125,-0.5845947265625
1772534799332501200,3.961501220703125,-0.2908782958984375,-0.334381103515625,-0.526153564453125
1772534799342518000,3.97151806640625,-0.0398101806640625,-0.29327392578125,-0.4658050537109375
1772534799352534300,3.9815341796875,0.1593780517578125,-0.2480316162109375,-0.358123779296875
1772534799362551300,3.99155126953125,0.2530517578125,-0.2038116455078125,-0.2341461181640625
1772534799372568000,4.001568115234375,0.2613372802734375,-0.1483612060546875,-0.1122894287109375
1772534799382585300,4.01158544921875,0.22845458984375,-0.1047821044921875,0.0111541748046875
1772534799392602000,4.02160205078125,0.2071685791015625,-0.0740203857421875,0.1169586181640625
1772534799402619100,4.031619140625,0.20892333984375,-0.05621337890625,0.173004150390625
1772534799412636200,4.04163623046875,0.23687744140625,-0.0764617919921875,0.182830810546875
1772534799422653200,4.051653076171875,0.287261962890625,-0.10430908203125,0.152099609375
1772534799432670200,4.061670166015625,0.3537750244140625,-0.1271209716796875,0.1071319580078125
1772534799442686200,4.071686279296875,0.4193572998046875,-0.1484375,0.0638427734375
1772534799452703200,4.081703125,0.448028564453125,-0.1576690673828125,0.02001953125
1772534799462720300,4.09172021484375,0.417572021484375,-0.1572418212890625,-0.00885009765625
1772534799472737000,4.101737060546875,0.317657470703125,-0.151397705078125,-0.0232696533203125
1772534799482754300,4.11175439453125,0.1994476318359375,-0.1526641845703125,-0.01495361328125
1772534799492771000,4.12177099609375,0.097930908203125,-0.148345947265625,-0.0034332275390625
1772534799502788400,4.131788330078125,-0.0068817138671875,-0.149810791015625,0.0035247802734375
1772534799512805000,4.14180517578125,-0.0906982421875,-0.16241455078125,0.0148162841796875
1772534799522822100,4.151822265625,-0.156524658203125,-0.157562255859375,0.0202178955078125
1772534799532838100,4.161838134765625,-0.1958770751953125,-0.154541015625,0.00665283203125
1772534799542855200,4.171855224609375,-0.242034912109375,-0.1633453369140625,0.006744384765625
1772534799552872200,4.1818720703125,-0.2732696533203125,-0.1721343994140625,0.021636962890625
1772534799562889200,4.19188916015625,-0.3108978271484375,-0.166168212890625,0.0360107421875
1772534799572906200,4.20190625,-0.409454345703125,-0.1660614013671875,0.0383758544921875
1772534799582923300,4.21192333984375,-0.5520782470703125,-0.1794586181640625,0.01605224609375
1772534799592940000,4.22193994140625,-0.6702117919921875,-0.185333251953125,-0.0263519287109375
1772534799602957300,4.231957275390625,-0.7645721435546875,-0.1761627197265625,-0.085052490234375
1772534799612974000,4.24197412109375,-0.8751678466796875,-0.165283203125,-0.142669677734375
1772534799622990000,4.251989990234375,-0.9864959716796875,-0.159454345703125,-0.190704345703125
1772534799633007400,4.26200732421875,-1.1398773193359375,-0.1978759765625,-0.221893310546875
1772534799643024100,4.272024169921875,-1.396087646484375,-0.2644195556640625,-0.2300262451171875
1772534799653041200,4.282041259765625,-1.7354736328125,-0.3005828857421875,-0.2827301025390625
1772534799663058200,4.29205810546875,-2.047149658203125,-0.332977294921875,-0.3659820556640625
1772534799673075200,4.3020751953125,-2.246826171875,-0.3323974609375,-0.4857940673828125
1772534799683092200,4.31209228515625,-2.30023193359375,-0.2144622802734375,-0.6727752685546875
1772534799693109200,4.322109130859375,-2.283111572265625,-0.0870819091796875,-0.782623291015625
1772534799703126300,4.332126220703125,-2.3334197998046875,-0.058197021484375,-0.8030853271484375
1772534799713142300,4.342142333984375,-2.5424957275390625,-0.07244873046875,-0.81109619140625
1772534799723159000,4.352158935546875,-2.81280517578125,-0.1275482177734375,-0.79736328125
1772534799733176300,4.36217626953125,-2.9902801513671875,-0.14453125,-0.732818603515625
1772534799743193000,4.372193115234375,-3.058624267578125,-0.10400390625,-0.650299072265625
1772534799753210400,4.38221044921875,-3.0705718994140625,-0.0648040771484375,-0.543914794921875
1772534799763227100,4.39222705078125,-3.016845703125,-0.0560455322265625,-0.404693603515625
1772534799773244200,4.402244140625,-2.8631134033203125,-0.0915985107421875,-0.2847442626953125
1772534799783261200,4.41226123046875,-2.6409149169921875,-0.1704864501953125,-0.220611572265625
1772534799793277200,4.422277099609375,-2.3807220458984375,-0.273529052734375,-0.2087249755859375
1772534799803294200,4.432294189453125,-2.1188507080078125,-0.3686065673828125,-0.233489990234375
1772534799813311000,4.44231103515625,-1.890106201171875,-0.4309844970703125,-0.2939910888671875
1772534799823328300,4.452328369140625,-1.62750244140625,-0.421295166015625,-0.4002227783203125
1772534799833345300,4.46234521484375,-1.3517913818359375,-0.353790283203125,-0.4700927734375
1772534799843362000,4.472362060546875,-1.1248321533203125,-0.3072357177734375,-0.5018157958984375
1772534799853379300,4.48237939453125,-0.91204833984375,-0.301025390625,-0.5340423583984375
1772534799863396400,4.492396240234375,-0.6981658935546875,-0.2979278564453125,-0.5424652099609375
1772534799873413400,4.502413330078125,-0.46795654296875,-0.2928924560546875,-0.5022430419921875
1772534799883429400,4.512429443359375,-0.239715576171875,-0.27618408203125,-0.4144134521484375
1772534799893446400,4.5224462890625,-0.019256591796875,-0.2384490966796875,-0.2896270751953125
1772534799903463400,4.53246337890625,0.175537109375,-0.19354248046875,-0.1585845947265625
1772534799913480200,4.542480224609375,0.3175048828125,-0.139495849609375,-0.0357666015625
1772534799923497500,4.55249755859375,0.3857269287109375,-0.0847930908203125,0.05853271484375
1772534799933514200,4.56251416015625,0.3841400146484375,-0.0455169677734375,0.118255615234375
1772534799943531300,4.57253125,0.3357086181640625,-0.02099609375,0.1489715576171875
1772534799953548500,4.582548583984375,0.278564453125,-0.011016845703125,0.16705322265625
1772534799963565300,4.5925654296875,0.2389373779296875,-0.0336761474609375,0.176727294921875
1772534799973581300,4.602581298828125,0.23101806640625,-0.0593414306640625,0.1881561279296875
1772534799983598600,4.6125986328125,0.248870849609375,-0.0856170654296875,0.1737060546875
1772534799993615400,4.622615478515625,0.2708892822265625,-0.1180877685546875,0.14739990234375
1772534800003632400,4.63263232421875,0.2762298583984375,-0.1479034423828125,0.1223297119140625
1772534800013649400,4.6426494140625,0.255706787109375,-0.168548583984375,0.07562255859375
1772534800023666400,4.65266650390625,0.1859130859375,-0.1776580810546875,0.026763916015625
1772534800033683200,4.66268310546875,0.066162109375,-0.1793670654296875,0.0164794921875
1772534800043700500,4.672700439453125,-0.0601348876953125,-0.1712188720703125,0.016815185546875
1772534800053717200,4.68271728515625,-0.1676788330078125,-0.1678924560546875,0.0193939208984375
1772534800063733200,4.692733154296875,-0.2459564208984375,-0.17010498046875,0.0309295654296875
1772534800073750300,4.702750244140625,-0.304473876953125,-0.17498779296875,0.05908203125
1772534800083767300,4.712767333984375,-0.337310791015625,-0.16864013671875,0.0753173828125
1772534800093784300,4.722784423828125,-0.336761474609375,-0.1529541015625,0.0784454345703125
1772534800103801300,4.73280126953125,-0.329315185546875,-0.142242431640625,0.05413818359375
1772534800113818400,4.742818359375,-0.30206298828125,-0.1194000244140625,0.0052032470703125
1772534800123835400,4.75283544921875,-0.2427215576171875,-0.1025390625,-0.029510498046875
1772534800133852200,4.76285205078125,-0.164886474609375,-0.0842742919921875,-0.0737457275390625
1772534800143869400,4.772869384765625,-0.0834197998046875,-0.0684051513671875,-0.1054840087890625
1772534800153885400,4.782885498046875,-0.02313232421875,-0.0408172607421875,-0.14483642578125
1772534800163902200,4.792902099609375,0.0323486328125,-0.0132904052734375,-0.21807861328125
1772534800173919500,4.80291943359375,-0.0357513427734375,-0.0196075439453125,-0.2490997314453125
1772534800183936300,4.812936279296875,-0.32281494140625,-0.014617919921875,-0.236419677734375
1772534800193953300,4.822953369140625,-0.6360931396484375,-0.0094146728515625,-0.1635589599609375
1772534800203970600,4.832970458984375,-1.0157012939453125,-0.001953125,-0.163726806640625
1772534800213987300,4.8429873046875,-1.510772705078125,-0.0507659912109375,-0.2818145751953125
1772534800224004400,4.85300439453125,-1.97821044921875,-0.26715087890625,-0.3997344970703125
1772534800234021400,4.863021484375,-2.276275634765625,-0.610809326171875,-0.3787994384765625
1772534800244037400,4.873037353515625,-2.439666748046875,-0.8242645263671875,-0.3575439453125
1772534800254054400,4.883054443359375,-3.1291351318359375,-0.5350799560546875,-0.5108795166015625
1772534800264071400,4.893071533203125,-4.31732177734375,-0.21533203125,-0.5765228271484375
1772534800274088400,4.90308837890625,-5.234771728515625,0.00848388671875,-0.829742431640625
1772534800284105200,4.913105224609375,-5.2349700927734375,0.4052734375,-1.1633758544921875
1772534800294122500,4.92312255859375,-4.55694580078125,0.4781036376953125,-1.0683135986328125
1772534800304139300,4.93313916015625,-3.557586669921875,0.1658935546875,-0.608154296875
1772534800314156300,4.94315625,-2.661651611328125,-0.1069183349609375,-0.1968231201171875
1772534800324173600,4.953173583984375,-2.1092681884765625,-0.2510223388671875,-0.0059814453125
1772534800334189300,4.963189208984375,-1.843353271484375,-0.3159027099609375,0.0228271484375
1772534800344206300,4.973206298828125,-1.6922760009765625,-0.3408660888671875,-0.110595703125
1772534800354223400,4.983223388671875,-1.6721343994140625,-0.3778228759765625,-0.17572021484375
1772534800364240400,4.993240478515625,-1.792938232421875,-0.3845672607421875,-0.185333251953125
1772534800374257400,5.00325732421875,-1.783447265625,-0.3129730224609375,-0.348663330078125
1772534800384274200,5.013274169921875,-1.6271820068359375,-0.21929931640625,-0.462158203125
1772534800394291500,5.02329150390625,-1.4160919189453125,-0.2025604248046875,-0.5938568115234375
1772534800404308200,5.03330810546875,-1.1270904541015625,-0.2479095458984375,-0.7041778564453125
1772534800414324200,5.04332421875,-0.8361358642578125,-0.316802978515625,-0.707550048828125
1772534800424341500,5.053341552734375,-0.5672454833984375,-0.3672637939453125,-0.6307373046875
1772534800434358300,5.063358154296875,-0.271636962890625,-0.3680267333984375,-0.468231201171875
1772534800444375300,5.073375244140625,-0.0200958251953125,-0.339019775390625,-0.248138427734375
1772534800454392300,5.083392333984375,0.1431732177734375,-0.2654876708984375,-0.036865234375
1772534800464409300,5.093409423828125,0.189239501953125,-0.1546478271484375,0.1128692626953125
1772534800474426400,5.10342626953125,0.17169189453125,-0.04071044921875,0.1884613037109375
1772534800484443400,5.113443359375,0.145904541015625,0.0253753662109375,0.22705078125
1772534800494460400,5.12346044921875,0.1385650634765625,0.04119873046875,0.2220611572265625
1772534800504476400,5.133476318359375,0.211334228515625,0.0164794921875,0.21875
1772534800514493400,5.143493408203125,0.3163909912109375,-0.04803466796875,0.1968231201171875
1772534800524510500,5.153510498046875,0.4118194580078125,-0.1053009033203125,0.156646728515625
1772534800534527200,5.16352734375,0.4756011962890625,-0.1580810546875,0.1178436279296875
1772534800544544500,5.17354443359375,0.4732513427734375,-0.1875762939453125,0.081939697265625
1772534800554561300,5.183561279296875,0.4199676513671875,-0.1862335205078125,0.037384033203125
1772534800564578300,5.193578369140625,0.3138427734375,-0.1767730712890625,0.00347900390625
1772534800574595300,5.20359521484375,0.19189453125,-0.177490234375,-0.012054443359375
1772534800584612400,5.2136123046875,0.07421875,-0.1704864501953125,-0.012451171875
1772534800594628400,5.22362841796875,-0.0207672119140625,-0.1566009521484375,0.0155181884765625
1772534800604645400,5.233645263671875,-0.0967559814453125,-0.144866943359375,0.0247344970703125
1772534800614662400,5.243662353515625,-0.155029296875,-0.139739990234375,0.014373779296875
1772534800624679400,5.253679443359375,-0.1937103271484375,-0.1456451416015625,0.004119873046875
1772534800634696200,5.2636962890625,-0.2276763916015625,-0.1643218994140625,-0.0099639892578125
1772534800644713500,5.27371337890625,-0.237579345703125,-0.17095947265625,-0.0277862548828125
1772534800654730200,5.283730224609375,-0.2384490966796875,-0.1674652099609375,-0.0507965087890625
1772534800664747300,5.293747314453125,-0.2799224853515625,-0.140899658203125,-0.0438385009765625
1772534800674764300,5.303764404296875,-0.3325958251953125,-0.1156768798828125,-0.03759765625
1772534800684780300,5.3137802734375,-0.3577880859375,-0.1010284423828125,-0.06866455078125
1772534800694797300,5.32379736328125,-0.363616943359375,-0.081298828125,-0.0843048095703125
1772534800705440300,5.334440185546875,-0.352783203125,-0.0875091552734375,-0.076690673828125
1772534800715457500,5.34445751953125,-0.3500213623046875,-0.110809326171875,-0.085662841796875
1772534800725474300,5.354474365234375,-0.418701171875,-0.11248779296875,-0.115814208984375
1772534800735491300,5.3644912109375,-0.550506591796875,-0.1004638671875,-0.1360931396484375
1772534800745508400,5.37450830078125,-0.7141571044921875,-0.1161651611328125,-0.1636199951171875
1772534800755525400,5.384525390625,-0.9598846435546875,-0.1683502197265625,-0.14935302734375
1772534800765542100,5.394542236328125,-1.2979583740234375,-0.247222900390625,-0.107696533203125
1772534800775558400,5.404558349609375,-1.69158935546875,-0.351470947265625,-0.1007080078125
1772534800785575400,5.414575439453125,-2.114166259765625,-0.4185791015625,-0.1370391845703125
1772534800795592200,5.42459228515625,-2.4443511962890625,-0.42791748046875,-0.227691650390625
1772534800806861300,5.435861328125,-2.7280120849609375,-0.2926177978515625,-0.362396240234375
1772534800816878300,5.44587841796875,-2.9923858642578125,-0.0958099365234375,-0.5084381103515625
1772534800826895400,5.455895263671875,-3.280426025390625,-0.0047760009765625,-0.64642333984375
1772534800836912400,5.465912353515625,-3.583709716796875,-0.019439697265625,-0.8232574462890625
1772534800846929400,5.475929443359375,-3.68426513671875,-0.0769500732421875,-0.9611053466796875
1772534800856945700,5.485945556640625,-3.496917724609375,-0.1226043701171875,-0.9980621337890625
1772534800866962700,5.495962646484375,-3.156494140625,-0.1121673583984375,-0.9229736328125
1772534800876978700,5.505978759765625,-2.8471527099609375,-0.082275390625,-0.7370758056640625
1772534800886995700,5.51599560546875,-2.637481689453125,-0.035247802734375,-0.5418853759765625
1772534800897012700,5.5260126953125,-2.4569091796875,-0.0194091796875,-0.3741607666015625
1772534800907029500,5.536029541015625,-2.2466583251953125,-0.0740203857421875,-0.2447052001953125
1772534800917046800,5.546046875,-1.9658050537109375,-0.18621826171875,-0.18927001953125
1772534800927063800,5.556063720703125,-1.629547119140625,-0.3086090087890625,-0.2017059326171875
1772534800937080600,5.56608056640625,-1.34344482421875,-0.3756866455078125,-0.2499237060546875
1772534800947097900,5.576097900390625,-1.2143707275390625,-0.3720855712890625,-0.2893218994140625
1772534800957114600,5.586114501953125,-1.163482666015625,-0.3238372802734375,-0.360015869140625
1772534800967130600,5.596130615234375,-1.068756103515625,-0.282196044921875,-0.43450927734375
1772534800977148000,5.60614794921875,-0.936187744140625,-0.26507568359375,-0.4821929931640625
1772534800987164700,5.61616455078125,-0.7767333984375,-0.2677459716796875,-0.5070953369140625
1772534800997181700,5.626181640625,-0.593780517578125,-0.2646636962890625,-0.50897216796875
1772534801007198700,5.63619873046875,-0.384368896484375,-0.249114990234375,-0.471588134765625
1772534801017215700,5.6462158203125,-0.1566314697265625,-0.2458953857421875,-0.3934478759765625
1772534801027232800,5.656232666015625,0.057525634765625,-0.231353759765625,-0.31219482421875
1772534801037249800,5.666249755859375,0.2425079345703125,-0.1974639892578125,-0.24859619140625
1772534801047266800,5.676266845703125,0.3614959716796875,-0.1528778076171875,-0.1934814453125
1772534801057909800,5.68690966796875,0.361083984375,-0.10418701171875,-0.0862579345703125
1772534801067926500,5.696926513671875,0.2912445068359375,-0.079254150390625,0.0250091552734375
1772534801077943800,5.70694384765625,0.2212066650390625,-0.07501220703125,0.071807861328125
1772534801087959800,5.716959716796875,0.1741943359375,-0.0814208984375,0.0937652587890625
1772534801097976600,5.7269765625,0.15191650390625,-0.0800323486328125,0.13531494140625
1772534801107993900,5.736993896484375,0.147796630859375,-0.058868408203125,0.0922393798828125
1772534801118011000,5.747010986328125,0.1636962890625,-0.0658416748046875,0.0219573974609375
1772534801128027600,5.757027587890625,0.143951416015625,-0.0662384033203125,-0.0168914794921875
1772534801138045000,5.767044921875,0.0844268798828125,-0.056304931640625,0.0010528564453125
1772534801148061700,5.777061767578125,0.0347747802734375,-0.04742431640625,0.0158538818359375
1772534801158078700,5.78707861328125,-0.027557373046875,-0.025970458984375,0.0319671630859375
1772534801168094700,5.7970947265625,-0.10638427734375,0.0140838623046875,0.0702362060546875
1772534801178111700,5.80711181640625,-0.17987060546875,0.0263671875,0.0788421630859375
1772534801188128800,5.817128662109375,-0.265899658203125,-0.008209228515625,0.0514068603515625
1772534801198145500,5.8271455078125,-0.3613739013671875,-0.0307769775390625,0.0408782958984375
1772534801208162800,5.837162841796875,-0.3682403564453125,-0.00421142578125,0.066619873046875
1772534801218179600,5.8471796875,-0.3118896484375,0.011688232421875,0.121185302734375
1772534801228196600,5.857196533203125,-0.29583740234375,0.0105438232421875,0.1370697021484375
1772534801238214000,5.8672138671875,-0.3410491943359375,0.0389556884765625,0.1014862060546875
1772534801248230700,5.877230712890625,-0.3965301513671875,0.0676116943359375,0.0354156494140625
1772534801258246700,5.88724658203125,-0.414459228515625,0.02685546875,-0.045654296875
1772534801268264000,5.897263916015625,-0.43841552734375,-0.02630615234375,-0.096588134765625
1772534801278280700,5.90728076171875,-0.4783477783203125,-0.12078857421875,-0.06561279296875
1772534801288297700,5.917297607421875,-0.5803070068359375,-0.2558135986328125,0.0478973388671875
1772534801298314800,5.927314697265625,-0.7146759033203125,-0.400177001953125,0.2108154296875
1772534801308331800,5.937331787109375,-0.921234130859375,-0.49951171875,0.2877960205078125
1772534801318348500,5.9473486328125,-1.2386932373046875,-0.4461212158203125,0.1657867431640625
1772534801328365800,5.95736572265625,-1.5748748779296875,-0.3938140869140625,-0.019012451171875
1772534801338382800,5.9673828125,-1.8578948974609375,-0.564361572265625,-0.09918212890625
1772534801348398600,5.977398681640625,-2.0772857666015625,-0.8201446533203125,-0.104095458984375
1772534801360919800,5.989919921875,-2.309112548828125,-0.9293060302734375,-0.1484527587890625
1772534801370936600,5.9999365234375,-2.568450927734375,-0.7622528076171875,-0.2086639404296875
1772534801380953900,6.009953857421875,-2.8661346435546875,-0.5049285888671875,-0.2015533447265625
1772534801390970600,6.019970703125,-3.0973663330078125,-0.3453826904296875,-0.2012786865234375
1772534801400987600,6.029987548828125,-3.1546630859375,-0.3699493408203125,-0.1762237548828125
1772534801411004700,6.040004638671875,-2.9637603759765625,-0.487396240234375,-0.152496337890625
1772534801421021700,6.050021728515625,-2.5996551513671875,-0.5359954833984375,-0.1655120849609375
1772534801431038700,6.060038818359375,-2.23681640625,-0.5506744384765625,-0.1294403076171875
1772534801441054700,6.0700546875,-2.042877197265625,-0.5331268310546875,-0.087127685546875
1772534801451071700,6.08007177734375,-2.0588226318359375,-0.4328765869140625,-0.05096435546875
1772534801461088800,6.0900888671875,-2.1139678955078125,-0.3014373779296875,-0.04595947265625
1772534801471105800,6.100105712890625,-2.060638427734375,-0.220977783203125,-0.073150634765625
1772534801481122800,6.110122802734375,-1.913726806640625,-0.202178955078125,-0.1151885986328125
1772534801491139600,6.1201396484375,-1.7270965576171875,-0.2270355224609375,-0.198089599609375
1772534801501156900,6.130156982421875,-1.5029144287109375,-0.266998291015625,-0.2802581787109375
1772534801511173600,6.140173583984375,-1.227508544921875,-0.3085174560546875,-0.3389892578125
1772534801521190700,6.150190673828125,-0.96575927734375,-0.32562255859375,-0.3839874267578125
1772534801531207000,6.16020703125,-0.7496337890625,-0.2963104248046875,-0.41131591796875
1772534801541223700,6.1702236328125,-0.5738372802734375,-0.256011962890625,-0.4058380126953125
1772534801551240700,6.18024072265625,-0.4083709716796875,-0.22845458984375,-0.349639892578125
1772534801561257700,6.1902578125,-0.26165771484375,-0.2129058837890625,-0.2626190185546875
1772534801571274800,6.200274658203125,-0.1278076171875,-0.18499755859375,-0.1553802490234375
1772534801581291800,6.210291748046875,-0.0072174072265625,-0.1538848876953125,-0.03729248046875
1772534801591308800,6.220308837890625,0.06182861328125,-0.1132965087890625,0.0545501708984375
1772534801601325800,6.230325927734375,0.0744781494140625,-0.0542755126953125,0.0995635986328125
1772534801611342600,6.240342529296875,0.0402984619140625,-0.0275115966796875,0.118682861328125
1772534801621358600,6.250358642578125,-0.0061187744140625,-0.0341796875,0.137237548828125
1772534801631376000,6.2603759765625,-0.0305023193359375,-0.0366973876953125,0.1313323974609375
1772534801641392600,6.270392578125,-0.018035888671875,-0.0438995361328125,0.0979766845703125
1772534801651409700,6.28040966796875,0.0232086181640625,-0.0707244873046875,0.0625152587890625
1772534801661426700,6.2904267578125,0.0771636962890625,-0.0827789306640625,0.010498046875
1772534801671443700,6.300443603515625,0.1495819091796875,-0.080047607421875,-0.0428924560546875
1772534801681460700,6.310460693359375,0.227020263671875,-0.0872039794921875,-0.0756683349609375
1772534801691477800,6.320477783203125,0.3016204833984375,-0.0829620361328125,-0.0830230712890625
1772534801701494800,6.330494873046875,0.34259033203125,-0.063629150390625,-0.0618133544921875
1772534801711510800,6.3405107421875,0.31805419921875,-0.0642242431640625,-0.033111572265625
1772534801721527800,6.35052783203125,0.2194061279296875,-0.07952880859375,-0.0338592529296875
1772534801731544800,6.360544921875,0.078094482421875,-0.0861053466796875,-0.054718017578125
1772534801741561600,6.3705615234375,-0.052490234375,-0.094329833984375,-0.07830810546875
1772534801751579000,6.380578857421875,-0.139801025390625,-0.1145477294921875,-0.0760040283203125
1772534801761595600,6.390595703125,-0.187591552734375,-0.1295013427734375,-0.0493927001953125
1772534801771612700,6.40061279296875,-0.214569091796875,-0.139373779296875,-0.0122222900390625
1772534801781629700,6.410629638671875,-0.2035064697265625,-0.1416015625,0.025177001953125
1772534801791645700,6.420645751953125,-0.1843719482421875,-0.13031005859375,0.0450439453125
1772534801801662700,6.430662841796875,-0.2125244140625,-0.135009765625,0.078582763671875
1772534801811679700,6.4406796875,-0.3177337646484375,-0.140106201171875,0.124664306640625
1772534801821696800,6.45069677734375,-0.4682769775390625,-0.116790771484375,0.128662109375
1772534801831713800,6.4607138671875,-0.6372833251953125,-0.14990234375,0.0864105224609375
1772534801841730800,6.470730712890625,-0.8506927490234375,-0.227203369140625,0.027496337890625
1772534801851747800,6.480747802734375,-1.02520751953125,-0.304229736328125,-0.030609130859375
1772534801861764600,6.4907646484375,-1.15521240234375,-0.3855133056640625,-0.0917205810546875
1772534801871782000,6.500781982421875,-1.3397674560546875,-0.4938507080078125,-0.15972900390625
1772534801881798000,6.5107978515625,-1.6473541259765625,-0.6407012939453125,-0.195343017578125
1772534801891814700,6.520814697265625,-1.996063232421875,-0.787200927734375,-0.28009033203125
1772534801901831700,6.530831787109375,-2.290771484375,-0.9445953369140625,-0.382080078125
1772534801911848700,6.5408486328125,-2.50299072265625,-1.0009765625,-0.4447021484375
1772534801921865700,6.55086572265625,-2.5687103271484375,-0.858856201171875,-0.4887847900390625
1772534801931882500,6.560882568359375,-2.55316162109375,-0.7440338134765625,-0.412750244140625
1772534801941899800,6.570899658203125,-2.71697998046875,-0.7394256591796875,-0.2762298583984375
1772534801951916800,6.580916748046875,-3.0989990234375,-0.7071075439453125,-0.1532745361328125
1772534801961933600,6.59093359375,-3.514434814453125,-0.5977630615234375,-0.0462188720703125
1772534801971949800,6.60094970703125,-3.775360107421875,-0.42413330078125,-0.00189208984375
1772534801981966800,6.610966796875,-3.7663421630859375,-0.25732421875,-0.0634307861328125
1772534801991983600,6.620983642578125,-3.4813232421875,-0.1592254638671875,-0.1956787109375
1772534802002001000,6.6310009765625,-3.0395965576171875,-0.1397857666015625,-0.27520751953125
1772534802012017700,6.641017578125,-2.5599517822265625,-0.188232421875,-0.359161376953125
1772534802022034700,6.65103466796875,-2.088836669921875,-0.2370452880859375,-0.4526824951171875
1772534802032051700,6.6610517578125,-1.6588897705078125,-0.302215576171875,-0.5304107666015625
1772534802042068700,6.67106884765625,-1.281158447265625,-0.3469390869140625,-0.6173095703125
1772534802052085800,6.681085693359375,-0.9347686767578125,-0.34442138671875,-0.6893768310546875
1772534802062101800,6.691101806640625,-0.716461181640625,-0.3211517333984375,-0.71343994140625
1772534802072118800,6.701118896484375,-0.6966705322265625,-0.212005615234375,-0.6072540283203125
1772534802082135600,6.711135498046875,-0.8410797119140625,-0.0775909423828125,-0.431365966796875
1772534802092152800,6.72115283203125,-0.947662353515625,0.0345916748046875,-0.258331298828125
1772534802102169900,6.731169921875,-0.9554595947265625,0.1046905517578125,-0.0997467041015625
1772534802112186600,6.7411865234375,-0.872283935546875,0.1153106689453125,-0.003387451171875
1772534802122204000,6.751203857421875,-0.7238922119140625,0.0988616943359375,0.000152587890625
1772534802132220700,6.761220703125,-0.507476806640625,0.0695037841796875,-0.00823974609375
1772534802142236700,6.771236572265625,-0.2412567138671875,0.048828125,0.0028839111328125
1772534802152253700,6.781253662109375,-0.013519287109375,0.041534423828125,0.0327911376953125
1772534802162270700,6.791270751953125,0.12615966796875,0.0502471923828125,0.0639190673828125
1772534802172287700,6.801287841796875,0.1922454833984375,0.0810699462890625,0.101104736328125
1772534802182304500,6.811304443359375,0.2319183349609375,0.099517822265625,0.1592254638671875
1772534802192321800,6.82132177734375,0.2627410888671875,0.086273193359375,0.196990966796875
1772534802202338800,6.8313388671875,0.2636566162109375,0.0701904296875,0.1594085693359375
1772534802212355600,6.84135546875,0.2884063720703125,0.035369873046875,0.1235504150390625
1772534802222372900,6.851372802734375,0.34088134765625,0.0178680419921875,0.1026611328125
1772534802232388600,6.861388671875,0.3651123046875,0.0156707763671875,0.053924560546875
1772534802242405600,6.871405517578125,0.365631103515625,0.0202789306640625,-0.03668212890625
1772534802252423000,6.8814228515625,0.3474884033203125,0.0270538330078125,-0.1218719482421875
1772534802262439700,6.891439697265625,0.346649169921875,0.0347442626953125,-0.1923980712890625
1772534802272456700,6.901456787109375,0.3385772705078125,0.019989013671875,-0.2521209716796875
1772534802282473700,6.9114736328125,0.274871826171875,-0.016876220703125,-0.2481842041015625
1772534802292490800,6.92149072265625,0.208740234375,-0.0292816162109375,-0.1974639892578125
1772534802302507500,6.931507568359375,0.159576416015625,-0.0180816650390625,-0.1254119873046875
1772534802312524800,6.94152490234375,0.1224517822265625,0.0108184814453125,-0.0528106689453125
1772534802322540800,6.951540771484375,0.0759429931640625,0.04669189453125,-0.01092529296875
1772534802332557600,6.9615576171875,0.0100860595703125,0.0865478515625,0.024688720703125
1772534802342574800,6.971574951171875,-0.0533447265625,0.1051025390625,0.0670623779296875
1772534802352592000,6.981591796875,-0.11798095703125,0.07257080078125,0.092742919921875
1772534802362608600,6.991608642578125,-0.160369873046875,0.0437774658203125,0.09356689453125
1772534802372626000,7.0016259765625,-0.13262939453125,0.029998779296875,0.0522308349609375
1772534802382642700,7.011642578125,-0.108367919921875,-0.018524169921875,0.011505126953125
1772534802392659700,7.02165966796875,-0.1706390380859375,-0.0395660400390625,-0.017486572265625
1772534802402676700,7.0316767578125,-0.3124237060546875,-0.062896728515625,-0.03131103515625
1772534802412692700,7.041692626953125,-0.499847412109375,-0.13580322265625,-0.0467376708984375
1772534802422709800,7.051709716796875,-0.7308349609375,-0.2050323486328125,-0.0983428955078125
1772534802432726500,7.0617265625,-1.0329742431640625,-0.314544677734375,-0.15460205078125
1772534802442743800,7.071743896484375,-1.364044189453125,-0.535919189453125,-0.2209320068359375
1772534802452760600,7.081760498046875,-1.6746978759765625,-0.797088623046875,-0.3653717041015625
1772534802462777600,7.091777587890625,-2.0109405517578125,-1.0583343505859375,-0.449981689453125
1772534802472795000,7.101794921875,-2.3666839599609375,-1.1808013916015625,-0.470367431640625
1772534802482811600,7.111811767578125,-2.7191162109375,-1.10418701171875,-0.4967193603515625
1772534802492827600,7.12182763671875,-3.1449127197265625,-0.9932708740234375,-0.5110321044921875
1772534802502845000,7.131844970703125,-3.5828094482421875,-0.84100341796875,-0.53240966796875
1772534802512861700,7.14186181640625,-3.9748992919921875,-0.8126983642578125,-0.49560546875
1772534802522878700,7.151878662109375,-4.1212921142578125,-0.8245697021484375,-0.371826171875
1772534802532895700,7.161895751953125,-3.8233489990234375,-0.8229827880859375,-0.2601165771484375
1772534802542912800,7.171912841796875,-3.2748260498046875,-0.884429931640625,-0.164276123046875
1772534802552929500,7.181929443359375,-2.7496490478515625,-0.9210662841796875,-0.1111602783203125
1772534802562946800,7.19194677734375,-2.307037353515625,-0.8842926025390625,-0.1192626953125
1772534802572963800,7.2019638671875,-1.9846343994140625,-0.7941741943359375,-0.181549072265625
1772534802582979600,7.2119794921875,-1.75457763671875,-0.6656646728515625,-0.246063232421875
1772534802592996900,7.221996826171875,-1.6002197265625,-0.53350830078125,-0.2773284912109375
1772534802603013600,7.232013671875,-1.492645263671875,-0.3750457763671875,-0.26171875
1772534802613030700,7.24203076171875,-1.3506317138671875,-0.220184326171875,-0.238494873046875
1772534802623048000,7.2520478515625,-1.1798553466796875,-0.1105804443359375,-0.2658843994140625
1772534802633064700,7.262064697265625,-0.997772216796875,-0.0640716552734375,-0.3674774169921875
1772534802643081700,7.272081787109375,-0.7799072265625,-0.080108642578125,-0.4928741455078125
1772534802653098800,7.2820986328125,-0.5245208740234375,-0.1347503662109375,-0.557037353515625
1772534802663114800,7.29211474609375,-0.2466278076171875,-0.173675537109375,-0.5415496826171875
1772534802673131800,7.3021318359375,0.0134735107421875,-0.1865234375,-0.4658050537109375
1772534802683148500,7.3121484375,0.1963043212890625,-0.1775970458984375,-0.364532470703125
1772534802693165800,7.322165771484375,0.2684478759765625,-0.1271209716796875,-0.250274658203125
1772534802703182600,7.3321826171875,0.253143310546875,-0.0509185791015625,-0.127777099609375
1772534802713199600,7.34219970703125,0.1797637939453125,-0.00341796875,0.00164794921875
1772534802723217000,7.352216796875,0.070159912109375,0.0187530517578125,0.116424560546875
1772534802733233700,7.362233642578125,-0.0266571044921875,0.0155487060546875,0.1932525634765625
1772534802743251000,7.3722509765625,-0.074798583984375,0.011505126953125,0.24237060546875
1772534802753266700,7.3822666015625,-0.0685882568359375,0.017181396484375,0.26055908203125
1772534802763283700,7.39228369140625,-0.034576416015625,0.0133514404296875,0.2435150146484375
1772534802773300700,7.40230078125,-0.00732421875,-0.007720947265625,0.193206787109375
1772534802783317800,7.41231787109375,0.0039215087890625,-0.034149169921875,0.1102752685546875
1772534802793334800,7.422334716796875,0.02740478515625,-0.07666015625,0.0113372802734375
1772534802803351600,7.4323515625,0.0794525146484375,-0.1034698486328125,-0.06640625
1772534802813368800,7.442368896484375,0.10540771484375,-0.1143646240234375,-0.111968994140625
1772534802823385600,7.452385498046875,0.076385498046875,-0.1108245849609375,-0.128204345703125
1772534802833401600,7.462401611328125,0.010406494140625,-0.1028289794921875,-0.13409423828125
1772534802843419000,7.4724189453125,-0.075164794921875,-0.0858154296875,-0.1292572021484375
1772534802853435600,7.482435546875,-0.1524658203125,-0.0679931640625,-0.116363525390625
1772534802863452700,7.49245263671875,-0.2272186279296875,-0.0554656982421875,-0.1232452392578125
1772534802873469700,7.5024697265625,-0.26220703125,-0.051605224609375,-0.144622802734375
1772534802883486700,7.51248681640625,-0.2700958251953125,-0.051849365234375,-0.1586456298828125
1772534802893503700,7.522503662109375,-0.2896881103515625,-0.0687713623046875,-0.16497802734375
1772534802903520500,7.5325205078125,-0.2843475341796875,-0.082000732421875,-0.1492462158203125
1772534802913537800,7.542537841796875,-0.26641845703125,-0.07342529296875,-0.1321258544921875
1772534802923553800,7.5525537109375,-0.2926177978515625,-0.0665130615234375,-0.125640869140625
1772534802933570600,7.562570556640625,-0.3334197998046875,-0.074371337890625,-0.15069580078125
1772534802943587800,7.572587890625,-0.397552490234375,-0.081695556640625,-0.1675262451171875
1772534802953604600,7.5826044921875,-0.52850341796875,-0.0777130126953125,-0.180999755859375
1772534802963621600,7.59262158203125,-0.7496337890625,-0.107421875,-0.2216033935546875
1772534802973638700,7.602638671875,-1.0336761474609375,-0.1699676513671875,-0.32586669921875
1772534802983655700,7.61265576171875,-1.300323486328125,-0.2204132080078125,-0.4206695556640625
1772534802993672700,7.622672607421875,-1.5308837890625,-0.343353271484375,-0.4409027099609375
1772534803003688400,7.6326884765625,-1.80474853515625,-0.5447845458984375,-0.443939208984375
1772534803013705700,7.642705810546875,-2.14923095703125,-0.714874267578125,-0.4242706298828125
1772534803023722800,7.65272265625,-2.5114288330078125,-0.6847686767578125,-0.5741119384765625
1772534803033739800,7.66273974609375,-2.915924072265625,-0.431243896484375,-0.9322052001953125
1772534803043756800,7.6727568359375,-3.326202392578125,-0.2520751953125,-1.2514801025390625
1772534803053773600,7.682773681640625,-3.6529998779296875,-0.22686767578125,-1.4654388427734375
1772534803063790800,7.692790771484375,-3.7954864501953125,-0.260040283203125,-1.5757293701171875
1772534803073807600,7.7028076171875,-3.7436065673828125,-0.2423553466796875,-1.4461669921875
1772534803083824600,7.71282470703125,-3.5381011962890625,-0.199432373046875,-1.1294403076171875
1772534803093840600,7.722840576171875,-3.18524169921875,-0.134033203125,-0.7633819580078125
1772534803103857700,7.732857666015625,-2.7936859130859375,-0.07867431640625,-0.42657470703125
1772534803113874700,7.742874755859375,-2.421844482421875,-0.0410919189453125,-0.194580078125
1772534803123891700,7.7528916015625,-2.120147705078125,-0.059356689453125,-0.02801513671875
1772534803133908700,7.76290869140625,-1.8875885009765625,-0.09027099609375,0.04534912109375
1772534803143925800,7.77292578125,-1.702972412109375,-0.109039306640625,0.0236358642578125
1772534803153942500,7.782942626953125,-1.523040771484375,-0.140655517578125,-0.0351409912109375
1772534803163959800,7.792959716796875,-1.319427490234375,-0.155670166015625,-0.186859130859375
1772534803173975800,7.802975830078125,-1.0975189208984375,-0.125823974609375,-0.33197021484375
1772534803183992600,7.81299267578125,-0.9302825927734375,-0.116607666015625,-0.386688232421875
1772534803194009900,7.823009765625,-0.8064727783203125,-0.1075286865234375,-0.4188232421875
1772534803204026600,7.833026611328125,-0.695892333984375,-0.0781097412109375,-0.428192138671875
1772534803214043600,7.843043701171875,-0.577728271484375,-0.047607421875,-0.3879241943359375
1772534803224060700,7.853060791015625,-0.3874969482421875,-0.005279541015625,-0.268035888671875
1772534803234077700,7.86307763671875,-0.1546478271484375,0.0232086181640625,-0.143310546875
1772534803244094700,7.8730947265625,0.0595245361328125,0.06402587890625,-0.061737060546875
1772534803254110500,7.8831103515625,0.2390899658203125,0.121612548828125,-0.0248565673828125
1772534803264127700,7.893127685546875,0.3594818115234375,0.1476287841796875,-0.0041351318359375
1772534803274144800,7.903144775390625,0.4140777587890625,0.1296844482421875,0.0163421630859375
1772534803284161800,7.913161865234375,0.42340087890625,0.10369873046875,0.0183868408203125
1772534803294178800,7.9231787109375,0.4288787841796875,0.09100341796875,-0.0130615234375
1772534803304195600,7.933195556640625,0.446136474609375,0.0797576904296875,-0.0522003173828125
1772534803314212900,7.943212890625,0.45458984375,0.052001953125,-0.0806121826171875
1772534803324229600,7.953229736328125,0.4490966796875,0.01318359375,-0.086883544921875
1772534803334246700,7.96324658203125,0.4476165771484375,-0.0171051025390625,-0.0775909423828125
1772534803344262700,7.9732626953125,0.4285125732421875,-0.0265655517578125,-0.0943603515625
1772534803354279700,7.98327978515625,0.3536834716796875,-0.0159149169921875,-0.0977630615234375
1772534803364296700,7.993296630859375,0.2353515625,-0.002899169921875,-0.073089599609375
1772534803374313500,8.0033134765625,0.1065826416015625,0.00982666015625,-0.044677734375
1772534803384330800,8.013330810546876,-0.00579833984375,0.008880615234375,-0.0310821533203125
1772534803394347800,8.02334765625,-0.074462890625,-0.0042724609375,-0.0469970703125
1772534803404364500,8.033364501953125,-0.10833740234375,-0.0362548828125,-0.035552978515625
1772534803414381800,8.0433818359375,-0.134185791015625,-0.049530029296875,-0.0155792236328125
1772534803424397800,8.053397705078124,-0.1811370849609375,-0.0545196533203125,0.0061492919921875
1772534803434414600,8.06341455078125,-0.232269287109375,-0.0649261474609375,0.0492706298828125
1772534803444432000,8.073431884765625,-0.2679595947265625,-0.0603790283203125,0.0834808349609375
1772534803454448600,8.08344873046875,-0.3050689697265625,-0.047760009765625,0.0713958740234375
1772534803464465700,8.093465576171875,-0.3532257080078125,-0.06011962890625,-0.0108184814453125
1772534803474482700,8.103482666015625,-0.3949737548828125,-0.1009063720703125,-0.0779571533203125
1772534803484499700,8.113499755859374,-0.4046173095703125,-0.128387451171875,-0.1058349609375
1772534803494516700,8.123516845703126,-0.422698974609375,-0.151123046875,-0.11578369140625
1772534803504532500,8.133532470703125,-0.51275634765625,-0.1834716796875,-0.1490020751953125
1772534803514549800,8.1435498046875,-0.667236328125,-0.21258544921875,-0.2281341552734375
1772534803524566500,8.15356640625,-0.9221343994140625,-0.2800140380859375,-0.27020263671875
1772534803534583800,8.163583740234374,-1.302398681640625,-0.3949737548828125,-0.2964019775390625
1772534803544600800,8.173600830078126,-1.6661834716796875,-0.5229949951171875,-0.36529541015625
1772534803554617600,8.18361767578125,-1.9449462890625,-0.656158447265625,-0.3527069091796875
1772534803564635000,8.193634765625,-2.292144775390625,-0.7543182373046875,-0.2953033447265625
1772534803574651600,8.203651611328125,-2.719482421875,-0.5975341796875,-0.4361419677734375
1772534803584667600,8.213667724609374,-3.093719482421875,-0.338623046875,-0.703033447265625
1772534803594684700,8.2236845703125,-3.464019775390625,-0.2197265625,-0.921112060546875
1772534803604701700,8.23370166015625,-3.7016448974609375,-0.149566650390625,-1.1546478271484375
1772534803614718700,8.24371875,-3.6939544677734375,-0.1581878662109375,-1.2484588623046875
1772534803624735500,8.253735595703125,-3.5160369873046875,-0.1925048828125,-1.11431884765625
1772534803634752800,8.263752685546875,-3.2196807861328125,-0.1601715087890625,-0.846771240234375
1772534803644769800,8.273769775390624,-2.8535614013671875,-0.1218109130859375,-0.533477783203125
1772534803654786600,8.28378662109375,-2.5100860595703125,-0.1054840087890625,-0.21856689453125
1772534803664803800,8.293803955078126,-2.2052764892578125,-0.11688232421875,0.01068115234375
1772534803674819600,8.303819580078125,-1.95635986328125,-0.1722259521484375,0.1165313720703125
1772534803684836600,8.313836669921875,-1.8098907470703125,-0.2566986083984375,0.1673583984375
1772534803694854000,8.32385400390625,-1.7251129150390625,-0.2928924560546875,0.1710205078125
1772534803704870700,8.33387060546875,-1.62127685546875,-0.2542572021484375,0.0813140869140625
1772534803714887700,8.3438876953125,-1.4680328369140625,-0.16302490234375,-0.0608062744140625
1772534803724904700,8.35390478515625,-1.3436126708984375,-0.1039581298828125,-0.1954193115234375
1772534803734921700,8.363921630859375,-1.1954803466796875,-0.13763427734375,-0.3436431884765625
1772534803744938500,8.3739384765625,-0.9982147216796875,-0.17327880859375,-0.457672119140625
1772534803754954500,8.38395458984375,-0.7905120849609375,-0.1910400390625,-0.5269927978515625
1772534803764971800,8.3939716796875,-0.5179443359375,-0.202545166015625,-0.52520751953125
1772534803774988500,8.403988525390625,-0.195587158203125,-0.203521728515625,-0.416290283203125
1772534803785005600,8.414005615234375,0.1516265869140625,-0.193756103515625,-0.2425079345703125
1772534803795022800,8.42402294921875,0.428466796875,-0.15087890625,-0.095703125
1772534803805039600,8.43403955078125,0.565216064453125,-0.05950927734375,-0.0096282958984375
1772534803815057000,8.444056884765626,0.5889892578125,0.0343475341796875,0.044464111328125
1772534803825073700,8.45407373046875,0.51776123046875,0.0771636962890625,0.08428955078125
1772534803835089700,8.464089599609375,0.3937225341796875,0.0622406005859375,0.1128082275390625
1772534803845106700,8.474106689453125,0.2718658447265625,0.04107666015625,0.1281890869140625
1772534803855123500,8.48412353515625,0.21942138671875,0.019561767578125,0.1345672607421875
1772534803865140700,8.494140625,0.24749755859375,-0.0100555419921875,0.1422576904296875
1772534803875157500,8.504157470703126,0.3132171630859375,-0.0328521728515625,0.12841796875
1772534803885174500,8.514174560546875,0.3686370849609375,-0.057586669921875,0.10101318359375
1772534803895191600,8.524191650390625,0.3846893310546875,-0.0717620849609375,0.06817626953125
1772534803905208600,8.53420849609375,0.3376617431640625,-0.08111572265625,0.0346221923828125
1772534803915224600,8.544224609375,0.2588653564453125,-0.0912628173828125,-0.000396728515625
1772534803925241300,8.554241455078126,0.1475982666015625,-0.091827392578125,-0.0147705078125
1772534803935258600,8.564258544921875,-0.0057220458984375,-0.0896148681640625,-0.0025787353515625
1772534803945275600,8.574275634765625,-0.154266357421875,-0.1024017333984375,0.0141754150390625
1772534803955292400,8.58429248046875,-0.26702880859375,-0.11151123046875,0.0381927490234375
1772534803965309700,8.594309814453124,-0.368988037109375,-0.1060638427734375,0.0570220947265625
1772534803975326500,8.604326416015626,-0.4723358154296875,-0.103668212890625,0.06488037109375
1772534803985343500,8.614343505859376,-0.524505615234375,-0.13092041015625,0.0728607177734375
1772534803995359700,8.62435986328125,-0.510772705078125,-0.1403656005859375,0.0655517578125
1772534804005376500,8.63437646484375,-0.479034423828125,-0.1305694580078125,0.053802490234375
1772534804015393500,8.6443935546875,-0.4710235595703125,-0.136566162109375,0.040557861328125
1772534804025410600,8.65441064453125,-0.5184783935546875,-0.153564453125,0.0131683349609375
1772534804035427600,8.664427490234376,-0.5952606201171875,-0.2129974365234375,-0.059600830078125
1772534804045444600,8.674444580078125,-0.6989593505859375,-0.2800140380859375,-0.171234130859375
1772534804055461600,8.684461669921875,-0.7978515625,-0.3359527587890625,-0.2668914794921875
1772534804065478700,8.694478759765625,-0.9655914306640625,-0.406646728515625,-0.31903076171875
1772534804075494400,8.704494384765624,-1.2899932861328125,-0.514068603515625,-0.3020172119140625
1772534804085511400,8.714511474609376,-1.818634033203125,-0.632568359375,-0.255157470703125
1772534804095528700,8.72452880859375,-2.511322021484375,-0.728973388671875,-0.2359771728515625
1772534804105545500,8.73454541015625,-3.078704833984375,-0.707305908203125,-0.38372802734375
1772534804115562800,8.744562744140625,-3.344757080078125,-0.559783935546875,-0.7250213623046875
1772534804125579500,8.75457958984375,-3.3137054443359375,-0.44171142578125,-1.0552978515625
1772534804135596500,8.764596435546874,-3.17108154296875,-0.44537353515625,-1.253662109375
1772534804145613600,8.774613525390626,-3.103546142578125,-0.468780517578125,-1.3423614501953125
1772534804155629600,8.784629638671875,-3.157958984375,-0.4491729736328125,-1.2811126708984375
1772534804165646600,8.794646484375,-3.1844482421875,-0.358367919921875,-1.100311279296875
1772534804175663400,8.804663330078125,-3.0576629638671875,-0.2335357666015625,-0.8491973876953125
1772534804185680600,8.8146806640625,-2.7718505859375,-0.1407318115234375,-0.5586700439453125
1772534804195697700,8.82469775390625,-2.3822174072265625,-0.0486602783203125,-0.318572998046875
1772534804205714400,8.83471435546875,-2.019561767578125,-0.00537109375,-0.1214141845703125
1772534804215731700,8.844731689453125,-1.785675048828125,-0.0426025390625,0.051849365234375
1772534804225748500,8.85474853515625,-1.681671142578125,-0.1039276123046875,0.1310577392578125
1772534804235764500,8.864764404296874,-1.581298828125,-0.13616943359375,0.0872344970703125
1772534804245781800,8.87478173828125,-1.4667816162109375,-0.12255859375,-0.0490264892578125
1772534804255798500,8.884798583984375,-1.368438720703125,-0.08758544921875,-0.198486328125
1772534804265815600,8.894815673828125,-1.2130126953125,-0.0371551513671875,-0.304046630859375
1772534804275832600,8.90483251953125,-0.99835205078125,-0.010711669921875,-0.3357086181640625
1772534804285849600,8.914849609375,-0.8016357421875,0.0072174072265625,-0.313507080078125
1772534804295866400,8.924866455078124,-0.6134033203125,0.0082855224609375,-0.2871246337890625
1772534804305883600,8.934883544921876,-0.4119110107421875,0.0074005126953125,-0.2696380615234375
1772534804315899600,8.944899658203125,-0.185455322265625,0.0279693603515625,-0.260009765625
1772534804325916400,8.95491650390625,0.08404541015625,0.067840576171875,-0.2388153076171875
1772534804335933400,8.964933349609375,0.3278350830078125,0.1071624755859375,-0.190582275390625
1772534804345950700,8.97495068359375,0.4625091552734375,0.14044189453125,-0.1194610595703125
1772534804355967500,8.984967529296876,0.500701904296875,0.161651611328125,-0.0432281494140625
1772534804365984800,8.99498486328125,0.4687347412109375,0.1563262939453125,0.02264404296875
1772534804376001500,9.00500146484375,0.383270263671875,0.140625,0.055328369140625
1772534804386018600,9.0150185546875,0.2655792236328125,0.119232177734375,0.06427001953125
1772534804396034600,9.02503466796875,0.1609649658203125,0.085693359375,0.08135986328125
1772534804406051600,9.035051513671876,0.10858154296875,0.0525360107421875,0.0947723388671875
1772534804416068600,9.045068603515626,0.1198883056640625,0.033416748046875,0.0777740478515625
1772534804426085400,9.05508544921875,0.1624298095703125,0.0298614501953125,0.039154052734375
1772534804436102700,9.0651025390625,0.2132720947265625,0.0193023681640625,-0.00946044921875
1772534804446119400,9.075119384765625,0.2511138916015625,-0.001495361328125,-0.0664825439453125
1772534804456136400,9.085136474609374,0.2767181396484375,-0.0244903564453125,-0.1112823486328125
1772534804466153700,9.09515380859375,0.26190185546875,-0.0386199951171875,-0.1115570068359375
1772534804476169500,9.10516943359375,0.1866912841796875,-0.0476531982421875,-0.07501220703125
1772534804486186500,9.1151865234375,0.0191497802734375,-0.0538177490234375,-0.0429534912109375
1772534804496203800,9.125203857421875,-0.18536376953125,-0.0742950439453125,-0.0213470458984375
1772534804506220500,9.135220458984374,-0.356689453125,-0.091094970703125,0.01763916015625
1772534804516237600,9.145237548828124,-0.4443817138671875,-0.115142822265625,0.0755767822265625
1772534804526254600,9.155254638671876,-0.4499359130859375,-0.1303253173828125,0.123931884765625
1772534804536271600,9.165271728515625,-0.4248504638671875,-0.1240234375,0.137298583984375
1772534804546288400,9.175288330078125,-0.42437744140625,-0.1311798095703125,0.0924224853515625
1772534804556304400,9.185304443359374,-0.4081878662109375,-0.1808013916015625,0.0463714599609375
1772534804566321700,9.19532177734375,-0.4256134033203125,-0.245361328125,0.017822265625
1772534804576338400,9.20533837890625,-0.5104827880859375,-0.284271240234375,0.0043792724609375
1772534804586355500,9.21535546875,-0.6758270263671875,-0.3108062744140625,-0.005279541015625
1772534804596372500,9.22537255859375,-0.9031829833984375,-0.2973175048828125,-0.0858306884765625
1772534804606389500,9.235389404296875,-1.1243896484375,-0.3098297119140625,-0.2441864013671875
1772534804616406800,9.24540673828125,-1.3078460693359375,-0.4227142333984375,-0.3637542724609375
1772534804626423600,9.255423583984374,-1.4664764404296875,-0.5791473388671875,-0.3757171630859375
1772534804636439600,9.265439453125,-1.6169891357421875,-0.704193115234375,-0.3719024658203125
1772534804646456600,9.27545654296875,-1.8435211181640625,-0.756622314453125,-0.4026947021484375
1772534804656473600,9.2854736328125,-2.177520751953125,-0.7254638671875,-0.428802490234375
1772534804666490600,9.29549072265625,-2.574859619140625,-0.6797332763671875,-0.362457275390625
1772534804676507400,9.30550732421875,-2.9541778564453125,-0.629791259765625,-0.2947845458984375
1772534804686524700,9.315524658203126,-3.244293212890625,-0.5318145751953125,-0.32220458984375
1772534804696541400,9.32554150390625,-3.486053466796875,-0.44134521484375,-0.3994903564453125
1772534804706557400,9.335557373046875,-3.6956787109375,-0.39007568359375,-0.46453857421875
1772534804717826600,9.34682666015625,-3.8055267333984375,-0.3475799560546875,-0.4751739501953125
1772534804729095400,9.358095458984375,-3.613922119140625,-0.3204498291015625,-0.4764404296875
1772534804739112700,9.36811279296875,-3.2249755859375,-0.272735595703125,-0.4449310302734375
1772534804749129500,9.37812939453125,-2.710662841796875,-0.231201171875,-0.4071044921875
1772534804759146500,9.388146484375,-2.2010650634765625,-0.2352752685546875,-0.356842041015625
1772534804769163500,9.39816357421875,-1.748321533203125,-0.2548065185546875,-0.361907958984375
1772534804779180500,9.4081806640625,-1.397918701171875,-0.2743072509765625,-0.3748931884765625
1772534804789197600,9.418197509765625,-1.240447998046875,-0.250946044921875,-0.323150634765625
1772534804799213600,9.428213623046876,-1.209259033203125,-0.129638671875,-0.275482177734375
1772534804809230600,9.438230712890626,-1.1428680419921875,0.0093536376953125,-0.271270751953125
1772534804819247400,9.448247314453125,-1.07440185546875,0.085113525390625,-0.2863922119140625
1772534804829264600,9.4582646484375,-0.96673583984375,0.07403564453125,-0.28924560546875
1772534804839281700,9.46828173828125,-0.777099609375,0.014892578125,-0.296356201171875
1772534804849298400,9.47829833984375,-0.5302276611328125,-0.0228118896484375,-0.3068389892578125
1772534804859315500,9.4883154296875,-0.2593231201171875,-0.02880859375,-0.2900848388671875
1772534804869332200,9.498332275390625,0.0247650146484375,-0.0416259765625,-0.2170562744140625
1772534804879348200,9.50834814453125,0.277923583984375,-0.0570068359375,-0.127105712890625
1772534804889365500,9.518365478515625,0.4416351318359375,-0.04974365234375,-0.0483856201171875
1772534804899382300,9.52838232421875,0.48602294921875,-0.037841796875,0.024505615234375
1772534804909399300,9.5383994140625,0.435638427734375,-0.040191650390625,0.0641326904296875
1772534804919416300,9.548416259765625,0.3417816162109375,-0.06280517578125,0.0937042236328125
1772534804929433300,9.558433349609375,0.24481201171875,-0.0899810791015625,0.1070556640625
1772534804939450400,9.568450439453125,0.174896240234375,-0.116729736328125,0.110504150390625
1772534804949467400,9.57846728515625,0.133880615234375,-0.1628570556640625,0.0985260009765625
1772534804959483400,9.5884833984375,0.1108551025390625,-0.2033538818359375,0.067169189453125
1772534804969500400,9.59850048828125,0.1122894287109375,-0.2416839599609375,0.0327606201171875
1772534804979517400,9.608517333984375,0.10980224609375,-0.257781982421875,-0.0024871826171875
1772534804989534500,9.618534423828125,0.1002349853515625,-0.25775146484375,-0.0399627685546875
1772534804999551200,9.62855126953125,0.0850677490234375,-0.2687530517578125,-0.06109619140625
1772534805009568500,9.638568603515624,0.0638275146484375,-0.2599029541015625,-0.036651611328125
1772534805019585300,9.648585205078126,0.0320587158203125,-0.2345428466796875,0.02044677734375
1772534805029602300,9.658602294921875,-0.0211334228515625,-0.21319580078125,0.0630950927734375
1772534805039618300,9.668618408203125,-0.0964813232421875,-0.1732330322265625,0.082550048828125
1772534805050262500,9.679262451171875,-0.200042724609375,-0.11578369140625,0.0954437255859375
1772534805060279300,9.689279296875,-0.311370849609375,-0.06646728515625,0.083770751953125
1772534805070295300,9.69929541015625,-0.428009033203125,-0.0286712646484375,0.074737548828125
1772534805080312300,9.709312255859375,-0.531494140625,-0.0287628173828125,0.0640869140625
1772534805090329300,9.719329345703125,-0.5897369384765625,-0.0445709228515625,0.0336456298828125
1772534805100346400,9.729346435546875,-0.5988616943359375,-0.0543060302734375,0.00738525390625
1772534805110363100,9.739363037109374,-0.5670318603515625,-0.0965118408203125,0.0348052978515625
1772534805120380400,9.74938037109375,-0.4965362548828125,-0.158355712890625,0.057861328125
1772534805130397400,9.7593974609375,-0.4689483642578125,-0.201080322265625,0.0425872802734375
1772534805140414200,9.769414306640625,-0.5443115234375,-0.2194366455078125,0.0115203857421875
1772534805150430500,9.779430419921875,-0.81170654296875,-0.3087005615234375,-0.0424957275390625
1772534805160447200,9.789447265625,-1.19793701171875,-0.48736572265625,-0.0445556640625
1772534805170464300,9.79946435546875,-1.6414947509765625,-0.610870361328125,-0.0303192138671875
1772534805180481500,9.8094814453125,-2.0070343017578125,-0.5477294921875,-0.15216064453125
1772534805199262500,9.828262451171875,-2.5000762939453125,-0.2139129638671875,-0.3789825439453125
1772534805209279200,9.838279296875,-2.60986328125,-0.0408782958984375,-0.4486236572265625
1772534805219296500,9.848296630859375,-2.5986175537109375,0.0039825439453125,-0.500091552734375
1772534805229313300,9.858313232421875,-2.6979217529296875,-0.1824951171875,-0.3935699462890625
1772534805239330300,9.868330322265624,-2.819580078125,-0.3138580322265625,-0.264404296875
1772534805249347300,9.878347412109376,-2.8618011474609375,-0.2505340576171875,-0.2238922119140625
1772534805259364400,9.8883642578125,-2.826507568359375,-0.1378326416015625,-0.2808074951171875
1772534805269380400,9.89838037109375,-2.7601318359375,-0.0234222412109375,-0.331024169921875
1772534805279397400,9.9083974609375,-2.7144775390625,0.002716064453125,-0.327484130859375
1772534805289414400,9.918414306640624,-2.652374267578125,-0.0584716796875,-0.259918212890625
1772534805299431400,9.928431396484376,-2.4970703125,-0.117767333984375,-0.1699371337890625
1772534805309448200,9.9384482421875,-2.242431640625,-0.1482086181640625,-0.105743408203125
1772534805319465500,9.948465576171875,-1.948577880859375,-0.14544677734375,-0.0897369384765625
1772534805329482200,9.958482177734375,-1.6735992431640625,-0.14990234375,-0.097320556640625
1772534805339498200,9.968498291015624,-1.3827056884765625,-0.1785888671875,-0.1382293701171875
1772534805349515500,9.978515625,-1.046783447265625,-0.2209930419921875,-0.2465362548828125
1772534805359532300,9.9885322265625,-0.7091217041015625,-0.2687835693359375,-0.3580169677734375
1772534805369549300,9.99854931640625,-0.38568115234375,-0.317535400390625,-0.377960205078125
1772534805379566300,10.00856640625,-0.1329803466796875,-0.2812652587890625,-0.4445648193359375
1772534805389583400,10.018583251953125,0.0329437255859375,-0.1606292724609375,-0.4537506103515625
1772534805399600400,10.028600341796874,0.1262969970703125,-0.13165283203125,-0.3534088134765625
1772534805409617400,10.038617431640626,0.1451416015625,-0.1685028076171875,-0.193511962890625
1772534805419633400,10.04863330078125,0.1363525390625,-0.1636810302734375,-0.0644989013671875
1772534805429650400,10.058650390625,0.094482421875,-0.1134796142578125,0.0571441650390625
1772534805439667500,10.06866748046875,0.007354736328125,-0.078857421875,0.1954498291015625
1772534805449684500,10.0786845703125,-0.0850830078125,-0.071044921875,0.2988433837890625
1772534805459701200,10.088701171875,-0.1533966064453125,-0.0615234375,0.3163909912109375
1772534805469718500,10.098718505859376,-0.1545562744140625,-0.1076507568359375,0.2899017333984375
1772534805479735300,10.1087353515625,-0.0819549560546875,-0.1654815673828125,0.2869415283203125
1772534805489752300,10.11875244140625,-0.0144805908203125,-0.1879730224609375,0.2279205322265625
1772534805499768300,10.128768310546874,0.020782470703125,-0.2119140625,0.128814697265625
1772534805509785300,10.138785400390624,0.028167724609375,-0.2005157470703125,0.0546112060546875
1772534805519802400,10.14880224609375,0.0384674072265625,-0.1814117431640625,0.0379486083984375
1772534805529819100,10.158819091796875,0.0016937255859375,-0.175323486328125,0.0554351806640625
1772534805539836400,10.16883642578125,-0.10772705078125,-0.1295013427734375,0.0548248291015625
1772534805549853400,10.178853515625,-0.2309112548828125,-0.068634033203125,0.0749664306640625
1772534805559870200,10.1888701171875,-0.2790679931640625,-0.0955810546875,0.1044921875
1772534805569886500,10.198886474609376,-0.253997802734375,-0.1246337890625,0.050445556640625
1772534805579903500,10.208903564453125,-0.1541595458984375,-0.159515380859375,-0.0135040283203125
1772534805589920300,10.218920166015625,-0.1129150390625,-0.160247802734375,-0.03466796875
1772534805599937500,10.2289375,-0.1805877685546875,-0.1384735107421875,0.0127410888671875
1772534805609954300,10.238954345703124,-0.2579498291015625,-0.158599853515625,0.0829315185546875
1772534805619971300,10.248971435546874,-0.3334503173828125,-0.14813232421875,0.10162353515625
1772534805629988400,10.25898828125,-0.3971710205078125,-0.0977020263671875,0.0398406982421875
1772534805640005400,10.26900537109375,-0.46478271484375,-0.0818939208984375,-0.0267486572265625
1772534805650021400,10.279021484375,-0.6092681884765625,-0.10760498046875,-0.0608367919921875
1772534805660038400,10.289038330078125,-0.7751007080078125,-0.1576995849609375,-0.1137542724609375
1772534805670055400,10.299055419921874,-0.94244384765625,-0.1993865966796875,-0.1793212890625
1772534805680072200,10.309072265625,-1.1475067138671875,-0.2406005859375,-0.2145843505859375
1772534805690089500,10.31908935546875,-1.4151153564453125,-0.297607421875,-0.21075439453125
1772534805700106500,10.3291064453125,-1.734771728515625,-0.3505859375,-0.246307373046875
1772534805710123300,10.339123291015625,-2.0916900634765625,-0.384857177734375,-0.258453369140625
1772534805720140500,10.349140625,-2.2915802001953125,-0.4415283203125,-0.1608428955078125
1772534805730156500,10.359156494140626,-2.4989776611328125,-0.4481048583984375,-0.0938568115234375
1772534805740173300,10.36917333984375,-2.68951416015625,-0.25408935546875,-0.147003173828125
1772534805750190300,10.3791904296875,-2.835052490234375,-0.1767120361328125,-0.1195220947265625
1772534805760207400,10.389207275390625,-3.0219879150390625,-0.2163238525390625,-0.074462890625
1772534805770224400,10.399224365234375,-3.17822265625,-0.1773681640625,-0.20123291015625
1772534805780241200,10.4092412109375,-3.2769622802734375,-0.0584869384765625,-0.465728759765625
1772534805790258400,10.419258544921876,-3.2087860107421875,0.112274169921875,-0.640350341796875
1772534805800274400,10.4292744140625,-3.0193939208984375,0.13287353515625,-0.5748291015625
1772534805810291200,10.439291259765625,-2.762939453125,0.0913543701171875,-0.3727264404296875
1772534805820308500,10.44930859375,-2.4272003173828125,0.03253173828125,-0.21881103515625
1772534805830325200,10.4593251953125,-2.0401763916015625,-0.0624542236328125,-0.17437744140625
1772534805840342300,10.46934228515625,-1.7224884033203125,-0.1266326904296875,-0.1720123291015625
1772534805850359600,10.479359619140626,-1.5809173583984375,-0.096588134765625,-0.17266845703125
1772534805860376800,10.489376953125,-1.5263214111328125,-0.08648681640625,-0.166351318359375
1772534805870393900,10.499393798828125,-1.40814208984375,-0.122161865234375,-0.17388916015625
1772534805880409600,10.50940966796875,-1.1933441162109375,-0.09808349609375,-0.2530059814453125
1772534805890426600,10.519426513671876,-0.93084716796875,-0.130584716796875,-0.3130035400390625
1772534805900444000,10.52944384765625,-0.6551971435546875,-0.158905029296875,-0.33551025390625
1772534805910460700,10.539460693359375,-0.4034271240234375,-0.16571044921875,-0.3228759765625
1772534805920477700,10.549477783203125,-0.2195892333984375,-0.1632843017578125,-0.21826171875
1772534805930494700,10.55949462890625,-0.1380767822265625,-0.1914825439453125,-0.1957244873046875
1772534805940511700,10.56951171875,0.00445556640625,-0.156524658203125,-0.1573028564453125
1772534805950527700,10.57952783203125,0.108856201171875,-0.1258087158203125,-0.0661163330078125
1772534805960544800,10.589544677734375,0.14080810546875,-0.1407928466796875,-0.0006103515625
1772534805970561800,10.599561767578125,0.1243133544921875,-0.1095733642578125,0.0166015625
1772534805980578600,10.60957861328125,0.0523681640625,-0.0615692138671875,0.0711517333984375
1772534805990595800,10.619595947265625,-0.0696563720703125,-0.04315185546875,0.16552734375
1772534806000612600,10.629612548828124,-0.173309326171875,-0.041412353515625,0.24163818359375
1772534806010629600,10.639629638671876,-0.198272705078125,-0.039306640625,0.27471923828125
1772534806020647000,10.64964697265625,-0.1496124267578125,-0.092498779296875,0.2430572509765625
1772534806030662700,10.65966259765625,-0.0236358642578125,-0.1542205810546875,0.135467529296875
1772534806040679700,10.6696796875,0.093017578125,-0.1657257080078125,0.0422210693359375
1772534806050696700,10.67969677734375,0.1013336181640625,-0.134979248046875,-0.0167083740234375
1772534806060713700,10.689713623046876,0.068145751953125,-0.1436920166015625,-0.0216522216796875
1772534806070730800,10.699730712890625,0.049774169921875,-0.1740875244140625,-0.0179290771484375
1772534806080747800,10.709747802734375,0.027862548828125,-0.1197662353515625,-0.05194091796875
1772534806090764800,10.719764892578125,-0.0268402099609375,-0.0634918212890625,-0.0413818359375
1772534806100780800,10.72978076171875,-0.109619140625,-0.0260467529296875,-0.0125732421875
1772534806110797600,10.739797607421876,-0.170196533203125,-0.00555419921875,0.0455474853515625
1772534806120814800,10.74981494140625,-0.20928955078125,0.0045318603515625,0.073638916015625
1772534806130831600,10.75983154296875,-0.1868896484375,0.00390625,0.061492919921875
1772534806140848600,10.7698486328125,-0.130462646484375,-0.027801513671875,0.0442962646484375
1772534806150866000,10.779865966796875,-0.1062774658203125,-0.0744476318359375,0.0376434326171875
1772534806160882700,10.789882568359374,-0.112396240234375,-0.0755767822265625,0.036041259765625
1772534806170899700,10.799899658203126,-0.17578125,-0.1068267822265625,0.0533905029296875
1772534806180915700,10.809915771484375,-0.2672119140625,-0.1390380859375,0.045257568359375
1772534806190932700,10.8199326171875,-0.3186187744140625,-0.14111328125,0.045074462890625
1772534806200949800,10.82994970703125,-0.3761138916015625,-0.150421142578125,0.0709075927734375
1772534806210966800,10.839966796875,-0.426849365234375,-0.1678619384765625,0.04888916015625
1772534806220983800,10.84998388671875,-0.520538330078125,-0.1503143310546875,-0.0674591064453125
1772534806231000600,10.86000048828125,-0.7076263427734375,-0.186065673828125,-0.215423583984375
1772534806241017900,10.870017822265625,-0.89166259765625,-0.3026580810546875,-0.243377685546875
