time,seconds_elapsed,z,y,x
1772534795428419800,0.057419921875,1.5919161404669284,-0.9094872726492583,1.358676562782377
1772534795438436900,0.067436767578125,1.6478414413064717,-0.9195569773733615,1.183851764665544
1772534795448453600,0.07745361328125,1.58501293694973,-0.9479973283074795,1.0312330992683767
1772534795458471000,0.087470947265625,1.4128092811167239,-1.090780389997363,0.7944742614164948
1772534795468487000,0.09748681640625,1.4198743971973657,-1.1243725707367063,0.7994688548333942
1772534795478503700,0.107503662109375,0.7961585612416266,-0.9907793621964752,0.008604600607603787
1772534795488520700,0.117520751953125,0.5529384184211492,-0.9080269908383488,-0.2768492945693433
1772534795498537700,0.127537841796875,0.5514344435989856,-0.9306647929735481,-0.24547668957561253
1772534795508554800,0.1375546875,0.5638789146304131,-0.8526984868481755,-0.48466143940016626
1772534795518571500,0.147571533203125,0.5546458068609237,-0.8553295660041272,-0.44061976083889604
1772534795528588800,0.1575888671875,0.31402211027443405,-0.8205141270801425,-0.4663762795165181
1772534795538605600,0.16760546875,0.0926350290775299,-0.5730151378966868,-0.48430575783029195
1772534795548622800,0.177622802734375,0.2811684729427099,-0.5387631780743599,-0.581714869441837
1772534795558638800,0.187638916015625,0.47376609750688076,-0.704565734693408,-0.7272444533608854
1772534795568655600,0.197655517578125,0.4564788626194,-0.6558119329184293,-0.7054775888413191
1772534795578672600,0.207672607421875,-0.08323767065703869,-0.4740056053511798,-0.8845235117845237
1772534795588690000,0.21768994140625,-0.2531967624336481,-0.35734307334572074,-0.9790000770755112
1772534795598706700,0.227706787109375,-0.026923662760853766,-0.3671025430768728,-1.016567006664723
1772534795608723700,0.2377236328125,0.5284826070785522,-0.35843525249660013,-1.0057787784077226
1772534795618740700,0.24774072265625,0.510484009051323,-0.30275691215544936,-0.996159447799623
1772534795628757800,0.2577578125,1.2104314362943172,-0.15700053374320266,-0.9594865444406866
1772534795638773800,0.267773681640625,1.2432675379693507,-0.1499412628814578,-0.8595560976579785
1772534795648790800,0.277790771484375,1.4800509257405996,-0.12634382193386554,-0.771321641626954
1772534795658807800,0.287807861328125,1.8631909959048032,0.010613163951039313,-0.7205040391899645
1772534795668824600,0.297824462890625,1.8682032711088656,0.015099661715328692,-0.7449578047059476
1772534795678841900,0.307841796875,1.8958394660532474,0.17079086642563343,-0.8647656489998101
1772534795688858600,0.317858642578125,1.874084730362892,0.1631008964449167,-0.7899694973431527
1772534795698875600,0.327875732421875,1.8622808953225611,0.2590557175949216,-0.6951395885698497
1772534795708893000,0.337892822265625,1.7825918570578096,0.41079321624338627,-0.6878603913471102
1772534795718909700,0.34790966796875,1.7791437624305486,0.40643034485876556,-0.66887512037009
1772534795728925700,0.35792578125,1.5861439868062734,0.282374926123023,-0.742996003113687
1772534795738942700,0.367942626953125,1.6375269680410622,0.2925692801401019,-1.0617514255203306
1772534795748959700,0.377959716796875,1.61746383869946,0.2978776156812906,-0.9921148485839366
1772534795758976800,0.387976806640625,1.5772797123491764,0.5568918322220444,-1.9723811462029814
1772534795768993500,0.39799365234375,2.2007214075386523,0.6341892991751432,-2.2096166616559025
1772534795779010800,0.4080107421875,2.5344267079263925,0.7294573071047663,-2.1983058708295227
1772534795789027600,0.418027587890625,1.898378629142046,0.8054927912980318,-1.756820871463418
1772534795799044900,0.428044921875,1.2735083624541759,0.6908014132350683,-1.343048639409244
1772534795809060900,0.438060791015625,0.9025503129929303,0.5570313868232071,-0.9878604060098528
1772534795819077600,0.44807763671875,0.9255845670998096,0.4757216154888272,-0.9935723539158702
1772534795829094700,0.4580947265625,0.2871872948408127,0.29158523753881455,-1.2809300368875265
1772534795839111700,0.468111572265625,0.006908464214205741,0.20782252009436486,-1.718349394249916
1772534795849128700,0.478128662109375,0.045721302211284634,0.15436214806362986,-2.067445155993104
1772534795859146000,0.48814599609375,0.14477028998434543,0.17806918686553835,-2.1047958124831316
1772534795869162800,0.498162841796875,0.1573117916494608,0.11709697789996862,-2.1015666213035584
1772534795879179800,0.5081796875,0.4846493105709552,0.38095541960150003,-1.3904974960654972
1772534795889196800,0.51819677734375,0.7788742489635944,0.5235793452069163,-0.9492074347496032
1772534795899212800,0.528212890625,0.8154910382211208,0.5053649124719202,-0.5278472317844629
1772534795909229800,0.538229736328125,0.7822878567993641,0.46581119297966356,-0.1967182116255164
1772534795919246800,0.548246826171875,0.7973246824115514,0.39876916258111594,-0.20564532218575476
1772534795929263900,0.558263916015625,1.1154144805163144,0.4094514462456107,0.23489859693795442
1772534795939280600,0.56828076171875,0.8991407968103885,0.3422840359017253,-0.0005427285745739937
1772534795949298000,0.5782978515625,0.662148150202632,0.42496757980734107,-0.3426549150407314
1772534795959315000,0.58831494140625,0.47624973101615903,0.5872578905217349,-0.41436259916275736
1772534795969331700,0.598331787109375,0.47974224930703635,0.5213188529290259,-0.3916968861073255
1772534795979347700,0.60834765625,0.5581523536771535,0.9209266582913697,0.28171821577996015
1772534795989364700,0.61836474609375,0.6591483838647604,1.0594207906156778,0.7505369200125336
1772534795999381800,0.6283818359375,0.6481488509446383,1.0304324504099787,0.8023644301444292
1772534796009398800,0.638398681640625,0.9607827217310666,0.8817699022274463,1.6409467133566735
1772534796019415800,0.648415771484375,0.9361141444206237,0.8829360964626073,1.7222615992575883
1772534796029432800,0.658432861328125,1.4991560237050054,0.7070685112945735,1.631710682977736
1772534796039449900,0.668449951171875,2.974135637530684,0.7827082011032849,1.4648288066893815
1772534796049467000,0.678466796875,3.403976668593287,0.7869011958137154,1.454710148257017
1772534796059483600,0.688483642578125,3.4908506499260663,0.7607282783549278,1.690862836909294
1772534796069499600,0.698499755859375,3.5447301241517066,0.7190786094967275,1.0286895522654056
1772534796079517000,0.708516845703125,3.289072524562478,0.9045438979629427,0.18757658153176307
1772534796089533700,0.71853369140625,2.368587910950184,0.5822983684182167,0.5773828315868973
1772534796099550700,0.72855078125,2.069306273689866,-0.2319462499383837,1.0496054990440606
1772534796109568000,0.738568115234375,1.825531419596076,-0.5289036820348352,1.2343456881061197
1772534796119584800,0.748584716796875,1.3654916496247052,-0.8491879945091902,1.7593419143736362
1772534796129601800,0.758601806640625,1.452692378693819,-1.322195090342313,1.422680686789751
1772534796139618800,0.768618896484375,1.5567448738425969,-1.2654241324588655,0.9609408349022268
1772534796149634800,0.778634765625,0.7430038941591978,-1.0203541970532386,0.406246804985404
1772534796159651800,0.78865185546875,-1.0226584554076195,-2.0505133104145528,1.3077265661373734
1772534796169668900,0.7986689453125,-2.521939566797018,-3.237913415211439,1.1839344745129345
1772534796179686000,0.808685791015625,-2.0886217995345593,-3.1265754392296072,0.12623875412419439
1772534796189702700,0.81870263671875,-3.0484499970197674,-2.520770523017645,-0.3747518887862563
1772534796199720000,0.828719970703125,-4.208305676808953,-2.429098932144791,-1.2770138863570988
1772534796209736700,0.83873681640625,-5.1973348343372345,-2.12901635376513,-2.319982139343768
1772534796219753700,0.848753662109375,-6.752214498829841,-1.5093351801529526,-2.9876912846744057
1772534796229771000,0.85877099609375,-8.355886543542146,-1.6990774152860044,-3.1299115979149934
1772534796239786800,0.868786865234375,-9.695520698332786,-1.6300303286753595,-3.6038878310412166
1772534796249803800,0.8788037109375,-9.715106857812405,-1.6025702209502457,-3.532490820303559
1772534796259820800,0.88882080078125,-9.593353286278248,0.06303838424775748,-5.118589214402437
1772534796269837800,0.898837890625,-9.644271572610736,0.20206812128610907,-5.6194894025504585
1772534796279854800,0.908854736328125,-10.465935746508837,-0.19271577105112372,-6.2695665912091725
1772534796289872000,0.918871826171875,-11.458155809032917,-0.5481104502754286,-6.893197671490907
1772534796299889000,0.928888916015625,-12.492158665275573,-0.6677607293874025,-7.08433632941842
1772534796309905700,0.93890576171875,-12.865485781955718,-0.6480290239572525,-6.527224424704909
1772534796319921700,0.948921630859375,-12.91494334808588,-0.6523891188628971,-6.383627854675054
1772534796329939000,0.95893896484375,-12.049900051188468,-0.33192473711390047,-4.601774541024864
1772534796339955700,0.968955810546875,-11.039694250118732,-0.40438923095259816,-3.963010189019143
1772534796349972700,0.97897265625,-9.811566998136042,-0.4748243743881583,-4.104043922823667
1772534796359989800,0.98898974609375,-8.274272090172767,-0.43700821927823125,-4.210911183132231
1772534796370006800,0.9990068359375,-8.298782846572994,-0.4123828235223889,-4.156143527895212
1772534796380023800,1.00902392578125,-4.709384144133329,-0.3102696989383548,-3.287205269385874
1772534796390040800,1.019040771484375,-2.327960717007518,-1.1604628519020974,-2.9073762234658003
1772534796400057900,1.029057861328125,-2.3080419645726677,-1.1614840116433798,-2.9545439250931143
1772534796410073900,1.039073974609375,0.9046545917958021,-1.7389058600664138,-2.3901757656410334
1772534796420091000,1.0490908203125,0.9604431145131588,-1.8093613521702587,-2.5189655194222924
1772534796430108000,1.05910791015625,1.3359785548925398,-1.40926386359483,-1.2381100090757011
1772534796440124700,1.069124755859375,1.4111463163405655,-1.4984240561686455,0.14954554156213998
1772534796450142000,1.079141845703125,1.8824702813923357,-1.3467792042396962,1.4371595862582325
1772534796460158700,1.08915869140625,2.2677198910564185,-1.029665630755946,2.506284317025542
1772534796470175700,1.09917578125,2.2863602941185235,-1.0103611377619206,2.443965808017552
1772534796480193000,1.109193115234375,5.456569707891345,-0.86726506460011,3.4961543092921374
1772534796490208800,1.119208740234375,6.746822284397482,-0.5647804665800183,3.461593868042528
1772534796500225800,1.129225830078125,6.747428433597087,-0.5052221430003643,3.4500115667983886
1772534796510242800,1.139242919921875,8.156766239210963,-0.3497276664385572,2.7526939035370943
1772534796520259800,1.149259765625,8.169035938197373,-0.29762342172451317,2.700487623220682
1772534796530276900,1.15927685546875,8.56377116908729,-0.22773886137641966,2.496709556211531
1772534796540294000,1.1692939453125,9.130896518293023,-0.19378215817362068,2.8423814809858796
1772534796550311000,1.179310791015625,9.147212277799845,-0.12324103361293673,2.7613252460211513
1772534796560327700,1.18932763671875,10.242411068761347,-0.3994610173027962,2.9940175650864838
1772534796570345000,1.199344970703125,10.255357059574127,-0.34039354598000643,2.9212083494633436
1772534796580361000,1.20936083984375,10.023329926419258,-0.11575915342494844,2.594227388894558
1772534796590377700,1.219377685546875,8.95855549981594,0.16537658629193902,2.5096157995358106
1772534796600394800,1.229394775390625,8.069369110786914,0.30848011210784315,2.144306423486024
1772534796610411800,1.239411865234375,7.785797668355703,0.4807363749109208,2.0984083034031094
1772534796620428800,1.2494287109375,7.786984832313657,0.5278615525707602,2.0697386737577617
1772534796630445800,1.25944580078125,7.64708419419229,0.8463476565167307,2.403445727711171
1772534796640462800,1.269462890625,6.866716491800546,1.0100646390333772,2.446024494113028
1772534796650479900,1.27947998046875,6.881786050638556,1.0392940214533357,2.3572997703470286
1772534796660496600,1.28949658203125,5.016534615072608,1.2155423495672641,2.773226403956115
1772534796670513000,1.299512939453125,5.02180817156136,1.28297951676324,2.6983944503337143
1772534796680530000,1.309530029296875,6.010699381923676,2.0272427633337675,2.6357228901043532
1772534796690546700,1.319546630859375,6.4810810976892705,2.3201455132119357,2.5016262620866296
1772534796700564000,1.32956396484375,6.135501819634437,2.492824531471729,2.229731521184742
1772534796710580700,1.339580810546875,5.570978761881589,2.724703196066618,1.8906014192692935
1772534796720597800,1.34959765625,5.569937143874168,2.7990201859042045,1.8142746970444916
1772534796730614800,1.35961474609375,4.808817162787914,2.5132810440450903,1.7592381617382167
1772534796740631800,1.3696318359375,4.415021843096613,2.35955850905925,1.525398572333902
1772534796750647800,1.379647705078125,4.405668323817849,2.4415372656963763,1.4724720149189232
1772534796760664600,1.38966455078125,3.5108722782135007,1.883300448606163,0.6120667530857026
1772534796770681900,1.399681884765625,2.3052467808961867,1.7946245324179528,0.24789339532852173
1772534796780699000,1.409698974609375,0.1764823560655117,1.6082995583824813,0.35076632530391216
1772534796790716000,1.4197158203125,-2.644525497502088,1.2343396967567504,0.5169248557537793
1772534796800733000,1.42973291015625,-2.666742005485296,1.2823859347842632,0.5933171905606984
1772534796810749700,1.439749755859375,-7.8200635105729095,0.7269177056245505,-0.13404109843820333
1772534796820767000,1.44976708984375,-7.854357409840822,0.804184923569858,-0.041581279797106976
1772534796830783700,1.45978369140625,-10.0780820918262,-0.3232189776867628,-2.160778250337392
1772534796840799500,1.469799560546875,-9.72261328791976,-0.33474604161232707,-3.5169320166438816
1772534796850816800,1.479816650390625,-9.684438163304328,-0.5372627103835343,-4.7143999264687295
1772534796860833500,1.48983349609375,-10.607720883202552,-0.6568328003987669,-5.312187540441752
1772534796870850800,1.499850830078125,-10.608533368629217,-0.6699915571793913,-5.290143466416001
1772534796880867800,1.509867919921875,-13.338881877106427,-1.0064242367044092,-4.198734130865335
1772534796890884600,1.519884521484375,-13.861396515691279,-1.0970178230822085,-2.8303473443210123
1772534796900902000,1.52990185546875,-13.845732498091458,-1.1474667383372783,-2.838993592113256
1772534796910918700,1.539918701171875,-13.593054206573962,-0.10442892724573612,-1.010297863267362
1772534796920934700,1.5499345703125,-13.445657659739256,-0.012956073815375566,-0.47659079953879113
1772534796930951700,1.55995166015625,-12.886770562046765,0.35597412308007476,-0.4352528269782662
1772534796940968700,1.56996875,-12.44790802013874,0.6923125484503805,-0.19894436324238776
1772534796950985700,1.57998583984375,-12.437563151735066,0.5972638823598623,-0.14414514382332563
1772534796961002500,1.59000244140625,-10.457211172783374,1.6477071474023162,-0.8586686472989619
1772534796971019800,1.600019775390625,-7.889155751499533,1.5138536804907023,-1.734574845124781
1772534796981036500,1.61003662109375,-4.651514723488688,1.4134697908520697,-2.545156483994424
1772534796991053600,1.620053466796875,-1.4837065256386994,1.0084482898779212,-2.6915117050826547
1772534797001070800,1.63007080078125,-1.4866998622357845,0.9649662910260259,-2.645397604161501
1772534797011086600,1.640086669921875,3.339686859512329,0.2791993648268282,-2.1702447284713386
1772534797021103600,1.650103515625,4.7249195669174195,0.13760449000820515,-1.653447298489511
1772534797031121000,1.660120849609375,5.629137520861625,0.2062504484720528,-1.1984317864209413
1772534797041137700,1.6701376953125,6.17264760120213,0.16922171741276978,-0.8232312770843505
1772534797051154700,1.68015478515625,6.643124009513855,0.17971929216012358,-0.539495876263082
1772534797061171700,1.690171630859375,7.38831460006237,0.40564577035233373,-0.02504734749495983
1772534797071188700,1.700188720703125,7.797243775999545,0.8041501445174217,0.716231330306828
1772534797081205500,1.71020556640625,7.906353554537892,1.1284268145635723,1.5622639295250176
1772534797091221500,1.720221435546875,7.720963084873556,1.1690741745114326,2.3454598410800096
1772534797101238800,1.73023876953125,7.74343093726933,1.0851958678632974,2.2990797826990486
1772534797111255600,1.740255615234375,7.948492322087287,0.7595664680339396,3.308432766331732
1772534797121272800,1.75027294921875,8.32484609311223,0.42772937267087396,3.660943012693524
1772534797131289600,1.76028955078125,8.735908773946761,0.08890504876896739,3.787640762631595
1772534797141306600,1.770306640625,9.157978001964091,-0.032513372526690364,3.5212142240077253
1772534797151324000,1.780323974609375,9.154790604099631,-0.07089497949965298,3.54675607702136
1772534797161340700,1.790340576171875,9.438543832838535,-0.16702822595648467,2.953184911699593
1772534797171357700,1.800357666015625,9.266535991838573,-0.32908516630642115,2.419283786703646
1772534797181373700,1.810373779296875,9.087691582816838,-0.4428670283090323,1.9151488544180988
1772534797191390700,1.820390625,8.96668678382337,-0.6971794968996197,1.7271520016476511
1772534797201407700,1.83040771484375,8.966005815821886,-0.7556642729636281,1.7427973145470022
1772534797211424500,1.840424560546875,8.216123852586746,-0.9891986688762903,1.6991873054012656
1772534797221441800,1.85044189453125,7.7984853004932395,-0.9656830609932542,1.582334365390241
1772534797231458600,1.86045849609375,7.225305473554134,-1.1849291846387087,1.6631331184625624
1772534797241475600,1.8704755859375,6.569028845733404,-1.3530810808628797,1.7523489867463706
1772534797251492900,1.880492919921875,6.57054626455903,-1.3957894649937748,1.7516633425697683
1772534797261509600,1.890509521484375,5.9373833858221765,-1.2796619166478513,1.701735820840299
1772534797271525600,1.900525634765625,5.836337671273946,-1.5234214270420372,1.7935624561443924
1772534797281542700,1.910542724609375,5.549203567925095,-1.9262099082671105,1.6768386954709886
1772534797291559700,1.9205595703125,5.422268209838867,-2.1926782402060923,1.4475474170207976
1772534797301576700,1.93057666015625,5.436807607322931,-2.1964599507018923,1.3914881145380436
1772534797311593700,1.94059375,4.761362753173708,-2.2597671784862876,1.2909778220407664
1772534797321610800,1.95061083984375,3.663882573276758,-1.9752930881269275,1.2122194887548685
1772534797331627500,1.96062744140625,1.9806459934622047,-1.4893720040544867,0.828274385818094
1772534797341644800,1.970644775390625,0.3546948969244957,-1.3369034146524965,0.35827129410654307
1772534797351660800,1.980660888671875,0.3547977727770805,-1.3047516419798135,0.35478783590495583
1772534797361677600,1.990677490234375,-3.7246506379723545,-3.05004018882066,-1.2842244022578
1772534797371694800,2.00069482421875,-5.881528227609396,-4.018694374579191,-1.4296191077508031
1772534797381711600,2.010711669921875,-7.497438991647958,-3.877781929066777,-1.6633130050741136
1772534797391728600,2.020728759765625,-8.33780728149414,-3.502732810899615,-1.9765470337107776
1772534797401746000,2.030745849609375,-8.349920328614115,-3.384609120300412,-1.9626225532546637
1772534797411762700,2.0407626953125,-10.582415761554241,-1.5159490453347564,-4.124351674576103
1772534797421779700,2.05077978515625,-12.760166627871989,-1.4394298692777752,-5.025764215710759
1772534797431796700,2.060796630859375,-15.495773495268821,-1.4382111411377787,-5.994739596247673
1772534797441812700,2.070812744140625,-18.147722420769927,-1.7283914803147316,-6.5018398080796
1772534797451829800,2.080829833984375,-18.200546832984685,-1.6763786767438054,-6.339228740978241
1772534797461846500,2.090846435546875,-19.854607002675532,-1.216890037849173,-6.565533404833078
1772534797471863800,2.10086376953125,-19.38910078399181,-0.4382736361041665,-6.776193924832343
1772534797481880600,2.110880615234375,-17.83412058173418,0.05276186837255954,-6.476301462197303
1772534797491897600,2.120897705078125,-15.803196937930583,0.27132687788605686,-5.326780129417776
1772534797501914600,2.13091455078125,-15.766119545423983,0.2706462752107531,-5.439799774876237
1772534797511931600,2.140931640625,-12.448947300058602,0.21353249523900447,-2.401711597394943
1772534797521948700,2.15094873046875,-11.470597941976784,-0.1548350262723863,-0.813416862295568
1772534797531964700,2.160964599609375,-9.965177012658119,-0.18457893408574164,0.13283026134371756
1772534797541981700,2.170981689453125,-9.958263287746906,-0.22464973625466225,0.12508359273970127
1772534797551998700,2.180998779296875,-8.943872894468903,0.016668591532483696,0.6836430659130215
1772534797562015700,2.191015625,-7.804593554240465,0.6352378583800047,0.544734653699398
1772534797572032800,2.20103271484375,-5.04189351273477,0.820862940517813,-0.018447803099453448
1772534797582049500,2.211049560546875,-1.9729776507914065,0.49747320937402545,-0.29816783079952
1772534797592066800,2.22106689453125,0.791295923641324,0.021517273672670124,-1.0731745906800032
1772534797602083600,2.23108349609375,0.7939969992935657,0.081577701555565,-1.1060235518366097
1772534797612100600,2.2411005859375,5.74073151743114,-0.7775942921556532,-1.4796929060831665
1772534797622116900,2.251116943359375,8.058471869197488,-0.7805341449998319,-0.7664967056885361
1772534797632133600,2.261133544921875,9.906943434876203,-0.6463182745166123,0.07763532060533762
1772534797642150700,2.271150634765625,10.900506728702783,-0.38542788884043694,0.5710933760538697
1772534797652167700,2.281167724609375,10.914744512891769,-0.3848483353868127,0.5203931163862348
1772534797662184700,2.291184814453125,10.773893442177771,0.6989760979928076,1.9536583255544304
1772534797672201700,2.30120166015625,10.053280828046798,1.0696702358208596,2.9794112398460504
1772534797682218800,2.31121875,9.613933132970333,1.4005202929079532,3.8197456274226305
1772534797692235800,2.32123583984375,9.534670795685052,1.4554093825675547,4.171328822067379
1772534797702252500,2.33125244140625,9.54758054614067,1.440638952806592,4.128333729949594
1772534797712268500,2.3412685546875,10.372960525691509,1.3103631982512771,3.871972658266127
1772534797722285800,2.351285888671875,10.88135896064043,0.9616313013844191,3.8947619977012273
1772534797732302600,2.361302490234375,11.311067889755964,0.7113020572111011,3.8122389050543304
1772534797742319600,2.371319580078125,11.543982327139377,0.6713092156492173,3.585084346371889
1772534797752336600,2.381336669921875,11.54074875204563,0.6502518145732581,3.6099607212141156
1772534797762353700,2.391353759765625,10.562303532373905,0.571614038927108,2.726064547547698
1772534797772370700,2.40137060546875,9.647800331258773,0.46996736281104384,2.2833768943935633
1772534797782387700,2.4113876953125,9.074981738847493,0.38183863217681646,1.939081080278009
1772534797792403700,2.42140380859375,8.867129262006282,0.19794570759385824,1.7506658559650181
1772534797802420700,2.431420654296875,8.864718693733215,0.15666837917938828,1.7774565399959683
1772534797812437800,2.441437744140625,8.434847852054238,-0.23100816537067292,1.5033052523389459
1772534797822454800,2.451454833984375,7.591382180714607,-0.35099165849238634,1.470583424693346
1772534797832471600,2.461471435546875,6.628019379362463,-0.40882871123738584,1.4202026062384248
1772534797842489000,2.471489013671875,5.955041207587719,-0.49865482037402686,1.4036246886640786
1772534797852505900,2.481505859375,5.769039328026771,-0.4414439367033541,1.6152343260817228
1772534797862523000,2.49152294921875,5.775660791993141,-0.45773346579037605,1.5944786844313144
1772534797872540000,2.501539794921875,5.863237953159213,-0.08752572323977947,2.1158621270291507
1772534797882556000,2.511555908203125,5.582406164824962,-0.128230366332829,1.9566668597206471
1772534797892573000,2.521572998046875,4.922433605095744,0.008325272209569811,1.73497305066213
1772534797902590000,2.53158984375,4.92861317051351,0.015555077332630753,1.707032758204639
1772534797912607000,2.54160693359375,2.8367922826766967,0.5493105833128095,1.098124907541275
1772534797922624000,2.5516240234375,1.0532020622313023,0.8498230775423348,1.1136867799408734
1772534797932641000,2.56164111328125,-0.316817878472805,0.9639025342520325,0.7419314426220953
1772534797942658000,2.571657958984375,-1.1806763494998216,0.4884857469286769,0.08430822249799966
1772534797952674800,2.5816748046875,-2.118266411691904,-0.5306397120472044,-0.5495198421493173
1772534797962692000,2.591692138671875,-4.0748540686964985,-1.9447604410886763,-1.342537767277658
1772534797972708000,2.6017080078125,-6.649265581008792,-3.0028116969168184,-2.315119355612993
1772534797982724900,2.611724853515625,-9.862600435280799,-2.4541563626423475,-3.520965217682719
1772534797992742000,2.621741943359375,-13.772053513896465,-1.160282453833893,-4.352454035502672
1772534798002759000,2.631759033203125,-13.8056319583714,-1.1295039422757922,-4.238975832621753
1772534798012776000,2.64177587890625,-21.549722820854186,0.6841206202968955,-4.590736137399077
1772534798022793000,2.65179296875,-22.748189094066618,1.0912557524241506,-5.164357278364896
1772534798032810000,2.66181005859375,-22.2521287471652,0.5620389858521521,-5.581794170406461
1772534798042827000,2.671826904296875,-20.340019698834418,-0.7665667021848261,-5.420988106900453
1772534798052844000,2.681843994140625,-20.370087504839898,-0.7107653199858963,-5.35293923754692
1772534798062860000,2.691860107421875,-13.558008612155913,-3.0206372764647007,-4.578194635733961
1772534798072877000,2.701876953125,-12.919182300829887,-3.0198943491429087,-3.627308161856234
1772534798082893800,2.711893798828125,-13.714766861575841,-2.1802499896571037,-2.9506831580117345
1772534798092911000,2.7219111328125,-14.75818402737379,-0.9865136675760149,-2.318281326775253
1772534798102928000,2.731927978515625,-14.764429059243202,-1.092164610897377,-2.2579171667054294
1772534798112945000,2.74194482421875,-16.072687248039244,0.54164669762142,-1.3068673189595341
1772534798122962000,2.7519619140625,-15.058993020331858,1.2110575323034076,-0.6177580965951085
1772534798132979000,2.76197900390625,-12.78689096866846,1.5328662778660653,-0.3445949431926012
1772534798142995700,2.77199560546875,-9.001146687307953,1.339376380637288,-1.0282923696413635
1772534798153012000,2.782011962890625,-9.02733794414103,1.4136628292061388,-0.9846601486638188
1772534798163029000,2.792029052734375,0.03121288438737392,-0.024320494525134562,-3.1457807826980946
1772534798173045800,2.802045654296875,4.874350834450126,-0.4658334048114717,-3.1311428932756185
1772534798183063000,2.81206298828125,9.544528757354616,-0.40637598432302474,-2.5367709329649806
1772534798193080000,2.822080078125,12.964454690229893,0.13258973058611154,-1.7790537460595368
1772534798203096800,2.832096923828125,12.975864557516575,0.22373685919344424,-1.8551237170442938
1772534798213114000,2.842114013671875,14.451677115035055,1.5628665715932846,0.19638181927800177
1772534798223131000,2.852130859375,13.148630523407459,2.3645602628692983,1.3153595452338456
1772534798233147000,2.86214697265625,11.468660836434363,3.050525049728155,2.1186256003931163
1772534798243164000,2.872163818359375,10.530971990042925,3.119997814404964,2.7306007296726107
1772534798253181000,2.882180908203125,10.56210713301897,3.0938878061145543,2.6495813195869324
1772534798263198000,2.892197998046875,10.984150642073153,2.469499185463786,3.163588826589286
1772534798273215000,2.902215087890625,11.996285365378856,1.8729696087278425,3.2567300516232844
1772534798283232000,2.91223193359375,12.87909812772274,1.307404494576156,3.294294935385883
1772534798293248800,2.922248779296875,13.073181606930493,0.7972182994276285,3.034969460938871
1772534798303266000,2.93226611328125,13.084240761083363,0.7731937191091477,3.0119200092628597
1772534798313283000,2.942282958984375,12.198305482804775,-0.210457544773072,1.7241224246934055
1772534798323298800,2.952298828125,10.996515618127583,-0.4406092394448817,1.0957438576236367
1772534798333315800,2.96231591796875,9.935801280570029,-0.5329727581046522,1.132823003695905
1772534798343333000,2.9723330078125,9.183042885115743,-0.6286354644402862,1.7037237797871232
1772534798353350000,2.982349853515625,9.202441997590661,-0.6818634890198707,1.6628838198766112
1772534798363367000,2.992366943359375,8.427475861981511,-0.7386436531230807,3.232067027270794
1772534798373384000,3.002384033203125,8.322689791861176,-0.796112237881869,3.7700188889622686
1772534798383401000,3.01240087890625,8.379419979342817,-0.844877583964169,4.271622549204528
1772534798393417700,3.022417724609375,7.952773944929242,-0.7887645054675638,4.172883942554891
1772534798403435000,3.03243505859375,7.145294363728166,-0.7145805674251169,3.789173086765408
1772534798413451000,3.042450927734375,6.2485676423221825,-0.5288114737067371,3.6795571122705932
1772534798423467800,3.0524677734375,5.598986128225922,-0.175907844113186,3.710629126882553
1772534798433485000,3.062485107421875,5.127792511555552,0.1859066755581647,3.3468034135192632
1772534798443501800,3.072501708984375,4.656914536705613,0.24093495449274777,2.868921697387099
1772534798453518800,3.082518798828125,4.679077853196859,0.2266949052814394,2.784164269816875
1772534798463536000,3.0925361328125,3.8559213949143882,-0.07325432904213666,1.9659524283297358
1772534798473553000,3.102552978515625,3.565076162087917,-0.04766140342839062,1.7757637646034359
1772534798483570000,3.11256982421875,3.1549440401017663,0.31558146854564545,1.1817315576411782
1772534798493587000,3.1225869140625,2.5854361796736716,0.7002737365879118,0.015147154118865728
1772534798503603000,3.13260302734375,2.589642399191856,0.7392172882925718,-0.02910597523599863
1772534798513620000,3.142619873046875,-0.6978507472246885,0.8096689810041338,-2.8640178509935734
1772534798523637000,3.152636962890625,-3.7969016351908444,-0.13756532704159616,-3.5664740461871025
1772534798533654000,3.162654052734375,-7.226929859885573,-0.8452605919323861,-3.821665781830251
1772534798543670800,3.1726708984375,-10.786603286147116,-0.9718246324881911,-4.277627634838224
1772534798553688000,3.18268798828125,-14.453545246994494,0.008400164076685906,-5.374584667643904
1772534798563705000,3.192705078125,-16.94986755745411,1.913802846636623,-7.445254046380519
1772534798573721900,3.202721923828125,-17.8039054762125,3.0284441508233546,-9.92696097151041
1772534798583739100,3.2127392578125,-17.65580633406639,3.4241426737874745,-12.203713479328155
1772534798593755000,3.2227548828125,-17.577656926459074,3.4997634397000073,-13.131779926371573
1772534798603772000,3.23277197265625,-17.63036326525211,3.543140516872704,-12.98573830127716
1772534798613789000,3.242788818359375,-19.411738147735594,2.3076962198749182,-8.818433912420272
1772534798623806000,3.252805908203125,-20.59280203524828,1.9672620496235786,-5.3160933157086365
1772534798633823000,3.262822998046875,-20.74617824101448,1.7644488821238278,-1.7684543183729051
1772534798643839700,3.27283984375,-19.063173716390132,1.6479367183744906,1.217337854681909
1772534798653857000,3.28285693359375,-19.02914051388502,1.6256167500168084,1.1033851661570369
1772534798663873800,3.292873779296875,-12.609872021508217,0.8294590655580163,4.098766859203577
1772534798673890800,3.302890869140625,-10.024210216385125,-0.06611512481197715,4.076279717585444
1772534798683907000,3.312906982421875,-10.056542460191249,-0.07297478144839406,4.203670710484683
1772534798693923800,3.322923828125,-6.213569978699088,-1.1752367887943982,0.4270654288694262
1772534798703940900,3.33294091796875,-6.289771759369969,-1.1903415650762617,0.6811199771761893
1772534798713958100,3.342958251953125,-3.287358121860027,-1.0718103165894746,-2.591765382695198
1772534798723975000,3.352974853515625,-1.3336515732496976,-0.7229729135215281,-2.4587945438370107
1772534798733992000,3.362991943359375,-1.3326391813367604,-0.7558278660275042,-2.447009121236205
1772534798744009000,3.373009033203125,2.2816122228085995,-0.9022023763380944,-0.6589975772172212
1772534798754026000,3.38302587890625,2.341613394784927,-0.9102046271383761,-0.8280006834432482
1772534798764042800,3.393042724609375,6.5188394581973546,-1.1554074682086706,2.209184992240369
1772534798774059000,3.40305908203125,9.255630566942692,-0.8186408805541694,3.587488192643225
1772534798784076000,3.413075927734375,11.32388645479679,-0.1919892834074795,4.291755236651003
1772534798794092800,3.4230927734375,12.233797651946544,0.4308127987042069,4.360383367197215
1772534798804110000,3.433110107421875,12.247374926400184,0.4346168671622872,4.307671767707169
1772534798814126800,3.443126953125,10.869119072270392,0.7751783170551061,3.9860263229474424
1772534798824144000,3.453143798828125,10.337545513439178,0.7501213249489664,3.630066520653665
1772534798834161200,3.4631611328125,10.341570531171559,0.7442264216914772,3.6184056012153625
1772534798844178200,3.47317822265625,10.347717363363504,0.24786709184348582,2.67665666577816
1772534798854194200,3.483194091796875,10.350376937961578,0.2565229842469096,2.660692496187985
1772534798864211200,3.493211181640625,10.842298869884013,-0.03673062489554286,2.1900024451255797
1772534798874228200,3.503228271484375,11.460360625600813,-0.4724636366061866,1.401092393707484
1772534798884245200,3.513245361328125,11.457810941118002,-0.4692926053546369,1.4089721871718763
1772534798894262000,3.523261962890625,11.2140197204113,-0.7336246559172869,1.1896331245459615
1772534798904279300,3.533279296875,11.210161875939368,-0.7503129019983112,1.2154114166639745
1772534798914296000,3.543296142578125,8.990800649860502,-0.5425358284808695,1.357758132763207
1772534798924313300,3.553313232421875,7.598365463730692,-0.43860754423364995,1.6406787100702522
1772534798934330000,3.563330078125,7.597353656339645,-0.4636874788239598,1.6595155124872922
1772534798944347100,3.57334716796875,5.776231285357475,0.004508125074207782,2.4822601750984785
1772534798954363100,3.583363037109375,5.783750574946403,-0.0028236791186034677,2.458450844965875
1772534798964380200,3.593380126953125,5.106846754160523,-0.011416004766523838,2.6596131765186786
1772534798974397200,3.603397216796875,5.126487858697772,-0.025861001965403554,2.5586732604324816
1772534798984414200,3.613414306640625,5.130290173590183,0.01025850529447198,2.520907885661721
1772534798994431200,3.62343115234375,5.56778902592957,-0.04488309782147407,1.6009072561740874
1772534799004448300,3.6334482421875,5.81958293582797,0.14492431150227783,1.068433387502283
1772534799014465000,3.643465087890625,6.227586813613772,0.2861129436075687,0.486828115914762
1772534799024482300,3.653482421875,6.4215013659954066,0.44151787872239945,0.38204803714379665
1772534799034498300,3.663498291015625,6.095530459251999,0.603262245991826,0.4384235659688711
1772534799044515000,3.67351513671875,5.316374470737576,0.6663479399800301,0.47588951940163965
1772534799054532400,3.683532470703125,3.86106635658741,0.39113545283228157,0.5213846116416156
1772534799064549000,3.693549072265625,1.8896639922887086,-0.008087737126648425,0.2276081476688385
1772534799074566100,3.703566162109375,-0.03405249172747135,-0.21957316364273427,-0.34292277219668027
1772534799084583200,3.713583251953125,-1.7066344065368175,-0.48417599397078154,-1.0614888290613889
1772534799094600200,3.72360009765625,-2.737096229171753,-0.9959814608842134,-1.8219689048089085
1772534799104617200,3.7336171875,-3.3818466698497534,-1.9743805033266544,-1.8983350822612641
1772534799114634200,3.74363427734375,-4.699025247204303,-2.3744836909905076,-1.8068593062214553
1772534799124650200,3.753650146484375,-7.607445426765084,-1.398010355913639,-2.059971020720154
1772534799134667300,3.763667236328125,-7.622471730983257,-1.3895742437407375,-2.003519796310365
1772534799144684000,3.77368408203125,-17.904871111261844,-0.1301429219558835,-2.6125048038631675
1772534799154701300,3.783701416015625,-22.448338717007637,0.13901479519754648,-3.3514094460099932
1772534799164718000,3.793718017578125,-25.606893933343887,0.5437608402311802,-3.9511329964816566
1772534799174735400,3.8037353515625,-26.6833096979022,1.1824284538641572,-4.6984813495859505
1772534799184752000,3.813752197265625,-26.715881595683097,1.1346163168534635,-4.557041957589984
1772534799194769200,3.82376904296875,-22.75088724710941,1.4425127838544547,-5.846680201590061
1772534799204786200,3.8337861328125,-19.416741655111313,0.5962357083559036,-4.7004552800074215
1772534799214802200,3.84380224609375,-16.633737076723573,-0.09766381702497601,-3.6561011256203053
1772534799224819200,3.853819091796875,-14.199265365499258,-0.6328584889627993,-2.576442141357064
1772534799234836200,3.863836181640625,-11.744870810186862,-1.1601022018961609,-1.8314646090373397
1772534799244853200,3.873853271484375,-9.260405526259541,-1.447848738054931,-1.5592086336076258
1772534799254870300,3.883870361328125,-6.831511907428503,-1.58251352134943,-1.5457053011730313
1772534799264887000,3.893886962890625,-4.752103341919184,-1.5581794366903603,-1.9246417821675539
1772534799274904300,3.903904296875,-3.14283333106935,-1.4025481454737483,-2.556278181989491
1772534799284921000,3.913921142578125,-3.161890498238802,-1.4478718266695736,-2.4673893537029623
1772534799294938000,3.923938232421875,0.4377291539639234,-1.4476070382535458,-3.132586662343144
1772534799304954400,3.933954345703125,2.1841490429222583,-1.5510608368568122,-3.08535378652513
1772534799314971100,3.94397119140625,4.117017970687151,-1.5479311605289579,-2.707538418515026
1772534799324988200,3.95398828125,6.310664909794927,-1.4803998853087423,-2.164723919223249
1772534799335005200,3.964005126953125,6.318882118520141,-1.4456193715676664,-2.21132843400985
1772534799345022200,3.974022216796875,10.75030213871002,-0.5663569951817393,-0.6342778542414307
1772534799355039200,3.984039306640625,11.696240927052497,-0.11715060778334736,0.4823571079805493
1772534799365056300,3.99405615234375,11.814568031269312,0.42234468395784497,1.5543451192244886
1772534799375073300,4.0040732421875,11.532680011880396,0.8329118363603949,2.6317028408080336
1772534799385090000,4.014090087890625,11.361852320575714,1.1146911346778272,3.540629703095555
1772534799395106000,4.02410595703125,11.410952159309387,1.2726876937210558,3.975718279422819
1772534799405123300,4.034123291015625,11.708156990295647,1.0644181605115532,3.983212434570491
1772534799415140000,4.04414013671875,12.214790169137716,0.7896101625114679,3.6289012762665744
1772534799425157000,4.0541572265625,12.870012319469451,0.5698631036065519,3.1715111440211534
1772534799435174100,4.064174072265625,13.510069633895158,0.3628650516375899,2.7588760993033645
1772534799445191200,4.074191162109375,13.787157559525966,0.26126857133880255,2.3563280027054248
1772534799455208200,4.084208251953125,13.487010245347022,0.23498320648148655,2.1046672176674006
1772534799465225200,4.09422509765625,12.509478048866987,0.24331512762755153,1.992397221532464
1772534799475242200,4.1042421875,11.355436608314513,0.16939327458739278,2.0988126464203
1772534799485258000,4.114258056640625,10.367179604202509,0.1456789292618632,2.2292799780249593
1772534799495275300,4.124275146484375,9.34795053872168,0.06561331276968121,2.307110675071925
1772534799505292300,4.134292236328125,8.535268712702393,-0.11784472752735017,2.419021774766594
1772534799515309000,4.14430908203125,7.899332277598977,-0.1216577099442482,2.464927932025492
1772534799525326300,4.154326416015625,7.523474181136488,-0.135347212600708,2.3167557246431705
1772534799535343000,4.164343017578125,7.534603477916121,-0.17208455949798226,2.292131570996344
1772534799545360100,4.174360107421875,6.788291189861297,-0.3780325178921222,2.40497717506215
1772534799555377200,4.184377197265625,6.433941160851717,-0.353503495182842,2.502202016147971
1772534799565394200,4.194394287109375,5.4831806514412165,-0.3880383635997772,2.476115973255038
1772534799575410200,4.20441015625,4.098248972809315,-0.5496630500122904,2.212201855843514
1772534799585427200,4.21442724609375,4.107409599864483,-0.5639018571145832,2.177822908640653
1772534799595444200,4.2244443359375,2.0289426991194484,-0.5256478951092809,1.1572047268889845
1772534799605461200,4.234461181640625,0.947676571920514,-0.3939603009946644,0.5608560596778989
1772534799615478300,4.244478271484375,-0.14203414301872253,-0.2940449056506157,0.052260640852153296
1772534799625495300,4.254495361328125,-1.6450328136265278,-0.6152431911647319,-0.29735870637372136
1772534799635512000,4.264511962890625,-4.159393469601869,-1.2063010584913194,-0.4127406970493495
1772534799645529300,4.274529296875,-7.496439459216594,-1.4952103548191487,-0.9347028163179755
1772534799655546000,4.284546142578125,-10.572317561388015,-1.7357896277420222,-1.7137408775411545
1772534799665562000,4.29456201171875,-12.559331920838355,-1.6302802117832005,-2.8277514826089143
1772534799675579100,4.3045791015625,-13.115060262238979,-0.3505842467352748,-4.613253674155473
1772534799685596200,4.31459619140625,-12.976135775673388,1.0255853026397526,-5.669198313093185
1772534799695613200,4.32461328125,-13.491981019496917,1.4059522548288106,-5.857824695938826
1772534799705630200,4.334630126953125,-15.558920564055441,1.3098729305163026,-5.902713638979196
1772534799715647200,4.344647216796875,-18.22621786533594,0.7647752887234092,-5.689671776801347
1772534799725664300,4.354664306640625,-19.987090058016776,0.5634513368681073,-4.937705408507585
1772534799735681300,4.364681396484375,-20.006187557196615,0.5094266089528798,-4.81490437374711
1772534799745698300,4.3746982421875,-20.80073049993515,1.2193627846382558,-2.878448235145211
1772534799755714300,4.38471435546875,-20.26499046907425,1.2205725988194345,-1.4844541291356086
1772534799765731000,4.39473095703125,-18.739236361300943,0.786646636530757,-0.3170508104458451
1772534799775748400,4.404748291015625,-16.543641210734844,-0.06421528254002332,0.3006447423070669
1772534799785765000,4.41476513671875,-13.98547414625883,-1.1408300768017767,0.4345397102728486
1772534799795782100,4.4247822265625,-11.424936260998248,-2.1263559023842213,0.25182810442894693
1772534799805799200,4.434799072265625,-9.20510975549519,-2.7784026375502346,-0.23446020552068947
1772534799815816200,4.444816162109375,-6.6687190540194505,-2.7081197255343197,-1.1301993771940468
1772534799825833000,4.4548330078125,-4.009560635530948,-2.0569411515049634,-1.665828933417797
1772534799835849200,4.46484912109375,-1.8167811269074676,-1.606401323545724,-1.8726549898207188
1772534799845866500,4.474866455078125,0.25905893246531486,-1.547910848393291,-2.1549717560157178
1772534799855883300,4.48488330078125,2.366788168051839,-1.509113500226289,-2.2722627951830625
1772534799865900300,4.494900390625,2.3886820199519394,-1.4818690810784696,-2.352335572068393
1772534799875917300,4.504917236328125,6.907869170922041,-1.2193648304648697,-1.1952175005495547
1772534799885934300,4.514934326171875,9.088008393681049,-0.7840881842195987,-0.06636106239706277
1772534799895951400,4.524951416015625,11.011380009782314,-0.2755550169751048,1.1345908901512622
1772534799905968400,4.534968505859375,12.415851670664548,0.31111981296166774,2.2608009054481983
1772534799915985400,4.5449853515625,13.099861524063348,0.881772897902131,3.108819125525653
1772534799926001400,4.55500146484375,13.1031570584774,1.276023852406442,3.6177991597548127
1772534799936018400,4.565018310546875,12.649656919407844,1.5059705260254441,3.8436516959279774
1772534799946035500,4.575035400390625,12.110166596102713,1.583841555082798,3.952072323158383
1772534799956052200,4.58505224609375,11.738658511543273,1.342445266688615,3.990838399404287
1772534799966069500,4.595069580078125,11.671479410761593,1.0786182430386542,4.067956125876307
1772534799976086300,4.605086181640625,11.849541144973038,0.8156225556463003,3.9175650734007355
1772534799986103300,4.615103271484375,11.846835977667569,0.811964033138752,3.931745574444532
1772534799996120600,4.62512060546875,12.109760937911272,0.191605106395483,3.457452238193154
1772534800006137300,4.635137451171875,11.9034761487782,-0.03318243089467287,3.0361469802856442
1772534800016153300,4.6451533203125,11.216528488361835,-0.1615177189067006,2.594161922442913
1772534800026170400,4.65517041015625,11.216931808465718,-0.21478870584517717,2.6278017417162656
1772534800036187400,4.6651875,10.0448870937109,-0.2919102317094803,2.555798289518058
1772534800046204400,4.675204345703125,7.75503018964827,-0.23859292141124605,2.6067180371552703
1772534800056221200,4.68522119140625,6.991299733802676,-0.31076106265187264,2.733468101802468
1772534800066238500,4.695238525390625,6.421404335361719,-0.3973578344784677,3.015513357579708
1772534800076255200,4.705255126953125,6.102610772901773,-0.36151509833335876,3.176417036241293
1772534800086272300,4.715272216796875,6.105429921975731,-0.375993559410423,3.1731612493157386
1772534800096289300,4.725289306640625,6.187840494158864,-0.12096724346205591,2.951972321039438
1772534800106305300,4.73530517578125,6.461576771274209,0.109182113122195,2.4434483600147066
1772534800116322300,4.745322265625,7.053823702254891,0.291781198502332,2.0525795952945947
1772534800126339300,4.75533935546875,7.8319661298125975,0.49748278091996906,1.5428414361745117
1772534800136356400,4.7653564453125,7.85148857640624,0.5317601674444973,1.4386718905173241
1772534800146373400,4.775373291015625,9.264999868312477,0.9976967403694986,0.6096208212383091
1772534800156390400,4.785390380859375,9.835195711004733,1.3115338494658468,-0.2678520413823426
1772534800166407400,4.795407470703125,9.196364723503589,1.2930530208796263,-0.7636652816548943
1772534800176424200,4.805424072265625,6.410931456664204,1.3740584024399518,-0.8503751584671437
1772534800186441500,4.81544140625,3.3655238960802554,1.4412217211306095,-0.34220147218480707
1772534800196457500,4.82545751953125,-0.3324994317293167,1.5154798203878104,-0.5499404056489468
1772534800206474200,4.83547412109375,-5.167210914230346,1.0320184044271707,-1.9045120173305272
1772534800216491500,4.845491455078125,-9.743169169214367,-1.0665114795289934,-3.2055539911374447
1772534800226508300,4.85550830078125,-12.675871557116508,-4.362933343940973,-3.0343560052156446
1772534800236525300,4.865525390625,-14.301632684040069,-6.364670640748739,-2.726297479520738
1772534800246542300,4.875542236328125,-21.092175452220438,-3.493133792427182,-3.9876276206642385
1772534800256559400,4.885559326171875,-32.78435044500828,-0.44332682784050703,-4.202599574121833
1772534800266576400,4.895576416015625,-41.84965834658146,1.596119583506137,-6.162437757354974
1772534800276593400,4.905593505859375,-41.926408408784866,5.3719443822681905,-9.032230392357706
1772534800286609400,4.915609375,-35.29877890552282,6.0588271607548,-8.001019797182083
1772534800296626400,4.92562646484375,-25.454637671518324,3.027282705828547,-3.6790596841424703
1772534800306643200,4.935643310546875,-16.597626483422516,0.3780523916363716,0.02030161427259445
1772534800316660500,4.945660400390625,-11.11619998217225,-1.0511845849290489,1.5605122635520994
1772534800326677200,4.95567724609375,-8.464189097350836,-1.748207210766524,1.6167467764712868
1772534800336694300,4.9656943359375,-8.442704995295404,-1.8315917425483463,1.544757352798432
1772534800346711300,4.975711181640625,-6.7638897390544415,-2.522187988600135,-0.3253209184020758
1772534800356728300,4.985728271484375,-7.973587015855312,-2.660406664983928,-0.2047767226576805
1772534800366744300,4.995744384765625,-7.935286219033599,-2.003591400241852,-1.4829612602293492
1772534800376761300,5.00576123046875,-6.474138146683574,-1.1023751123316585,-2.264386508850008
1772534800386778400,5.0157783203125,-4.460272020664811,-0.9463340712703764,-3.329121334095299
1772534800396795400,5.02579541015625,-1.6435060424506662,-1.4018606016010045,-4.341900200523436
1772534800406812400,5.0358125,1.23334703245759,-2.0849625463746486,-4.4599721609354015
1772534800416829400,5.045829345703125,3.9170097776055335,-2.564163090020418,-3.8990065034031867
1772534800426846200,5.05584619140625,6.863138048791885,-2.520083417536318,-2.537288819359243
1772534800436863500,5.065863525390625,9.36510917879343,-2.1587048050642013,-0.5961163197599351
1772534800446880300,5.07588037109375,10.987671801936626,-1.3616020948402583,1.3064574229843913
1772534800456896300,5.085896240234375,11.451221041333675,-0.21948606988117098,2.66120512188524
1772534800466913500,5.09591357421875,11.285520776045322,0.9321735901013016,3.332489056962728
1772534800476930300,5.105930419921875,11.03669448378086,1.6056138264298438,3.6608468588426706
1772534800486947300,5.115947265625,10.967905609714984,1.786416383782029,3.565330136848986
1772534800496964400,5.12596435546875,11.68430265197754,1.5754187407828866,3.4810213298290966
1772534800506981400,5.1359814453125,12.717397161203623,0.976914356842637,3.2076915876880285
1772534800516998400,5.145998291015625,13.655522060924767,0.44439913324713703,2.762120195791125
1772534800527015400,5.156015380859375,13.656800994819402,0.46117783409059043,2.7313746366545555
1772534800537032400,5.166032470703125,14.282916293132304,-0.057681789118051524,2.3473428783476353
1772534800547048400,5.17604833984375,13.73791275936365,-0.35559199189469215,1.580590444332361
1772534800557065200,5.186065185546875,12.69804130334854,-0.30220906901434064,1.2877439546860754
1772534800567082500,5.19608251953125,11.503086837649345,-0.36010157827362416,1.1842093459315597
1772534800577099300,5.206099365234375,10.34973864005804,-0.34711890871226786,1.2322754577033221
1772534800587116300,5.2161162109375,10.349842684954405,-0.4016752592861652,1.2828601281672716
1772534800597133300,5.22613330078125,8.673219970321655,-0.20033223740421235,1.6906391111560164
1772534800607150300,5.236150390625,8.102213980290292,-0.19360928582474587,1.6216588061712682
1772534800617167400,5.24616748046875,7.723834256395697,-0.2861985760644078,1.5419259287647902
1772534800627184400,5.256184326171875,7.391583830991387,-0.49388650999367234,1.4168113563649356
1772534800637200400,5.266200439453125,7.293985042026638,-0.5725063115917146,1.254974488506466
1772534800647217200,5.276217041015625,7.283457802793383,-0.541533373440057,1.0442151843078433
1772534800657234400,5.286234375,6.87441230700016,-0.27836313319839534,1.1250417021699248
1772534800667251500,5.29625146484375,6.356005103734136,-0.024273221317306158,1.192925005698204
1772534800677268200,5.306268310546875,6.108482879805565,0.134727546332404,0.8801520187020301
1772534800687285500,5.316285400390625,6.110010820025205,0.16323701697997747,0.8494723644085228
1772534800697302300,5.32630224609375,6.161999950459599,0.33689883573204277,0.7198582886323333
1772534800707944400,5.3369443359375,6.165308344355225,0.38869156681150197,0.6537808654822409
1772534800717961200,5.346961181640625,6.1945771089375015,0.2089528392985463,0.5054559517562389
1772534800727978500,5.356978515625,5.521818132871389,0.23441885059699416,0.1624769193276763
1772534800737995300,5.366995361328125,4.228561113852262,0.38670536143034695,-0.06753624365627765
1772534800748012300,5.37701220703125,2.6219775656074282,0.2609453307338059,-0.35540216841101646
1772534800758029600,5.387029541015625,0.2081745484024286,-0.2225065867461264,-0.2164266823105514
1772534800768046300,5.39704638671875,-3.1156016252726313,-0.958115986739844,0.2127656755849719
1772534800778063400,5.4070634765625,-6.990385541567206,-1.921745914595574,0.3218582107275724
1772534800788080400,5.417080322265625,-11.158035382860898,-2.492589553672075,0.03202741564065218
1772534800798096400,5.427096435546875,-14.4292536863029,-2.481317049029469,-0.7544495634116232
1772534800808113400,5.437113525390625,-17.250830864191055,-1.0682565696306525,-1.9288366035088895
1772534800818130200,5.447130126953125,-19.884663118243218,0.9097989689469337,-3.1841572751045226
1772534800828147500,5.4571474609375,-22.74803945646286,1.8167001706257462,-4.358222097510099
1772534800838164200,5.467164306640625,-25.760298196160793,1.6786862230338155,-5.924291849058866
1772534800848181200,5.47718115234375,-26.78213364474773,1.1377218816533685,-7.144605212420225
1772534800858197800,5.48719775390625,-24.969400331926344,0.7292917412795126,-7.44057202604413
1772534800868214800,5.49721484375,-21.63487363165617,0.8652595699965954,-6.716693103593587
1772534800878231800,5.507231689453125,-18.582797260832784,1.170352816145122,-4.97913632004857
1772534800888247800,5.517247802734375,-16.494237420618532,1.6234060882300136,-3.1963971634745594
1772534800898264600,5.5272646484375,-14.689098216187952,1.762915388946235,-1.693888760601729
1772534800908281900,5.53728173828125,-12.60201254017949,1.2180706990011037,-0.5387947422564029
1772534800918298600,5.547298583984375,-9.838022458863257,0.12156184835433959,-0.049384354763478036
1772534800928315600,5.557315673828125,-6.546994708579779,-1.068033866790682,-0.14885171407908201
1772534800938332700,5.567332763671875,-3.7605057952076195,-1.7236781880572438,-0.5274506336823106
1772534800948349700,5.577349609375,-2.520664140033722,-1.7030315597392618,-0.7769891658693552
1772534800958366700,5.58736669921875,-2.0476468150675298,-1.2543999034889042,-1.3333718795254825
1772534800968383700,5.5973837890625,-1.1386872195541857,-0.8670746565945446,-1.9628424796156585
1772534800978399700,5.607399658203125,0.15036299542486667,-0.7057023375079036,-2.380916208256036
1772534800988416800,5.617416748046875,1.7119278367698192,-0.7159392154924571,-2.6295120527654885
1772534800998433800,5.627433837890625,3.510169098380208,-0.6437361490689217,-2.699337284141779
1772534801008450800,5.637450927734375,5.571418322342634,-0.4285293639421463,-2.4197043502032756
1772534801018467600,5.647467529296875,7.815182752794027,-0.32583938931822776,-1.7666133666813373
1772534801028484900,5.65748486328125,9.929610024714469,-0.11939721766635775,-1.1024316648244856
1772534801038501600,5.667501708984375,11.76406650904417,0.25321400582939385,-0.6265352772906422
1772534801049144800,5.678144775390625,12.959874376702308,0.6985518812313676,-0.2537652099713683
1772534801059161600,5.68816162109375,12.98650285590887,1.157065610679239,0.6394206239573658
1772534801069179000,5.698178955078125,12.330365344297885,1.3703243304781616,1.5859183613568544
1772534801079195600,5.708195556640625,11.667014832568167,1.380152189270407,1.9237253979749978
1772534801089211600,5.718211669921875,11.223203728342055,1.292645755252987,2.0435935941539705
1772534801099228700,5.728228759765625,11.01590187112093,1.293524583914131,2.3776927161648866
1772534801109245700,5.73824560546875,10.982280172026156,1.498776668998599,1.8966703639194369
1772534801119262700,5.7482626953125,11.142824954247475,1.4329726559624074,1.1562989371556789
1772534801129279500,5.758279541015625,10.953069275110959,1.4318091651409863,0.728854153579846
1772534801139296800,5.768296875,10.373173291659354,1.5283319954372943,0.865039716700837
1772534801149313800,5.778313720703125,9.891251360225677,1.6079985296092927,0.9715122055381535
1772534801159330800,5.788330810546875,9.287297624838352,1.8030308339744805,1.08132136451751
1772534801169346800,5.798346923828125,8.52357885943055,2.175218132969737,1.3930124014958738
1772534801179363800,5.80836376953125,7.8116487334489815,2.2787886898204683,1.4036118291825055
1772534801189380600,5.818380615234375,6.971791900256275,1.9411916426911948,1.0686373856417835
1772534801199398000,5.82839794921875,6.03128039765954,1.749157204967737,0.9304334684357046
1772534801209414700,5.83841455078125,5.953037466549873,2.0594415900185705,1.184872120689228
1772534801219431700,5.848431640625,6.492729449906945,2.268444552069157,1.7395010494805871
1772534801229448700,5.85844873046875,6.639468994137644,2.3025874985590575,1.9010510632216928
1772534801239465700,5.8684658203125,6.189286601313948,2.6177228307724,1.5224971518039703
1772534801249482800,5.878482666015625,5.6413072666049,2.9313357757240532,0.8006235778264701
1772534801259498800,5.888498779296875,5.462286916494369,2.5656021829128264,-0.11418686260692774
1772534801269515800,5.898515869140625,5.222418422189355,2.081176305834204,-0.7628838489536196
1772534801279532500,5.908532470703125,4.822200960496068,1.1962712473861872,-0.6062773194966837
1772534801289549800,5.9185498046875,3.8108278692126274,-0.08302095916643738,0.4035780607001856
1772534801299566800,5.92856689453125,2.4831717369854447,-1.4609773919582365,1.97426257603541
1772534801309583600,5.93858349609375,0.4521136531472206,-2.4128671976596117,2.78637434708178
1772534801319601000,5.948600830078125,-2.666076819574833,-1.8714350926369427,1.7076428529269991
1772534801329617700,5.95861767578125,-5.975400689527392,-1.3186363749474286,0.020100940601341426
1772534801339634700,5.968634765625,-8.774492479363083,-2.914356876133382,-0.6679490185011178
1772534801349650700,5.978650634765625,-10.956067872405052,-5.326394929492474,-0.6385040205691009
1772534801359667700,5.988667724609375,-13.256562490338085,-6.316145971554517,-0.998089539079368
1772534801369684700,5.998684814453125,-15.815689339756965,-4.638756071941554,-1.510615575352311
1772534801379701500,6.008701416015625,-18.739862968766687,-2.1106302177250384,-1.3829998337864875
1772534801389718800,6.01871875,-21.008399436902998,-0.5463233841955661,-1.3644118915639818
1772534801399735800,6.02873583984375,-21.575888358724114,-0.7661945078715682,-1.1312514435302465
1772534801409752800,6.0387529296875,-19.716554622769355,-1.8756112092778086,-0.9027982964046299
1772534801419769900,6.048769775390625,-16.15902463827729,-2.314724218815565,-1.008832539955154
1772534801429786600,6.05878662109375,-12.604683805215357,-2.455438511407375,-0.612902473257482
1772534801439802600,6.068802734375,-10.693195519131422,-2.3277502891272306,-0.13938063283525406
1772534801449820000,6.07881982421875,-10.831607964521647,-1.4237597141981124,0.2928230357054621
1772534801459836700,6.088836669921875,-11.355436608314513,-0.22121026332527396,0.4385032801415771
1772534801469853700,6.098853759765625,-10.82193880342245,0.4947144852504134,0.2766189198795706
1772534801479870700,6.10887060546875,-9.378431017181276,0.6294710384815931,-0.035514088712632653
1772534801489887700,6.1188876953125,-7.552589216461778,0.3613602000325918,-0.7569207027655095
1772534801499904500,6.128904541015625,-5.364340921527147,-0.033759061738848684,-1.477834418734908
1772534801509921800,6.138921875,-2.6762492540210485,-0.4319312813401222,-1.9804615768060088
1772534801519938800,6.148938720703125,-0.11941957562863827,-0.5892945109158754,-2.3727130280561743
1772534801529954600,6.15895458984375,1.9962907218396662,-0.29586773716360326,-2.6267443416178224
1772534801539971800,6.168971923828125,3.72303735755682,0.10284253483712673,-2.598200968700647
1772534801549988900,6.17898876953125,5.352670357477665,0.37818916975855826,-2.1051000561267137
1772534801560005600,6.189005615234375,6.7995368064969774,0.5378346650525927,-1.3252426413446663
1772534801570023000,6.19902294921875,8.119611105293036,0.8174407109841704,-0.34386882087513804
1772534801580039700,6.209039794921875,9.309483737683296,1.121070022059977,0.7582509284559636
1772534801590056700,6.219056640625,9.995272875714301,1.5030831340208648,1.6232617113232612
1772534801600073700,6.22907373046875,10.130484479236602,2.0502450148671865,2.043677034653723
1772534801610090800,6.2390908203125,9.80851345578432,2.271595563445985,2.213212055799365
1772534801620106800,6.249106689453125,9.366939316830038,2.164198141783476,2.3735461178794504
1772534801630123500,6.25912353515625,9.139996355071663,2.104327318188548,2.2884594583548603
1772534801640140800,6.269140869140625,9.271454743540286,2.0117427041240035,1.9277417940095065
1772534801650157600,6.279157470703125,9.681393973302841,1.7412671823702752,1.5445727900117634
1772534801660174800,6.2891748046875,10.211973844921589,1.6280946844376623,1.0060022119000553
1772534801670191900,6.29919189453125,10.919936236315966,1.670282697956264,0.4636950045432895
1772534801680208600,6.309208740234375,11.6749760207057,1.6194459524273872,0.13503420112878084
1772534801690226000,6.319225830078125,12.403084543550014,1.6735554360166192,0.06490063445568084
1772534801700242700,6.32924267578125,12.80599080593586,1.857280895078182,0.27732546071372927
1772534801710258700,6.3392587890625,12.573717004543543,1.8203933260552585,0.5562025347836316
1772534801720275700,6.349275634765625,11.621302882707118,1.6157055968552827,0.5379381254270672
1772534801730292700,6.359292724609375,10.25389692389369,1.482268747920543,0.32004875015281137
1772534801740309800,6.369309814453125,8.991258915022016,1.3319481303326786,0.07587773634828626
1772534801750326500,6.379326416015625,8.150090999230741,1.0739558041855692,0.08623955588676036
1772534801760343800,6.38934375,7.692772178655862,0.8809040061131119,0.33850495575442907
1772534801770360800,6.39936083984375,7.435603005459904,0.751786773943156,0.7011753616027534
1772534801780377600,6.409377685546875,7.548959920048714,0.7070631044670939,1.0700483484182506
1772534801790393900,6.419393798828125,7.741803628328442,0.79554627456218,1.260923313908279
1772534801800410600,6.42941064453125,7.473653042390942,0.7193088380560279,1.5729127493113277
1772534801810427600,6.439427734375,6.4523705515116445,0.6306253230832517,1.997201114682853
1772534801820445000,6.44944482421875,4.985952429804206,0.8230760865226388,2.0062118118733165
1772534801830461700,6.459461669921875,3.3344097958922383,0.4789040449172258,1.5674603291243314
1772534801840478700,6.469478759765625,1.2402759549379347,-0.272810248311609,0.9898241803634911
1772534801850495700,6.479495849609375,-0.480846995678544,-0.995836791716516,0.45961518788374955
1772534801860512800,6.4895126953125,-1.7703356020748615,-1.7522889271222053,-0.06711706839613617
1772534801870529500,6.499529541015625,-3.594999006664753,-2.778901819244027,-0.6559661736320704
1772534801880545500,6.509545654296875,-6.624675329631566,-4.187740735425055,-0.9398783923249692
1772534801890562800,6.519562744140625,-10.056773930859565,-5.585789962044358,-1.7340344546377657
1772534801900579600,6.52957958984375,-12.960370051264762,-7.066747481235861,-2.7412387358039614
1772534801910596900,6.539596923828125,-15.058126758891342,-7.534149888929724,-3.3896246103748675
1772534801920614000,6.54961376953125,-15.721303083097935,-6.054251523402333,-3.8461499424844976
1772534801930630700,6.559630615234375,-15.582835692650079,-4.869910806176066,-3.1081589080512524
1772534801940648000,6.56964794921875,-17.194616225016116,-4.811671967697143,-1.7503072517856955
1772534801950664700,6.579664794921875,-20.94109057226181,-4.523227950793505,-0.4736198209039867
1772534801960681700,6.589681640625,-25.016452005958556,-3.4993916837781667,0.6940519394636154
1772534801970697700,6.59969775390625,-27.58181570394039,-1.8345925317995249,1.253458969376981
1772534801980714800,6.60971484375,-27.506739712429045,-0.197428551851958,0.743228204434365
1772534801990731800,6.619731689453125,-24.73124974745512,0.8134396586492657,-0.5035387199580669
1772534802000748500,6.62974853515625,-20.423928985142705,1.0857929569736122,-1.2602062516801058
1772534802010765800,6.639765869140625,-15.74913684644103,0.706870796765387,-2.0627809635743497
1772534802020782600,6.649782470703125,-11.161349621975422,0.32430238900929687,-2.945100097182393
1772534802030799600,6.659799560546875,-6.977707846301794,-0.23279402587413786,-3.6523324207365513
1772534802040817000,6.66981689453125,-3.3025872551739215,-0.6140417064204812,-4.433696440689266
1772534802050833700,6.679833740234375,0.07464227626919746,-0.5660010213509201,-5.069863469678163
1772534802060849700,6.689849609375,2.21089033485353,-0.35752339834868907,-5.248887326920032
1772534802070867000,6.699866943359375,2.4173621709913014,0.6522071864247322,-4.177556318280101
1772534802080883700,6.7098837890625,1.0255085841417313,1.8897092927351593,-2.4572844315350055
1772534802090900700,6.719900634765625,0.007735562688112259,2.919704082380235,-0.80116002279073
1772534802100917800,6.729917724609375,-0.0464157142162323,3.5725483976647254,0.6838315742224454
1772534802110934800,6.739934814453125,0.7798860563546419,3.6915231521353125,1.5442141858324407
1772534802120951600,6.74995166015625,2.2296651779502628,3.5987256259724494,1.496279591485858
1772534802130968800,6.75996875,4.33030065588355,3.426533952838182,1.339211107072979
1772534802140984800,6.76998486328125,6.909053412270546,3.365004256120324,1.3756183452330528
1772534802151001600,6.780001708984375,9.108280197337269,3.4351205793976782,1.590151322751492
1772534802161019000,6.790018798828125,10.447505771327018,3.6475273585423826,1.8050234690964222
1772534802171035600,6.80003564453125,11.070763926643133,4.057223719459772,2.066394477896392
1772534802181052700,6.810052734375,11.438667849230766,4.331247581344843,2.524478145363927
1772534802191070000,6.820070068359375,11.720305693250895,4.285585900366306,2.7878619552910324
1772534802201086700,6.830086669921875,11.706238589453697,4.2080663150951265,2.335004644169658
1772534802211103700,6.840103759765625,11.92102466495037,3.947706236903369,1.937329122044146
1772534802221120800,6.850120849609375,12.404198642271757,3.85474299878478,1.730971852196753
1772534802231136800,6.86013671875,12.610526686024665,3.9019641841650006,1.290300507301092
1772534802241153800,6.87015380859375,12.5862164206326,4.004935898339748,0.46090493543334304
1772534802251170600,6.880170654296875,12.382065136396884,4.118343958593905,-0.30903767292536793
1772534802261187800,6.890187744140625,12.353489030253886,4.227121728698909,-0.9424262501768768
1772534802271204600,6.90020458984375,12.263323021638392,4.097918425680697,-1.4885364300131796
1772534802281221600,6.9102216796875,11.636805572265386,3.7354178234413262,-1.430078980347514
1772534802291239000,6.920239013671875,10.993393102192877,3.600509294518828,-0.926878479367867
1772534802301255700,6.930255615234375,10.521314519381523,3.6875671079859136,-0.22198358578532934
1772534802311272700,6.940272705078125,10.171562339556216,3.9390839545086025,0.4844755614392459
1772534802321288700,6.950288818359375,9.733208916214108,4.251255760741234,0.8870029075101017
1772534802331305700,6.9603056640625,9.107441408425569,4.597253848730028,1.2246776960507035
1772534802341322800,6.97032275390625,8.50556623287797,4.733957152114808,1.626620666362345
1772534802351339800,6.98033984375,7.88841633130908,4.376291714946926,1.869425798641145
1772534802361356800,6.990356689453125,7.483122881525754,4.066138262799382,1.8850974150255322
1772534802371373600,7.00037353515625,7.760708819806576,3.9096778272822497,1.5073939829573035
1772534802381390800,7.010390869140625,8.004062233617901,3.408663657365739,1.148835615537688
1772534802391407600,7.02040771484375,7.403348503065109,3.1637729509845376,0.9092126204263419
1772534802401424600,7.030424560546875,6.029287178015709,2.8800217680722473,0.8144613298472017
1772534802411441000,7.04044091796875,4.211676614546776,2.100026113863289,0.6980116368748247
1772534802421457700,7.050457763671875,1.9676234302818774,1.3518535848945379,0.22790559624545276
1772534802431474700,7.060474609375,-0.9762070853561162,0.20635113236755132,-0.27210078486800193
1772534802441492000,7.070491943359375,-4.208979046025872,-2.03485163090229,-0.8436657239563763
1772534802451508700,7.0805087890625,-7.247823010310531,-4.658381978909671,-2.1660788409635425
1772534802461525800,7.09052587890625,-10.54282258683443,-7.269674192112684,-2.9052202144756913
1772534802471542800,7.100542724609375,-14.031433933401107,-8.520471541064977,-3.0066987674832344
1772534802481559800,7.110559814453125,-17.48633239545822,-7.842893766540288,-3.138635002596676
1772534802491575800,7.120575927734375,-21.657723761367798,-6.865965381172299,-3.1213024672627445
1772534802501592600,7.130592529296875,-25.941406458461284,-5.513132137590646,-3.180254422447085
1772534802511609900,7.14060986328125,-29.768226846575736,-5.374255581820011,-2.7228718889862296
1772534802521626600,7.150626708984375,-31.181430095446107,-5.591676681995391,-1.4856203964360057
1772534802531643600,7.1606435546875,-28.23452557919025,-5.633426742488146,-0.4324596891283989
1772534802541660700,7.17066064453125,-22.82661322696209,-6.272602597904205,0.4216333208180964
1772534802551677700,7.180677734375,-17.64718931236863,-6.668537267711758,0.8497340840846299
1772534802561694700,7.19069482421875,-13.281569505822658,-6.3569222185790535,0.707743780207634
1772534802571711700,7.200711669921875,-10.101854597079754,-5.538401603403687,0.08642652982622384
1772534802581727700,7.210727783203125,-7.836963791969418,-4.350801007598638,-0.5047312907435
1772534802591744800,7.220744873046875,-6.324842488229274,-3.1243098323851823,-0.7272275022260845
1772534802601761800,7.23076171875,-5.283086533641815,-1.6272181938640773,-0.45629590726792807
1772534802611778800,7.24077880859375,-3.9111744955807923,-0.1487200505234301,-0.10174962503388524
1772534802621795600,7.250795654296875,-2.257035999956727,0.9039198477804661,-0.2670090146869421
1772534802631812900,7.260812744140625,-0.4874480013787746,1.3608141593329608,-1.2010391924403607
1772534802641829600,7.27082958984375,1.6360919668018816,1.2351941216289997,-2.407071955384314
1772534802651846700,7.2808466796875,4.128488043728471,0.7608743357621133,-3.0421073499947786
1772534802661862700,7.290862548828125,6.843076088494062,0.45579234165996313,-2.9168919475689528
1772534802671879700,7.300879638671875,9.389093865492939,0.39826749666929245,-2.2190442690841854
1772534802681896700,7.310896728515625,11.18923599228859,0.5243428769253194,-1.2920112567417323
1772534802691913700,7.320913818359375,11.91856265875101,1.0173583031728863,-0.2600048350133002
1772534802701930800,7.3309306640625,11.80179622797966,1.7258635692723094,0.8372317453861237
1772534802711947800,7.34094775390625,11.119953781747817,2.1285732861727475,2.0013376299656924
1772534802721964800,7.35096484375,10.079770191043615,2.2741974165074526,3.038137861841917
1772534802731981800,7.36098193359375,9.15624606360495,2.178969740588218,3.731284961420297
1772534802741998600,7.37099853515625,8.69939486054182,2.091455707786232,4.186666676452756
1772534802752014600,7.3810146484375,8.767457173898816,2.1118748109586534,4.36589540861696
1772534802762031900,7.391031982421875,9.103983961448073,2.0450378016129136,4.214305794006586
1772534802772048600,7.401048583984375,9.371625428819655,1.8102135850854217,3.7480528486087916
1772534802782065700,7.411065673828125,9.478643203514814,1.5242673763468861,2.977957241645455
1772534802792082700,7.421082763671875,9.701291682949662,1.083400508879125,2.06812860821262
1772534802802099700,7.431099609375,10.201831221091746,0.7932946962431072,1.3772951924040913
1772534802812116700,7.44111669921875,10.448237592732905,0.6451796258755028,1.0032792166769504
1772534802822133800,7.4511337890625,10.160046089285611,0.6201560976475476,0.908491831871122
1772534802832149800,7.461149658203125,9.514802896654606,0.6243034265853464,0.8996567835085093
1772534802842166800,7.471166748046875,8.682266615608334,0.7089527176059782,0.977758260320872
1772534802852183600,7.48118359375,7.934448599165678,0.8006454973973334,1.1169941509231924
1772534802862200800,7.491200927734375,7.21395405845642,0.8448068568155169,1.0467043707750736
1772534802872217600,7.501217529296875,6.885712284171581,0.8119486894391477,0.8170758231945335
1772534802882234600,7.511234619140625,6.824421072384714,0.7481986863233149,0.6465992834150791
1772534802892251600,7.521251708984375,6.645996350079774,0.5333212062161415,0.5526305215157569
1772534802902268700,7.5312685546875,6.707470517218113,0.3696856914378702,0.6856025294177234
1772534802912285700,7.54128564453125,6.888670549455284,0.43025516482144593,0.8424290217682718
1772534802922301700,7.5513017578125,6.634722676393389,0.47912638243101535,0.9028720922932029
1772534802932318700,7.561318603515625,6.237215642702579,0.38595074367076154,0.653957975614816
1772534802942335500,7.57133544921875,5.614289495819807,0.2952582269631326,0.47185777966752646
1772534802952352800,7.581352783203125,4.341459178757667,0.30713717306628824,0.3021813042245805
1772534802962369800,7.591369873046875,2.1864801162183283,-0.011660700242593884,-0.1448909937545657
1772534802972386600,7.601386474609375,-0.5889572417855262,-0.6363023458063602,-1.2094031161598862
1772534802982403800,7.61140380859375,-3.200914933159947,-1.119336476265639,-2.159520213100314
1772534802992420600,7.621420654296875,-5.4656888338923455,-2.2944958159096536,-2.3561181593470275
1772534803002436600,7.6314365234375,-8.1635765037477,-4.223701398861408,-2.352762273047864
1772534803012454000,7.641453857421875,-11.567753663349151,-5.829771152365208,-2.073784442017227
1772534803022470700,7.651470703125,-15.16400939207673,-5.464914342388511,-3.3881250194668766
1772534803032487700,7.66148779296875,-19.19508744741082,-2.9231887096256015,-6.672329061210155
1772534803042504700,7.671504638671875,-23.29453936626911,-1.1332694322891532,-9.546216272050142
1772534803052521700,7.681521728515625,-26.565846517038345,-0.8672802621692418,-11.435099927616118
1772534803062538500,7.69153857421875,-27.994733657252787,-1.1797418451286852,-12.424704839205742
1772534803072555800,7.7015556640625,-27.470627950084207,-0.9923020417191087,-11.207751307666301
1772534803082572800,7.71157275390625,-25.402545080709455,-0.5474442049190402,-8.282892619001865
1772534803092588500,7.721588623046875,-21.87282781677246,0.1269604925274849,-4.953727738025784
1772534803102605600,7.73160546875,-17.968555940186977,0.7059729711428284,-1.9255143272183834
1772534803112622800,7.741622802734375,-14.275834225916862,1.1095771526649594,0.12143603001758456
1772534803122639600,7.7516396484375,-11.292607519435881,0.960780091382563,1.6120831685744226
1772534803132656600,7.76165673828125,-9.007225714960693,0.6866067380242049,2.283044739829749
1772534803142673700,7.771673583984375,-7.2088576121002435,0.5363568475849926,2.103101137394458
1772534803152690700,7.781690673828125,-5.469852383312583,0.2667579625353217,1.618571507680416
1772534803162707700,7.791707763671875,-3.5044279243797063,0.16031652642339467,0.24370003529191014
1772534803172723700,7.8017236328125,-1.3509329629182816,0.4824278351292014,-1.101945927134156
1772534803182740700,7.81174072265625,0.28577742804288864,0.5851954050339758,-1.6339622612968085
1772534803192757500,7.821757568359375,1.5150252084881066,0.6797127407267689,-2.02051038633883
1772534803202774800,7.83177490234375,2.6234207501530644,0.9886768369592726,-2.241909011843055
1772534803212791800,7.841791748046875,3.8037440484315153,1.3414035025507212,-2.0063331001654268
1772534803222808600,7.85180859375,5.681925108197331,1.8421188356511293,-0.9927576765321194
1772534803232825900,7.861825927734375,7.96954329342246,2.223122770569473,0.07844649085775017
1772534803242842600,7.871842529296875,10.068992776441574,2.7225825506508348,0.7408662976086139
1772534803252858600,7.881858642578125,11.827684702473878,3.3710248315840956,0.9799079857006668
1772534803262876000,7.8918759765625,13.007086209732293,3.6883319548785685,1.0757396188624202
1772534803272892700,7.901892578125,13.542205478346347,3.555024139150977,1.1890882770795375
1772534803282909700,7.91190966796875,13.633444669151306,3.3276082991838454,1.1478569066986442
1772534803292926700,7.9219267578125,13.687061693048477,3.218895995530486,0.8019014888077974
1772534803302943700,7.93194384765625,13.856708650135992,3.116020435206592,0.39507724926061927
1772534803312960500,7.94196044921875,13.940727826559543,2.844119264563918,0.10391045632958412
1772534803322977800,7.951977783203125,13.88839908890724,2.4556837183400986,0.0462874847266823
1772534803332994800,7.961994873046875,13.876028267633915,2.1396832937300205,0.16332812932953236
1772534803343010600,7.972010498046875,13.692504760885237,2.013060947115719,0.04249225716218352
1772534803353027600,7.982027587890625,12.9649246458292,2.0681671866573392,0.06112718033157288
1772534803363044900,7.992044921875,11.81280160611868,2.134597953289747,0.35590946034602816
1772534803373061600,8.0020615234375,10.559317794561386,2.1923343952044845,0.6840083920940756
1772534803383078700,8.01207861328125,9.466040327051282,2.1171441296637057,0.8629181214369833
1772534803393095700,8.022095703125,8.800144807013869,1.9291019764468074,0.7463725668746978
1772534803403112700,8.03211279296875,8.474567283502221,1.5622133683815598,0.8916478107064962
1772534803413129700,8.042129638671875,8.22751150804162,1.3799533056974411,1.1171364820033312
1772534803423145700,8.052145751953125,7.773557779985666,1.2786464559949933,1.3570787721969186
1772534803433162800,8.062162841796875,7.278677582779526,1.1258170704565942,1.8014882807075976
1772534803443179500,8.072179443359374,6.935294353464245,1.1238590682566165,2.150326268297434
1772534803453196800,8.08219677734375,6.577337239873409,1.208147124749422,2.039231161160767
1772534803463213600,8.092213623046876,6.109078507611155,1.0606212524466216,1.2370961558580398
1772534803473230600,8.102230712890625,5.699952347797155,0.6543219866216182,0.5844138992674648
1772534803483247900,8.112247802734375,5.602120919120312,0.3965579162724316,0.31978388867154717
1772534803493264600,8.1222646484375,5.420162177470326,0.19169658407121895,0.23267697536572812
1772534803503280600,8.13228076171875,4.53349390874207,-0.11216858158707618,-0.08501037941798567
1772534803513298000,8.1422978515625,3.0174849499136207,-0.3927161461524665,-0.8596341313302517
1772534803523314700,8.152314697265625,0.5181336470216512,-1.0551305460758507,-1.2731461050130426
1772534803533331700,8.162331787109375,-3.2144039448082444,-2.17903988321498,-1.5107232735104859
1772534803543348700,8.1723486328125,-6.793207603475451,-3.414788862247765,-2.1341003790311515
1772534803553365800,8.18236572265625,-9.54515770290792,-4.682690198475123,-1.9379365864180027
1772534803563382500,8.192382568359376,-12.974667456686497,-5.599228704810142,-1.2776368405610323
1772534803573399800,8.20239990234375,-17.200731493026016,-4.023875576609373,-2.5018764374554157
1772534803583415800,8.212415771484375,-20.917938829255103,-1.467922827181965,-4.899267833563685
1772534803593432600,8.2224326171875,-24.60549103193283,-0.30510069880262014,-6.786470988696813
1772534803603449600,8.23244970703125,-26.992690119850636,0.37391923735439775,-8.844797603210806
1772534803613466600,8.242466552734374,-26.95515680027008,0.28708851064145563,-9.625022682261466
1772534803623483600,8.252483642578126,-25.213169340801237,-0.04461830940544605,-8.303092526465655
1772534803633500700,8.262500732421875,-22.2755984700799,0.27295374843552705,-5.792886652082204
1772534803643517700,8.272517578125,-18.632653470891714,0.6366648955084383,-2.9139567708998917
1772534803653534700,8.28253466796875,-15.207382085335254,0.7668553098678589,-0.042845016122609374
1772534803663551700,8.2925517578125,-12.169876676177978,0.6102800157994032,2.017790313725173
1772534803673567700,8.302567626953126,-9.696673960021137,0.016435148102790117,2.939252832458913
1772534803683584800,8.312584716796875,-8.249985205656289,-0.8578367265194654,3.4260973149865865
1772534803693601500,8.3226015625,-7.432988439047336,-1.2428354301623998,3.5633503612086175
1772534803703618800,8.332618896484375,-6.451138963890076,-0.8754314199209213,2.867414799955487
1772534803713635600,8.342635498046874,-4.992859724974632,0.01840381782725453,1.668007884892076
1772534803723652600,8.352652587890624,-3.807636964216828,0.5996390870586037,0.4869761460833251
1772534803733669600,8.362669677734376,-2.3711317502141,0.2811800172500312,-0.9121882021710276
1772534803743686700,8.372686767578125,-0.4359685740321874,-0.03550239827483892,-2.055052122887969
1772534803753702700,8.38270263671875,1.6074889726519583,-0.14231982809230684,-2.8082991786420344
1772534803763719700,8.3927197265625,4.282267569598555,-0.1452614345021546,-2.8829104752510784
1772534803773736700,8.40273681640625,7.437507962298393,-0.015970745461434125,-1.9089713348269461
1772534803783753700,8.412753662109376,10.834496671700476,0.21451193473041055,-0.2992098871983588
1772534803793770800,8.422770751953125,13.548752123510837,0.7314081489115953,1.0405325502723455
1772534803803787800,8.432787841796875,14.90214241645336,1.669298801485449,1.776143996092677
1772534803813804500,8.442804443359375,15.160601629459856,2.5794164809927342,2.188381273664534
1772534803823821800,8.45282177734375,14.496114807176589,2.9498358935326334,2.454596507625282
1772534803833837800,8.462837890625,13.315593355977535,2.733807709020376,2.6142358654394746
1772534803843854600,8.4728544921875,12.151719088196753,2.456804246802628,2.6622610606789587
1772534803853871600,8.48287158203125,11.660491568279266,2.1914345237553117,2.645009481626749
1772534803863888400,8.492888427734375,11.951420972257852,1.8631785748146474,2.6637317177534103
1772534803873905700,8.50290576171875,12.606717941391468,1.60878704963848,2.493667996558547
1772534803883922700,8.512922607421874,13.158729892617464,1.331696055267751,2.2124743891745804
1772534803893939500,8.522939453125,13.324208039587734,1.1466212274238468,1.8980776003688573
1772534803903956700,8.532956787109375,12.871377762603759,0.9930008376382291,1.5954098278015851
1772534803913972700,8.54297265625,12.108041274511814,0.8150716437652706,1.2891421310462057
1772534803923989500,8.552989501953125,11.027999136149882,0.7153640459530055,1.1864236609801648
1772534803934006500,8.563006591796874,9.536492165893316,0.632462621513009,1.3415719909854233
1772534803944023600,8.5730234375,8.091387465849518,0.40105288960412144,1.5370432712897657
1772534803954040600,8.58304052734375,6.996855029842257,0.21049626934826374,1.792904869018495
1772534803964057300,8.593057373046875,6.008333821836113,0.17331329757533967,1.9809249565340576
1772534803974074600,8.60307470703125,5.004757083517313,0.1260060413468629,2.0494281455263494
1772534803984091600,8.613091552734375,4.499757643356919,-0.18485628972239793,2.11713594635725
1772534803994107400,8.623107421875,4.638022204709053,-0.29729009811691937,2.0361169746629892
1772534804004124700,8.633124755859376,4.951917473733425,-0.2059331261511892,1.9061122921340166
1772534804014141400,8.643141357421875,5.03396739591062,-0.26079613152146336,1.7484322516940534
1772534804024158500,8.653158447265625,4.572438264164329,-0.4155767972581088,1.4422697688788175
1772534804034175700,8.66317578125,3.8212043017983435,-0.9732412943530827,0.6942362099893391
1772534804044192500,8.673192626953124,2.8016216005742547,-1.592513521838188,-0.4142662991814315
1772534804054209500,8.68320947265625,1.8256050693541763,-2.1011017802707848,-1.3420483763255178
1772534804064226600,8.6932265625,0.17453589817285536,-2.7702658005848524,-1.8301923971444367
1772534804074242600,8.70324267578125,-3.0095968270123,-3.8281735562890766,-1.6383457370780408
1772534804084259600,8.713259521484375,-8.19614138726592,-5.010983410686254,-1.1433346069686114
1772534804094276600,8.723276611328124,-15.001519321006535,-5.952254207217693,-0.873247938401997
1772534804104293600,8.733293701171876,-20.598294202923775,-5.663005303671956,-2.1774808172047138
1772534804114310400,8.743310302734375,-23.266949933075903,-4.064149134808779,-5.309200633585453
1772534804124327700,8.75332763671875,-23.04453935405016,-2.7331279100626706,-8.280555115965008
1772534804134344700,8.7633447265625,-21.72888345621824,-2.6260318094342945,-9.978459688079356
1772534804144361500,8.773361572265625,-21.124766054701805,-2.7669834179133175,-10.687558390027284
1772534804154377500,8.78337744140625,-21.68207260520458,-2.5272932027846573,-10.033988098555803
1772534804164394500,8.79339453125,-21.938598219799996,-1.5920492653273044,-8.306877305701375
1772534804174411500,8.80341162109375,-20.679977629876134,-0.3024323563762009,-5.9555041489243505
1772534804184428500,8.813428466796875,-17.862473400515317,0.6918969533868133,-3.2397067283689975
1772534804194445600,8.823445556640625,-14.030854087686539,1.6769083997063339,-1.010386564464122
1772534804204462600,8.833462646484374,-10.46622800745368,2.1609774261713026,0.8230261099010705
1772534804214479400,8.843479248046876,-8.167749405518174,1.8248557122915983,2.4668980630546806
1772534804224496600,8.85349658203125,-7.1524231926947825,1.229974195023626,3.258103093542158
1772534804234512600,8.8635126953125,-6.185206054002046,0.9097507458910346,2.9120395391017198
1772534804244529400,8.873529296875,-5.088901932147145,1.035764605218172,1.7010640590585768
1772534804254546700,8.883546630859374,-4.154817247727513,1.3730157615192233,0.3662944415643811
1772534804264563500,8.8935634765625,-2.655532044684887,1.871940850201994,-0.5753083634003997
1772534804274580500,8.90358056640625,-0.5613455967605113,2.1469342877715825,-0.8586847216509282
1772534804284597800,8.91359765625,1.3718880726635456,2.347777762633562,-0.6801346194006502
1772534804294614500,8.923614501953125,3.228434808248281,2.398398235063255,-0.5022581786282361
1772534804304631600,8.933631591796875,5.211539300778508,2.4511549888692796,-0.42352161878272887
1772534804314647600,8.9436474609375,7.430609434956311,2.731918534272909,-0.40954628492221234
1772534804324664600,8.95366455078125,10.066882652419805,3.2032018750533457,-0.2677856981478631
1772534804334681600,8.963681640625,12.455389900326727,3.6484973726183174,0.14036226428374649
1772534804344698600,8.97369873046875,13.784227935814856,3.9993648202091454,0.7673197125092148
1772534804354715600,8.983715576171875,14.177816919279097,4.194166969080269,1.440321849681437
1772534804364732400,8.993732421875,13.89198220809102,4.095909716206789,2.0109511153548953
1772534804374749700,9.003749755859374,13.086917871338128,3.872151521964371,2.256447970935702
1772534804384766500,9.013766357421876,11.966318097138403,3.58248965370357,2.2740549392968417
1772534804394782500,9.023782470703125,10.969278067111969,3.177785986506939,2.385525601747632
1772534804404799500,9.033799560546875,10.476904884290695,2.7898443612799046,2.481520754908025
1772534804414816500,9.04381640625,10.602210010826587,2.5525679292947054,2.2993698516868055
1772534804424833500,9.05383349609375,11.02910388252139,2.4751889215379954,1.922037737149
1772534804434850600,9.0638505859375,11.535002901870012,2.3308228284403683,1.4577739197418094
1772534804444867600,9.07386767578125,11.913223635810613,2.080376679889113,0.9185844790793954
1772534804454884600,9.083884521484375,12.174279295051097,1.7936935351781547,0.49954570479914545
1772534804464901400,9.0939013671875,12.045094112211466,1.569794032768905,0.5077219969920814
1772534804474917600,9.103917724609374,11.331380025422572,1.3677090334132314,0.8588536484770476
1772534804484934700,9.1139345703125,9.717226918706297,1.1736842986553906,1.148916352623701
1772534804494951400,9.123951416015625,7.740210806179046,0.8404577216953039,1.3245933836556971
1772534804504968700,9.13396875,6.082856271117925,0.56803881078884,1.6707549916431306
1772534804514985500,9.1439853515625,5.237114471539854,0.26118147757723925,2.2152989450760185
1772534804525002500,9.15400244140625,5.189949400261044,0.0712009036436677,2.680099499708414
1772534804535019500,9.16401953125,5.440846069058775,0.10732274899110197,2.8025042286276816
1772534804545036500,9.17403662109375,5.45197244322896,0.018102935184538364,2.3365546500906347
1772534804555052500,9.184052490234375,5.6210518295615906,-0.4876733345672488,1.831940555986017
1772534804565069600,9.194069580078125,5.463771602094173,-1.146063301280141,1.4782041288301349
1772534804575086600,9.204086669921875,4.64576653522551,-1.5591323535010218,1.2684478641942143
1772534804585103600,9.214103515625,3.0348925963103768,-1.8483121373333036,1.1176120636258273
1772534804595120600,9.22412060546875,0.8084966492891311,-1.7310992779687047,0.3164989487167448
1772534804605137700,9.2341376953125,-1.3651537959724664,-1.8443667607083916,-1.210099062534794
1772534804615154400,9.244154541015625,-3.172966019004583,-2.913961447075009,-2.3503300774648785
1772534804625171700,9.254171630859375,-4.736446923103928,-4.3971790201529855,-2.457994625630975
1772534804635187700,9.264187744140624,-6.214338040462136,-5.577740511101484,-2.4550480507850647
1772534804645204500,9.27420458984375,-8.433455520913004,-6.055062255263328,-2.8197034929707643
1772534804655221500,9.284221435546876,-11.709117944282292,-5.716129575616121,-3.11515680411458
1772534804665238500,9.294238525390625,-15.613912383437155,-5.2320320537090295,-2.4383389080464837
1772534804675255600,9.304255615234375,-19.351852711093425,-4.705329608045518,-1.6714152091175316
1772534804685272600,9.3142724609375,-22.224651542174815,-3.7132109600692984,-1.7716440543249248
1772534804695289600,9.32428955078125,-24.628731622266766,-2.809844069996476,-2.33204550210312
1772534804705305600,9.3343056640625,-26.71404385886192,-2.303005723971128,-2.804390773026645
1772534804715322400,9.344322265625,-26.732175727879998,-2.2943718972690403,-2.7156080354630947
1772534804725339600,9.354339599609375,-27.813847513270378,-1.8500071046829223,-2.8201953681409355
1772534804735356700,9.364356689453125,-25.930253780806062,-1.5355949721775948,-2.899176550397277
1772534804745373400,9.37437353515625,-22.108083848845958,-1.009161114322394,-2.689374693053961
1772534804755390700,9.384390625,-17.057485051608083,-0.5466467709310352,-2.4164538239747286
1772534804765407500,9.394407470703126,-12.057157474970817,-0.5436281537622213,-1.9898693104900418
1772534804775423500,9.404423583984375,-7.620575541973113,-0.7082378473348915,-2.050358850505203
1772534804785440500,9.4144404296875,-4.196424684879184,-0.8905855883024633,-2.1127350810498
1772534804795457500,9.42445751953125,-2.6746564318716524,-0.6658832450777292,-1.4695020591974257
1772534804805474600,9.434474609375,-2.3943016133993864,0.5154185428440571,-0.8572168410554528
1772534804815491600,9.44449169921875,-1.7605267402440308,1.8743150319874287,-0.7254292206324636
1772534804825508600,9.454508544921875,-1.094883149141073,2.629663443934917,-0.8570398770533502
1772534804835525600,9.464525634765625,-0.03844108207523823,2.5606688181638715,-0.9252005362182855
1772534804845542700,9.474542724609375,1.8209850083380936,2.051476310227811,-1.064122100174427
1772534804855558400,9.484558349609374,4.236142947283387,1.781308539249003,-1.244387774170935
1772534804865575400,9.494575439453126,6.881531199094653,1.8380200220301746,-1.1565054925784468
1772534804875592400,9.504592529296875,9.65575099800229,1.8212251007042823,-0.5169140420988202
1772534804885609500,9.514609375,12.13199498155117,1.751864564230293,0.2858050467021763
1772534804895626200,9.524626220703125,13.738632890331745,1.8685785341620444,0.9792850314967334
1772534804905643500,9.5346435546875,14.181298331654071,1.9973801245115697,1.6251190296277402
1772534804915660300,9.544660400390624,13.69731186890602,1.9642032465748487,1.9612132709786294
1772534804925676300,9.55467626953125,12.78627605164051,1.7229890367493033,2.2186725131623444
1772534804935693300,9.564693359375,11.841606844842433,1.437154179430753,2.3386166971869766
1772534804945710300,9.57471044921875,11.158448055315016,1.1596975666180251,2.3813822183325883
1772534804955727400,9.584727294921874,10.755782615947723,0.6951369582213461,2.2885076814107594
1772534804965744400,9.594744384765624,10.528083282864094,0.28628464691266414,2.014378605585545
1772534804975761400,9.604761474609376,10.54082819814682,-0.1062387531466782,1.713531034182757
1772534804985778400,9.6147783203125,10.517618002951144,-0.2887194728441536,1.3993050718992948
1772534804995795200,9.624795166015625,10.428787042331695,-0.3218267926760018,1.0507114144593477
1772534805005811500,9.6348115234375,10.289130734360217,-0.47355829997509713,0.8503140759296715
1772534805015828500,9.644828369140624,10.09385950667262,-0.4441368290491402,1.0894538175687194
1772534805025845200,9.65484521484375,9.799123696148396,-0.2677705005787313,1.6427048090703784
1772534805035862500,9.664862548828125,9.297470643806458,-0.1427069277137518,2.0455948509737847
1772534805046505500,9.67550537109375,8.581835818088054,0.15275865838974714,2.209292982659489
1772534805056522500,9.6855224609375,7.588256157648563,0.6268925662957131,2.3005128842420874
1772534805066539300,9.695539306640624,6.516216708478331,1.0357935390517115,2.141651232802123
1772534805076556500,9.705556640625,5.3874686991363765,1.3614800758957861,1.9992688608676195
1772534805086573300,9.7155732421875,4.3813177264153955,1.3563997038915752,1.8329177304551005
1772534805096590300,9.72559033203125,3.8119448905438182,1.2391288307294248,1.4662193842649458
1772534805106606300,9.7356064453125,3.7187522275835274,1.211269348423183,1.1359352174323052
1772534805116623400,9.745623291015624,4.02449692337811,0.8764620781429111,1.3270615273348987
1772534805126640400,9.755640380859376,4.709134553286433,0.3438714512236416,1.4757166959285735
1772534805136657200,9.7656572265625,4.974477680587769,-0.022469605961441992,1.2674176443636416
1772534805146674400,9.77567431640625,4.232826370081305,-0.18229045782238243,0.945202363826707
1772534805156691200,9.785691162109375,1.6099240908443926,-1.0660779104173184,0.442409786060825
1772534805166708500,9.79570849609375,-2.178299147850275,-2.839369439688325,0.4753131077531725
1772534805176725500,9.8057255859375,-6.528804387372732,-4.07169092849046,0.6654972414348274
1772534805186741200,9.8157412109375,-10.110037903535366,-3.467386772230267,-0.5344398349825292
1772534805196758300,9.82575830078125,-14.937251139235496,-0.19929741446375845,-2.829162226189673
1772534805206775600,9.835775634765625,-16.007559819090364,1.5062264004826544,-3.6037525142237543
1772534805216792300,9.845792236328125,-15.89589275728464,1.9724520194821058,-4.193099047587812
1772534805226809300,9.855809326171874,-16.87358745085001,0.17628230344876647,-3.186816557441652
1772534805236826400,9.865826416015626,-18.07470745344162,-1.0835089376896618,-1.8897794353619217
1772534805246843400,9.875843505859375,-18.498427371275422,-0.44681583900004623,-1.4103252092160283
1772534805256860200,9.885860107421875,-18.158904324519632,0.6536356117926537,-1.8809081466421484
1772534805266876400,9.89587646484375,-17.508799078810213,1.7551546918168663,-2.3193170995637775
1772534805276893400,9.9058935546875,-17.05718110022545,1.9813395286843178,-2.261079137867689
1772534805286910200,9.91591015625,-16.443733560305834,1.3461923442624508,-1.5718318222068248
1772534805296927500,9.925927490234375,-14.920026448190212,0.7328356974966823,-0.6356291227199137
1772534805306944300,9.9359443359375,-12.426444376349448,0.4083611667908728,0.07131400862932205
1772534805316961300,9.945961181640625,-9.551265372133255,0.4163515810228884,0.3133626234523952
1772534805326978600,9.955978515625,-6.865802884086966,0.37031960542723535,0.328540318839997
1772534805336994300,9.965994384765626,-4.033903049626947,0.11753756127431988,0.036052433373034
1772534805347011300,9.97601123046875,-0.7732406269907951,-0.2345724337235093,-0.8901156327031552
1772534805357028400,9.9860283203125,2.4936300026357174,-0.6175837629415094,-1.8265591552086173
1772534805367045400,9.99604541015625,5.617498520994186,-1.0084570577062666,-1.8674556676119565
1772534805377062400,10.0060625,8.053603970900177,-0.5840715155705809,-2.3907374911770223
1772534805387079200,10.0160791015625,9.653149875593185,0.6331143634200096,-2.389883796957135
1772534805397096400,10.026096435546876,10.561367128306626,0.9131336663275956,-1.3688678480595349
1772534805407113200,10.03611328125,10.76080716611147,0.508203935290128,0.17929595218151806
1772534805417129200,10.046129150390625,10.707082590186594,0.4758648233518004,1.3785266338951885
1772534805427146500,10.056146484375,10.337945326411724,0.8638044027522206,2.481056936788559
1772534805437163300,10.066163330078124,9.523396537476778,1.0907309978976845,3.752233056902885
1772534805447180300,10.07618017578125,8.647242063978315,1.0622164126835762,4.712620934097469
1772534805457197300,10.086197265625,7.9959157520413395,1.068707966659963,4.86920558051616
1772534805467214300,10.09621435546875,7.993195971688627,0.5521406921721994,4.622443527305126
1772534805477231400,10.1062314453125,8.707597456219792,-0.06071472707316279,4.620967025011778
1772534805487248400,10.116248291015625,9.369844975143671,-0.3198847186975181,4.071988742393255
1772534805497264400,10.126264404296874,9.716865099656582,-0.5933750582277775,3.1253613872647286
1772534805507281400,10.136281494140626,9.791699683627485,-0.5233201097488404,2.418052637473494
1772534805517298400,10.14629833984375,9.897558351415395,-0.3832534674108028,2.2657265252821146
1772534805527315500,10.1563154296875,9.545464576900004,-0.379026058974117,2.4343694198936223
1772534805537332200,10.166332275390625,8.48290490373671,0.009128332220762968,2.4178482009425757
1772534805547349500,10.176349609375,7.2843106202304355,0.5542495010197163,2.601970550367236
1772534805557366300,10.1863662109375,6.818557148787379,0.26403036420233544,2.875059761750698
1772534805567382300,10.19638232421875,7.069670090684294,-0.024060820675641297,2.319770980811119
1772534805577399300,10.2063994140625,8.056138457813859,-0.36280659944862126,1.6512570949688552
1772534805587416300,10.216416259765625,8.472374741894006,-0.376772288697958,1.3841199238575994
1772534805597433300,10.226433349609374,7.823205315729975,-0.1856629299301654,1.782680996645987
1772534805607450400,10.236450439453124,7.078879233056306,-0.4144180556770414,2.4087035021089016
1772534805617467400,10.24646728515625,6.351616513386368,-0.347568113784492,2.537045950514078
1772534805627484400,10.256484375,5.738048561957478,0.11223455949537456,1.8842478124588726
1772534805637501200,10.266501220703125,5.084422156384587,0.24264679991193114,1.1872463755398988
1772534805647517400,10.276517333984375,3.6744875539213417,-0.01745294684320688,0.8116153658315539
1772534805657534500,10.286534423828124,2.052578426250815,-0.5062771319460123,0.26068039618730543
1772534805667551200,10.29655126953125,0.41689679381549355,-0.9170254861343652,-0.41918943479731674
1772534805677568500,10.306568603515625,-1.5826789410442113,-1.3377953950561583,-0.8364356265723705
1772534805687585300,10.316585205078125,-4.190925502941012,-1.9215055299684405,-0.9067092593032866
1772534805697602300,10.326602294921875,-7.310268652829527,-2.454209554134309,-1.379587979516387
1772534805707619300,10.336619384765624,-10.80200426889658,-2.767114643077552,-1.60555084419623
1772534805717636400,10.34663623046875,-12.761574156582355,-3.2561797242641446,-0.7340970226693898
1772534805727652400,10.35665234375,-14.799500372624397,-3.232818137899041,-0.15015337126217781
1772534805737669400,10.36666943359375,-16.674126370257138,-1.2546613309040664,-0.7131809297602624
1772534805747686400,10.376686279296875,-18.10685966450572,-0.4526094738401472,-0.4453155905049294
1772534805757703400,10.386703369140625,-19.9453411665678,-0.8339771275043487,0.05221614412330091
1772534805767720400,10.396720458984374,-21.48522433745861,-0.4711515310943126,-1.0726968901656568
1772534805777737500,10.406737548828126,-22.46373268549442,0.6673772830277681,-3.5293083908751606
1772534805787754200,10.416754150390625,-21.803194893097878,2.3286354013986883,-5.154659475693107
1772534805797770200,10.426770263671875,-19.95021374104023,2.5508108564943073,-4.497276347935199
1772534805807787500,10.43678759765625,-17.440149320954085,2.2021537784293295,-2.53966314727515
1772534805817804300,10.44680419921875,-14.156781145513056,1.7049181041382253,-1.0476924319643526
1772534805827821300,10.4568212890625,-10.37336969101429,0.8459646485485136,-0.6006297785963863
1772534805837838300,10.46683837890625,-7.268866967383027,0.260339912186563,-0.5413510756757111
1772534805847855400,10.47685546875,-5.889460774174332,0.5648395763561129,-0.48735827726870773
1772534805857872600,10.48687255859375,-5.363024578231573,0.6548644229352474,-0.3453194580748677
1772534805867889700,10.4968896484375,-4.215246874248981,0.3011363252162933,-0.3341832931630313
1772534805877906000,10.506906005859374,-2.121906229498982,0.5487374595999718,-1.0331447781085967
1772534805887922700,10.516922607421876,0.44032150854468344,0.25341727331653235,-1.5678559043131768
1772534805897939700,10.526939697265625,3.1341841606676577,0.005029226338863373,-1.7596183932274578
1772534805907956700,10.536956787109375,5.59690230768919,-0.027852029652148485,-1.631332935706526
1772534805917973800,10.546973876953125,7.396517780262231,0.030654081460833548,-0.621989888945967
1772534805927990800,10.55699072265625,8.192814873191713,-0.21860680282860992,-0.41128056136891245
1772534805938007800,10.5670078125,9.58779272954166,0.1398886554226279,-0.03417991749942303
1772534805948023800,10.57702392578125,10.611350764137505,0.43805414813458915,0.8650950270846486
1772534805958040800,10.587040771484375,10.929112060940264,0.26275851763561364,1.5106556151017545
1772534805968057600,10.5970576171875,10.777933657479286,0.5132637028977275,1.672079372114688
1772534805978075000,10.607074951171874,10.088279660713672,0.905013634366542,2.187252708026022
1772534805988091600,10.617091552734376,8.908203615194559,0.9999705305203794,3.090247403785586
1772534805998108700,10.627108642578126,7.903174339979887,0.9465503443695604,3.828329039111733
1772534806008125700,10.637125732421875,7.661754524579644,0.9272674056202173,4.166856645089387
1772534806018142700,10.647142822265625,8.134387818664312,0.39789968627020716,3.8925273705169556
1772534806028158700,10.65715869140625,9.36009164289236,-0.19975728706046939,2.891564906349778
1772534806038175700,10.66717578125,10.494868411004543,-0.31139921442493795,2.0316260929845273
1772534806048192800,10.67719287109375,10.571111108207703,-0.02955167317688465,1.5003582391016184
1772534806058209500,10.68720947265625,10.244038377702235,-0.15387889459133147,1.490489463777095
1772534806068226800,10.697226806640625,10.0660725050807,-0.5034857476618141,1.5516650863602757
1772534806078243800,10.707243896484375,9.85789854120016,-0.03157375358901918,1.2222153975903987
1772534806088260600,10.717260498046874,9.330995312267541,0.45664852009788154,1.3136859129332006
1772534806098276600,10.727276611328126,8.52861393098831,0.765109708309546,1.5795035258784889
1772534806108294000,10.7372939453125,7.942095899048447,0.9229876824744045,2.13210292160362
1772534806118310700,10.747310546875,7.56381145222187,1.0031738566063344,2.389222556569427
1772534806128328000,10.757327880859375,7.787700871628522,0.9981883232787251,2.2449048326581713
1772534806138344700,10.7673447265625,8.348447917973994,0.6934489320691675,2.028628664734214
1772534806148361700,10.77736181640625,8.59948487202525,0.2303066660378128,1.8809293355606496
1772534806158378800,10.787378662109376,8.55752438365221,0.19847309246882794,1.7593686562500892
1772534806168395800,10.797395751953125,7.952580468183755,-0.12893676103651522,1.8249650178849697
1772534806178411800,10.807411865234375,7.066524193874001,-0.4558515975665301,1.6722496141150593
1772534806188428500,10.817428466796875,6.565867751353979,-0.4790910188566893,1.6449277458168565
1772534806198445800,10.82744580078125,5.99963145994246,-0.5678757291816174,1.915608873145282
1772534806208462600,10.837462646484376,5.496515349310636,-0.7304674339953809,1.7370216537550092
1772534806218479600,10.847479736328125,4.572334803789854,-0.5441255088251084,0.6268021115332841
1772534806228497000,10.857496826171875,2.7344986138939857,-0.8791517556183039,-0.8121238998755812
1772534806238513700,10.867513671875,0.9282716142266988,-2.0075082814246414,-1.086502274286747
