time,seconds_elapsed,z,y,x
1772534795415899000,0.04489892578125,0.4886663556098938,0.3427778482437134,-0.2373419851064682
1772534795425915600,0.05491552734375,0.5828818082809448,0.33864277601242065,-0.22987820208072662
1772534795435931600,0.064931640625,0.6929835677146912,0.34680110216140747,-0.21513999998569489
1772534795445949000,0.074948974609375,0.817923367023468,0.3157837986946106,-0.18983837962150574
1772534795455965700,0.084965576171875,0.926421582698822,0.25724270939826965,-0.16883589327335358
1772534795465982700,0.094982666015625,0.9939787983894348,0.1601973921060562,-0.15412645041942596
1772534795475999700,0.104999755859375,0.9972164034843445,0.06336352974176407,-0.13640497624874115
1772534795486016800,0.115016845703125,0.9588716626167297,-0.04351818189024925,-0.0997748002409935
1772534795496033800,0.12503369140625,0.926348865032196,-0.13967721164226532,-0.024506142362952232
1772534795506050800,0.13505078125,0.9025396704673767,-0.21168561279773712,0.08311326056718826
1772534795516066800,0.14506689453125,0.8666616082191467,-0.28699609637260437,0.19213934242725372
1772534795526083600,0.15508349609375,0.8025484085083008,-0.352816641330719,0.289491206407547
1772534795536100600,0.1651005859375,0.7679051756858826,-0.37742823362350464,0.3913022577762604
1772534795546118000,0.175117919921875,0.8158698081970215,-0.32688942551612854,0.5208495855331421
1772534795556134700,0.185134765625,0.8661079406738281,-0.1478395313024521,0.6575488448143005
1772534795566151700,0.195151611328125,0.8882273435592651,0.021101556718349457,0.7684346437454224
1772534795576168700,0.205168701171875,0.8876252174377441,0.07022782415151596,0.8398755192756653
1772534795586185700,0.215185791015625,0.866126537322998,0.041787393391132355,0.891228437423706
1772534795596202500,0.225202392578125,0.8431751728057861,-0.005133242812007666,0.9079722762107849
1772534795606218800,0.23521875,0.8386629819869995,0.04886634275317192,0.8759309649467468
1772534795616235800,0.24523583984375,0.8747996687889099,0.17172914743423462,0.812768280506134
1772534795626252500,0.25525244140625,0.9511051177978516,0.2745375633239746,0.7160851359367371
1772534795636269800,0.265269775390625,1.0330963134765625,0.3257932960987091,0.5975565910339355
1772534795646286800,0.275286865234375,1.089235782623291,0.38643479347229004,0.48047101497650146
1772534795656303600,0.2853037109375,1.1246545314788818,0.5136968493461609,0.3928740620613098
1772534795666321000,0.29532080078125,1.160215973854065,0.6415669322013855,0.3282979726791382
1772534795676337700,0.305337646484375,1.1951292753219604,0.718342661857605,0.2843760550022125
1772534795686353700,0.315353759765625,1.235232949256897,0.6879816055297852,0.2492694854736328
1772534795696371000,0.325370849609375,1.2615966796875,0.5472795963287354,0.22979538142681122
1772534795706387700,0.3353876953125,1.2764009237289429,0.3534933626651764,0.24334660172462463
1772534795716404700,0.34540478515625,1.3004809617996216,0.11123012006282806,0.28007772564888
1772534795726421800,0.355421875,1.3421812057495117,-0.13120728731155396,0.33544617891311646
1772534795736438800,0.365438720703125,1.3687553405761719,-0.2820782959461212,0.39922595024108887
1772534795746455600,0.37545556640625,1.3652878999710083,-0.38369759917259216,0.4217999577522278
1772534795756472800,0.385472900390625,1.3144010305404663,-0.44290658831596375,0.36828482151031494
1772534795766488800,0.39548876953125,1.221627950668335,-0.25297048687934875,0.18877311050891876
1772534795776505600,0.405505615234375,1.1348717212677002,0.1543767899274826,-0.10441987961530685
1772534795786522600,0.415522705078125,1.0923000574111938,0.4064926505088806,-0.2865542769432068
1772534795796540000,0.425539794921875,1.12181556224823,0.4587388038635254,-0.40254130959510803
1772534795806556700,0.435556640625,1.2006158828735352,0.4131084680557251,-0.5049587488174438
1772534795816573700,0.44557373046875,1.279079556465149,0.39427220821380615,-0.5394744277000427
1772534795826590700,0.4555908203125,1.323987364768982,0.3934069573879242,-0.5169086456298828
1772534795836607700,0.465607666015625,1.3093719482421875,0.3435051739215851,-0.48478826880455017
1772534795846624800,0.475624755859375,1.2129322290420532,0.2857856750488281,-0.4374715983867645
1772534795856640800,0.485640869140625,1.066530466079712,0.2227499932050705,-0.40047258138656616
1772534795866657800,0.49565771484375,0.9278218746185303,0.16524462401866913,-0.39212116599082947
1772534795876674800,0.5056748046875,0.8463371396064758,0.15253548324108124,-0.384381502866745
1772534795886691800,0.51569189453125,0.8427626490592957,0.2493421882390976,-0.3580518960952759
1772534795896708600,0.52570849609375,0.9133204221725464,0.33481472730636597,-0.3400507867336273
1772534795906726000,0.535725830078125,1.0603841543197632,0.3305571377277374,-0.3582311272621155
1772534795916743000,0.545742919921875,1.2739065885543823,0.32611340284347534,-0.39754602313041687
1772534795926759700,0.555759765625,1.454291582107544,0.33210283517837524,-0.4276416301727295
1772534795936776000,0.56577587890625,1.5139061212539673,0.29217007756233215,-0.4253544807434082
1772534795946793000,0.57579296875,1.4482309818267822,0.18730145692825317,-0.4136991798877716
1772534795956809700,0.585809814453125,1.3311398029327393,0.035462118685245514,-0.39415955543518066
1772534795966827000,0.595826904296875,1.2411127090454102,-0.07981333881616592,-0.3458154499530792
1772534795976843800,0.60584375,1.229259729385376,-0.15472619235515594,-0.24031513929367065
1772534795986860800,0.61586083984375,1.2725036144256592,-0.2609402537345886,-0.08443871885538101
1772534795996877800,0.6258779296875,1.3440814018249512,-0.4170430302619934,0.11876686662435532
1772534796006894800,0.635894775390625,1.43791925907135,-0.6063008308410645,0.33565202355384827
1772534796016912000,0.645911865234375,1.4623020887374878,-0.6983751058578491,0.4822627902030945
1772534796026927600,0.655927734375,1.4472006559371948,-0.6345468759536743,0.5388086438179016
1772534796036945000,0.66594482421875,1.4357508420944214,-0.42759260535240173,0.49524304270744324
1772534796046961700,0.675961669921875,1.389672040939331,-0.1421843022108078,0.37584471702575684
1772534796056978700,0.685978759765625,1.3571391105651855,0.1402394026517868,0.23711854219436646
1772534796066996000,0.695995849609375,1.343346357345581,0.36275237798690796,0.10285820811986923
1772534796077012700,0.7060126953125,1.2364695072174072,0.6281134486198425,-0.007430485915392637
1772534796087029800,0.71602978515625,1.0793567895889282,0.8226672410964966,-0.04205131158232689
1772534796097046800,0.726046875,0.9373024702072144,0.9429765939712524,-0.05055958032608032
1772534796107062800,0.736062744140625,0.7657402753829956,0.8480631113052368,-0.10589767247438431
1772534796117079800,0.746079833984375,0.6858971118927002,0.7770688533782959,-0.13413330912590027
1772534796127096800,0.756096923828125,0.7180467844009399,0.7033621668815613,-0.2557060718536377
1772534796137113900,0.76611376953125,0.7710333466529846,0.7602600455284119,-0.41730615496635437
1772534796147130600,0.776130615234375,0.7246748805046082,0.6932368278503418,-0.5562728047370911
1772534796157148000,0.78614794921875,0.6480187177658081,0.6642861366271973,-0.456411749124527
1772534796167165000,0.7961650390625,0.7404698133468628,0.4201165735721588,-0.2507837414741516
1772534796177181700,0.806181640625,0.8109865784645081,0.24276044964790344,-0.20950795710086823
1772534796187199000,0.816198974609375,0.8347939252853394,0.1578916311264038,-0.23442955315113068
1772534796197214700,0.826214599609375,0.8248361349105835,0.18553631007671356,-0.20810499787330627
1772534796207231700,0.836231689453125,0.7908999919891357,0.3051484525203705,-0.163014754652977
1772534796217249000,0.8462490234375,0.6891152858734131,0.31097412109375,-0.08811946958303452
1772534796227265800,0.856265869140625,0.5876746773719788,0.09770818054676056,0.07979310303926468
1772534796237282800,0.86628271484375,0.5466809272766113,-0.3169425427913666,0.2752329111099243
1772534796247299800,0.8762998046875,0.43362998962402344,-0.8535490036010742,0.44556230306625366
1772534796257316900,0.88631689453125,0.3591959774494171,-1.217360496520996,0.4642195999622345
1772534796267333600,0.896333740234375,0.35701805353164673,-1.2500182390213013,0.2472553253173828
1772534796277351000,0.906350830078125,0.36037710309028625,-1.1714329719543457,-0.040351685136556625
1772534796287367000,0.916366943359375,0.2620055079460144,-1.1714608669281006,-0.23035171627998352
1772534796297383700,0.9263837890625,0.007951666601002216,-1.2661418914794922,-0.27348533272743225
1772534796307400700,0.936400634765625,-0.30836448073387146,-1.4890713691711426,-0.24726225435733795
1772534796317418000,0.94641796875,-0.5225108861923218,-1.595228672027588,-0.20449082553386688
1772534796327434800,0.956434814453125,-0.5960290431976318,-1.5792521238327026,-0.18396690487861633
1772534796337451800,0.96645166015625,-0.5874877572059631,-1.4272774457931519,-0.14984674751758575
1772534796347468800,0.97646875,-0.5859884023666382,-1.1825761795043945,-0.0966184213757515
1772534796357485800,0.98648583984375,-0.6668108105659485,-0.8861433863639832,-0.04135835915803909
1772534796367501800,0.996501708984375,-0.7845209240913391,-0.5717852115631104,-0.05271168053150177
1772534796377518800,1.006518798828125,-0.9232425689697266,-0.26583540439605713,-0.12955772876739502
1772534796387536000,1.016535888671875,-1.042076826095581,0.09614277631044388,-0.27579668164253235
1772534796397552600,1.026552734375,-1.199292778968811,0.5556997060775757,-0.5858725309371948
1772534796407570000,1.03656982421875,-1.3707865476608276,0.9647990465164185,-1.0346317291259766
1772534796417586700,1.046586669921875,-1.5397872924804688,1.4527069330215454,-1.4848148822784424
1772534796427603700,1.056603759765625,-1.760414958000183,1.7963324785232544,-1.7021887302398682
1772534796437621000,1.06662109375,-1.8526370525360107,1.820494294166565,-1.5325006246566772
1772534796447637800,1.0766376953125,-1.8588483333587646,1.6193180084228516,-1.1113885641098022
1772534796457653800,1.08665380859375,-1.8485640287399292,1.1249959468841553,-0.6567312479019165
1772534796467671000,1.096671142578125,-1.8194926977157593,0.43223875761032104,-0.2658900022506714
1772534796477687800,1.106687744140625,-1.6492857933044434,0.08209513872861862,0.047871384769678116
1772534796487704800,1.116704833984375,-1.445339560508728,0.005152684170752764,0.2027760148048401
1772534796497721900,1.126721923828125,-1.303005337715149,0.08768884092569351,0.22939324378967285
1772534796507739000,1.13673876953125,-1.198616623878479,0.30751121044158936,0.19504539668560028
1772534796517755600,1.146755615234375,-1.1414111852645874,0.5483493804931641,0.21853473782539368
1772534796527773000,1.15677294921875,-1.1405855417251587,0.702201783657074,0.32217270135879517
1772534796537789000,1.166788818359375,-1.109902262687683,0.7827552556991577,0.42301198840141296
1772534796547805700,1.1768056640625,-1.0292302370071411,0.7692950963973999,0.46813204884529114
1772534796557822700,1.18682275390625,-0.9271147847175598,0.7121897339820862,0.4638576805591583
1772534796567839700,1.19683984375,-0.8454985022544861,0.6784767508506775,0.3753669559955597
1772534796577856800,1.206856689453125,-0.8079306483268738,0.5475355386734009,0.23273152112960815
1772534796587873800,1.216873779296875,-0.8123381733894348,0.3200256824493408,0.15173573791980743
1772534796597890800,1.226890869140625,-0.8478186726570129,0.1351815164089203,0.19711706042289734
1772534796607907800,1.236907958984375,-0.8985886573791504,0.08871788531541824,0.27487897872924805
1772534796617924900,1.2469248046875,-0.9679085612297058,0.23688897490501404,0.2645981013774872
1772534796627940900,1.25694091796875,-0.9904540777206421,0.5058013796806335,0.1639053076505661
1772534796637958000,1.2669580078125,-0.9840478897094727,0.7295183539390564,0.06800568103790283
1772534796647974700,1.276974609375,-0.9721336960792542,0.8300234079360962,0.11229511350393295
1772534796657992000,1.286991943359375,-0.9328722953796387,0.7917553782463074,0.3271224796772003
1772534796668008700,1.2970087890625,-0.8641430139541626,0.617614209651947,0.6000291109085083
1772534796678025700,1.307025634765625,-0.7967738509178162,0.4918301999568939,0.7652886509895325
1772534796688042800,1.317042724609375,-0.7046873569488525,0.5036724805831909,0.7450989484786987
1772534796698059800,1.327059814453125,-0.6066015362739563,0.6031417846679688,0.6635183095932007
1772534796708075800,1.33707568359375,-0.5336205363273621,0.6750450134277344,0.6575208902359009
1772534796718092800,1.3470927734375,-0.4736756980419159,0.727674663066864,0.7106043696403503
1772534796728109800,1.35710986328125,-0.3923589885234833,0.737310528755188,0.7751652002334595
1772534796738126800,1.367126953125,-0.3167358636856079,0.6259280443191528,0.8203518986701965
1772534796748143900,1.377143798828125,-0.2439223825931549,0.4634952247142792,0.8178357481956482
1772534796758161000,1.387160888671875,-0.14859639108181,0.28266605734825134,0.7730453610420227
1772534796768177700,1.397177734375,-0.08796367794275284,0.03569727763533592,0.6531522274017334
1772534796778195000,1.40719482421875,-0.03849625959992409,-0.31207215785980225,0.5168284773826599
1772534796788211700,1.417211669921875,0.03588183596730232,-0.6182693243026733,0.4698497951030731
1772534796798227700,1.427227783203125,0.16582971811294556,-0.8180551528930664,0.5451991558074951
1772534796808244700,1.43724462890625,0.2937794327735901,-0.8671172261238098,0.7074759006500244
1772534796818261800,1.44726171875,0.3913232982158661,-0.8932260870933533,0.9358752965927124
1772534796828278800,1.45727880859375,0.4676295220851898,-0.9738029837608337,1.0952199697494507
1772534796838295800,1.4672958984375,0.3774394392967224,-0.9998462796211243,1.0059678554534912
1772534796848312600,1.4773125,0.171534463763237,-0.8953164219856262,0.6156173944473267
1772534796858329900,1.487329833984375,-0.098169706761837,-0.5680615901947021,0.10916963219642639
1772534796868346600,1.4973466796875,-0.3532901406288147,-0.24006399512290955,-0.30568456649780273
1772534796878362600,1.507362548828125,-0.5637778639793396,-0.011987154372036457,-0.5166345834732056
1772534796888379600,1.517379638671875,-0.679470419883728,0.031984832137823105,-0.6188435554504395
1772534796898396700,1.527396728515625,-0.6691554188728333,-0.1372649073600769,-0.7067587375640869
1772534796908413700,1.53741357421875,-0.5773810148239136,-0.2918204069137573,-0.7772749662399292
1772534796918430700,1.5474306640625,-0.3941608965396881,-0.4218926429748535,-0.8168583512306213
1772534796928447700,1.55744775390625,-0.1894705891609192,-0.46104830503463745,-0.8527811765670776
1772534796938464800,1.56746484375,0.040646497160196304,-0.4674904942512512,-0.9379069805145264
1772534796948481800,1.577481689453125,0.31519657373428345,-0.5483747124671936,-0.967894971370697
1772534796958498800,1.587498779296875,0.5909165740013123,-0.6316799521446228,-0.7915865182876587
1772534796968514600,1.5975146484375,0.8649401068687439,-0.6303108334541321,-0.5002822875976562
1772534796978531600,1.607531494140625,1.0411505699157715,-0.5175004005432129,-0.2570573687553406
1772534796988548900,1.617548828125,1.1000066995620728,-0.3680288791656494,-0.15849056839942932
1772534796998565600,1.627565673828125,1.1162327527999878,-0.23563729226589203,-0.20192407071590424
1772534797008582700,1.637582763671875,1.097067952156067,-0.11828749626874924,-0.3566071093082428
1772534797018599700,1.647599609375,1.027062177658081,-0.048230644315481186,-0.5187425017356873
1772534797028616700,1.65761669921875,0.90714031457901,-0.08926116675138474,-0.6415057182312012
1772534797038633500,1.667633544921875,0.7303431630134583,-0.22515667974948883,-0.7065337300300598
1772534797048650800,1.677650634765625,0.48560771346092224,-0.3658405542373657,-0.7319226861000061
1772534797058666800,1.687666748046875,0.20850740373134613,-0.338060587644577,-0.7579020857810974
1772534797068683500,1.69768359375,0.00032330775866284966,-0.15863864123821259,-0.8480769991874695
1772534797078700800,1.70770068359375,-0.12693504989147186,0.09800060093402863,-0.9504433274269104
1772534797088717800,1.7177177734375,-0.1756376028060913,0.3609006702899933,-0.9843866229057312
1772534797098734600,1.727734619140625,-0.15361939370632172,0.5092672109603882,-0.9157564043998718
1772534797108752000,1.737751953125,-0.08216997236013412,0.5350373387336731,-0.7749236822128296
1772534797118768600,1.7477685546875,0.03958922252058983,0.4400695264339447,-0.609992265701294
1772534797128785700,1.75778564453125,0.20415367186069489,0.22813117504119873,-0.4450661540031433
1772534797138801700,1.7678017578125,0.3490959405899048,-0.05745237320661545,-0.3359750807285309
1772534797148818700,1.777818603515625,0.45086410641670227,-0.2810300588607788,-0.2899860143661499
1772534797158835700,1.787835693359375,0.5410336852073669,-0.39579686522483826,-0.30580252408981323
1772534797168852700,1.797852783203125,0.5868901014328003,-0.418567955493927,-0.34520986676216125
1772534797178869800,1.807869873046875,0.5549936890602112,-0.3572755753993988,-0.39670419692993164
1772534797188886500,1.817886474609375,0.46346673369407654,-0.2331211417913437,-0.458730548620224
1772534797198903800,1.82790380859375,0.3581605553627014,-0.10917655378580093,-0.5368501543998718
1772534797208920800,1.8379208984375,0.24293169379234314,-0.04500209540128708,-0.6027388572692871
1772534797218937600,1.8479375,0.11705178767442703,-0.014079333283007145,-0.6379770040512085
1772534797228953600,1.85795361328125,0.028303010389208794,0.022717030718922615,-0.6171095371246338
1772534797238971000,1.867970947265625,-0.022641662508249283,0.027440145611763,-0.550521194934845
1772534797248987600,1.877987548828125,-0.08282005041837692,-0.0022389194928109646,-0.44700491428375244
1772534797259004700,1.888004638671875,-0.1314437836408615,0.06309108436107635,-0.3362073004245758
1772534797269021700,1.898021728515625,-0.1372193694114685,0.3096683621406555,-0.24222861230373383
1772534797279038700,1.908038818359375,-0.12416376173496246,0.5297301411628723,-0.18823781609535217
1772534797289055500,1.918055419921875,-0.1665911078453064,0.5912864804267883,-0.13279852271080017
1772534797299072800,1.92807275390625,-0.22595056891441345,0.5852783918380737,-0.08756127208471298
1772534797309089500,1.938089599609375,-0.2673102617263794,0.521377682685852,-0.09384260326623917
1772534797319105500,1.94810546875,-0.2733399271965027,0.45308759808540344,-0.11096379905939102
1772534797329122800,1.958122802734375,-0.1905403882265091,0.3456628620624542,-0.02851792797446251
1772534797339139600,1.9681396484375,-0.04505376145243645,0.2002878189086914,0.16374792158603668
1772534797349156600,1.978156494140625,0.09043562412261963,-0.02196548692882061,0.41022881865501404
1772534797359174000,1.988173828125,0.10195112973451614,-0.355881929397583,0.7176899313926697
1772534797369190700,1.998190673828125,0.05230368301272392,-0.6571211218833923,1.0339443683624268
1772534797379207700,2.008207763671875,-0.05468721315264702,-0.7850785851478577,1.2303404808044434
1772534797389224700,2.018224609375,-0.12456003576517105,-0.5129078030586243,1.3004481792449951
1772534797399241700,2.02824169921875,-0.05874533951282501,-0.026869431138038635,1.1865415573120117
1772534797409257700,2.0382578125,-0.0070160976611077785,0.15198767185211182,0.914692759513855
1772534797419274800,2.048274658203125,-0.03241253271698952,-0.11677854508161545,0.6145625114440918
1772534797429291800,2.058291748046875,-0.15690092742443085,-0.6544862389564514,0.4201067388057709
1772534797439308500,2.06830859375,-0.38175109028816223,-1.3677384853363037,0.38513171672821045
1772534797449325800,2.078325927734375,-0.6306272149085999,-1.920393705368042,0.38616153597831726
1772534797459342600,2.088342529296875,-0.7587191462516785,-1.8675459623336792,0.3432023525238037
1772534797469359600,2.098359619140625,-0.8166474103927612,-1.2647676467895508,0.2494841367006302
1772534797479377000,2.108376953125,-0.8665295243263245,-0.2968684136867523,0.10238389670848846
1772534797489392600,2.118392578125,-0.9279393553733826,0.6705466508865356,-0.13186535239219666
1772534797499409700,2.12840966796875,-0.9926536083221436,1.213565468788147,-0.39754682779312134
1772534797509426700,2.1384267578125,-1.0402053594589233,1.2589856386184692,-0.5989246964454651
1772534797519443700,2.148443603515625,-1.0441268682479858,0.8900651931762695,-0.6760793924331665
1772534797529460700,2.158460693359375,-0.957811713218689,0.3542150557041168,-0.6575419306755066
1772534797539477500,2.1684775390625,-0.7945958971977234,-0.13364514708518982,-0.6759449243545532
1772534797549494800,2.178494873046875,-0.6385914087295532,-0.6270199418067932,-0.6219945549964905
1772534797559511600,2.188511474609375,-0.42113178968429565,-0.9252074360847473,-0.26337093114852905
1772534797569528600,2.198528564453125,-0.11748775094747543,-0.7811623811721802,0.2380967140197754
1772534797579544800,2.208544921875,0.19017420709133148,-0.3113975524902344,0.5763418674468994
1772534797589561600,2.2185615234375,0.3742596209049225,0.15981842577457428,0.714893639087677
1772534797599578600,2.22857861328125,0.3447211682796478,0.4753742516040802,0.7630004286766052
1772534797609595600,2.238595703125,0.13663187623023987,0.5968058705329895,0.7560927271842957
1772534797619612700,2.24861279296875,-0.11580543220043182,0.5682341456413269,0.6474490761756897
1772534797629629700,2.258629638671875,-0.3200635015964508,0.5141517519950867,0.41245174407958984
1772534797639646700,2.268646728515625,-0.4760141968727112,0.4647114872932434,0.08090230822563171
1772534797649663700,2.278663818359375,-0.6246619820594788,0.45665863156318665,-0.24217002093791962
1772534797659680500,2.288680419921875,-0.7449458241462708,0.47270363569259644,-0.4772408604621887
1772534797669696800,2.29869677734375,-0.749193549156189,0.4663778245449066,-0.5726696252822876
1772534797679713800,2.3087138671875,-0.6364856362342834,0.42845362424850464,-0.51689213514328
1772534797689730600,2.31873046875,-0.4318006634712219,0.4144192934036255,-0.3610745668411255
1772534797699747800,2.328747802734375,-0.20381411910057068,0.42734095454216003,-0.18087178468704224
1772534797709764600,2.3387646484375,-0.006974552292376757,0.43934860825538635,-0.03825550898909569
1772534797719781600,2.34878173828125,0.1754959225654602,0.36751142144203186,0.05314204841852188
1772534797729799000,2.358798828125,0.3311004340648651,0.188044473528862,0.06953513622283936
1772534797739815700,2.368815673828125,0.46697837114334106,-0.046072687953710556,0.00126766471657902
1772534797749831700,2.378831787109375,0.5847292542457581,-0.22910243272781372,-0.12482049316167831
1772534797759848700,2.3888486328125,0.6500781774520874,-0.36490100622177124,-0.2382112294435501
1772534797769865700,2.39886572265625,0.6961652040481567,-0.4380151629447937,-0.26900988817214966
1772534797779882800,2.4088828125,0.7215078473091125,-0.425701767206192,-0.23196426033973694
1772534797789899500,2.4188994140625,0.718174397945404,-0.32702019810676575,-0.21282891929149628
1772534797799916800,2.428916748046875,0.6898290514945984,-0.1573142558336258,-0.27380332350730896
1772534797809933600,2.43893359375,0.6428897380828857,0.08223548531532288,-0.39641284942626953
1772534797819950600,2.44895068359375,0.5825491547584534,0.2880461812019348,-0.5178953409194946
1772534797829967600,2.458967529296875,0.49854373931884766,0.3455651104450226,-0.5416800379753113
1772534797839983600,2.468983642578125,0.4135785400867462,0.2998884618282318,-0.41263630986213684
1772534797850001000,2.4790009765625,0.3441815972328186,0.2563993036746979,-0.21164514124393463
1772534797860018000,2.489017822265625,0.3411075174808502,0.2470494657754898,-0.050704989582300186
1772534797870035000,2.499034912109375,0.39438194036483765,0.287848562002182,0.017470870167016983
1772534797880052000,2.509052001953125,0.4410921633243561,0.3825167417526245,0.06743043661117554
1772534797890069000,2.519069091796875,0.4689784049987793,0.40354612469673157,0.125861257314682
1772534797900086000,2.5290859375,0.45904961228370667,0.3045998513698578,0.20538590848445892
1772534797910102800,2.539102783203125,0.48592597246170044,0.24517486989498138,0.3279927968978882
1772534797920120000,2.5491201171875,0.6488744020462036,0.27858874201774597,0.47820013761520386
1772534797930136000,2.559135986328125,0.8592830300331116,0.31815454363822937,0.6320860981941223
1772534797940152800,2.56915283203125,1.0738195180892944,0.3337728977203369,0.8031291961669922
1772534797950170000,2.579170166015625,1.2747678756713867,0.26689428091049194,0.9284509420394897
1772534797960187000,2.589186767578125,1.3220738172531128,0.04296424612402916,0.9830411672592163
1772534797970204000,2.599203857421875,1.1425714492797852,-0.35760819911956787,0.9530431032180786
1772534797980221000,2.609220947265625,0.8638826012611389,-0.7854452729225159,0.8129696249961853
1772534797990238000,2.619238037109375,0.6552470922470093,-1.0413055419921875,0.6169273853302002
1772534798000255000,2.6292548828125,0.5354200005531311,-1.1504325866699219,0.4233286380767822
1772534798010272000,2.63927197265625,0.5370141863822937,-1.1102420091629028,0.38640522956848145
1772534798020288000,2.6492880859375,0.7021858096122742,-1.005155324935913,0.504569947719574
1772534798030305000,2.659304931640625,0.7966963648796082,-0.8498639464378357,0.6867130994796753
1772534798040321800,2.66932177734375,0.6516720652580261,-0.7656643986701965,0.8090973496437073
1772534798050339000,2.679339111328125,0.39206790924072266,-0.6232361197471619,0.7110695838928223
1772534798060355800,2.68935595703125,0.14272519946098328,-0.2715074121952057,0.286172091960907
1772534798070372900,2.699372802734375,-0.1885177195072174,-0.08107860386371613,-0.4176499545574188
1772534798080390000,2.709389892578125,-0.5694916844367981,-0.2509762942790985,-1.0196348428726196
1772534798090407000,2.719406982421875,-0.7008166909217834,-0.4866088032722473,-1.3202978372573853
1772534798100424000,2.729423828125,-0.6243267059326172,-0.8253133296966553,-1.3655833005905151
1772534798110440000,2.73943994140625,-0.48103559017181396,-1.2197890281677246,-1.0979307889938354
1772534798120457000,2.74945703125,-0.20571880042552948,-1.4590489864349365,-0.5863665342330933
1772534798130473700,2.7594736328125,0.2665563225746155,-1.3446012735366821,0.09003614634275436
1772534798140491000,2.769490966796875,0.764208972454071,-0.8638541102409363,0.7796769142150879
1772534798150508000,2.779508056640625,1.0652735233306885,-0.1845056563615799,1.3502508401870728
1772534798160524800,2.78952490234375,1.0566173791885376,0.3377000093460083,1.7939950227737427
1772534798170542000,2.7995419921875,0.7636206746101379,0.5873686671257019,2.0394420623779297
1772534798180558800,2.809558837890625,0.3729080557823181,0.6603260040283203,1.9440442323684692
1772534798190575900,2.819575927734375,0.007800665218383074,0.7219781875610352,1.448704719543457
1772534798200592100,2.829592041015625,-0.32713550329208374,0.823158323764801,0.727677583694458
1772534798210609000,2.83960888671875,-0.5870019793510437,0.9119800925254822,0.026571689173579216
1772534798220626000,2.8496259765625,-0.7235054969787598,0.9366699457168579,-0.4846170246601105
1772534798230643000,2.859642822265625,-0.7145380973815918,0.8777406215667725,-0.7040441632270813
1772534798240660000,2.869659912109375,-0.5848512053489685,0.8100448846817017,-0.6250705122947693
1772534798250677000,2.879677001953125,-0.3847993314266205,0.8013763427734375,-0.3575970232486725
1772534798260694000,2.889694091796875,-0.1727755069732666,0.7767077088356018,-0.07288006693124771
1772534798270711000,2.8997109375,-0.0004191815387457609,0.6753920316696167,0.09219463914632797
1772534798280726800,2.909726806640625,0.1283678263425827,0.5486367344856262,0.07995501905679703
1772534798290743800,2.919743896484375,0.22359581291675568,0.4068492650985718,-0.051722049713134766
1772534798300761000,2.929760986328125,0.25563284754753113,0.26121535897254944,-0.23758938908576965
1772534798310777900,2.93977783203125,0.21517249941825867,0.17548313736915588,-0.46418124437332153
1772534798320795000,2.949794921875,0.08028312027454376,0.1362619698047638,-0.6486304402351379
1772534798330812000,2.95981201171875,-0.10017560422420502,0.16784945130348206,-0.7344947457313538
1772534798340829000,2.969828857421875,-0.23384684324264526,0.3069996237754822,-0.7116411328315735
1772534798350846000,2.979845947265625,-0.2958921194076538,0.42106279730796814,-0.6263254284858704
1772534798360863000,2.989863037109375,-0.3082502484321594,0.4283939599990845,-0.5361558198928833
1772534798370880000,2.9998798828125,-0.29060840606689453,0.32319775223731995,-0.4720146656036377
1772534798380895700,3.009895751953125,-0.2348300814628601,0.23008885979652405,-0.4503391981124878
1772534798390913000,3.0199130859375,-0.12173469364643097,0.14684723317623138,-0.48798245191574097
1772534798400930000,3.029929931640625,-0.050396062433719635,0.07217592746019363,-0.5249583125114441
1772534798410946800,3.03994677734375,-0.05083814635872841,0.02660471200942993,-0.48604393005371094
1772534798420964000,3.049964111328125,-0.00023915186466183513,0.10815523564815521,-0.4083606004714966
1772534798430980900,3.05998095703125,0.10146696865558624,0.3513638973236084,-0.3223026692867279
1772534798440998000,3.069997802734375,0.1857389658689499,0.7107731699943542,-0.208163321018219
1772534798451015000,3.080014892578125,0.22351963818073273,0.9792048931121826,-0.0649438425898552
1772534798461031000,3.090031005859375,0.20622959733009338,1.053005576133728,0.11204211413860321
1772534798471048000,3.1000478515625,0.20279651880264282,0.9890255928039551,0.31391799449920654
1772534798481065000,3.11006494140625,0.23656167089939117,0.7971435189247131,0.4481743276119232
1772534798491082000,3.12008203125,0.2922779321670532,0.598335325717926,0.48385483026504517
1772534798501098800,3.1300986328125,0.36092516779899597,0.4823112487792969,0.46779969334602356
1772534798511116000,3.140115966796875,0.38858288526535034,0.43087655305862427,0.4477519392967224
1772534798521133000,3.150133056640625,0.35071513056755066,0.26195839047431946,0.41807207465171814
1772534798531149800,3.16014990234375,0.26131415367126465,-0.02220011129975319,0.38826197385787964
1772534798541167000,3.1701669921875,0.18193277716636658,-0.3300498127937317,0.42667701840400696
1772534798551183000,3.18018310546875,0.13253992795944214,-0.7990117073059082,0.6438082456588745
1772534798561199900,3.190199951171875,0.08167275786399841,-1.5984079837799072,0.9864766597747803
1772534798571217000,3.200216796875,-0.060319531708955765,-2.344622850418091,1.2732727527618408
1772534798581234000,3.21023388671875,-0.4103425145149231,-2.6745266914367676,1.2476752996444702
1772534798591251000,3.2202509765625,-0.909525454044342,-2.4338526725769043,0.740006685256958
1772534798601268000,3.23026806640625,-1.3959147930145264,-1.6015547513961792,-0.1566428691148758
1772534798611285000,3.240284912109375,-1.7937324047088623,-0.32839810848236084,-0.9616261720657349
1772534798621302000,3.250302001953125,-1.9797899723052979,0.7526087760925293,-1.374495267868042
1772534798631319000,3.260319091796875,-1.9423788785934448,1.2267696857452393,-1.343416690826416
1772534798641335000,3.2703349609375,-1.6800652742385864,1.2225147485733032,-0.9391695857048035
1772534798651351800,3.280351806640625,-1.2004590034484863,0.9011151790618896,-0.48255786299705505
1772534798661368800,3.290368896484375,-0.5748656988143921,0.2957749366760254,-0.19186824560165405
1772534798671386000,3.30038623046875,0.07218790799379349,-0.5588523745536804,-0.028797559440135956
1772534798681403000,3.31040283203125,0.6246652007102966,-1.5129148960113525,0.07867111265659332
1772534798691420000,3.320419921875,0.97027587890625,-2.3523213863372803,0.15828818082809448
1772534798701437000,3.33043701171875,0.9416761994361877,-2.6254937648773193,0.11390126496553421
1772534798711454000,3.340453857421875,0.6763241291046143,-2.235438108444214,-0.03380510210990906
1772534798721470700,3.350470703125,0.41250261664390564,-1.122699499130249,-0.1820869743824005
1772534798731487000,3.360487060546875,0.16158036887645721,0.2595900297164917,-0.3160812556743622
1772534798741504000,3.37050390625,-0.07106006145477295,1.3758995532989502,-0.33209219574928284
1772534798751520800,3.380520751953125,-0.32732993364334106,1.9176602363586426,-0.1212896779179573
1772534798761538000,3.3905380859375,-0.5674466490745544,1.9031753540039062,0.2013339102268219
1772534798771555000,3.40055517578125,-0.6648328900337219,1.5490617752075195,0.3948543667793274
1772534798781571800,3.41057177734375,-0.6068638563156128,1.1054775714874268,0.3363170325756073
1772534798791589000,3.420589111328125,-0.46094709634780884,0.7103675603866577,0.11239791661500931
1772534798801606000,3.43060595703125,-0.2529512941837311,0.45667514204978943,-0.09641522169113159
1772534798811622000,3.440621826171875,-0.03785443678498268,0.28901156783103943,-0.1626317948102951
1772534798821639000,3.450638916015625,0.1731259822845459,0.17599499225616455,-0.0743168443441391
1772534798831656000,3.460656005859375,0.3869445323944092,0.18759307265281677,0.052255745977163315
1772534798841673000,3.4706728515625,0.5521619915962219,0.23959128558635712,0.17907175421714783
1772534798851690200,3.480690185546875,0.6320363283157349,0.28634360432624817,0.26542261242866516
1772534798861707300,3.490707275390625,0.6371445059776306,0.24728435277938843,0.2654268741607666
1772534798871724000,3.50072412109375,0.5756587982177734,0.12530599534511566,0.2121593952178955
1772534798881741300,3.5107412109375,0.43371203541755676,-0.04520369693636894,0.12905625998973846
1772534798891758000,3.520758056640625,0.259568989276886,-0.18288272619247437,-0.01125052385032177
1772534798901775000,3.530775146484375,0.07714857906103134,-0.27467525005340576,-0.19738976657390594
1772534798911791000,3.540791015625,-0.11208073049783707,-0.3441445827484131,-0.34181591868400574
1772534798921808100,3.55080810546875,-0.2579402029514313,-0.338810533285141,-0.38038673996925354
1772534798931825200,3.5608251953125,-0.29215890169143677,-0.20609989762306213,-0.3355380594730377
1772534798941842200,3.57084228515625,-0.26300472021102905,0.039025697857141495,-0.23695209622383118
1772534798951859200,3.580859130859375,-0.19999541342258453,0.2812705636024475,-0.10677598416805267
1772534798961876200,3.590876220703125,-0.108853779733181,0.4398074746131897,0.0427679717540741
1772534798971893000,3.60089306640625,-0.048356346786022186,0.46928972005844116,0.22756364941596985
1772534798981910300,3.61091015625,-0.0028844696935266256,0.3744116723537445,0.4250037670135498
1772534798991927000,3.620927001953125,0.012406069785356522,0.2689691483974457,0.5990216135978699
1772534799001943000,3.630943115234375,-0.03473374620079994,0.1908344030380249,0.7283857464790344
1772534799011960300,3.640960205078125,-0.1119995042681694,0.2393428087234497,0.7823752164840698
1772534799021977000,3.65097705078125,-0.2064511775970459,0.45735397934913635,0.7660388350486755
1772534799031994000,3.660994140625,-0.25768107175827026,0.7391142845153809,0.6997343897819519
1772534799042011100,3.67101123046875,-0.2597423493862152,0.9774781465530396,0.6499164700508118
1772534799052028200,3.681028076171875,-0.2169371098279953,1.0191725492477417,0.649970531463623
1772534799062045200,3.691045166015625,-0.14064127206802368,0.7553364038467407,0.7202375531196594
1772534799072062200,3.701062255859375,-0.05657805874943733,0.25207963585853577,0.8545644283294678
1772534799082078200,3.711078125,0.004720186814665794,-0.2763655483722687,0.9921891689300537
1772534799092095200,3.72109521484375,-0.027599137276411057,-0.5547438859939575,1.0967466831207275
1772534799102112300,3.7311123046875,-0.16542251408100128,-0.48722025752067566,1.1084086894989014
1772534799112129300,3.74112939453125,-0.32718080282211304,-0.2961174249649048,0.92298424243927
1772534799122146000,3.75114599609375,-0.4240924119949341,-0.3663492202758789,0.4637061357498169
1772534799132163300,3.761163330078125,-0.42766132950782776,-0.8731994032859802,-0.17112034559249878
1772534799142180000,3.77118017578125,-0.35404062271118164,-1.6079002618789673,-0.6573999524116516
1772534799152197000,3.781197021484375,-0.19638735055923462,-2.1559135913848877,-0.8199886083602905
1772534799162214400,3.79121435546875,-0.06464770436286926,-2.4195358753204346,-0.7534120082855225
1772534799172230100,3.801230224609375,0.07248564809560776,-2.168464422225952,-0.5982609987258911
1772534799182247200,3.8112470703125,0.23716089129447937,-1.2545632123947144,-0.42403942346572876
1772534799192264200,3.82126416015625,0.31123510003089905,-0.05169515311717987,-0.3168700933456421
1772534799202281200,3.83128125,0.33518970012664795,0.8989191055297852,-0.37881627678871155
1772534799212298200,3.84129833984375,0.3709844648838043,1.2894402742385864,-0.5317642688751221
1772534799222315000,3.85131494140625,0.4475812315940857,1.173227071762085,-0.5684160590171814
1772534799232332300,3.861332275390625,0.5921503901481628,0.7591870427131653,-0.47366395592689514
1772534799242349000,3.87134912109375,0.7690988183021545,0.19531676173210144,-0.32347872853279114
1772534799252366300,3.881366455078125,0.9189870953559875,-0.3597547113895416,-0.21851876378059387
1772534799262382300,3.89138232421875,1.0460238456726074,-0.7419036626815796,-0.17532947659492493
1772534799272399000,3.901399169921875,1.1326498985290527,-0.8658037781715393,-0.16919675469398499
1772534799282416000,3.911416015625,1.117155909538269,-0.6775148510932922,-0.12572650611400604
1772534799292433200,3.92143310546875,1.0204095840454102,-0.30364537239074707,-0.043478768318891525
1772534799302450200,3.9314501953125,0.8422079086303711,0.06227509304881096,0.06803710758686066
1772534799312467200,3.94146728515625,0.5778353810310364,0.30844172835350037,0.226861372590065
1772534799322484200,3.951484130859375,0.271560937166214,0.42535635828971863,0.3701562285423279
1772534799332501200,3.961501220703125,-0.06666531413793564,0.547005295753479,0.37736138701438904
1772534799342518000,3.97151806640625,-0.3931454122066498,0.7682726979255676,0.1997424066066742
1772534799352534300,3.9815341796875,-0.6266985535621643,1.0291085243225098,-0.08362219482660294
1772534799362551300,3.99155126953125,-0.7600070238113403,1.2314549684524536,-0.3218347728252411
1772534799372568000,4.001568115234375,-0.7791152000427246,1.2880903482437134,-0.4213773310184479
1772534799382585300,4.01158544921875,-0.6725485920906067,1.222435712814331,-0.39173954725265503
1772534799392602000,4.02160205078125,-0.4735478460788727,1.086552381515503,-0.2841012179851532
1772534799402619100,4.031619140625,-0.23607058823108673,0.8189291954040527,-0.14172491431236267
1772534799412636200,4.04163623046875,-0.02263314090669155,0.45983123779296875,-0.006392385344952345
1772534799422653200,4.051653076171875,0.10306433588266373,0.10447607189416885,0.07405691593885422
1772534799432670200,4.061670166015625,0.1390356570482254,-0.1601092368364334,0.033128924667835236
1772534799442686200,4.071686279296875,0.11754687130451202,-0.28807520866394043,-0.140507310628891
1772534799452703200,4.081703125,0.037573207169771194,-0.3250121772289276,-0.3723432123661041
1772534799462720300,4.09172021484375,-0.09202393144369125,-0.31345218420028687,-0.5924526453018188
1772534799472737000,4.101737060546875,-0.25438034534454346,-0.29443615674972534,-0.7422394752502441
1772534799482754300,4.11175439453125,-0.373628705739975,-0.22247888147830963,-0.7995171546936035
1772534799492771000,4.12177099609375,-0.4551358222961426,-0.15556110441684723,-0.8055707812309265
1772534799502788400,4.131788330078125,-0.5312340259552002,-0.06856228411197662,-0.7446206212043762
1772534799512805000,4.14180517578125,-0.5727666020393372,0.010146377608180046,-0.6612181663513184
1772534799522822100,4.151822265625,-0.5965704321861267,0.09860993176698685,-0.583014965057373
1772534799532838100,4.161838134765625,-0.6380132436752319,0.19502301514148712,-0.5281615853309631
1772534799542855200,4.171855224609375,-0.6826353073120117,0.2945544123649597,-0.5089516639709473
1772534799552872200,4.1818720703125,-0.6883669495582581,0.3940325379371643,-0.5236714482307434
1772534799562889200,4.19188916015625,-0.6416183710098267,0.4456440508365631,-0.5228847861289978
1772534799572906200,4.20190625,-0.5780113935470581,0.3788850009441376,-0.42139410972595215
1772534799582923300,4.21192333984375,-0.4989868998527527,0.2681611478328705,-0.20677074790000916
1772534799592940000,4.22193994140625,-0.3885943591594696,0.2585676312446594,0.030307838693261147
1772534799602957300,4.231957275390625,-0.3059205114841461,0.3004453182220459,0.24491387605667114
1772534799612974000,4.24197412109375,-0.19494658708572388,0.39224180579185486,0.4486909806728363
1772534799622990000,4.251989990234375,-0.05362328141927719,0.4653088450431824,0.595651388168335
1772534799633007400,4.26200732421875,0.09220129996538162,0.3449784219264984,0.6660730838775635
1772534799643024100,4.272024169921875,0.22691597044467926,-0.01411422062665224,0.7417271137237549
1772534799653041200,4.282041259765625,0.2930728793144226,-0.45773452520370483,0.9046840667724609
1772534799663058200,4.29205810546875,0.29779306054115295,-0.6148911118507385,1.1778836250305176
1772534799673075200,4.3020751953125,0.1806723028421402,-0.40115249156951904,1.39095139503479
1772534799683092200,4.31209228515625,-0.07081717997789383,-0.17177575826644897,1.307247519493103
1772534799693109200,4.322109130859375,-0.3103863596916199,-0.1902487725019455,0.843853235244751
1772534799703126300,4.332126220703125,-0.5233529806137085,-0.559194028377533,0.19313004612922668
1772534799713142300,4.342142333984375,-0.7462307810783386,-1.13332200050354,-0.3338155150413513
1772534799723159000,4.352158935546875,-0.9572322368621826,-1.5546966791152954,-0.6620751619338989
1772534799733176300,4.36217626953125,-1.050524353981018,-1.495408058166504,-0.8946026563644409
1772534799743193000,4.372193115234375,-1.004651427268982,-0.9519261717796326,-1.0844769477844238
1772534799753210400,4.38221044921875,-0.8595935702323914,-0.3248681128025055,-1.16371488571167
1772534799763227100,4.39222705078125,-0.6186462044715881,0.055937301367521286,-1.068166971206665
1772534799773244200,4.402244140625,-0.32502976059913635,0.033196303993463516,-0.8880773782730103
1772534799783261200,4.41226123046875,-0.047558996826410294,-0.2900901436805725,-0.6874268651008606
1772534799793277200,4.422277099609375,0.1749795377254486,-0.731705367565155,-0.4904578626155853
1772534799803294200,4.432294189453125,0.32134100794792175,-1.2213331460952759,-0.3104662597179413
1772534799813311000,4.44231103515625,0.3771728575229645,-1.595272421836853,-0.10957469791173935
1772534799823328300,4.452328369140625,0.43238842487335205,-1.4980531930923462,0.044329382479190826
1772534799833345300,4.46234521484375,0.5059049725532532,-0.8839476108551025,0.10177882760763168
1772534799843362000,4.472362060546875,0.5126904845237732,-0.07961573451757431,0.15640026330947876
1772534799853379300,4.48237939453125,0.3960738480091095,0.6078726649284363,0.25949627161026
1772534799863396400,4.492396240234375,0.16478894650936127,0.9908045530319214,0.40379300713539124
1772534799873413400,4.502413330078125,-0.14323465526103973,1.0659542083740234,0.5440747737884521
1772534799883429400,4.512429443359375,-0.4353530704975128,0.9232907891273499,0.5987734198570251
1772534799893446400,4.5224462890625,-0.6527325510978699,0.7677565813064575,0.5314487218856812
1772534799903463400,4.53246337890625,-0.7425090074539185,0.6998885869979858,0.3495287001132965
1772534799913480200,4.542480224609375,-0.7186825275421143,0.6931822299957275,0.09739632904529572
1772534799923497500,4.55249755859375,-0.6210225224494934,0.7085172533988953,-0.137741357088089
1772534799933514200,4.56251416015625,-0.4862079918384552,0.712584376335144,-0.2852455973625183
1772534799943531300,4.57253125,-0.33556416630744934,0.6514286398887634,-0.3138386309146881
1772534799953548500,4.582548583984375,-0.1626477688550949,0.5287216305732727,-0.23433180153369904
1772534799963565300,4.5925654296875,0.018271150067448616,0.3118228614330292,-0.10601990669965744
1772534799973581300,4.602581298828125,0.18232665956020355,0.05440012365579605,-0.002121207769960165
1772534799983598600,4.6125986328125,0.30167436599731445,-0.14804059267044067,0.026623621582984924
1772534799993615400,4.622615478515625,0.37442925572395325,-0.2765327990055084,-0.03957483917474747
1772534800003632400,4.63263232421875,0.39765867590904236,-0.3301214575767517,-0.18484069406986237
1772534800013649400,4.6426494140625,0.3388718068599701,-0.3277515172958374,-0.38152098655700684
1772534800023666400,4.65266650390625,0.20584636926651,-0.3093131184577942,-0.5478186011314392
1772534800033683200,4.66268310546875,0.08210845291614532,-0.27753493189811707,-0.6343961358070374
1772534800043700500,4.672700439453125,0.004487426485866308,-0.21442468464374542,-0.6192134618759155
1772534800053717200,4.68271728515625,-0.036142025142908096,-0.12275361269712448,-0.5181723237037659
1772534800063733200,4.692733154296875,-0.05059952661395073,-0.049440253525972366,-0.39582136273384094
1772534800073750300,4.702750244140625,-0.025055019184947014,-0.011143730953335762,-0.2565478980541229
1772534800083767300,4.712767333984375,0.043908070772886276,0.06079650670289993,-0.11441312730312347
1772534800093784300,4.722784423828125,0.1289185732603073,0.1945444494485855,0.015073224902153015
1772534800103801300,4.73280126953125,0.18640609085559845,0.3779105544090271,0.13681244850158691
1772534800113818400,4.742818359375,0.21877121925354004,0.6303041577339172,0.2638026177883148
1772534800123835400,4.75283544921875,0.24136921763420105,0.9072796106338501,0.358645498752594
1772534800133852200,4.76285205078125,0.26044782996177673,1.2163463830947876,0.43779197335243225
1772534800143869400,4.772869384765625,0.2992498278617859,1.5034428834915161,0.4917934238910675
1772534800153885400,4.782885498046875,0.37251046299934387,1.8050745725631714,0.5431053638458252
1772534800163902200,4.792902099609375,0.48454323410987854,2.1745078563690186,0.5290545225143433
1772534800173919500,4.80291943359375,0.5153728127479553,2.302100658416748,0.37164944410324097
1772534800183936300,4.812936279296875,0.5261349081993103,2.211454153060913,0.19612769782543182
1772534800193953300,4.822953369140625,0.8611051440238953,2.2916173934936523,0.0671638548374176
1772534800203970600,4.832970458984375,1.429260015487671,2.212435007095337,0.08269195258617401
1772534800213987300,4.8429873046875,1.8419029712677002,1.6014893054962158,0.5029813647270203
1772534800224004400,4.85300439453125,1.797255516052246,0.3078611493110657,1.0134284496307373
1772534800234021400,4.863021484375,1.313157320022583,-1.1282641887664795,1.0434075593948364
1772534800244037400,4.873037353515625,0.6851509213447571,-2.8117012977600098,0.19564805924892426
1772534800254054400,4.883054443359375,-0.055808402597904205,-4.992768287658691,-1.2563947439193726
1772534800264071400,4.893071533203125,-0.4355924725532532,-5.646204948425293,-1.7859395742416382
1772534800274088400,4.90308837890625,-0.4577385187149048,-3.7391247749328613,-1.1296766996383667
1772534800284105200,4.913105224609375,-0.45417600870132446,-0.19445683062076569,-0.1696377694606781
1772534800294122500,4.92312255859375,-0.5805770754814148,2.5948925018310547,0.2613445222377777
1772534800304139300,4.93313916015625,-0.5288063287734985,3.6557114124298096,0.0897783562541008
1772534800314156300,4.94315625,-0.2750549912452698,3.2855238914489746,-0.3525865375995636
1772534800324173600,4.953173583984375,0.004516987595707178,2.0014357566833496,-0.7400301694869995
1772534800334189300,4.963189208984375,0.2658916115760803,0.36392921209335327,-0.8598047494888306
1772534800344206300,4.973206298828125,0.34893882274627686,-1.1146894693374634,-0.8018090724945068
1772534800354223400,4.983223388671875,0.26761892437934875,-2.5501325130462646,-0.6672638058662415
1772534800364240400,4.993240478515625,0.28287988901138306,-3.5775997638702393,-0.3330583870410919
1772534800374257400,5.00325732421875,0.45240581035614014,-3.3184585571289062,-0.02047038823366165
1772534800384274200,5.013274169921875,0.6062688827514648,-1.9568670988082886,0.07066617906093597
1772534800394291500,5.02329150390625,0.495677649974823,-0.23441436886787415,0.00509835546836257
1772534800404308200,5.03330810546875,0.13667182624340057,1.3029528856277466,-0.022012624889612198
1772534800414324200,5.04332421875,-0.3365423381328583,2.210542917251587,0.16240328550338745
1772534800424341500,5.053341552734375,-0.8898268342018127,2.3751461505889893,0.43739864230155945
1772534800434358300,5.063358154296875,-1.3140339851379395,2.0286402702331543,0.5858232378959656
1772534800444375300,5.073375244140625,-1.5176327228546143,1.4282375574111938,0.4881899058818817
1772534800454392300,5.083392333984375,-1.5138952732086182,0.836763858795166,0.25332069396972656
1772534800464409300,5.093409423828125,-1.3194657564163208,0.45848289132118225,0.10295061767101288
1772534800474426400,5.10342626953125,-0.9611353874206543,0.36171746253967285,0.10463346540927887
1772534800484443400,5.113443359375,-0.5902582406997681,0.40247848629951477,0.1851797103881836
1772534800494460400,5.12346044921875,-0.2854525148868561,0.5218988656997681,0.3002791404724121
1772534800504476400,5.133476318359375,-0.0028855351265519857,0.6180669665336609,0.34932762384414673
1772534800514493400,5.143493408203125,0.2070075124502182,0.5347885489463806,0.3041556179523468
1772534800524510500,5.153510498046875,0.30229514837265015,0.3029838502407074,0.16922630369663239
1772534800534527200,5.16352734375,0.34758618474006653,0.019870644435286522,-0.026767432689666748
1772534800544544500,5.17354443359375,0.34966132044792175,-0.23621013760566711,-0.24015986919403076
1772534800554561300,5.183561279296875,0.32038867473602295,-0.39475902915000916,-0.41343551874160767
1772534800564578300,5.193578369140625,0.2690836787223816,-0.4811362624168396,-0.5186793804168701
1772534800574595300,5.20359521484375,0.20946002006530762,-0.5119144320487976,-0.5586782097816467
1772534800584612400,5.2136123046875,0.15535897016525269,-0.4916467070579529,-0.5386437773704529
1772534800594628400,5.22362841796875,0.1652211844921112,-0.3988914489746094,-0.4828449487686157
1772534800604645400,5.233645263671875,0.20573212206363678,-0.2809557616710663,-0.40601274371147156
1772534800614662400,5.243662353515625,0.22007004916667938,-0.15630225837230682,-0.30351728200912476
1772534800624679400,5.253679443359375,0.19716845452785492,-0.09484368562698364,-0.2016873061656952
1772534800634696200,5.2636962890625,0.14731115102767944,-0.12345429509878159,-0.09137119352817535
1772534800644713500,5.27371337890625,0.0831201896071434,-0.14382773637771606,-0.0015731292078271508
1772534800654730200,5.283730224609375,0.007817443460226059,-0.11718174815177917,0.03675907850265503
1772534800664747300,5.293747314453125,-0.06714015454053879,-0.05475512519478798,0.06698436290025711
1772534800674764300,5.303764404296875,-0.07066325098276138,0.12919554114341736,0.17318803071975708
1772534800684780300,5.3137802734375,-0.07628384977579117,0.37506815791130066,0.3179662525653839
1772534800694797300,5.32379736328125,-0.11171507835388184,0.5640947818756104,0.43325716257095337
1772534800705440300,5.334440185546875,-0.13263048231601715,0.653471827507019,0.49985188245773315
1772534800715457500,5.34445751953125,-0.15187768638134003,0.5858381986618042,0.4692748188972473
1772534800725474300,5.354474365234375,-0.1844121813774109,0.4274030029773712,0.385426789522171
1772534800735491300,5.3644912109375,-0.16620442271232605,0.26174986362457275,0.3115461766719818
1772534800745508400,5.37450830078125,-0.06930610537528992,0.14753779768943787,0.2652050256729126
1772534800755525400,5.384525390625,0.04791479557752609,-0.03599102422595024,0.3048318028450012
1772534800765542100,5.394542236328125,0.1175742968916893,-0.24506567418575287,0.438291072845459
1772534800775558400,5.404558349609375,0.15622475743293762,-0.45066383481025696,0.6949870586395264
1772534800785575400,5.414575439453125,0.10341933369636536,-0.7476648688316345,0.9996702671051025
1772534800795592200,5.42459228515625,0.009106412529945374,-1.175756573677063,1.08677077293396
1772534800805609500,5.434609375,0.0008612662786617875,-1.6526552438735962,0.8254824876785278
1772534800815626500,5.44462646484375,0.13648301362991333,-1.88833487033844,0.4163748323917389
1772534800825643300,5.454643310546875,0.2862171232700348,-1.818554401397705,0.13192075490951538
1772534800835660500,5.46466064453125,0.23363804817199707,-1.6977540254592896,0.12152696400880814
1772534800845677300,5.47467724609375,-0.06729568541049957,-1.278412938117981,0.290871262550354
1772534800855693800,5.48469384765625,-0.49548405408859253,-0.6150290966033936,0.31775158643722534
1772534800865709800,5.494709716796875,-0.8818163275718689,0.1748618185520172,0.09368973970413208
1772534800875726600,5.5047265625,-1.0851366519927979,0.8631174564361572,-0.2069276124238968
1772534800885743600,5.51474365234375,-1.1345585584640503,1.253595232963562,-0.39713937044143677
1772534800895761000,5.524760986328125,-1.0342950820922852,1.2931793928146362,-0.3962240517139435
1772534800905777700,5.534777587890625,-0.8086012005805969,0.9320089221000671,-0.2338670939207077
1772534800915795000,5.544794921875,-0.5632473826408386,0.27754080295562744,-0.036189962178468704
1772534800925811700,5.554811767578125,-0.366828590631485,-0.526451826095581,0.04490116238594055
1772534800935828700,5.564828857421875,-0.26453739404678345,-1.221418023109436,-0.07411577552556992
1772534800945845800,5.574845703125,-0.20805306732654572,-1.5713443756103516,-0.24958878755569458
1772534800955861800,5.58486181640625,-0.15136928856372833,-1.4397599697113037,-0.3140825629234314
1772534800965878800,5.594878662109375,-0.1483820080757141,-0.9863371253013611,-0.24044163525104523
1772534800975895600,5.6048955078125,-0.20134297013282776,-0.42185723781585693,-0.07457463443279266
1772534800985912800,5.614912841796875,-0.31883472204208374,0.12710627913475037,0.15454857051372528
1772534800995929600,5.6249296875,-0.5306563973426819,0.5573799014091492,0.38414180278778076
1772534801005946600,5.634946533203125,-0.7630044221878052,0.8514373898506165,0.5306441783905029
1772534801015964000,5.6449638671875,-0.9590599536895752,1.0625293254852295,0.5464574694633484
1772534801025980700,5.654980712890625,-1.1128990650177002,1.2088730335235596,0.4046867787837982
1772534801035997700,5.664997802734375,-1.2340906858444214,1.3249977827072144,0.10372079908847809
1772534801046014000,5.675013916015625,-1.3221286535263062,1.3890433311462402,-0.23801149427890778
1772534801056657700,5.68565771484375,-1.3243204355239868,1.3580832481384277,-0.47498011589050293
1772534801066674700,5.6956748046875,-1.1783283948898315,1.2083227634429932,-0.5232594609260559
1772534801076691700,5.705691650390625,-0.9896194934844971,0.9840071201324463,-0.4602283239364624
1772534801086707700,5.715707763671875,-0.8038413524627686,0.7640036344528198,-0.33155930042266846
1772534801096724700,5.725724853515625,-0.6067267060279846,0.5861116647720337,-0.17129825055599213
1772534801106741800,5.73574169921875,-0.46740713715553284,0.4854375422000885,-0.05353406444191933
1772534801116758800,5.7457587890625,-0.4317154586315155,0.4312557876110077,-0.013645504601299763
1772534801126775800,5.75577587890625,-0.47317633032798767,0.37372884154319763,-0.023326095193624496
1772534801136792600,5.76579248046875,-0.5651885867118835,0.27918609976768494,-0.07646494358778
1772534801146809900,5.775809814453125,-0.6498198509216309,0.2746374309062958,-0.15609878301620483
1772534801156826600,5.78582666015625,-0.6796379089355469,0.3965558707714081,-0.24237322807312012
1772534801166842600,5.795842529296875,-0.6728673577308655,0.5666791200637817,-0.27761563658714294
1772534801176859600,5.805859619140625,-0.6529969573020935,0.6504669785499573,-0.20332223176956177
1772534801186876700,5.815876708984375,-0.6745190620422363,0.5028117299079895,0.036917272955179214
1772534801196893700,5.825893798828125,-0.8260563611984253,0.08858925104141235,0.32941463589668274
1772534801206911000,5.835910888671875,-1.0070631504058838,-0.32611605525016785,0.4986947476863861
1772534801216927700,5.845927734375,-1.0389409065246582,-0.4517672061920166,0.4820585250854492
1772534801226944800,5.85594482421875,-0.9527879357337952,-0.20555688440799713,0.38767582178115845
1772534801236961800,5.8659619140625,-0.8346812725067139,0.2206317037343979,0.31117305159568787
1772534801246978800,5.875978759765625,-0.7406935095787048,0.7272570729255676,0.29743140935897827
1772534801256994800,5.885994873046875,-0.7156550288200378,1.198999047279358,0.3323308229446411
1772534801267011600,5.896011474609375,-0.7695398330688477,1.4316387176513672,0.37282684445381165
1772534801277028900,5.90602880859375,-0.822862446308136,1.2999285459518433,0.44345733523368835
1772534801287045600,5.916045654296875,-0.7973322868347168,0.7239342927932739,0.47330817580223083
1772534801297062700,5.926062744140625,-0.6205394268035889,-0.0979665070772171,0.36700543761253357
1772534801307079700,5.93607958984375,-0.31089210510253906,-0.9011929035186768,0.1864311248064041
1772534801317096700,5.9460966796875,0.04038817062973976,-1.341315746307373,0.19534339010715485
1772534801327113700,5.95611376953125,0.3038538992404938,-1.1856597661972046,0.5104259848594666
1772534801337130800,5.966130859375,0.30430343747138977,-0.8713942766189575,0.9143345952033997
1772534801347146800,5.976146728515625,0.026564233005046844,-0.7755822539329529,1.038276195526123
1772534801357163800,5.986163818359375,-0.3286455273628235,-0.907142162322998,0.7587857246398926
1772534801367180800,5.996180908203125,-0.6427547335624695,-1.0215318202972412,0.25031769275665283
1772534801377197800,6.00619775390625,-0.7218407392501831,-0.7460763454437256,-0.06618567556142807
1772534801387214600,6.016214599609375,-0.49214816093444824,-0.19191643595695496,-0.01836249604821205
1772534801397231900,6.02623193359375,-0.2540208101272583,0.10162409394979477,0.2836298644542694
1772534801407248600,6.03624853515625,-0.1429947018623352,-0.05356841906905174,0.47927552461624146
1772534801417265700,6.046265625,-0.11487571895122528,-0.33355292677879333,0.34310781955718994
1772534801427282700,6.05628271484375,-0.08288263529539108,-0.5208248496055603,-0.09370944648981094
1772534801437298700,6.066298583984375,-0.042143724858760834,-0.6806262135505676,-0.6123605966567993
1772534801447315700,6.076315673828125,0.02443397045135498,-0.8711223602294922,-0.9114892482757568
1772534801457332700,6.086332763671875,0.17187508940696716,-1.0234781503677368,-0.9003897309303284
1772534801467349800,6.096349853515625,0.3956938087940216,-1.003150224685669,-0.688827395439148
1772534801477366800,6.10636669921875,0.6464959383010864,-0.859855055809021,-0.3886880874633789
1772534801487383800,6.1163837890625,0.7875097990036011,-0.7310678362846375,-0.09889888018369675
1772534801497400800,6.12640087890625,0.7502622604370117,-0.6800214052200317,0.11271243542432785
1772534801507417600,6.13641748046875,0.5852078199386597,-0.5732938647270203,0.19770215451717377
1772534801517435000,6.146434814453125,0.3781574070453644,-0.3392486274242401,0.15559758245944977
1772534801527451000,6.156450927734375,0.13863138854503632,-0.00424321461468935,0.06811966747045517
1772534801537467600,6.166467529296875,-0.11613832414150238,0.3434457778930664,0.014303305186331272
1772534801547484700,6.176484619140625,-0.338617205619812,0.6035404801368713,0.009170329198241234
1772534801557501700,6.186501708984375,-0.5336015820503235,0.6553837060928345,0.0046634613536298275
1772534801567518700,6.196518798828125,-0.6796139478683472,0.5365167260169983,-0.03591698780655861
1772534801577535700,6.20653564453125,-0.7092043161392212,0.3502722680568695,-0.1330278217792511
1772534801587552800,6.216552734375,-0.6475353837013245,0.1452709138393402,-0.2948859632015228
1772534801597569800,6.22656982421875,-0.5264856219291687,0.054423827677965164,-0.43822208046913147
1772534801607586600,6.236586669921875,-0.3611563444137573,0.09874042868614197,-0.4972686171531677
1772534801617602800,6.246602783203125,-0.20357948541641235,0.19107967615127563,-0.46479856967926025
1772534801627619800,6.256619873046875,-0.04573686048388481,0.2945900857448578,-0.35532188415527344
1772534801637636600,6.26663671875,0.10450377315282822,0.4035314917564392,-0.18466173112392426
1772534801647654000,6.27665380859375,0.2137698084115982,0.4260658323764801,-0.02478417567908764
1772534801657670700,6.286670654296875,0.24700339138507843,0.34199196100234985,0.1037445068359375
1772534801667687700,6.296687744140625,0.2322569340467453,0.23484952747821808,0.2061568945646286
1772534801677704700,6.30670458984375,0.19108793139457703,0.10217616707086563,0.22181469202041626
1772534801687721700,6.3167216796875,0.13465209305286407,-0.0026224146131426096,0.11104476451873779
1772534801697738800,6.32673876953125,0.10961677134037018,-0.009256082586944103,-0.11405067145824432
1772534801707754500,6.33675439453125,0.13990597426891327,0.09274138510227203,-0.38798847794532776
1772534801717771800,6.346771728515625,0.14098988473415375,0.17232170701026917,-0.6237392425537109
1772534801727788800,6.356788818359375,0.07569156587123871,0.16140113770961761,-0.7492364048957825
1772534801737805800,6.366805908203125,-0.04380793496966362,0.12325482070446014,-0.7263220548629761
1772534801747822800,6.37682275390625,-0.1672787368297577,0.09080367535352707,-0.6128892302513123
1772534801757839600,6.386839599609375,-0.27503955364227295,0.01757206954061985,-0.4765457808971405
1772534801767857000,6.39685693359375,-0.3473300039768219,-0.07427982240915298,-0.3358355164527893
1772534801777873700,6.406873779296875,-0.3644799590110779,-0.1016073152422905,-0.25830239057540894
1772534801787889700,6.4168896484375,-0.3413882255554199,-0.0030162963084876537,-0.2738714814186096
1772534801797906700,6.42690673828125,-0.2804553508758545,0.1559017151594162,-0.37100735306739807
1772534801807923700,6.436923828125,-0.13964977860450745,0.28415608406066895,-0.4355253577232361
1772534801817940700,6.446940673828125,0.04165956377983093,0.32523295283317566,-0.35610803961753845
1772534801827957500,6.45695751953125,0.21227018535137177,0.2773325443267822,-0.1346920281648636
1772534801837974800,6.466974853515625,0.33629465103149414,-0.01841229759156704,0.1624312549829483
1772534801847991800,6.47699169921875,0.40770599246025085,-0.4352015256881714,0.4270362854003906
1772534801858008600,6.487008544921875,0.5339922904968262,-0.7085537314414978,0.4628065228462219
1772534801868025900,6.49702587890625,0.6804834604263306,-0.6527096033096313,0.4188348054885864
1772534801878041900,6.507041748046875,0.7346950173377991,-0.4747265577316284,0.38894376158714294
1772534801888058600,6.51705859375,0.6203540563583374,-0.152724027633667,0.5046112537384033
1772534801898076000,6.527075927734375,0.33731839060783386,0.28135231137275696,0.7680569887161255
1772534801908092700,6.5370927734375,-0.16215215623378754,0.3543753921985626,0.9258133172988892
1772534801918109700,6.547109619140625,-0.7011687755584717,0.03135392814874649,0.8061811923980713
1772534801928126700,6.557126708984375,-1.054051399230957,-0.22110149264335632,0.40603405237197876
1772534801938143700,6.567143798828125,-1.2201565504074097,-0.6082851886749268,-0.11623286455869675
1772534801948160800,6.577160888671875,-1.288109540939331,-1.2388319969177246,-0.5406163930892944
1772534801958177800,6.587177734375,-1.1347761154174805,-1.618747591972351,-0.6758277416229248
1772534801968193800,6.59719384765625,-0.7184582948684692,-1.462984323501587,-0.44005993008613586
1772534801978210600,6.60721044921875,-0.23981499671936035,-0.9282432198524475,0.10633895546197891
1772534801988227800,6.617227783203125,0.09601148217916489,-0.3952503800392151,0.6505865454673767
1772534801998244900,6.627244873046875,0.29726096987724304,-0.11953411996364594,0.9754788875579834
1772534802008261600,6.63726171875,0.4117063283920288,-0.12662504613399506,1.1096824407577515
1772534802018279000,6.64727880859375,0.40584656596183777,-0.30158835649490356,1.07384192943573
1772534802028295700,6.657295654296875,0.30562782287597656,-0.5582275986671448,0.8761019706726074
1772534802038312700,6.667312744140625,0.06916841864585876,-0.7710868716239929,0.5499646067619324
1772534802048329700,6.677329833984375,-0.3020661175251007,-0.8299486041069031,0.09117811173200607
1772534802058345700,6.687345703125,-0.7591053247451782,-0.7988199591636658,-0.48436853289604187
1772534802068362800,6.69736279296875,-1.1883405447006226,-0.5858823657035828,-0.9845386743545532
1772534802078379500,6.707379638671875,-1.413407802581787,-0.26011040806770325,-1.168497920036316
1772534802088396800,6.717396728515625,-1.3782308101654053,0.15392830967903137,-0.9551677703857422
1772534802098413800,6.727413818359375,-1.1615278720855713,0.50172358751297,-0.46901702880859375
1772534802108430600,6.7374306640625,-0.8864350318908691,0.686805248260498,0.14485998451709747
1772534802118447900,6.74744775390625,-0.6964672207832336,0.670884907245636,0.7625711560249329
1772534802128464600,6.757464599609375,-0.6648427248001099,0.5929581522941589,1.2479381561279297
1772534802138480600,6.767480712890625,-0.6873738765716553,0.5749554634094238,1.4535481929779053
1772534802148498000,6.777497802734375,-0.6734442114830017,0.6618133783340454,1.411548376083374
1772534802158514700,6.7875146484375,-0.6363312005996704,0.7986742854118347,1.2379621267318726
1772534802168531700,6.79753173828125,-0.5263045430183411,0.9776360392570496,1.0480908155441284
1772534802178548700,6.807548828125,-0.2538463771343231,1.1419322490692139,0.9519418478012085
1772534802188565800,6.817565673828125,0.13064855337142944,1.1887719631195068,0.9073786735534668
1772534802198582500,6.82758251953125,0.45094987750053406,1.0175999402999878,0.9073437452316284
1772534802208599800,6.837599853515625,0.7001367807388306,0.6645146012306213,0.9485599398612976
1772534802218616800,6.847616943359375,0.9276764988899231,0.2693891227245331,0.9209551811218262
1772534802228632600,6.857632568359375,1.1244406700134277,-0.03928242623806,0.8168604969978333
1772534802238649900,6.86764990234375,1.2525125741958618,-0.16310955584049225,0.7211938500404358
1772534802248667000,6.8776669921875,1.2594655752182007,-0.18587985634803772,0.6142147183418274
1772534802258683600,6.88768359375,1.1348423957824707,-0.11792024224996567,0.44058963656425476
1772534802268701000,6.897700927734375,0.9207274913787842,0.02311836928129196,0.2187936007976532
1772534802278717700,6.9077177734375,0.6461092233657837,0.1154823899269104,0.015721438452601433
1772534802288734700,6.917734619140625,0.37489718198776245,0.13214631378650665,-0.1389075517654419
1772534802298751700,6.927751708984375,0.16417215764522552,0.10774803161621094,-0.26373523473739624
1772534802308768800,6.937768798828125,0.05462969094514847,0.09418082982301712,-0.3781408965587616
1772534802318784800,6.94778466796875,0.026283802464604378,0.11389407515525818,-0.46121475100517273
1772534802328801500,6.957801513671875,0.023388147354125977,0.1521647721529007,-0.509795069694519
1772534802338818800,6.96781884765625,0.13068024814128876,0.20900487899780273,-0.4853123724460602
1772534802348835600,6.977835693359375,0.29217833280563354,0.19787126779556274,-0.3723834156990051
1772534802358852600,6.9878525390625,0.4091512858867645,0.026085397228598595,-0.23567350208759308
1772534802368870000,6.997869873046875,0.4647359848022461,-0.16927291452884674,-0.17909865081310272
1772534802378886700,7.00788671875,0.4864812195301056,-0.27931687235832214,-0.24905748665332794
1772534802388903700,7.017903564453125,0.46357113122940063,-0.30685579776763916,-0.4194476008415222
1772534802398920700,7.027920654296875,0.4649069607257843,-0.24880902469158173,-0.5911914110183716
1772534802408936700,7.037936767578125,0.5568275451660156,-0.1522904634475708,-0.6665641665458679
1772534802418953700,7.04795361328125,0.7084783315658569,-0.14215022325515747,-0.6767563819885254
1772534802428970800,7.057970703125,0.8820932507514954,-0.30544885993003845,-0.6729238033294678
1772534802438987800,7.06798779296875,0.9720165133476257,-0.5917650461196899,-0.6214302778244019
1772534802449004500,7.078004638671875,0.7874024510383606,-0.7625362277030945,-0.5293751955032349
1772534802459021800,7.088021728515625,0.3416644036769867,-0.8472351431846619,-0.44821879267692566
1772534802469038800,7.098038818359375,-0.08902361243963242,-1.1429698467254639,-0.5860664248466492
1772534802479055600,7.1080556640625,-0.41305282711982727,-1.6070477962493896,-0.9711672067642212
1772534802489071900,7.11807177734375,-0.5640513896942139,-1.9597384929656982,-1.4279811382293701
1772534802499088600,7.128088623046875,-0.5263364911079407,-1.7223021984100342,-1.710431456565857
1772534802509105700,7.138105712890625,-0.4273872971534729,-0.9740663170814514,-1.5543131828308105
1772534802519123000,7.148123046875,-0.28168681263923645,-0.12899233400821686,-1.030268907546997
1772534802529139700,7.1581396484375,-0.055446214973926544,0.6135709881782532,-0.5279163122177124
1772534802539156700,7.16815673828125,0.18047016859054565,1.0586440563201904,-0.3309768736362457
1772534802549173800,7.178173828125,0.34699949622154236,1.0633538961410522,-0.336749792098999
1772534802559190800,7.188190673828125,0.4308379292488098,0.663857638835907,-0.48500823974609375
1772534802569207600,7.19820751953125,0.37031468749046326,0.050400324165821075,-0.6659692525863647
1772534802579223600,7.2082236328125,0.21705135703086853,-0.5131258964538574,-0.7407662272453308
1772534802589240800,7.21824072265625,0.03259016573429108,-0.9967588782310486,-0.7192159295082092
1772534802599257600,7.228257568359375,-0.07321295887231827,-1.3450238704681396,-0.5849391222000122
1772534802609274600,7.238274658203125,0.048222389072179794,-1.3326114416122437,-0.3747546970844269
1772534802619292000,7.2482919921875,0.3675905168056488,-0.930525004863739,-0.10260120779275894
1772534802629308700,7.25830859375,0.5962226390838623,-0.4234607219696045,0.22889310121536255
1772534802639325700,7.26832568359375,0.5574291944503784,-0.03374864161014557,0.5722240805625916
1772534802649342700,7.2783427734375,0.26399463415145874,0.1915113776922226,0.8014320135116577
1772534802659358700,7.288358642578125,-0.1733430176973343,0.29985836148262024,0.7976260781288147
1772534802669375700,7.298375732421875,-0.6334373950958252,0.3860246539115906,0.525111734867096
1772534802679392800,7.308392822265625,-0.9974979162216187,0.533481776714325,0.06447672843933105
1772534802689409800,7.318409912109375,-1.2195264101028442,0.7151588797569275,-0.4306853413581848
1772534802699426600,7.328426513671875,-1.3086011409759521,0.8361774682998657,-0.8047204613685608
1772534802709443800,7.33844384765625,-1.2545899152755737,0.8178799152374268,-1.000008463859558
1772534802719460600,7.348460693359375,-1.0914702415466309,0.6428271532058716,-0.9954696297645569
1772534802729477600,7.3584775390625,-0.8577778339385986,0.3704608976840973,-0.811215877532959
1772534802739495000,7.368494873046875,-0.556195855140686,0.07237859070301056,-0.5721311569213867
1772534802749510700,7.3785107421875,-0.1970219910144806,-0.10493067651987076,-0.3876444101333618
1772534802759527700,7.388527587890625,0.15864184498786926,-0.15677683055400848,-0.27356258034706116
1772534802769545000,7.398544921875,0.4708268940448761,-0.22194837033748627,-0.2105974555015564
1772534802779561700,7.408561767578125,0.6762463450431824,-0.3689223825931549,-0.14458833634853363
1772534802789578800,7.418578857421875,0.7422730326652527,-0.5359329581260681,-0.09702135622501373
1772534802799595800,7.428595703125,0.71638423204422,-0.6375098824501038,-0.15805168449878693
1772534802809612800,7.43861279296875,0.6102532148361206,-0.6476759910583496,-0.35453492403030396
1772534802819629600,7.448629638671875,0.48696964979171753,-0.5600305199623108,-0.5740459561347961
1772534802829645600,7.4586455078125,0.39534467458724976,-0.40154796838760376,-0.7308334708213806
1772534802839662800,7.468662841796875,0.3367042541503906,-0.21637864410877228,-0.8098496794700623
1772534802849679600,7.4786796875,0.3006487786769867,-0.04023929685354233,-0.805681586265564
1772534802859696600,7.488696533203125,0.26054370403289795,0.11219365149736404,-0.7594062089920044
1772534802869713700,7.498713623046875,0.20572254061698914,0.2928718030452728,-0.6778038144111633
1772534802879730700,7.508730712890625,0.1470392495393753,0.39331772923469543,-0.5904614329338074
1772534802889747700,7.518747802734375,0.07125953584909439,0.3273530900478363,-0.46528592705726624
1772534802899764700,7.5287646484375,0.002517486223950982,0.1965431571006775,-0.32025977969169617
1772534802909781800,7.53878173828125,-0.032352615147829056,0.08994240313768387,-0.2398940920829773
1772534802919797800,7.5487978515625,-0.07113436609506607,0.009273925796151161,-0.20985069870948792
1772534802929814500,7.558814453125,-0.1013021171092987,0.035756666213274,-0.18874302506446838
1772534802939831800,7.568831787109375,-0.07019160687923431,0.22328367829322815,-0.23363140225410461
1772534802949848600,7.5788486328125,0.01443886011838913,0.4531349837779999,-0.31111472845077515
1772534802959865600,7.588865478515625,0.14223437011241913,0.545366108417511,-0.2437724471092224
1772534802969882600,7.598882568359375,0.2322140634059906,0.4297979772090912,-0.016144348308444023
1772534802979899600,7.608899658203125,0.27070897817611694,0.1787596195936203,0.234535813331604
1772534802989917000,7.6189169921875,0.3478149473667145,-0.029705164954066277,0.42911621928215027
1772534802999932700,7.6289326171875,0.3821209967136383,-0.4027248024940491,0.5986881852149963
1772534803009949700,7.63894970703125,0.3245687484741211,-1.018992304801941,0.758899986743927
1772534803019966700,7.648966796875,0.2636966109275818,-1.7944917678833008,0.7940616607666016
1772534803029983700,7.658983642578125,0.13389788568019867,-2.5744521617889404,0.5577071905136108
1772534803040000800,7.669000732421875,-0.1652962863445282,-2.7791872024536133,0.24432851374149323
1772534803050017500,7.679017578125,-0.6002919673919678,-2.1245687007904053,-0.01423592772334814
1772534803060034800,7.689034912109375,-1.1119065284729004,-0.7786774039268494,-0.238291934132576
1772534803070051600,7.699051513671875,-1.6677367687225342,0.7282286286354065,-0.3829399347305298
1772534803080068600,7.709068603515625,-2.110823631286621,1.9447251558303833,-0.36000797152519226
1772534803090084900,7.7190849609375,-2.2454183101654053,2.5958845615386963,-0.2588198482990265
1772534803100101600,7.7291015625,-2.1168580055236816,2.5532431602478027,-0.1383592039346695
1772534803110118700,7.73911865234375,-1.8201504945755005,1.9435174465179443,-0.04103665053844452
1772534803120135700,7.7491357421875,-1.4381730556488037,1.0185315608978271,0.012945892289280891
1772534803130152700,7.759152587890625,-1.00315523147583,0.10648782551288605,0.1100335568189621
1772534803140169700,7.769169677734375,-0.6431832313537598,-0.6525130867958069,0.24493944644927979
1772534803150186800,7.779186767578125,-0.4034537076950073,-1.1606175899505615,0.35571202635765076
1772534803160203800,7.789203857421875,-0.2947951555252075,-1.2518657445907593,0.3555524945259094
1772534803170219800,7.7992197265625,-0.3059498071670532,-0.7190156579017639,0.19622251391410828
1772534803180236500,7.809236572265625,-0.4260948598384857,0.09024520963430405,-0.016651680693030357
1772534803190253800,7.81925390625,-0.6295949816703796,0.8376376628875732,-0.0873386338353157
1772534803200270600,7.8292705078125,-0.8629432916641235,1.3415844440460205,0.09638912230730057
1772534803210287600,7.83928759765625,-1.1425994634628296,1.5124770402908325,0.4371671974658966
1772534803220304600,7.8493046875,-1.346105933189392,1.4319974184036255,0.7355086207389832
1772534803230321700,7.85932177734375,-1.348498821258545,1.287223219871521,0.8707758784294128
1772534803240338700,7.869338623046875,-1.22109854221344,1.1427890062332153,0.8397263884544373
1772534803250354700,7.879354736328125,-1.0460829734802246,1.0188865661621094,0.6877046227455139
1772534803260371700,7.889371826171875,-0.8509436249732971,0.89003586769104,0.4916408360004425
1772534803270388500,7.899388427734375,-0.6517418026924133,0.7075995206832886,0.32697945833206177
1772534803280405800,7.90940576171875,-0.4702543318271637,0.46004191040992737,0.19971337914466858
1772534803290422800,7.9194228515625,-0.3449874818325043,0.26043450832366943,0.10289575159549713
1772534803300439600,7.929439453125,-0.26313549280166626,0.15221190452575684,0.02984711155295372
1772534803310456800,7.939456787109375,-0.22810053825378418,0.05187491700053215,-0.03900385648012161
1772534803320473600,7.9494736328125,-0.2540661096572876,-0.15305453538894653,-0.13247734308242798
1772534803330490600,7.95949072265625,-0.31374087929725647,-0.4047408401966095,-0.26733264327049255
1772534803340507000,7.9695068359375,-0.3944823443889618,-0.5820639729499817,-0.4400287866592407
1772534803350523600,7.979523681640625,-0.5049630403518677,-0.6771981716156006,-0.6157036423683167
1772534803360540700,7.989540771484375,-0.5952830910682678,-0.68410325050354,-0.7394301295280457
1772534803370557700,7.9995576171875,-0.6442181468009949,-0.6480605602264404,-0.7924352884292603
1772534803380574700,8.00957470703125,-0.6859400272369385,-0.6120128035545349,-0.7675778865814209
1772534803390591700,8.019591796875,-0.7427809238433838,-0.5469608306884766,-0.6931340098381042
1772534803400608800,8.02960888671875,-0.7893558740615845,-0.48910897970199585,-0.6515604853630066
1772534803410625800,8.039625732421875,-0.8362711668014526,-0.46569207310676575,-0.6614474654197693
1772534803420641500,8.0496416015625,-0.8903898000717163,-0.4387128949165344,-0.6715903878211975
1772534803430658600,8.059658447265624,-0.8686336874961853,-0.3660088777542114,-0.6466205716133118
1772534803440675800,8.06967578125,-0.7386777997016907,-0.24728542566299438,-0.579802393913269
1772534803450692600,8.079692626953126,-0.6003342866897583,-0.1679072380065918,-0.47699877619743347
1772534803460709600,8.089709716796875,-0.5407700538635254,-0.12609349191188812,-0.31050488352775574
1772534803470726700,8.0997265625,-0.5326636433601379,-0.1598953902721405,-0.08575911074876785
1772534803480743700,8.10974365234375,-0.5010697841644287,-0.1812928318977356,0.08801960200071335
1772534803490760700,8.1197607421875,-0.4614379405975342,-0.18932998180389404,0.12162816524505615
1772534803500776700,8.129776611328126,-0.40485695004463196,-0.14386741816997528,0.058391403406858444
1772534803510793700,8.139793701171875,-0.35773923993110657,-0.05143682658672333,-0.026021746918559074
1772534803520810500,8.149810546875,-0.3520587086677551,-0.05589229241013527,-0.07734858244657516
1772534803530827800,8.159827880859375,-0.35316523909568787,-0.3447882831096649,0.008529571816325188
1772534803540844800,8.1698447265625,-0.42995136976242065,-0.702038049697876,0.1889219880104065
1772534803550861600,8.179861572265626,-0.507929801940918,-0.8857460618019104,0.3584598898887634
1772534803560878800,8.18987890625,-0.5316657423973083,-1.2096620798110962,0.3998746871948242
1772534803570895600,8.1998955078125,-0.5317861437797546,-1.9470634460449219,0.2568882405757904
1772534803580911600,8.20991162109375,-0.53662109375,-2.5734355449676514,0.0003355582884978503
1772534803590929000,8.219928955078124,-0.630232036113739,-2.8442137241363525,-0.227027028799057
1772534803600945700,8.229945556640626,-0.9268063902854919,-2.5478949546813965,-0.33965104818344116
1772534803610962700,8.239962646484376,-1.455343246459961,-1.4618929624557495,-0.40656667947769165
1772534803620979700,8.249979736328125,-2.0421688556671143,-0.10111436992883682,-0.5219971537590027
1772534803630996700,8.259996826171875,-2.450748920440674,1.0278584957122803,-0.6959236860275269
1772534803641013500,8.270013427734375,-2.599358558654785,1.7259520292282104,-0.8394408822059631
1772534803651030800,8.28003076171875,-2.5062167644500732,1.8269034624099731,-0.9436866044998169
1772534803661047800,8.2900478515625,-2.17931866645813,1.4522457122802734,-0.9614096879959106
1772534803671063600,8.3000634765625,-1.7687783241271973,0.685907781124115,-0.88563072681427
1772534803681080600,8.31008056640625,-1.42514967918396,-0.4375395178794861,-0.7280800342559814
1772534803691097900,8.320097900390625,-1.0851260423660278,-1.5385228395462036,-0.482003390789032
1772534803701114600,8.330114501953124,-0.6975447535514832,-2.2229576110839844,-0.22474949061870575
1772534803711131600,8.340131591796874,-0.23450171947479248,-2.039189100265503,-0.05645634979009628
1772534803721148700,8.350148681640626,0.1482459306716919,-1.2559174299240112,0.06395021826028824
1772534803731165700,8.360165771484375,0.26695021986961365,-0.2924281358718872,0.2310449331998825
1772534803741182700,8.3701826171875,0.15503884851932526,0.48456907272338867,0.45559629797935486
1772534803751198700,8.38019873046875,-0.16338972747325897,0.8480767011642456,0.7808777093887329
1772534803761215700,8.3902158203125,-0.6369128227233887,0.8882995247840881,1.12732994556427
1772534803771232500,8.400232421875,-1.081587791442871,0.7790891528129578,1.276027798652649
1772534803781249800,8.410249755859375,-1.3361608982086182,0.7198838591575623,1.084212064743042
1772534803791266600,8.4202666015625,-1.3870699405670166,0.7632891535758972,0.5957728624343872
1772534803801283600,8.43028369140625,-1.3395804166793823,0.8627496957778931,0.019212044775485992
1772534803811300900,8.44030078125,-1.2335008382797241,0.9923257827758789,-0.47714871168136597
1772534803821317600,8.450317626953124,-1.1174200773239136,1.069515585899353,-0.8133658766746521
1772534803831333600,8.460333740234375,-1.0060749053955078,1.0182790756225586,-0.9358076453208923
1772534803841351000,8.470350830078125,-0.91169273853302,0.8310298323631287,-0.8511438965797424
1772534803851367400,8.480367431640625,-0.8070659041404724,0.6067367792129517,-0.6396875381469727
1772534803861384700,8.490384765625,-0.6959010362625122,0.3945361375808716,-0.4554162621498108
1772534803871401500,8.5004013671875,-0.6162943243980408,0.17989999055862427,-0.4001460671424866
1772534803881418500,8.51041845703125,-0.587653398513794,-0.035833630710840225,-0.45876598358154297
1772534803891435500,8.520435546875,-0.6042973399162292,-0.24716824293136597,-0.5973834991455078
1772534803901452500,8.53045263671875,-0.6793995499610901,-0.4483189284801483,-0.7828457951545715
1772534803911468500,8.540468505859375,-0.7837533950805664,-0.5413780212402344,-0.9675823450088501
1772534803921485600,8.550485595703124,-0.8809340000152588,-0.5429074764251709,-1.1480929851531982
1772534803931502600,8.560502685546876,-0.9656254649162292,-0.5153802633285522,-1.248757004737854
1772534803941519600,8.57051953125,-1.0241670608520508,-0.45905518531799316,-1.2506636381149292
1772534803951536600,8.58053662109375,-1.0575556755065918,-0.31835266947746277,-1.193676233291626
1772534803961553700,8.5905537109375,-1.073093056678772,-0.12282632291316986,-1.0683989524841309
1772534803971570400,8.6005703125,-1.036468505859375,-0.012800750322639942,-0.8259431719779968
1772534803981587700,8.610587646484374,-1.0029464960098267,-0.008295213803648949,-0.5275250673294067
1772534803991603700,8.620603759765626,-0.9699347019195557,-0.00993279181420803,-0.2962987720966339
1772534804001620500,8.630620361328125,-0.8940122723579407,0.08069750666618347,-0.15073971450328827
1772534804011637500,8.640637451171875,-0.7357642650604248,0.2436073273420334,-0.04833530634641647
1772534804021654500,8.650654541015625,-0.5607216358184814,0.3476181626319885,0.06727810949087143
1772534804031671600,8.660671630859374,-0.44593673944473267,0.2814252972602844,0.23703891038894653
1772534804041688600,8.6706884765625,-0.40844687819480896,0.027248132973909378,0.36226552724838257
1772534804051705600,8.68070556640625,-0.43257832527160645,-0.20933325588703156,0.3426108658313751
1772534804061722600,8.69072265625,-0.42482826113700867,-0.31292542815208435,0.1275683492422104
1772534804071738400,8.70073828125,-0.2908153235912323,-0.2862807512283325,-0.17132967710494995
1772534804081755600,8.710755615234374,-0.11514390259981155,-0.43357008695602417,-0.2494947761297226
1772534804091772700,8.720772705078126,0.02310052514076233,-1.003517746925354,0.15871134400367737
1772534804101789400,8.73078955078125,0.027828434482216835,-1.6605994701385498,1.031926155090332
1772534804111806700,8.740806640625,-0.1306980848312378,-2.465023994445801,1.725829839706421
1772534804121823500,8.750823486328125,-0.42636463046073914,-2.9783976078033447,1.721571445465088
1772534804131840500,8.760840576171875,-0.7746390104293823,-2.624401807785034,1.2100762128829956
1772534804141857500,8.770857421875,-1.1793031692504883,-1.668130874633789,0.47610580921173096
1772534804151873500,8.78087353515625,-1.6539769172668457,-0.6030318140983582,-0.01944746822118759
1772534804161890600,8.790890625,-2.0491139888763428,0.32242730259895325,-0.042628154158592224
1772534804171907600,8.800907470703125,-2.2544939517974854,0.8480300903320312,0.1832750141620636
1772534804181924600,8.810924560546875,-2.241989850997925,0.9568737745285034,0.38964948058128357
1772534804191941400,8.82094140625,-2.01452898979187,0.8368546962738037,0.38054147362709045
1772534804201958700,8.830958740234376,-1.6505907773971558,0.6032371520996094,0.19634394347667694
1772534804211975700,8.8409755859375,-1.2341514825820923,0.15183213353157043,-0.03588103502988815
1772534804221992400,8.850992431640625,-0.8354842066764832,-0.5641257166862488,-0.15610651671886444
1772534804232008400,8.861008544921875,-0.5092840194702148,-1.1789939403533936,-0.17534412443637848
1772534804242025700,8.871025634765624,-0.31209877133369446,-1.4969170093536377,-0.16106052696704865
1772534804252042500,8.88104248046875,-0.2735210359096527,-1.4446431398391724,-0.12079645693302155
1772534804262059500,8.8910595703125,-0.30422115325927734,-0.9363352060317993,0.0018588864477351308
1772534804272076500,8.90107666015625,-0.2950199246406555,-0.1628754734992981,0.11505361646413803
1772534804282093600,8.911093505859375,-0.26418396830558777,0.5256605744361877,0.22477026283740997
1772534804292110600,8.921110595703125,-0.24488724768161774,0.8969542384147644,0.41796156764030457
1772534804302127600,8.931127685546874,-0.28588101267814636,0.9303942322731018,0.6515876054763794
1772534804312143600,8.9411435546875,-0.40649452805519104,0.7131990790367126,0.7922627329826355
1772534804322160400,8.951160400390625,-0.5373492240905762,0.5427072048187256,0.723793625831604
1772534804332177700,8.961177734375,-0.6350917220115662,0.5377510786056519,0.42378243803977966
1772534804342194400,8.9711943359375,-0.6908974647521973,0.5853558778762817,0.010454238392412663
1772534804352211500,8.98121142578125,-0.6847322583198547,0.6202903985977173,-0.38492637872695923
1772534804362228700,8.991228759765624,-0.6175153851509094,0.6410854458808899,-0.7003080248832703
1772534804372245500,9.00124560546875,-0.5358341336250305,0.6601366400718689,-0.9023023843765259
1772534804382262500,9.011262451171875,-0.46554532647132874,0.6082601547241211,-0.9503229260444641
1772534804392278800,9.02127880859375,-0.40049096941947937,0.45190274715423584,-0.8524682521820068
1772534804402295600,9.031295654296875,-0.3287368714809418,0.24311411380767822,-0.6832387447357178
1772534804412312600,9.0413125,-0.24359267950057983,0.05949848145246506,-0.5404722690582275
1772534804422329600,9.05132958984375,-0.17877426743507385,-0.08714768290519714,-0.4650920629501343
1772534804432346600,9.0613466796875,-0.17220531404018402,-0.19440463185310364,-0.4664801061153412
1772534804442363400,9.07136328125,-0.23799525201320648,-0.2754933536052704,-0.5555021166801453
1772534804452380700,9.081380615234375,-0.3723040521144867,-0.28464850783348083,-0.7606006860733032
1772534804462397700,9.091397705078125,-0.5431565046310425,-0.18913264572620392,-1.0672810077667236
1772534804472413400,9.101413330078126,-0.6827146410942078,-0.0044054011814296246,-1.386529564857483
1772534804482430500,9.111430419921875,-0.7965530753135681,0.1548047661781311,-1.573251724243164
1772534804492447500,9.121447509765625,-0.8909187316894531,0.25644856691360474,-1.5022249221801758
1772534804502464500,9.131464599609375,-0.956458330154419,0.21679356694221497,-1.1883817911148071
1772534804512481500,9.1414814453125,-0.9636027812957764,0.0625334158539772,-0.7910805344581604
1772534804522498600,9.15149853515625,-0.8813102841377258,-0.05510586127638817,-0.5015475153923035
1772534804532515600,9.161515625,-0.7283178567886353,0.007927964441478252,-0.3536001443862915
1772534804542532600,9.17153271484375,-0.6150608062744141,0.25296273827552795,-0.28205832839012146
1772534804552548600,9.181548583984375,-0.5716062188148499,0.5470231175422668,-0.2919554114341736
1772534804562565600,9.191565673828125,-0.5551910400390625,0.7384461164474487,-0.3624168038368225
1772534804572582400,9.20158251953125,-0.5226001143455505,0.7321967482566833,-0.409341424703598
1772534804582599700,9.211599609375,-0.4045637249946594,0.4455934464931488,-0.33435189723968506
1772534804592616400,9.221616455078125,-0.23119433224201202,-0.047565121203660965,-0.14128415286540985
1772534804602633500,9.231633544921875,-0.14230947196483612,-0.3521133065223694,0.15251576900482178
1772534804612650800,9.241650634765625,-0.18826231360435486,-0.34390518069267273,0.4265478551387787
1772534804622667500,9.25166748046875,-0.34104546904563904,-0.053403835743665695,0.49132898449897766
1772534804632683500,9.26168359375,-0.5304100513458252,0.4170036315917969,0.3761028051376343
1772534804642700800,9.27170068359375,-0.7263715863227844,0.5806325078010559,0.2709540128707886
1772534804652717600,9.281717529296875,-0.9739307761192322,0.15605191886425018,0.23095625638961792
1772534804662734600,9.291734619140625,-1.1534110307693481,-0.6399688124656677,0.240701824426651
1772534804672751600,9.301751708984375,-1.1814022064208984,-1.4429725408554077,0.23691827058792114
1772534804682768600,9.3117685546875,-1.159244418144226,-2.0906453132629395,0.13185256719589233
1772534804692785400,9.321785400390626,-1.1131267547607422,-2.2510228157043457,-0.06081487983465195
1772534804704198700,9.33319873046875,-1.1082366704940796,-1.7028424739837646,-0.183470219373703
1772534804714070500,9.343070556640624,-1.128395438194275,-0.7465426325798035,-0.07411950081586838
1772534804724087600,9.353087646484376,-1.1777443885803223,0.13881860673427582,0.14677852392196655
1772534804734104600,9.3631044921875,-1.2332731485366821,0.6841937899589539,0.339107483625412
1772534804744121600,9.37312158203125,-1.2432818412780762,0.8837910294532776,0.40094929933547974
1772534804754138400,9.383138427734375,-1.2199485301971436,0.738883912563324,0.33595722913742065
1772534804764154600,9.393154541015624,-1.2060377597808838,0.29787349700927734,0.19518707692623138
1772534804774171600,9.403171630859376,-1.2577694654464722,-0.3834022581577301,0.012168781831860542
1772534804784188400,9.4131884765625,-1.3290973901748657,-1.2607446908950806,-0.19795170426368713
1772534804794205700,9.423205810546875,-1.2558742761611938,-1.854099154472351,-0.30068233609199524
1772534804804222500,9.433222412109375,-0.9107102751731873,-1.5694173574447632,-0.2703976631164551
1772534804814239500,9.443239501953125,-0.49514076113700867,-0.7527946829795837,-0.1080566942691803
1772534804824256800,9.4532568359375,-0.2434358298778534,0.05920553207397461,0.17012059688568115
1772534804834273500,9.4632734375,-0.18368647992610931,0.5564051866531372,0.4984910190105438
1772534804844289500,9.47328955078125,-0.2891468405723572,0.7380785942077637,0.814714252948761
1772534804854306600,9.483306640625,-0.48966291546821594,0.7237430214881897,1.0554429292678833
1772534804864323300,9.4933232421875,-0.685599148273468,0.6513655185699463,1.1179002523422241
1772534804874340400,9.50334033203125,-0.7870714068412781,0.6389706134796143,0.9381610751152039
1772534804884357400,9.513357421875,-0.785065233707428,0.663415253162384,0.5953917503356934
1772534804894374400,9.52337451171875,-0.6959567070007324,0.6414892077445984,0.22451752424240112
1772534804904391200,9.53339111328125,-0.5704181790351868,0.5337201356887817,-0.07427342981100082
1772534804914407200,9.5434072265625,-0.4287817180156708,0.37804076075553894,-0.23142950236797333
1772534804924424400,9.553424560546874,-0.29790279269218445,0.18750357627868652,-0.26424628496170044
1772534804934441200,9.563441162109376,-0.18811345100402832,-0.010467554442584515,-0.21965380012989044
1772534804944458200,9.573458251953125,-0.08808218687772751,-0.18779253959655762,-0.1605025976896286
1772534804954475500,9.5834755859375,-0.034497521817684174,-0.3139880299568176,-0.1289244294166565
1772534804964492300,9.5934921875,-0.025416942313313484,-0.3775203824043274,-0.1408625841140747
1772534804974509300,9.60350927734375,-0.059057459235191345,-0.3966118097305298,-0.22042424976825714
1772534804984526300,9.6135263671875,-0.1814669966697693,-0.3300868272781372,-0.32777467370033264
1772534804994542300,9.623542236328126,-0.37000203132629395,-0.22808749973773956,-0.44899803400039673
1772534805004559400,9.633559326171875,-0.5453251004219055,-0.15766365826129913,-0.5987347960472107
1772534805014576400,9.643576416015625,-0.6574649810791016,-0.11438809335231781,-0.7693992257118225
1772534805024593400,9.653593505859375,-0.71646648645401,-0.05222379043698311,-0.9305335283279419
1772534805034610200,9.663610107421874,-0.7167972326278687,0.05663371831178665,-1.0337083339691162
1772534805044627500,9.67362744140625,-0.6942011117935181,0.16819167137145996,-1.0717215538024902
1772534805055270400,9.6842705078125,-0.6796208620071411,0.2815872132778168,-1.0056480169296265
1772534805065287400,9.694287353515625,-0.6699668765068054,0.3834688365459442,-0.7872114777565002
1772534805075304200,9.70430419921875,-0.6590428948402405,0.4862801730632782,-0.41626644134521484
1772534805085321500,9.714321533203124,-0.6625675559043884,0.5631869435310364,0.0402454249560833
1772534805095338200,9.724338134765626,-0.7062852382659912,0.607008159160614,0.4540404677391052
1772534805105354200,9.734354248046875,-0.744108259677887,0.644067645072937,0.695098340511322
1772534805115371500,9.74437158203125,-0.6640693545341492,0.7067941427230835,0.7622454166412354
1772534805125388300,9.75438818359375,-0.512408971786499,0.6778293251991272,0.6630826592445374
1772534805135405300,9.7644052734375,-0.38476258516311646,0.4057437777519226,0.3978080749511719
1772534805145422300,9.77442236328125,-0.2668849527835846,-0.055206529796123505,0.04849136993288994
1772534805155439400,9.784439453125,-0.1643657684326172,-0.4526870548725128,-0.18839333951473236
1772534805165456400,9.794456298828125,-0.09249318391084671,-0.6352656483650208,-0.25183969736099243
1772534805175473400,9.804473388671875,-0.17158614099025726,-0.4477143883705139,-0.2250688076019287
1772534805185489400,9.814489501953124,-0.35649341344833374,0.2959858477115631,-0.16569308936595917
1772534805195506400,9.82450634765625,-0.5188338160514832,0.7910459041595459,-0.06923553347587585
1772534805205523200,9.834523193359376,-0.7062404751777649,0.8408291935920715,0.1025567352771759
1772534805215540500,9.84454052734375,-0.9435545206069946,0.593336284160614,0.2520817816257477
1772534805225557200,9.85455712890625,-1.1950716972351074,-0.101307712495327,0.24699194729328156
1772534805235574300,9.86457421875,-1.3885170221328735,-0.8678587079048157,0.16149941086769104
1772534805245591300,9.87459130859375,-1.3043712377548218,-1.2459865808486938,-0.020497551187872887
1772534805255608300,9.8846083984375,-1.0284725427627563,-1.0434718132019043,-0.23012934625148773
1772534805265624300,9.894624267578125,-0.7057595252990723,-0.5439061522483826,-0.3294391632080078
1772534805275641300,9.904641357421875,-0.5114039182662964,-0.28979480266571045,-0.4029402732849121
1772534805285658400,9.914658447265625,-0.5210139155387878,-0.46158093214035034,-0.42461228370666504
1772534805295675400,9.92467529296875,-0.4947032034397125,-0.7751867771148682,-0.3637646436691284
1772534805305692400,9.9346923828125,-0.3096263110637665,-0.9257895946502686,-0.289081335067749
1772534805315709400,9.94470947265625,0.01937662810087204,-0.8862462043762207,-0.1627713441848755
1772534805325726200,9.954726318359375,0.3817574679851532,-0.9020792245864868,0.11923132091760635
1772534805335742500,9.964742431640625,0.6351631283760071,-1.1194043159484863,0.5316867828369141
1772534805345759500,9.974759521484375,0.6957247257232666,-1.3864907026290894,0.9017229080200195
1772534805355776300,9.9847763671875,0.5486705899238586,-1.5938385725021362,1.0398520231246948
1772534805365793500,9.99479345703125,0.31537047028541565,-1.496452808380127,0.9521077871322632
1772534805375810300,10.004810302734375,-0.019604593515396118,-1.2607873678207397,0.6045993566513062
1772534805385827300,10.014827392578125,-0.4150749444961548,-0.8723357319831848,0.12014558166265488
1772534805395844400,10.02484423828125,-0.728712260723114,-0.3316069543361664,-0.3700401186943054
1772534805405861400,10.034861328125,-0.8504884839057922,0.23301567137241364,-0.8171569108963013
1772534805415877400,10.04487744140625,-0.8105030059814453,0.6726356744766235,-1.1551601886749268
1772534805425894100,10.05489404296875,-0.7576075196266174,0.8429402709007263,-1.3326770067214966
1772534805435911400,10.064911376953125,-0.6542827486991882,0.6850244402885437,-1.3175240755081177
1772534805445928400,10.074928466796875,-0.47512924671173096,0.3213844299316406,-1.1440426111221313
1772534805455945200,10.0849453125,-0.28241756558418274,-0.01847674511373043,-0.8826472163200378
1772534805465962500,10.09496240234375,-0.10384304076433182,-0.23850364983081818,-0.6081323027610779
1772534805475979300,10.104979248046876,0.08218169212341309,-0.29757896065711975,-0.4222889244556427
1772534805485996300,10.114996337890625,0.2162145972251892,-0.2650441825389862,-0.3649342954158783
1772534805496012500,10.125012451171875,0.2474055290222168,-0.2029685527086258,-0.3688930869102478
1772534805506029300,10.135029296875,0.14464479684829712,-0.1683594435453415,-0.4295566976070404
1772534805516046300,10.14504638671875,0.014365357346832752,-0.05787048861384392,-0.5261162519454956
1772534805526063400,10.1550634765625,-0.09888236969709396,0.06742192059755325,-0.6399096846580505
1772534805536080400,10.165080322265625,-0.21334689855575562,0.09591934084892273,-0.6913422346115112
1772534805546097200,10.17509716796875,-0.3114103376865387,0.10900957137346268,-0.5246962308883667
1772534805556114400,10.185114501953125,-0.2681398391723633,0.16027168929576874,-0.2140963077545166
1772534805566130400,10.19513037109375,-0.2304696887731552,0.28630951046943665,-0.02167094126343727
1772534805576147200,10.205147216796876,-0.28531935811042786,0.4775649607181549,-0.03398140147328377
1772534805586164500,10.21516455078125,-0.42675530910491943,0.6257805228233337,-0.2176082283258438
1772534805596181500,10.225181396484375,-0.5553561449050903,0.6218662261962891,-0.38385018706321716
1772534805606198300,10.2351982421875,-0.5707569718360901,0.5568227767944336,-0.4479080140590668
1772534805616215600,10.245215576171875,-0.5002420544624329,0.482077419757843,-0.463657945394516
1772534805626232300,10.255232421875,-0.4308858811855316,0.4139431118965149,-0.41162776947021484
1772534805636249300,10.265249267578126,-0.40350672602653503,0.417671263217926,-0.2598438262939453
1772534805646265300,10.275265380859375,-0.41920578479766846,0.355838805437088,-0.08513326942920685
1772534805656282400,10.285282470703125,-0.43431708216667175,0.250005304813385,-0.027242805808782578
1772534805666299400,10.29529931640625,-0.3907592296600342,0.42900195717811584,-0.1278059035539627
1772534805676316200,10.305316162109374,-0.33205676078796387,0.8723471760749817,-0.2726570963859558
1772534805686333400,10.31533349609375,-0.2287950962781906,1.197356939315796,-0.2916254699230194
1772534805696350500,10.3253505859375,-0.28013497591018677,1.2567979097366333,-0.06789995729923248
1772534805706367200,10.3353671875,-0.5756452083587646,0.916861891746521,0.35446035861968994
1772534805716384500,10.345384521484375,-0.7983916997909546,0.7668883800506592,0.7555289268493652
1772534805726400300,10.355400146484374,-0.87284916639328,0.5615088939666748,0.8368784189224243
1772534805736417300,10.365417236328126,-0.8353268504142761,0.1799764186143875,0.6081756949424744
1772534805746434600,10.3754345703125,-0.6094005107879639,-0.23456910252571106,0.25007906556129456
1772534805756451300,10.385451416015625,-0.3286985158920288,-0.8815683722496033,-0.08555964380502701
1772534805766468400,10.39546826171875,-0.20752575993537903,-1.4340877532958984,-0.28963395953178406
1772534805776485400,10.4054853515625,-0.33984678983688354,-1.3904366493225098,-0.31369587779045105
1772534805786502400,10.41550244140625,-0.5622398853302002,-0.662065863609314,-0.10339962691068649
1772534805796518400,10.425518310546876,-0.625465452671051,0.003087935270741582,0.2855505347251892
1772534805806535200,10.43553515625,-0.6572455167770386,0.21972809731960297,0.6573137044906616
1772534805816552400,10.445552490234375,-0.665735125541687,-0.009089368395507336,0.7683179974555969
1772534805826569200,10.4555693359375,-0.6153377294540405,-0.3232795298099518,0.5959267616271973
1772534805836586200,10.465586181640624,-0.5448558330535889,-0.5377036929130554,0.2483653426170349
1772534805846603500,10.475603515625,-0.4476478099822998,-0.8056549429893494,-0.07657813280820847
1772534805856620800,10.485620849609376,-0.2921522259712219,-0.9103877544403076,-0.15534192323684692
1772534805866637800,10.495637939453125,0.01179300993680954,-0.8845412731170654,0.011606588959693909
1772534805876653600,10.505653564453125,0.27291327714920044,-0.677984356880188,0.21476849913597107
1772534805886670800,10.5156708984375,0.41134360432624817,-0.3894747793674469,0.3355231285095215
1772534805896687900,10.52568798828125,0.420325368642807,-0.14118748903274536,0.3883940875530243
1772534805906704600,10.53570458984375,0.3166077733039856,0.11873863637447357,0.4173567593097687
1772534805916722000,10.545721923828125,0.23985333740711212,0.24273382127285004,0.382966011762619
1772534805926738700,10.55573876953125,0.06703096628189087,0.06918599456548691,0.2520436942577362
1772534805936755700,10.565755615234375,-0.1970997452735901,-0.06597927957773209,0.07409526407718658
1772534805946771700,10.575771728515624,-0.3500826358795166,-0.1158810630440712,-0.18228858709335327
1772534805956788700,10.585788818359376,-0.36848536133766174,-0.07105287164449692,-0.46315672993659973
1772534805966805800,10.5958056640625,-0.3856845796108246,0.07200334966182709,-0.7541638016700745
1772534805976822500,10.605822509765625,-0.37987276911735535,0.18582019209861755,-0.9533464312553406
1772534805986839800,10.61583984375,-0.26603540778160095,0.17103858292102814,-0.9166155457496643
1772534805996856600,10.625856689453125,-0.044203680008649826,0.0007323693134821951,-0.6442517042160034
1772534806006873900,10.635873779296874,0.22257554531097412,-0.20082710683345795,-0.24806839227676392
1772534806016891000,10.645890869140626,0.4795040190219879,-0.39817026257514954,0.09158957004547119
1772534806026906600,10.65590673828125,0.5594963431358337,-0.5229737162590027,0.1784839928150177
1772534806036923600,10.665923583984375,0.4900413453578949,-0.4672470688819885,0.022885873913764954
1772534806046941000,10.67594091796875,0.3418087363243103,-0.4107409417629242,-0.23912842571735382
1772534806056957700,10.685957763671874,0.2004832923412323,-0.33649012446403503,-0.4321540892124176
1772534806066974700,10.695974609375,0.11118777096271515,-0.16506458818912506,-0.5644809603691101
1772534806076991700,10.70599169921875,0.01647830940783024,0.044867873191833496,-0.6611896753311157
1772534806087008800,10.7160087890625,-0.11076992005109787,0.1546071469783783,-0.6801987886428833
1772534806097024800,10.726024658203125,-0.20052111148834229,0.15449076890945435,-0.6132935285568237
1772534806107041800,10.736041748046874,-0.20299892127513885,0.1642235666513443,-0.39708957076072693
1772534806117058800,10.746058837890626,-0.13570483028888702,0.18653765320777893,-0.12732386589050293
1772534806127075600,10.75607568359375,-0.06137547641992569,0.30870911478996277,0.054964449256658554
1772534806137092900,10.7660927734375,0.023314643651247025,0.6267608404159546,0.04325266554951668
1772534806147109600,10.776109619140625,0.10337911546230316,0.9957468509674072,-0.11833809316158295
1772534806157126700,10.786126708984375,0.12254482507705688,1.1593866348266602,-0.23429745435714722
1772534806167144000,10.79614404296875,0.10128401219844818,1.0216737985610962,-0.17371852695941925
1772534806177159700,10.80615966796875,0.07946020364761353,0.587196946144104,-0.06996283680200577
1772534806187176700,10.8161767578125,0.08520544320344925,0.08611224591732025,0.002843989757820964
1772534806197193700,10.82619384765625,0.1934293806552887,-0.2880299389362335,0.06627728790044785
1772534806207210800,10.836210693359375,0.39762434363365173,-0.36623817682266235,0.16022562980651855
1772534806217227800,10.846227783203124,0.5826407670974731,-0.18643298745155334,0.2362990826368332
1772534806227244500,10.85624462890625,0.6154370903968811,0.0008905610884539783,0.23670068383216858
1772534806237261800,10.86626171875,0.5664618015289307,0.0854528471827507,0.2222578376531601
