time,seconds_elapsed,z,y,x
1772534795428419800,0.057419921875,0.609627902507782,0.3386743664741516,-0.22415584325790405
1772534795438436900,0.067436767578125,0.724399209022522,0.3393119275569916,-0.2057347595691681
1772534795448453600,0.07745361328125,0.8472449779510498,0.3008005917072296,-0.17930762469768524
1772534795458471000,0.087470947265625,0.9485476613044739,0.23217998445034027,-0.16209961473941803
1772534795468487000,0.09748681640625,1.0035215616226196,0.13329389691352844,-0.14742134511470795
1772534795478503700,0.107503662109375,0.990466296672821,0.035660017281770706,-0.12725749611854553
1772534795488520700,0.117520751953125,0.9499185085296631,-0.0717971995472908,-0.08089030534029007
1772534795498537700,0.127537841796875,0.921617329120636,-0.1611398607492447,0.00561849121004343
1772534795508554800,0.1375546875,0.8973504900932312,-0.23137062788009644,0.11381000280380249
1772534795518571500,0.147571533203125,0.8565316796302795,-0.3111320436000824,0.22106002271175385
1772534795528588800,0.1575888671875,0.7877117395401001,-0.36385634541511536,0.317909300327301
1772534795538605600,0.16760546875,0.7793368697166443,-0.38028672337532043,0.42422643303871155
1772534795548622800,0.177622802734375,0.831352174282074,-0.2950536906719208,0.5601383447647095
1772534795558638800,0.187638916015625,0.8760626316070557,-0.09757472574710846,0.6923629641532898
1772534795568655600,0.197655517578125,0.8915156722068787,0.041848406195640564,0.792216420173645
1772534795578672600,0.207672607421875,0.8842950463294983,0.06712819635868073,0.8585131168365479
1772534795588690000,0.21768994140625,0.8602216243743896,0.02478213980793953,0.9027971029281616
1772534795598706700,0.227706787109375,0.8406367301940918,-0.0026920950040221214,0.9066483378410339
1772534795608723700,0.2377236328125,0.8441697359085083,0.07201317697763443,0.8658897280693054
1772534795618740700,0.24774072265625,0.8909428119659424,0.2020324319601059,0.794338047504425
1772534795628757800,0.2577578125,0.9753514528274536,0.2898801565170288,0.6928701400756836
1772534795638773800,0.267773681640625,1.0510940551757812,0.3327293395996094,0.5688238143920898
1772534795648790800,0.277790771484375,1.1004078388214111,0.41229045391082764,0.4589059352874756
1772534795658807800,0.287807861328125,1.1331477165222168,0.5447701811790466,0.3787253201007843
1772534795668824600,0.297824462890625,1.169867992401123,0.6649289131164551,0.31931331753730774
1772534795678841900,0.307841796875,1.2058827877044678,0.7209247946739197,0.27843379974365234
1772534795688858600,0.317858642578125,1.2461349964141846,0.6572632193565369,0.24557125568389893
1772534795698875600,0.327875732421875,1.2662451267242432,0.5010379552841187,0.23279394209384918
1772534795708893000,0.337892822265625,1.2811541557312012,0.29354944825172424,0.2536400556564331
1772534795718909700,0.34790966796875,1.311116099357605,0.04291803762316704,0.29702454805374146
1772534795728925700,0.35792578125,1.3505959510803223,-0.18015573918819427,0.35560017824172974
1772534795738942700,0.367942626953125,1.3739547729492188,-0.3114354610443115,0.4145050346851349
1772534795748959700,0.377959716796875,1.357291579246521,-0.4076288342475891,0.418308824300766
1772534795758976800,0.387976806640625,1.2944998741149902,-0.43744131922721863,0.3450298309326172
1772534795768993500,0.39799365234375,1.1981334686279297,-0.15496455132961273,0.11930784583091736
1772534795779010800,0.4080107421875,1.1188660860061646,0.23386788368225098,-0.15909741818904877
1772534795789027600,0.418027587890625,1.0940529108047485,0.4356957972049713,-0.31407472491264343
1772534795799044900,0.428044921875,1.1401946544647217,0.4490596055984497,-0.4263326823711395
1772534795809060900,0.438060791015625,1.2226715087890625,0.3996596932411194,-0.5189286470413208
1772534795819077600,0.44807763671875,1.2937933206558228,0.3947317898273468,-0.5321168899536133
1772534795829094700,0.4580947265625,1.3294209241867065,0.38199999928474426,-0.5065094828605652
1772534795839111700,0.468111572265625,1.293346643447876,0.3265726566314697,-0.47215449810028076
1772534795849128700,0.478128662109375,1.1783928871154785,0.26809877157211304,-0.42230045795440674
1772534795859146000,0.48814599609375,1.031543254852295,0.20557492971420288,-0.3922376334667206
1772534795869162800,0.498162841796875,0.902695894241333,0.14994515478610992,-0.38797909021377563
1772534795879179800,0.5081796875,0.8378684520721436,0.16465938091278076,-0.3758244216442108
1772534795889196800,0.51819677734375,0.8538665771484375,0.27730438113212585,-0.3479011058807373
1772534795899212800,0.528212890625,0.9435602426528931,0.33625638484954834,-0.3368612229824066
1772534795909229800,0.538229736328125,1.110034704208374,0.3250436782836914,-0.3638326823711395
1772534795919246800,0.548246826171875,1.327842116355896,0.3258298337459564,-0.4052043557167053
1772534795929263900,0.558263916015625,1.482506513595581,0.3258412182331085,-0.4259944260120392
1772534795939280600,0.56828076171875,1.5085475444793701,0.2693904638290405,-0.4182169437408447
1772534795949298000,0.5782978515625,1.4226473569869995,0.14910803735256195,-0.40471795201301575
1772534795959315000,0.58831494140625,1.3043169975280762,-0.0020567134488373995,-0.3844457268714905
1772534795969331700,0.598331787109375,1.2295713424682617,-0.1025443747639656,-0.32136887311935425
1772534795979347700,0.60834765625,1.2384450435638428,-0.17779172956943512,-0.20101340115070343
1772534795989364700,0.61836474609375,1.2904245853424072,-0.2967641353607178,-0.03488842397928238
1772534795999381800,0.6283818359375,1.3682360649108887,-0.4677542448043823,0.1780661940574646
1772534796009398800,0.638398681640625,1.4554067850112915,-0.6456767916679382,0.38466203212738037
1772534796019415800,0.648415771484375,1.4563418626785278,-0.7011134028434753,0.5085818767547607
1772534796029432800,0.658432861328125,1.4475752115249634,-0.5968085527420044,0.5404161214828491
1772534796039449900,0.668449951171875,1.4270027875900269,-0.36309537291526794,0.4734379053115845
1772534796049467000,0.678466796875,1.3797037601470947,-0.07122751325368881,0.34419113397598267
1772534796059483600,0.688483642578125,1.3580774068832397,0.20581048727035522,0.20802904665470123
1772534796069499600,0.698499755859375,1.3212568759918213,0.40822747349739075,0.06578269600868225
1772534796079517000,0.708516845703125,1.202939748764038,0.6824417114257812,-0.015763292089104652
1772534796089533700,0.71853369140625,1.0426123142242432,0.8770266175270081,-0.03412298858165741
1772534796099550700,0.72855078125,0.9004414677619934,0.9260551333427429,-0.06117963790893555
1772534796109568000,0.738568115234375,0.7303287386894226,0.8395963907241821,-0.10498891770839691
1772534796119584800,0.748584716796875,0.6877483129501343,0.7401523590087891,-0.1551586240530014
1772534796129601800,0.758601806640625,0.7325573563575745,0.7109119892120361,-0.29031816124916077
1772534796139618800,0.768618896484375,0.7775884866714478,0.7647669315338135,-0.4525773525238037
1772534796149634800,0.778634765625,0.6930368542671204,0.6714370846748352,-0.568224310874939
1772534796159651800,0.78865185546875,0.666680634021759,0.6161890029907227,-0.390287309885025
1772534796169668900,0.7986689453125,0.7607268691062927,0.36623698472976685,-0.22045128047466278
1772534796179686000,0.808685791015625,0.8259258270263672,0.20441822707653046,-0.21578435599803925
1772534796189702700,0.81870263671875,0.8313695788383484,0.15366137027740479,-0.2301866114139557
1772534796199720000,0.828719970703125,0.8226751685142517,0.20580926537513733,-0.19221419095993042
1772534796209736700,0.83873681640625,0.7727013230323792,0.3314804434776306,-0.1460479348897934
1772534796219753700,0.848753662109375,0.6565824151039124,0.263461709022522,-0.0554189532995224
1772534796229771000,0.85877099609375,0.5820945501327515,0.018270142376422882,0.13710379600524902
1772534796239786800,0.868786865234375,0.5237169861793518,-0.45857417583465576,0.3233650028705597
1772534796249803800,0.8788037109375,0.4079359471797943,-0.9730475544929504,0.47587504982948303
1772534796259820800,0.88882080078125,0.3550058901309967,-1.2566814422607422,0.4303877353668213
1772534796269837800,0.898837890625,0.36233410239219666,-1.235264778137207,0.18019939959049225
1772534796279854800,0.908854736328125,0.3499589264392853,-1.1621958017349243,-0.0972447320818901
1772534796289872000,0.918871826171875,0.2126137614250183,-1.186000943183899,-0.24886880815029144
1772534796299889000,0.928888916015625,-0.07122807204723358,-1.3228881359100342,-0.26644301414489746
1772534796309905700,0.93890576171875,-0.37625524401664734,-1.5340030193328857,-0.23193466663360596
1772534796319921700,0.948921630859375,-0.5492473244667053,-1.6025334596633911,-0.19158537685871124
1772534796329939000,0.95893896484375,-0.5985085368156433,-1.5577831268310547,-0.17386546730995178
1772534796339955700,0.968955810546875,-0.5808677673339844,-1.3784490823745728,-0.133330300450325
1772534796349972700,0.97897265625,-0.5999767184257507,-1.1120139360427856,-0.07713213562965393
1772534796359989800,0.98898974609375,-0.6937136054039001,-0.8159743547439575,-0.03204188868403435
1772534796370006800,0.9990068359375,-0.8177754878997803,-0.49239468574523926,-0.06381798535585403
1772534796380023800,1.00902392578125,-0.9530627727508545,-0.19125054776668549,-0.1523102968931198
1772534796390040800,1.019040771484375,-1.0802429914474487,0.2046845257282257,-0.33241748809814453
1772534796400057900,1.029057861328125,-1.2412827014923096,0.6649466753005981,-0.688713550567627
1772534796410073900,1.039073974609375,-1.397348165512085,1.0641453266143799,-1.1432685852050781
1772534796420091000,1.0490908203125,-1.5985044240951538,1.5635625123977661,-1.5710906982421875
1772534796430108000,1.05910791015625,-1.7948306798934937,1.8191460371017456,-1.6848348379135132
1772534796440124700,1.069124755859375,-1.859205961227417,1.7877601385116577,-1.4431462287902832
1772534796450142000,1.079141845703125,-1.8536783456802368,1.5279345512390137,-0.9850060939788818
1772534796460158700,1.08915869140625,-1.8487647771835327,0.9456737637519836,-0.5512990951538086
1772534796470175700,1.09917578125,-1.789185881614685,0.30383795499801636,-0.1725563108921051
1772534796480193000,1.109193115234375,-1.5953149795532227,0.04395844414830208,0.1064569428563118
1772534796490208800,1.119208740234375,-1.4020110368728638,0.005820031743496656,0.22340284287929535
1772534796500225800,1.129225830078125,-1.2713747024536133,0.13235506415367126,0.22588065266609192
1772534796510242800,1.139242919921875,-1.1771812438964844,0.3677760660648346,0.19593241810798645
1772534796520259800,1.149259765625,-1.1388375759124756,0.5918384790420532,0.24159950017929077
1772534796530276900,1.15927685546875,-1.1377800703048706,0.7273815274238586,0.35602253675460815
1772534796540294000,1.1692939453125,-1.0930982828140259,0.7868261933326721,0.44312310218811035
1772534796550311000,1.179310791015625,-1.0009219646453857,0.750877857208252,0.4757697880268097
1772534796560327700,1.18932763671875,-0.9028828740119934,0.7067834138870239,0.4532061517238617
1772534796570345000,1.199344970703125,-0.8310239315032959,0.652207612991333,0.3452427089214325
1772534796580361000,1.20936083984375,-0.8030271530151367,0.49472901225090027,0.20496095716953278
1772534796590377700,1.219377685546875,-0.8189754486083984,0.2615261375904083,0.15684591233730316
1772534796600394800,1.229394775390625,-0.8577651977539062,0.10340279340744019,0.22280414402484894
1772534796610411800,1.239411865234375,-0.9170395731925964,0.10498325526714325,0.28644973039627075
1772534796620428800,1.2494287109375,-0.9788472652435303,0.2956445515155792,0.24871300160884857
1772534796630445800,1.25944580078125,-0.9884666800498962,0.5669358372688293,0.1362128108739853
1772534796640462800,1.269462890625,-0.978854775428772,0.7653136253356934,0.06634292006492615
1772534796650479900,1.27947998046875,-0.9671080112457275,0.8322312235832214,0.1553962081670761
1772534796660496600,1.28949658203125,-0.9145209789276123,0.7560373544692993,0.39911726117134094
1772534796670513000,1.299512939453125,-0.8488567471504211,0.5689385533332825,0.6620787382125854
1772534796680530000,1.309530029296875,-0.7751535177230835,0.4817882180213928,0.7803235650062561
1772534796690546700,1.319546630859375,-0.6773815751075745,0.5211442708969116,0.7278278470039368
1772534796700564000,1.32956396484375,-0.5831259489059448,0.6236259341239929,0.6572434306144714
1772534796710580700,1.339580810546875,-0.5202246904373169,0.6860434412956238,0.6718887090682983
1772534796720597800,1.34959765625,-0.45347657799720764,0.7341582775115967,0.7293291091918945
1772534796730614800,1.35961474609375,-0.36948642134666443,0.7190926671028137,0.7930224537849426
1772534796740631800,1.3696318359375,-0.29932302236557007,0.5834224820137024,0.8273082375526428
1772534796750647800,1.379647705078125,-0.2209049016237259,0.4172121286392212,0.814919114112854
1772534796760664600,1.38966455078125,-0.13067220151424408,0.23030376434326172,0.7533559203147888
1772534796770681900,1.399681884765625,-0.07429177314043045,-0.05019436404109001,0.6189792156219482
1772534796780699000,1.409698974609375,-0.02378864772617817,-0.3960804045200348,0.4977726340293884
1772534796790716000,1.4197158203125,0.06492158770561218,-0.6855847835540771,0.481557160615921
1772534796800733000,1.42973291015625,0.2037479132413864,-0.8433583974838257,0.5817751288414001
1772534796810749700,1.439749755859375,0.3176298439502716,-0.8748693466186523,0.7640882134437561
1772534796820767000,1.44976708984375,0.419028103351593,-0.909639298915863,0.994529128074646
1772534796830783700,1.45978369140625,0.463458776473999,-0.9963047504425049,1.1044896841049194
1772534796840799500,1.469799560546875,0.33542731404304504,-0.9930517077445984,0.9380765557289124
1772534796850816800,1.479816650390625,0.10850467532873154,-0.831992506980896,0.49371954798698425
1772534796860833500,1.48983349609375,-0.1635635942220688,-0.47998514771461487,-0.005316331051290035
1772534796870850800,1.499850830078125,-0.40657615661621094,-0.17484945058822632,-0.37531229853630066
1772534796880867800,1.509867919921875,-0.6032870411872864,0.018838269636034966,-0.5420551896095276
1772534796890884600,1.519884521484375,-0.6856253147125244,-0.0007140837842598557,-0.6371890902519226
1772534796900902000,1.52990185546875,-0.650981068611145,-0.18425515294075012,-0.7241780161857605
1772534796910918700,1.539918701171875,-0.5409889221191406,-0.32336241006851196,-0.7858171463012695
1772534796920934700,1.5499345703125,-0.3405192196369171,-0.45033419132232666,-0.823513388633728
1772534796930951700,1.55995166015625,-0.13789960741996765,-0.4588882029056549,-0.863205075263977
1772534796940968700,1.56996875,0.10920285433530807,-0.48597973585128784,-0.9581552743911743
1772534796950985700,1.57998583984375,0.38616034388542175,-0.5791982412338257,-0.9400687217712402
1772534796961002500,1.59000244140625,0.664499044418335,-0.6389417052268982,-0.7165698409080505
1772534796971019800,1.600019775390625,0.9238871932029724,-0.6155290007591248,-0.4260357916355133
1772534796981036500,1.61003662109375,1.0641186237335205,-0.4826503396034241,-0.2133842557668686
1772534796991053600,1.620053466796875,1.106019377708435,-0.33523449301719666,-0.15180879831314087
1772534797001070800,1.63007080078125,1.1164029836654663,-0.20589198172092438,-0.22999148070812225
1772534797011086600,1.640086669921875,1.0859873294830322,-0.0957818254828453,-0.39671099185943604
1772534797021103600,1.650103515625,1.0014569759368896,-0.05091501399874687,-0.549592912197113
1772534797031121000,1.660120849609375,0.8683168888092041,-0.1185760498046875,-0.6589773297309875
1772534797041137700,1.6701376953125,0.6766310930252075,-0.268231600522995,-0.7113965749740601
1772534797051154700,1.68015478515625,0.4155571162700653,-0.38338908553123474,-0.7325646877288818
1772534797061171700,1.690171630859375,0.15053556859493256,-0.30301353335380554,-0.7720441818237305
1772534797071188700,1.700188720703125,-0.03829574212431908,-0.10423580557107925,-0.8739044070243835
1772534797081205500,1.71020556640625,-0.14508797228336334,0.16714857518672943,-0.9653072953224182
1772534797091221500,1.720221435546875,-0.17507663369178772,0.4068543016910553,-0.9737597107887268
1772534797101238800,1.73023876953125,-0.13908107578754425,0.525333821773529,-0.8819839954376221
1772534797111255600,1.740255615234375,-0.05572722479701042,0.5192392468452454,-0.7319557666778564
1772534797121272800,1.75027294921875,0.07853417843580246,0.3958113193511963,-0.5621736645698547
1772534797131289600,1.76028955078125,0.24531181156635284,0.15580104291439056,-0.4068371653556824
1772534797141306600,1.770306640625,0.3780685067176819,-0.12734678387641907,-0.31520766019821167
1772534797151324000,1.780323974609375,0.4748299717903137,-0.3201659917831421,-0.2850029766559601
1772534797161340700,1.790340576171875,0.5596063733100891,-0.41446638107299805,-0.31043723225593567
1772534797171357700,1.800357666015625,0.5879983305931091,-0.4108092188835144,-0.3537479043006897
1772534797181373700,1.810373779296875,0.5355892181396484,-0.3359261751174927,-0.40752965211868286
1772534797191390700,1.820390625,0.43861129879951477,-0.19997934997081757,-0.4729948341846466
1772534797201407700,1.83040771484375,0.33097296953201294,-0.09029386192560196,-0.5520832538604736
1772534797211424500,1.840424560546875,0.21382179856300354,-0.040509194135665894,-0.6117326021194458
1772534797221441800,1.85044189453125,0.08916215598583221,-0.005178101826459169,-0.6332274675369263
1772534797231458600,1.86045849609375,0.01624124124646187,0.025142697617411613,-0.6006017327308655
1772534797241475600,1.8704755859375,-0.03574339672923088,0.020321311429142952,-0.5224915146827698
1772534797251492900,1.880492919921875,-0.09606435149908066,-0.007940081879496574,-0.41506877541542053
1772534797261509600,1.890509521484375,-0.13698196411132812,0.11043290048837662,-0.30502083897590637
1772534797271525600,1.900525634765625,-0.1317874938249588,0.374207079410553,-0.22283421456813812
1772534797281542700,1.910542724609375,-0.12642282247543335,0.5540890097618103,-0.1728581339120865
1772534797291559700,1.9205595703125,-0.18279993534088135,0.5917875170707703,-0.11438024044036865
1772534797301576700,1.93057666015625,-0.2386927604675293,0.5706481337547302,-0.08110777288675308
1772534797311593700,1.94059375,-0.2720218300819397,0.5020707845687866,-0.09688267856836319
1772534797321610800,1.95061083984375,-0.2622264623641968,0.4310850203037262,-0.09727922827005386
1772534797331627500,1.96062744140625,-0.1547936499118805,0.30697470903396606,0.014338001608848572
1772534797341644800,1.970644775390625,-0.004994298797100782,0.15751570463180542,0.2239932268857956
1772534797351660800,1.980660888671875,0.10589431971311569,-0.10903170704841614,0.482943058013916
1772534797361677600,1.990677490234375,0.09564994275569916,-0.4354468286037445,0.806986927986145
1772534797371694800,2.00069482421875,0.03129953518509865,-0.7220122814178467,1.1002922058105469
1772534797381711600,2.010711669921875,-0.08339907974004745,-0.758975088596344,1.26362943649292
1772534797391728600,2.020728759765625,-0.11761007457971573,-0.39138978719711304,1.294373869895935
1772534797401746000,2.030745849609375,-0.03597380220890045,0.05522550642490387,1.1313045024871826
1772534797411762700,2.0407626953125,-0.006394486408680677,0.11975083500146866,0.8421668410301208
1772534797421779700,2.05077978515625,-0.05005994439125061,-0.23606319725513458,0.5537435412406921
1772534797431796700,2.060796630859375,-0.203805610537529,-0.8241673111915588,0.4045356214046478
1772534797441812700,2.070812744140625,-0.4460824429988861,-1.5451257228851318,0.3916720151901245
1772534797451829800,2.080829833984375,-0.6778790354728699,-1.9717013835906982,0.3818645179271698
1772534797461846500,2.090846435546875,-0.771549642086029,-1.7654073238372803,0.3286183476448059
1772534797471863800,2.10086376953125,-0.8305375576019287,-1.0490072965621948,0.22296367585659027
1772534797481880600,2.110880615234375,-0.8792645931243896,-0.036334600299596786,0.05568467080593109
1772534797491897600,2.120897705078125,-0.944709837436676,0.8527559638023376,-0.19452226161956787
1772534797501914600,2.13091455078125,-1.0063096284866333,1.2660328149795532,-0.4533919095993042
1772534797511931600,2.140931640625,-1.0469470024108887,1.1985101699829102,-0.6275127530097961
1772534797521948700,2.15094873046875,-1.0293176174163818,0.7545974254608154,-0.6698053479194641
1772534797531964700,2.160964599609375,-0.9196067452430725,0.22614184021949768,-0.6544979810714722
1772534797541981700,2.170981689453125,-0.7544888854026794,-0.2650292217731476,-0.6781479120254517
1772534797551998700,2.180998779296875,-0.591477632522583,-0.7284741401672363,-0.5581774711608887
1772534797562015700,2.191015625,-0.3495529294013977,-0.939795196056366,-0.13283151388168335
1772534797572032800,2.20103271484375,-0.03494171053171158,-0.6811498403549194,0.34882715344429016
1772534797582049500,2.211049560546875,0.25520461797714233,-0.18791723251342773,0.6297855973243713
1772534797592066800,2.22106689453125,0.39001625776290894,0.25180357694625854,0.7373620867729187
1772534797602083600,2.23108349609375,0.3061802089214325,0.5223466157913208,0.7724191546440125
1772534797612100600,2.2411005859375,0.07338398694992065,0.5950753688812256,0.7430474162101746
1772534797622116900,2.251116943359375,-0.17175492644309998,0.550365686416626,0.6059606671333313
1772534797632133600,2.261133544921875,-0.3616192936897278,0.5000302791595459,0.3389299809932709
1772534797642150700,2.271150634765625,-0.5107690691947937,0.4542334973812103,-0.000820669112727046
1772534797652167700,2.281167724609375,-0.6610107421875,0.45870381593704224,-0.3093211054801941
1772534797662184700,2.291184814453125,-0.7598473429679871,0.4714861810207367,-0.5107833743095398
1772534797672201700,2.30120166015625,-0.7292466163635254,0.4544672966003418,-0.5707434415817261
1772534797682218800,2.31121875,-0.590599775314331,0.41976311802864075,-0.4805043041706085
1772534797692235800,2.32123583984375,-0.3737589120864868,0.41186127066612244,-0.3116503953933716
1772534797702252500,2.33125244140625,-0.1506454050540924,0.4300844967365265,-0.1364402174949646
1772534797712268500,2.3412685546875,0.04195254296064377,0.4279736578464508,-0.005946391262114048
1772534797722285800,2.351285888671875,0.2171507179737091,0.3309861421585083,0.06965196132659912
1772534797732302600,2.361302490234375,0.36632034182548523,0.1282019317150116,0.06447195261716843
1772534797742319600,2.371319580078125,0.5021822452545166,-0.10179238766431808,-0.022787582129240036
1772534797752336600,2.381336669921875,0.6063128709793091,-0.2697351574897766,-0.1559271365404129
1772534797762353700,2.391353759765625,0.6628613471984863,-0.3921963572502136,-0.2517447769641876
1772534797772370700,2.40137060546875,0.7055600881576538,-0.44869908690452576,-0.258526086807251
1772534797782387700,2.4113876953125,0.7230885028839111,-0.4109535813331604,-0.21978799998760223
1772534797792403700,2.42140380859375,0.7144914269447327,-0.293322890996933,-0.2167946696281433
1772534797802420700,2.431420654296875,0.6798511743545532,-0.10732986032962799,-0.2970343828201294
1772534797812437800,2.441437744140625,0.631273090839386,0.1440243273973465,-0.42497023940086365
1772534797822454800,2.451454833984375,0.5650452971458435,0.31345996260643005,-0.5326786041259766
1772534797832471600,2.461471435546875,0.4776729345321655,0.3373051881790161,-0.5198391079902649
1772534797842489000,2.471489013671875,0.39486220479011536,0.2826659083366394,-0.360831618309021
1772534797852505900,2.481505859375,0.3375146985054016,0.25036466121673584,-0.15983586013317108
1772534797862523000,2.49152294921875,0.35186460614204407,0.2487984597682953,-0.022567754611372948
1772534797872540000,2.501539794921875,0.40863528847694397,0.30802518129348755,0.033742621541023254
1772534797882556000,2.511555908203125,0.4517260193824768,0.39600670337677,0.08544071018695831
1772534797892573000,2.521572998046875,0.4702794551849365,0.3849632740020752,0.14560461044311523
1772534797902590000,2.53158984375,0.45688721537590027,0.2717285752296448,0.23536698520183563
1772534797912607000,2.54160693359375,0.513808012008667,0.2492510974407196,0.3688170313835144
1772534797922624000,2.5516240234375,0.703733503818512,0.28444981575012207,0.5197897553443909
1772534797932641000,2.56164111328125,0.9116510152816772,0.3246461749076843,0.6769624352455139
1772534797942658000,2.571657958984375,1.1316009759902954,0.3226757049560547,0.8465282917022705
1772534797952674800,2.5816748046875,1.3067877292633057,0.22838681936264038,0.9517342448234558
1772534797962692000,2.591692138671875,1.2983042001724243,-0.04957423731684685,0.9892512559890747
1772534797972708000,2.6017080078125,1.0759212970733643,-0.4683816134929657,0.9317817687988281
1772534797982724900,2.611724853515625,0.8020700812339783,-0.8752532005310059,0.7715069055557251
1772534797992742000,2.621741943359375,0.6206480264663696,-1.0854824781417847,0.5651088356971741
1772534798002759000,2.631759033203125,0.5197048783302307,-1.1515339612960815,0.3994554579257965
1772534798012776000,2.64177587890625,0.5687048435211182,-1.0946452617645264,0.4083087146282196
1772534798022793000,2.65179296875,0.743420422077179,-0.9702638983726501,0.5524587035179138
1772534798032810000,2.66181005859375,0.7845888137817383,-0.8233751654624939,0.7326168417930603
1772534798042827000,2.671826904296875,0.5889418125152588,-0.7459847927093506,0.8143711090087891
1772534798052844000,2.681843994140625,0.33148661255836487,-0.5587098598480225,0.6418046951293945
1772534798062860000,2.691860107421875,0.07325505465269089,-0.18231037259101868,0.13068313896656036
1772534798072877000,2.701876953125,-0.28884074091911316,-0.11262685805559158,-0.5889517664909363
1772534798082893800,2.711893798828125,-0.6326900124549866,-0.3076280653476715,-1.1164779663085938
1772534798092911000,2.7219111328125,-0.6921522617340088,-0.562552273273468,-1.3549675941467285
1772534798102928000,2.731927978515625,-0.5932043790817261,-0.9221038222312927,-1.3242977857589722
1772534798112945000,2.74194482421875,-0.4310336709022522,-1.315468668937683,-0.9859350323677063
1772534798122962000,2.7519619140625,-0.09840218722820282,-1.461929440498352,-0.4245885908603668
1772534798132979000,2.76197900390625,0.3987205922603607,-1.2646194696426392,0.2707192301750183
1772534798142995700,2.77199560546875,0.8663506507873535,-0.7022963762283325,0.9399500489234924
1772534798153012000,2.782011962890625,1.0940707921981812,-0.03337128460407257,1.4765958786010742
1772534798163029000,2.792029052734375,1.0053821802139282,0.42626261711120605,1.8825995922088623
1772534798173045800,2.802045654296875,0.6678484082221985,0.6126224398612976,2.0561740398406982
1772534798183063000,2.81206298828125,0.27926361560821533,0.6676084399223328,1.858546495437622
1772534798193080000,2.822080078125,-0.07948525249958038,0.7418088912963867,1.2812421321868896
1772534798203096800,2.832096923828125,-0.4000891149044037,0.8488054275512695,0.546054482460022
1772534798213114000,2.842114013671875,-0.6316519379615784,0.9221432209014893,-0.11998915672302246
1772534798223131000,2.852130859375,-0.7333024144172668,0.9296855926513672,-0.5648126602172852
1772534798233147000,2.86214697265625,-0.6915821433067322,0.8529564738273621,-0.7066946029663086
1772534798243164000,2.872163818359375,-0.5364924669265747,0.8019622564315796,-0.564765989780426
1772534798253181000,2.882180908203125,-0.3296922445297241,0.7976850271224976,-0.2791677713394165
1772534798263198000,2.892197998046875,-0.12356653064489365,0.754618227481842,-0.012614928185939789
1772534798273215000,2.902215087890625,0.03558340296149254,0.6424464583396912,0.10885259509086609
1772534798283232000,2.91223193359375,0.15803954005241394,0.5135036110877991,0.05718567594885826
1772534798293248800,2.922248779296875,0.23884525895118713,0.3653309643268585,-0.08907387405633926
1772534798303266000,2.93226611328125,0.2523653507232666,0.2304231971502304,-0.287121444940567
1772534798313283000,2.942282958984375,0.19227224588394165,0.15819485485553741,-0.5150079727172852
1772534798323298800,2.952298828125,0.03782995045185089,0.13059093058109283,-0.6767275929450989
1772534798333315800,2.96231591796875,-0.14140070974826813,0.19140008091926575,-0.734820544719696
1772534798343333000,2.9723330078125,-0.25344574451446533,0.34159278869628906,-0.6911430954933167
1772534798353350000,2.982349853515625,-0.3025928735733032,0.43182700872421265,-0.6010441780090332
1772534798363367000,2.992366943359375,-0.30575138330459595,0.40593093633651733,-0.5142176747322083
1772534798373384000,3.002384033203125,-0.2798829674720764,0.2946033477783203,-0.4572376012802124
1772534798383401000,3.01240087890625,-0.2089635282754898,0.20838242769241333,-0.4506572186946869
1772534798393417700,3.022417724609375,-0.09423916041851044,0.12390565127134323,-0.4986749291419983
1772534798403435000,3.03243505859375,-0.04605884850025177,0.05577452853322029,-0.5181290507316589
1772534798413451000,3.042450927734375,-0.046987298876047134,0.031087569892406464,-0.4640205204486847
1772534798423467800,3.0524677734375,0.023467427119612694,0.1490544080734253,-0.38484102487564087
1772534798433485000,3.062485107421875,0.1269698590040207,0.4333133101463318,-0.29362934827804565
1772534798443501800,3.072501708984375,0.20159801840782166,0.7937902808189392,-0.17049679160118103
1772534798453518800,3.082518798828125,0.22223244607448578,1.0097780227661133,-0.022800493985414505
1772534798463536000,3.0925361328125,0.2027226686477661,1.0499589443206787,0.16868291795253754
1772534798473553000,3.102552978515625,0.20951461791992188,0.947009801864624,0.3588642477989197
1772534798483570000,3.11256982421875,0.24869051575660706,0.7393295764923096,0.4699702560901642
1772534798493587000,3.1225869140625,0.31324759125709534,0.5539684891700745,0.48602163791656494
1772534798503603000,3.13260302734375,0.3727705776691437,0.47084593772888184,0.46661147475242615
1772534798513620000,3.142619873046875,0.3871561288833618,0.3958544433116913,0.4445961117744446
1772534798523637000,3.152636962890625,0.3340532183647156,0.1965881884098053,0.4132653474807739
1772534798533654000,3.162654052734375,0.23947125673294067,-0.10062047839164734,0.3893546760082245
1772534798543670800,3.1726708984375,0.1668359339237213,-0.41883042454719543,0.46767371892929077
1772534798553688000,3.18268798828125,0.12274283170700073,-0.98021399974823,0.7253084778785706
1772534798563705000,3.192705078125,0.060642972588539124,-1.8119566440582275,1.0796297788619995
1772534798573721900,3.202721923828125,-0.12475168704986572,-2.477529287338257,1.3087478876113892
1772534798583739100,3.2127392578125,-0.5273870229721069,-2.6759564876556396,1.1734750270843506
1772534798593755000,3.2227548828125,-1.0345540046691895,-2.2806878089904785,0.5411032438278198
1772534798603772000,3.23277197265625,-1.5061726570129395,-1.3100982904434204,-0.37974193692207336
1772534798613789000,3.242788818359375,-1.863508701324463,-0.018121398985385895,-1.1041404008865356
1772534798623806000,3.252805908203125,-1.9895992279052734,0.9311890006065369,-1.4035345315933228
1772534798633823000,3.262822998046875,-1.8986862897872925,1.2567843198776245,-1.264298915863037
1772534798643839700,3.27283984375,-1.577940583229065,1.1678794622421265,-0.8112449049949646
1772534798653857000,3.28285693359375,-1.0524020195007324,0.7732511758804321,-0.3899649381637573
1772534798663873800,3.292873779296875,-0.40972211956977844,0.1012677326798439,-0.13777396082878113
1772534798673890800,3.302890869140625,0.22277764976024628,-0.7973506450653076,0.004910590592771769
1772534798683907000,3.312906982421875,0.7386268973350525,-1.7517703771591187,0.10773736983537674
1772534798693923800,3.322923828125,1.0017505884170532,-2.484675884246826,0.1669035255908966
1772534798703940900,3.33294091796875,0.8854908347129822,-2.5978243350982666,0.08682387322187424
1772534798713958100,3.342958251953125,0.607829213142395,-2.01743483543396,-0.06917282193899155
1772534798723975000,3.352974853515625,0.3512672185897827,-0.7824591398239136,-0.21266233921051025
1772534798733992000,3.362991943359375,0.10094556957483292,0.579877495765686,-0.33400556445121765
1772534798744009000,3.373009033203125,-0.12869827449321747,1.569442629814148,-0.2945449650287628
1772534798754026000,3.38302587890625,-0.3950953781604767,1.9546276330947876,-0.03767098858952522
1772534798764042800,3.393042724609375,-0.6078819632530212,1.8338361978530884,0.27432766556739807
1772534798774059000,3.40305908203125,-0.6608638167381287,1.4367146492004395,0.4080199599266052
1772534798784076000,3.413075927734375,-0.5759438872337341,0.9951299428939819,0.2912811040878296
1772534798794092800,3.4230927734375,-0.41207778453826904,0.6282283067703247,0.05630575492978096
1772534798804110000,3.433110107421875,-0.19747601449489594,0.41164782643318176,-0.12699508666992188
1772534798814126800,3.443126953125,0.015478367917239666,0.24562066793441772,-0.146833598613739
1772534798824144000,3.453143798828125,0.22812139987945557,0.17142580449581146,-0.03940887004137039
1772534798834161200,3.4631611328125,0.43660998344421387,0.1923867017030716,0.08701250702142715
1772534798844178200,3.47317822265625,0.5812981724739075,0.25232887268066406,0.2120087742805481
1772534798854194200,3.483194091796875,0.6389989852905273,0.28228873014450073,0.27776846289634705
1772534798864211200,3.493211181640625,0.6306901574134827,0.2214011251926422,0.25818464159965515
1772534798874228200,3.503228271484375,0.5477264523506165,0.08223378658294678,0.19907070696353912
1772534798884245200,3.513245361328125,0.392943799495697,-0.08758774399757385,0.10409705340862274
1772534798894262000,3.523261962890625,0.2160082459449768,-0.21020837128162384,-0.0528964065015316
1772534798904279300,3.533279296875,0.02990734577178955,-0.2973369061946869,-0.23617435991764069
1772534798914296000,3.543296142578125,-0.15512344241142273,-0.3548995852470398,-0.35848793387413025
1772534798924313300,3.553313232421875,-0.2734428942203522,-0.3213813006877899,-0.3707379400730133
1772534798934330000,3.563330078125,-0.2882973253726959,-0.1554206907749176,-0.3097766041755676
1772534798944347100,3.57334716796875,-0.24907296895980835,0.10163027048110962,-0.20120938122272491
1772534798954363100,3.583363037109375,-0.1752225011587143,0.32761842012405396,-0.06923191249370575
1772534798964380200,3.593380126953125,-0.08850971609354019,0.45987391471862793,0.0892631933093071
1772534798974397200,3.603397216796875,-0.0364488922059536,0.4505569040775299,0.2818155288696289
1772534798984414200,3.613414306640625,0.0075084432028234005,0.34244802594184875,0.47557780146598816
1772534798994431200,3.62343115234375,0.006843640469014645,0.24225975573062897,0.6400560140609741
1772534799004448300,3.6334482421875,-0.050471045076847076,0.18673257529735565,0.7535308599472046
1772534799014465000,3.643465087890625,-0.13450902700424194,0.27719783782958984,0.7861592173576355
1772534799024482300,3.653482421875,-0.22389988601207733,0.5249751210212708,0.7571970820426941
1772534799034498300,3.663498291015625,-0.26269346475601196,0.8054329752922058,0.6875970959663391
1772534799044515000,3.67351513671875,-0.2507619857788086,1.0132964849472046,0.6488513350486755
1772534799054532400,3.683532470703125,-0.19877877831459045,0.9760558009147644,0.663600504398346
1772534799064549000,3.693549072265625,-0.11832014471292496,0.6428842544555664,0.7526254653930664
1772534799074566100,3.703566162109375,-0.03420513868331909,0.10874763131141663,0.8948672413825989
1772534799084583200,3.713583251953125,0.008934076875448227,-0.38025906682014465,1.0275295972824097
1772534799094600200,3.72360009765625,-0.052501268684864044,-0.5685257315635681,1.1153488159179688
1772534799104617200,3.7336171875,-0.20807461440563202,-0.4378737211227417,1.087541937828064
1772534799114634200,3.74363427734375,-0.35767099261283875,-0.28048136830329895,0.8380205035209656
1772534799124650200,3.753650146484375,-0.4322616159915924,-0.45328056812286377,0.3146512806415558
1772534799134667300,3.763667236328125,-0.41697850823402405,-1.056762933731079,-0.3135097324848175
1772534799144684000,3.77368408203125,-0.31772327423095703,-1.7728089094161987,-0.7238005995750427
1772534799154701300,3.783701416015625,-0.15649868547916412,-2.2546095848083496,-0.8130419254302979
1772534799164718000,3.793718017578125,-0.036200232803821564,-2.420083999633789,-0.7181915640830994
1772534799174735400,3.8037353515625,0.1165519654750824,-1.9972268342971802,-0.5492318868637085
1772534799184752000,3.813752197265625,0.26658859848976135,-0.9639835953712463,-0.38398751616477966
1772534799194769200,3.82376904296875,0.3207928538322449,0.2286195009946823,-0.30850037932395935
1772534799204786200,3.8337861328125,0.34063953161239624,1.0504597425460815,-0.4173445701599121
1772534799214802200,3.84380224609375,0.3866696059703827,1.2992337942123413,-0.5505838990211487
1772534799224819200,3.853819091796875,0.4795742332935333,1.0884590148925781,-0.5508113503456116
1772534799234836200,3.863836181640625,0.636414647102356,0.622075617313385,-0.4323436915874481
1772534799244853200,3.873853271484375,0.8113166689872742,0.04882998391985893,-0.28540217876434326
1772534799254870300,3.883870361328125,0.952012836933136,-0.48189452290534973,-0.19880171120166779
1772534799264887000,3.893886962890625,1.0780844688415527,-0.7991867065429688,-0.1690422147512436
1772534799274904300,3.903904296875,1.1375102996826172,-0.8501346111297607,-0.15911509096622467
1772534799284921000,3.913921142578125,1.1000335216522217,-0.5957475900650024,-0.10497915744781494
1772534799294938000,3.923938232421875,0.9841603636741638,-0.2067820131778717,-0.015693018212914467
1772534799304954400,3.933954345703125,0.7838768362998962,0.13377156853675842,0.10674767196178436
1772534799314971100,3.94397119140625,0.5047854781150818,0.3442697525024414,0.2714984118938446
1772534799324988200,3.95398828125,0.19082115590572357,0.4454035460948944,0.39226874709129333
1772534799335005200,3.964005126953125,-0.15425622463226318,0.5907999873161316,0.3543086349964142
1772534799345022200,3.974022216796875,-0.4613130986690521,0.8299105763435364,0.13694541156291962
1772534799355039200,3.984039306640625,-0.6693928837776184,1.087981104850769,-0.1487875133752823
1772534799365056300,3.99405615234375,-0.7741975784301758,1.2590516805648804,-0.35688716173171997
1772534799375073300,4.0040732421875,-0.7628840208053589,1.2770806550979614,-0.4206998348236084
1772534799385090000,4.014090087890625,-0.6298689842224121,1.1947916746139526,-0.366447776556015
1772534799395106000,4.02410595703125,-0.4145326316356659,1.0317814350128174,-0.2452099621295929
1772534799405123300,4.034123291015625,-0.17781461775302887,0.7314695119857788,-0.10124612599611282
1772534799415140000,4.04414013671875,0.020254120230674744,0.36288371682167053,0.025021368637681007
1772534799425157000,4.0541572265625,0.11975834518671036,0.024589819833636284,0.08048436045646667
1772534799435174100,4.064174072265625,0.139992356300354,-0.20802783966064453,0.004912658594548702
1772534799445191200,4.074191162109375,0.10287535190582275,-0.30690330266952515,-0.19221532344818115
1772534799455208200,4.084208251953125,0.010532094165682793,-0.32756876945495605,-0.4266437590122223
1772534799465225200,4.09422509765625,-0.13090279698371887,-0.3134670555591583,-0.6346651315689087
1772534799475242200,4.1042421875,-0.288338840007782,-0.2829822897911072,-0.7599095702171326
1772534799485258000,4.114258056640625,-0.39192143082618713,-0.20658257603645325,-0.8011387586593628
1772534799495275300,4.124275146484375,-0.4757060408592224,-0.13894334435462952,-0.7915401458740234
1772534799505292300,4.134292236328125,-0.544263482093811,-0.04995196685194969,-0.7205602526664734
1772534799515309000,4.14430908203125,-0.5775386691093445,0.02631687931716442,-0.6375935673713684
1772534799525326300,4.154326416015625,-0.6048685908317566,0.12252915650606155,-0.5615912079811096
1772534799535343000,4.164343017578125,-0.6506874561309814,0.2155936360359192,-0.5177537798881531
1772534799545360100,4.174360107421875,-0.6866353154182434,0.3185253441333771,-0.5069788694381714
1772534799555377200,4.184377197265625,-0.6815048456192017,0.4110833704471588,-0.5253507494926453
1772534799565394200,4.194394287109375,-0.6251571774482727,0.43606382608413696,-0.506620466709137
1772534799575410200,4.20441015625,-0.5600900053977966,0.3495076298713684,-0.3722698390483856
1772534799585427200,4.21442724609375,-0.47143658995628357,0.25054508447647095,-0.14341697096824646
1772534799595444200,4.2244443359375,-0.3630291819572449,0.26469072699546814,0.08666997402906418
1772534799605461200,4.234461181640625,-0.2833769619464874,0.31646445393562317,0.30110371112823486
1772534799615478300,4.244478271484375,-0.1609719693660736,0.41568779945373535,0.49453410506248474
1772534799625495300,4.254495361328125,-0.01627524383366108,0.45691511034965515,0.6236431002616882
1772534799635512000,4.264511962890625,0.12968851625919342,0.2760869264602661,0.6852414011955261
1772534799645529300,4.274529296875,0.24951611459255219,-0.13273707032203674,0.7742607593536377
1772534799655546000,4.284546142578125,0.30133506655693054,-0.537785530090332,0.9707378149032593
1772534799665562000,4.29456201171875,0.2844167947769165,-0.5938410758972168,1.2502188682556152
1772534799675579100,4.3045791015625,0.12678560614585876,-0.3284180760383606,1.4104537963867188
1772534799685596200,4.31459619140625,-0.134573832154274,-0.14932343363761902,1.2293100357055664
1772534799695613200,4.32461328125,-0.3642527461051941,-0.25620612502098083,0.6898366212844849
1772534799705630200,4.334630126953125,-0.5773407816886902,-0.6908822655677795,0.046765778213739395
1772534799715647200,4.344647216796875,-0.8040108680725098,-1.277256965637207,-0.430108904838562
1772534799725664300,4.354664306640625,-0.9938154220581055,-1.5929338932037354,-0.7192448377609253
1772534799735681300,4.364681396484375,-1.0485483407974243,-1.3969430923461914,-0.9431846141815186
1772534799745698300,4.3746982421875,-0.9762909412384033,-0.7886261343955994,-1.1165318489074707
1772534799755714300,4.38471435546875,-0.8058564066886902,-0.19804975390434265,-1.1507560014724731
1772534799765731000,4.39473095703125,-0.5465318560600281,0.0851377546787262,-1.0226305723190308
1772534799775748400,4.404748291015625,-0.25049489736557007,-0.029262853786349297,-0.8371490836143494
1772534799785765000,4.41476513671875,0.014417474158108234,-0.3978896141052246,-0.6316190958023071
1772534799795782100,4.4247822265625,0.2223455309867859,-0.8526129126548767,-0.4400921165943146
1772534799805799200,4.434799072265625,0.34179016947746277,-1.34011971950531,-0.2589329779148102
1772534799815816200,4.444816162109375,0.3887171447277069,-1.6325812339782715,-0.056813567876815796
1772534799825833000,4.4548330078125,0.45154696702957153,-1.3822346925735474,0.06698187440633774
1772534799835849200,4.46484912109375,0.5174163579940796,-0.6922715902328491,0.1166364774107933
1772534799845866500,4.474866455078125,0.4965033531188965,0.11504757404327393,0.18120349943637848
1772534799855883300,4.48488330078125,0.3517606258392334,0.7298978567123413,0.29535534977912903
1772534799865900300,4.494900390625,0.09194981306791306,1.0348985195159912,0.4443538784980774
1772534799875917300,4.504917236328125,-0.21807141602039337,1.0415817499160767,0.5723820328712463
1772534799885934300,4.514934326171875,-0.4978889524936676,0.8765983581542969,0.5972607731819153
1772534799895951400,4.524951416015625,-0.68631911277771,0.740847647190094,0.49879300594329834
1772534799905968400,4.534968505859375,-0.7433983683586121,0.6914126873016357,0.2939266860485077
1772534799915985400,4.5449853515625,-0.6997477412223816,0.6939104795455933,0.0374317392706871
1772534799926001400,4.55500146484375,-0.5902132391929626,0.709316074848175,-0.18098928034305573
1772534799936018400,4.565018310546875,-0.4488671123981476,0.7010073065757751,-0.29986807703971863
1772534799946035500,4.575035400390625,-0.2940892279148102,0.6252193450927734,-0.2990765869617462
1772534799956052200,4.58505224609375,-0.1182432696223259,0.4799160361289978,-0.20120717585086823
1772534799966069500,4.595069580078125,0.06357739865779877,0.24606093764305115,-0.07193814963102341
1772534799976086300,4.605086181640625,0.2175731509923935,-0.006620320491492748,0.017415709793567657
1772534799986103300,4.615103271484375,0.3268149495124817,-0.18791021406650543,0.022945230826735497
1772534799996120600,4.62512060546875,0.3860534727573395,-0.2988494634628296,-0.06530403345823288
1772534800006137300,4.635137451171875,0.39061999320983887,-0.3374101519584656,-0.2260122150182724
1772534800016153300,4.6451533203125,0.31080129742622375,-0.3281581997871399,-0.42632225155830383
1772534800026170400,4.65517041015625,0.17267003655433655,-0.3051955997943878,-0.5755404829978943
1772534800036187400,4.6651875,0.05796000361442566,-0.2669055163860321,-0.6382812261581421
1772534800046204400,4.675204345703125,-0.005588879808783531,-0.19430217146873474,-0.5960956811904907
1772534800056221200,4.68522119140625,-0.04116445034742355,-0.10520211607217789,-0.4845638573169708
1772534800066238500,4.695238525390625,-0.04763060808181763,-0.040916867554187775,-0.3583225607872009
1772534800076255200,4.705255126953125,-0.009974982589483261,-0.002434268593788147,-0.2170446664094925
1772534800086272300,4.715272216796875,0.06556185334920883,0.08758217096328735,-0.07586491852998734
1772534800096289300,4.725289306640625,0.14970242977142334,0.231593057513237,0.047877199947834015
1772534800106305300,4.73530517578125,0.1962805837392807,0.4337797164916992,0.17345429956912994
1772534800116322300,4.745322265625,0.2249310314655304,0.6951175928115845,0.29359447956085205
1772534800126339300,4.75533935546875,0.24590475857257843,0.9802539944648743,0.3837278485298157
1772534800136356400,4.7653564453125,0.2682838439941406,1.2888000011444092,0.45550599694252014
1772534800146373400,4.775373291015625,0.3173363506793976,1.5704063177108765,0.5089151263237
1772534800156390400,4.785390380859375,0.39812830090522766,1.8927127122879028,0.5551109313964844
1772534800166407400,4.795407470703125,0.5079467296600342,2.2457666397094727,0.5032280087471008
1772534800176424200,4.805424072265625,0.506767213344574,2.27156400680542,0.3271595537662506
1772534800186441500,4.81544140625,0.5724908113479614,2.216003894805908,0.16416743397712708
1772534800196457500,4.82545751953125,1.001638412475586,2.3023288249969482,0.052077505737543106
1772534800206474200,4.83547412109375,1.5560334920883179,2.1218936443328857,0.150595024228096
1772534800216491500,4.845491455078125,1.885038137435913,1.3309499025344849,0.651862621307373
1772534800226508300,4.85550830078125,1.7037817239761353,-0.06846431642770767,1.0838468074798584
1772534800236525300,4.865525390625,1.167473316192627,-1.476880431175232,0.9315825700759888
1772534800246542300,4.875542236328125,0.4980531334877014,-3.3856961727142334,-0.16263896226882935
1772534800256559400,4.885559326171875,-0.1946767121553421,-5.364664077758789,-1.511655569076538
1772534800266576400,4.895576416015625,-0.4655148684978485,-5.435769557952881,-1.706173300743103
1772534800276593400,4.905593505859375,-0.44189560413360596,-2.9130637645721436,-0.8752849698066711
1772534800286609400,4.915609375,-0.4813905656337738,0.6470358967781067,0.010004919022321701
1772534800296626400,4.92562646484375,-0.5943585634231567,3.0172436237335205,0.26515936851501465
1772534800306643200,4.935643310546875,-0.47204431891441345,3.675328254699707,-0.003997777588665485
1772534800316660500,4.945660400390625,-0.20834514498710632,3.0291597843170166,-0.4606746733188629
1772534800326677200,4.95567724609375,0.07759660482406616,1.595333218574524,-0.7943440079689026
1772534800336694300,4.9656943359375,0.30934810638427734,-0.02362476848065853,-0.8491355180740356
1772534800346711300,4.975711181640625,0.33360257744789124,-1.4829347133636475,-0.7802416682243347
1772534800356728300,4.985728271484375,0.2611977756023407,-2.878607988357544,-0.5951144099235535
1772534800366744300,4.995744384765625,0.30904892086982727,-3.6499645709991455,-0.23936431109905243
1772534800376761300,5.00576123046875,0.5078206062316895,-3.0589327812194824,0.027241963893175125
1772534800386778400,5.0157783203125,0.6069245934486389,-1.5387855768203735,0.06645088642835617
1772534800396795400,5.02579541015625,0.42638835310935974,0.18511679768562317,-0.012291105464100838
1772534800406812400,5.0358125,0.028503309935331345,1.6010396480560303,0.006176584400236607
1772534800416829400,5.045829345703125,-0.47350069880485535,2.3090620040893555,0.23488278687000275
1772534800426846200,5.05584619140625,-1.0107265710830688,2.3284316062927246,0.49773117899894714
1772534800436863500,5.065863525390625,-1.384609341621399,1.8854409456253052,0.585029661655426
1772534800446880300,5.07588037109375,-1.5314112901687622,1.2714134454727173,0.4386577904224396
1772534800456896300,5.085896240234375,-1.4856122732162476,0.7105062007904053,0.20346690714359283
1772534800466913500,5.09591357421875,-1.238260269165039,0.40727388858795166,0.09517133235931396
1772534800476930300,5.105930419921875,-0.8622673749923706,0.3613220155239105,0.1211649477481842
1772534800486947300,5.115947265625,-0.5102038383483887,0.4247303009033203,0.21803556382656097
1772534800496964400,5.12596435546875,-0.21303540468215942,0.5542930960655212,0.3256414830684662
1772534800506981400,5.1359814453125,0.06103821471333504,0.6130155324935913,0.35108450055122375
1772534800516998400,5.145998291015625,0.23879769444465637,0.48486605286598206,0.2811405658721924
1772534800527015400,5.156015380859375,0.317163348197937,0.2330295592546463,0.12915049493312836
1772534800537032400,5.166032470703125,0.3540249168872833,-0.05325208976864815,-0.0771082416176796
1772534800547048400,5.17604833984375,0.346316933631897,-0.28731250762939453,-0.2849003076553345
1772534800557065200,5.186065185546875,0.3090837299823761,-0.42703673243522644,-0.4448305666446686
1772534800567082500,5.19608251953125,0.2557331621646881,-0.49550074338912964,-0.5320448279380798
1772534800577099300,5.206099365234375,0.1940673142671585,-0.5167772769927979,-0.5550510883331299
1772534800587116300,5.2161162109375,0.15266448259353638,-0.47531506419181824,-0.5234411954879761
1772534800597133300,5.22613330078125,0.17621561884880066,-0.3748852014541626,-0.46059438586235046
1772534800607150300,5.236150390625,0.21466287970542908,-0.24921198189258575,-0.37848353385925293
1772534800617167400,5.24616748046875,0.21751414239406586,-0.13720743358135223,-0.2742266356945038
1772534800627184400,5.256184326171875,0.18728007376194,-0.0970887690782547,-0.16938865184783936
1772534800637200400,5.266200439453125,0.13279207050800323,-0.13536366820335388,-0.0610063299536705
1772534800647217200,5.276217041015625,0.06603620946407318,-0.14270946383476257,0.016894059255719185
1772534800657234400,5.286234375,-0.013765264302492142,-0.11074661463499069,0.04383191093802452
1772534800667251500,5.29625146484375,-0.07290661334991455,-0.024154463782906532,0.09185190498828888
1772534800677268200,5.306268310546875,-0.06696432083845139,0.18759016692638397,0.21095752716064453
1772534800687285500,5.316285400390625,-0.08114059269428253,0.42840811610221863,0.3563991189002991
1772534800697302300,5.32630224609375,-0.11870850622653961,0.5955653190612793,0.46058589220046997
1772534800707944400,5.3369443359375,-0.135223850607872,0.6498093605041504,0.507429301738739
1772534800717961200,5.346961181640625,-0.16131927073001862,0.5489587187767029,0.45385444164276123
1772534800727978500,5.356978515625,-0.18612821400165558,0.37902453541755676,0.36803141236305237
1772534800737995300,5.366995361328125,-0.1476273238658905,0.22840288281440735,0.2999057173728943
1772534800748012300,5.37701220703125,-0.035230740904808044,0.1120978370308876,0.2707933783531189
1772534800758029600,5.387029541015625,0.07005324959754944,-0.0973568931221962,0.3341015577316284
1772534800768046300,5.39704638671875,0.13198107481002808,-0.2909199595451355,0.4953184127807617
1772534800778063400,5.4070634765625,0.15299035608768463,-0.5177210569381714,0.7770487070083618
1772534800788080400,5.417080322265625,0.08244320750236511,-0.8410152196884155,1.0571942329406738
1772534800798096400,5.427096435546875,-0.008406572975218296,-1.3053843975067139,1.050703763961792
1772534800808113400,5.437113525390625,0.028221212327480316,-1.7454707622528076,0.7295534610748291
1772534800818130200,5.447130126953125,0.17901478707790375,-1.8863615989685059,0.3270307779312134
1772534800828147500,5.4571474609375,0.29905515909194946,-1.8044719696044922,0.10670372098684311
1772534800838164200,5.467164306640625,0.17830519378185272,-1.6284180879592896,0.16106289625167847
1772534800848181200,5.47718115234375,-0.1656668335199356,-1.1313796043395996,0.3271999657154083
1772534800858197800,5.48719775390625,-0.6030394434928894,-0.4295850098133087,0.2862846851348877
1772534800868214800,5.49721484375,-0.9476495385169983,0.3648700416088104,0.02183598279953003
1772534800878231800,5.507231689453125,-1.1113345623016357,0.9897336959838867,-0.2655273675918579
1772534800888247800,5.517247802734375,-1.122950792312622,1.2945624589920044,-0.41292792558670044
1772534800898264600,5.5272646484375,-0.9870426058769226,1.238125205039978,-0.3635530173778534
1772534800908281900,5.53728173828125,-0.7441385984420776,0.7857553362846375,-0.1774265468120575
1772534800918298600,5.547298583984375,-0.5069089531898499,0.08198874443769455,0.0034629188012331724
1772534800928315600,5.557315673828125,-0.33116692304611206,-0.7282708287239075,0.03619210049510002
1772534800938332700,5.567332763671875,-0.24736785888671875,-1.3512277603149414,-0.11711697280406952
1772534800948349700,5.577349609375,-0.19168701767921448,-1.585475206375122,-0.27554044127464294
1772534800958366700,5.58736669921875,-0.14425665140151978,-1.3461263179779053,-0.3029329180717468
1772534800968383700,5.5973837890625,-0.15626217424869537,-0.8530215620994568,-0.2043970227241516
1772534800978399700,5.607399658203125,-0.22052159905433655,-0.28163766860961914,-0.018113160505890846
1772534800988416800,5.617416748046875,-0.36199405789375305,0.24595819413661957,0.21913675963878632
1772534800998433800,5.627433837890625,-0.5897974967956543,0.6396344900131226,0.435042142868042
1772534801008450800,5.637450927734375,-0.8153854012489319,0.908581554889679,0.5508989691734314
1772534801018467600,5.647467529296875,-1.0002259016036987,1.1006383895874023,0.5290195941925049
1772534801028484900,5.65748486328125,-1.1434805393218994,1.2390798330307007,0.34490543603897095
1772534801038501600,5.667501708984375,-1.2577874660491943,1.3442926406860352,0.019298287108540535
1772534801049144800,5.678144775390625,-1.3347408771514893,1.3907504081726074,-0.3215983211994171
1772534801059161600,5.68816162109375,-1.2993274927139282,1.3295466899871826,-0.4982124865055084
1772534801069179000,5.698178955078125,-1.1278531551361084,1.157515287399292,-0.5089799165725708
1772534801079195600,5.708195556640625,-0.9460538029670715,0.9223581552505493,-0.4321945905685425
1772534801089211600,5.718211669921875,-0.751002848148346,0.7115414142608643,-0.2877040505409241
1772534801099228700,5.728228759765625,-0.5640816688537598,0.5514055490493774,-0.1298166811466217
1772534801109245700,5.73824560546875,-0.44645437598228455,0.46611475944519043,-0.034636303782463074
1772534801119262700,5.7482626953125,-0.4372275769710541,0.41735467314720154,-0.008191116154193878
1772534801129279500,5.758279541015625,-0.4895508587360382,0.347849577665329,-0.029777303338050842
1772534801139296800,5.768296875,-0.5894972085952759,0.263521671295166,-0.09239168465137482
1772534801149313800,5.778313720703125,-0.6630193591117859,0.2923620343208313,-0.17470085620880127
1772534801159330800,5.788330810546875,-0.6791107058525085,0.43591174483299255,-0.2544662356376648
1772534801169346800,5.798346923828125,-0.6663841009140015,0.5993039608001709,-0.2685076594352722
1772534801179363800,5.80836376953125,-0.6499255299568176,0.6385738849639893,-0.15509161353111267
1772534801189380600,5.818380615234375,-0.6983751058578491,0.4162105619907379,0.11724695563316345
1772534801199398000,5.82839794921875,-0.8765709400177002,-0.03267800435423851,0.39381250739097595
1772534801209414700,5.83841455078125,-1.0305137634277344,-0.39380231499671936,0.5128995180130005
1772534801219431700,5.848431640625,-1.0206818580627441,-0.4263400137424469,0.46674031019210815
1772534801229448700,5.85844873046875,-0.9230461716651917,-0.10952683538198471,0.36764025688171387
1772534801239465700,5.8684658203125,-0.806079089641571,0.3377779722213745,0.3037877678871155
1772534801249482800,5.878482666015625,-0.7275688052177429,0.8557826280593872,0.3076157569885254
1772534801259498800,5.888498779296875,-0.7233557105064392,1.2821921110153198,0.34605732560157776
1772534801269515800,5.898515869140625,-0.7848033308982849,1.4351904392242432,0.39147356152534485
1772534801279532500,5.908532470703125,-0.8251116275787354,1.192750096321106,0.4637205898761749
1772534801289549800,5.9185498046875,-0.7682080268859863,0.5294146537780762,0.46426522731781006
1772534801299566800,5.92856689453125,-0.5500533580780029,-0.3124246299266815,0.324701726436615
1772534801309583600,5.93858349609375,-0.22280599176883698,-1.066718578338623,0.16473762691020966
1772534801319601000,5.948600830078125,0.12299029529094696,-1.357205867767334,0.25044718384742737
1772534801329617700,5.95861767578125,0.3352903127670288,-1.0993947982788086,0.624171257019043
1772534801339634700,5.968634765625,0.2575569152832031,-0.8229289054870605,0.986847996711731
1772534801349650700,5.978650634765625,-0.06077633798122406,-0.7982334494590759,1.0096360445022583
1772534801359667700,5.988667724609375,-0.4126203954219818,-0.9552728533744812,0.6427377462387085
1772534801369684700,5.998684814453125,-0.6944442391395569,-0.9975631237030029,0.14388230443000793
1772534801379701500,6.008701416015625,-0.6848978996276855,-0.6172311902046204,-0.08453543484210968
1772534801389718800,6.01871875,-0.4207670986652374,-0.07716916501522064,0.04726970195770264
1772534801399735800,6.02873583984375,-0.2142469435930252,0.09275169670581818,0.3613051176071167
1772534801409752800,6.0387529296875,-0.12914517521858215,-0.13097618520259857,0.4830387532711029
1772534801419769900,6.048769775390625,-0.10949982702732086,-0.3917824625968933,0.2597774267196655
1772534801429786600,6.05878662109375,-0.07198990881443024,-0.5597937703132629,-0.22225674986839294
1772534801439802600,6.068802734375,-0.02908904291689396,-0.7311863303184509,-0.7148526310920715
1772534801449820000,6.07881982421875,0.05506030097603798,-0.9204667210578918,-0.9309288263320923
1772534801459836700,6.088836669921875,0.22103382647037506,-1.040088176727295,-0.8596373200416565
1772534801469853700,6.098853759765625,0.45863983035087585,-0.9764925241470337,-0.6139076948165894
1772534801479870700,6.10887060546875,0.6991960406303406,-0.8234550356864929,-0.3090988099575043
1772534801489887700,6.1188876953125,0.7947733402252197,-0.7161324620246887,-0.033776190131902695
1772534801499904500,6.128904541015625,0.7169845700263977,-0.6682943105697632,0.15052761137485504
1772534801509921800,6.138921875,0.5364512205123901,-0.5274826884269714,0.20065556466579437
1772534801519938800,6.148938720703125,0.3230012357234955,-0.2652830183506012,0.1380220204591751
1772534801529954600,6.15895458984375,0.07516171038150787,0.08315557986497879,0.05268062651157379
1772534801539971800,6.168971923828125,-0.17427422106266022,0.41951921582221985,0.01506507582962513
1772534801549988900,6.17898876953125,-0.38850492238998413,0.6362366080284119,0.013635682873427868
1772534801560005600,6.189005615234375,-0.5761454701423645,0.6342933177947998,0.0023426227271556854
1772534801570023000,6.19902294921875,-0.6982905864715576,0.49367228150367737,-0.04889260232448578
1772534801580039700,6.209039794921875,-0.6985744833946228,0.2945812940597534,-0.164874866604805
1772534801590056700,6.219056640625,-0.6223770380020142,0.10489322990179062,-0.3322010338306427
1772534801600073700,6.22907373046875,-0.48585912585258484,0.052768778055906296,-0.4579746723175049
1772534801610090800,6.2390908203125,-0.32089903950691223,0.11655651777982712,-0.4936861991882324
1772534801620106800,6.249106689453125,-0.1633104830980301,0.21327853202819824,-0.4407974183559418
1772534801630123500,6.25912353515625,-0.00688501400873065,0.3207707107067108,-0.3127080500125885
1772534801640140800,6.269140869140625,0.1381123960018158,0.42036256194114685,-0.13718390464782715
1772534801650157600,6.279157470703125,0.2278001457452774,0.4078986942768097,0.014358166605234146
1772534801660174800,6.2891748046875,0.24483533203601837,0.3142603635787964,0.1379336267709732
1772534801670191900,6.29919189453125,0.2233801782131195,0.20106841623783112,0.22530445456504822
1772534801680208600,6.309208740234375,0.17772401869297028,0.0685945451259613,0.2103971391916275
1772534801690226000,6.319225830078125,0.12512224912643433,-0.02094917744398117,0.06759923696517944
1772534801700242700,6.32924267578125,0.11316918581724167,0.007043307647109032,-0.17866964638233185
1772534801710258700,6.3392587890625,0.14864137768745422,0.11813745647668839,-0.44943350553512573
1772534801720275700,6.349275634765625,0.1304330825805664,0.17257380485534668,-0.6626744270324707
1772534801730292700,6.359292724609375,0.05045139417052269,0.15116369724273682,-0.753608226776123
1772534801740309800,6.369309814453125,-0.07564688473939896,0.11454629898071289,-0.6977148652076721
1772534801750326500,6.379326416015625,-0.19433578848838806,0.07524332404136658,-0.5769665837287903
1772534801760343800,6.38934375,-0.29622510075569153,-0.009439870715141296,-0.4359748363494873
1772534801770360800,6.39936083984375,-0.356496125459671,-0.09556363523006439,-0.3037731945514679
1772534801780377600,6.409377685546875,-0.358507364988327,-0.09063146263360977,-0.24891184270381927
1772534801790393900,6.419393798828125,-0.33149558305740356,0.03269919008016586,-0.28713259100914
1772534801800410600,6.42941064453125,-0.25323858857154846,0.1921924352645874,-0.39373838901519775
1772534801810427600,6.439427734375,-0.09282105416059494,0.29904904961586,-0.4271433353424072
1772534801820445000,6.44944482421875,0.08745018392801285,0.3226659595966339,-0.3079937696456909
1772534801830461700,6.459461669921875,0.2521611452102661,0.22485457360744476,-0.05980687588453293
1772534801840478700,6.469478759765625,0.35483384132385254,-0.12423206865787506,0.24408969283103943
1772534801850495700,6.479495849609375,0.4331315755844116,-0.534261167049408,0.4598406255245209
1772534801860512800,6.4895126953125,0.5720230340957642,-0.7203671932220459,0.45651963353157043
1772534801870529500,6.499529541015625,0.7079933881759644,-0.6205980181694031,0.4086647629737854
1772534801880545500,6.509545654296875,0.7238978147506714,-0.41296520829200745,0.40344709157943726
1772534801890562800,6.519562744140625,0.567421555519104,-0.04523799195885658,0.5655440092086792
1772534801900579600,6.52957958984375,0.23365718126296997,0.35157886147499084,0.8323996663093567
1772534801910596900,6.539596923828125,-0.30498817563056946,0.2845838665962219,0.9281911849975586
1772534801920614000,6.54961376953125,-0.8100749254226685,-0.04289475455880165,0.7326164841651917
1772534801930630700,6.559630615234375,-1.1053199768066406,-0.2938172519207001,0.2813156247138977
1772534801940648000,6.56964794921875,-1.2448779344558716,-0.7572658658027649,-0.23545077443122864
1772534801950664700,6.579664794921875,-1.2773429155349731,-1.3834669589996338,-0.6038795113563538
1772534801960681700,6.589681640625,-1.048287034034729,-1.6342945098876953,-0.6491941809654236
1772534801970697700,6.59969775390625,-0.5942907333374023,-1.3553193807601929,-0.3203473389148712
1772534801980714800,6.60971484375,-0.1365623027086258,-0.7804940342903137,0.258353054523468
1772534801990731800,6.619731689453125,0.15708042681217194,-0.30103057622909546,0.7592207193374634
1772534802000748500,6.62974853515625,0.33872586488723755,-0.09827107191085815,1.0273079872131348
1772534802010765800,6.639765869140625,0.42125403881073,-0.16319458186626434,1.1213734149932861
1772534802020782600,6.649782470703125,0.39013075828552246,-0.36266425251960754,1.043203592300415
1772534802030799600,6.659799560546875,0.26097697019577026,-0.6223878860473633,0.8093665242195129
1772534802040817000,6.66981689453125,-0.011241517029702663,-0.8024564385414124,0.4539589285850525
1772534802050833700,6.679833740234375,-0.4100840985774994,-0.8325505256652832,-0.04141755774617195
1772534802060849700,6.689849609375,-0.8745827674865723,-0.7650809288024902,-0.6236700415611267
1772534802070867000,6.699866943359375,-1.268071174621582,-0.5162853598594666,-1.0646878480911255
1772534802080883700,6.7098837890625,-1.4269022941589355,-0.16337577998638153,-1.145733118057251
1772534802090900700,6.719900634765625,-1.3363524675369263,0.25059494376182556,-0.8495491743087769
1772534802100917800,6.729917724609375,-1.0907658338546753,0.5652104020118713,-0.3196461498737335
1772534802110934800,6.739934814453125,-0.8261277079582214,0.6959405541419983,0.3063109219074249
1772534802120951600,6.74995166015625,-0.674496591091156,0.64642733335495,0.9054603576660156
1772534802130968800,6.75996875,-0.6708213090896606,0.5783507823944092,1.33246910572052
1772534802140984800,6.76998486328125,-0.6868641376495361,0.5832546949386597,1.4632186889648438
1772534802151001600,6.780001708984375,-0.6669236421585083,0.69173663854599,1.3812395334243774
1772534802161019000,6.790018798828125,-0.6183992028236389,0.8353071212768555,1.1887792348861694
1772534802171035600,6.80003564453125,-0.4748586416244507,1.0220218896865845,1.0195118188858032
1772534802181052700,6.810052734375,-0.16090603172779083,1.1672067642211914,0.9418798685073853
1772534802191070000,6.820070068359375,0.2211306244134903,1.1638249158859253,0.9073399305343628
1772534802201086700,6.830086669921875,0.517314076423645,0.9389050006866455,0.9215604066848755
1772534802211103700,6.840103759765625,0.7603644728660583,0.5621954202651978,0.9550296068191528
1772534802221120800,6.850120849609375,0.9800204038619995,0.1757073700428009,0.9002305865287781
1772534802231136800,6.86013671875,1.168454647064209,-0.0886939987540245,0.7939846515655518
1772534802241153800,6.87015380859375,1.2670669555664062,-0.1753934770822525,0.7023237347602844
1772534802251170600,6.880170654296875,1.2400083541870117,-0.1843966394662857,0.5829466581344604
1772534802261187800,6.890187744140625,1.0909503698349,-0.08556535094976425,0.38950225710868835
1772534802271204600,6.90020458984375,0.8546193838119507,0.0493389368057251,0.16863247752189636
1772534802281221600,6.9102216796875,0.576431155204773,0.12412475794553757,-0.024017134681344032
1772534802291239000,6.920239013671875,0.3154803216457367,0.12359669804573059,-0.16646623611450195
1772534802301255700,6.930255615234375,0.12624409794807434,0.10185571014881134,-0.2912052273750305
1772534802311272700,6.940272705078125,0.042979128658771515,0.09373725205659866,-0.397493451833725
1772534802321288700,6.950288818359375,0.022032834589481354,0.11932916939258575,-0.4727964699268341
1772534802331305700,6.9603056640625,0.03957974910736084,0.164122074842453,-0.5077837109565735
1772534802341322800,6.97032275390625,0.17022009193897247,0.21633398532867432,-0.46070268750190735
1772534802351339800,6.98033984375,0.32993972301483154,0.16431285440921783,-0.3320786654949188
1772534802361356800,6.990356689453125,0.42748305201530457,-0.029030509293079376,-0.20678547024726868
1772534802371373600,7.00037353515625,0.4747554361820221,-0.20828574895858765,-0.18047748506069183
1772534802381390800,7.010390869140625,0.4840672016143799,-0.2988417446613312,-0.27953270077705383
1772534802391407600,7.02040771484375,0.4587361514568329,-0.30236443877220154,-0.4657188057899475
1772534802401424600,7.030424560546875,0.4821770191192627,-0.22616368532180786,-0.6149343848228455
1772534802411441000,7.04044091796875,0.5911803245544434,-0.13964027166366577,-0.667732298374176
1772534802421457700,7.050457763671875,0.7515414953231812,-0.16700957715511322,-0.6737861633300781
1772534802431474700,7.060474609375,0.918817400932312,-0.37702280282974243,-0.6601769924163818
1772534802441492000,7.070491943359375,0.9595504999160767,-0.6549709439277649,-0.5997290015220642
1772534802451508700,7.0805087890625,0.6888532638549805,-0.7807384729385376,-0.49766358733177185
1772534802461525800,7.09052587890625,0.22547361254692078,-0.9041997194290161,-0.4530162513256073
1772534802471542800,7.100542724609375,-0.17991533875465393,-1.2441723346710205,-0.657568097114563
1772534802481559800,7.110559814453125,-0.4695221185684204,-1.7345740795135498,-1.0856138467788696
1772534802491575800,7.120575927734375,-0.5684983134269714,-1.9573506116867065,-1.5184139013290405
1772534802501592600,7.130592529296875,-0.5031757354736328,-1.5718612670898438,-1.714611291885376
1772534802511609900,7.14060986328125,-0.39598238468170166,-0.7609400749206543,-1.4429429769515991
1772534802521626600,7.150626708984375,-0.23321475088596344,0.06793098151683807,-0.8817094564437866
1772534802531643600,7.1606435546875,0.008228140883147717,0.7566347718238831,-0.4452308714389801
1772534802541660700,7.17066064453125,0.22944414615631104,1.1012994050979614,-0.31476661562919617
1772534802551677700,7.180677734375,0.37702304124832153,0.9921582341194153,-0.35851117968559265
1772534802561694700,7.19069482421875,0.4324929416179657,0.5227494835853577,-0.5301809310913086
1772534802571711700,7.200711669921875,0.3372679352760315,-0.1091664656996727,-0.6920363306999207
1772534802581727700,7.210727783203125,0.1744539886713028,-0.6373879313468933,-0.7410488724708557
1772534802591744800,7.220744873046875,-0.008585735224187374,-1.1116235256195068,-0.690590500831604
1772534802601761800,7.23076171875,-0.06778327375650406,-1.3868180513381958,-0.5355029106140137
1772534802611778800,7.24077880859375,0.11919015645980835,-1.2641632556915283,-0.3091079294681549
1772534802621795600,7.250795654296875,0.4461387097835541,-0.801482617855072,-0.020541386678814888
1772534802631812900,7.260812744140625,0.613659679889679,-0.3154749870300293,0.32197728753089905
1772534802641829600,7.27082958984375,0.5069066286087036,0.036196518689394,0.6488462090492249
1772534802651846700,7.2808466796875,0.16464918851852417,0.22345145046710968,0.8290514945983887
1772534802661862700,7.290862548828125,-0.290584921836853,0.3158961534500122,0.7590715885162354
1772534802671879700,7.300879638671875,-0.7357751727104187,0.413593053817749,0.425220787525177
1772534802681896700,7.310896728515625,-1.0650361776351929,0.5772237777709961,-0.05817567929625511
1772534802691913700,7.320913818359375,-1.254122257232666,0.7511318325996399,-0.5363259315490723
1772534802701930800,7.3309306640625,-1.3077294826507568,0.8440894484519958,-0.8661789298057556
1772534802711947800,7.34094775390625,-1.22022545337677,0.7831559181213379,-1.0131655931472778
1772534802721964800,7.35096484375,-1.0389888286590576,0.5807242393493652,-0.959164023399353
1772534802731981800,7.36098193359375,-0.7883260846138,0.2902146279811859,-0.7477241158485413
1772534802741998600,7.37099853515625,-0.46913716197013855,0.008985351771116257,-0.5162786841392517
1772534802752014600,7.3810146484375,-0.10514041781425476,-0.1271856725215912,-0.34855228662490845
1772534802762031900,7.391031982421875,0.2428463101387024,-0.17002899944782257,-0.25142332911491394
1772534802772048600,7.401048583984375,0.5355847477912903,-0.2536888122558594,-0.19205628335475922
1772534802782065700,7.411065673828125,0.7055742740631104,-0.41326701641082764,-0.12414140999317169
1772534802792082700,7.421082763671875,0.7433733344078064,-0.5721571445465088,-0.09624551236629486
1772534802802099700,7.431099609375,0.6960130333900452,-0.6518341302871704,-0.1938042938709259
1772534802812116700,7.44111669921875,0.579573929309845,-0.6366335153579712,-0.40867695212364197
1772534802822133800,7.4511337890625,0.4611217975616455,-0.526136577129364,-0.6156452894210815
1772534802832149800,7.461149658203125,0.3792334198951721,-0.35854196548461914,-0.7543510794639587
1772534802842166800,7.471166748046875,0.3278093636035919,-0.17177128791809082,-0.811423122882843
1772534802852183600,7.48118359375,0.2925134003162384,-0.006630216725170612,-0.7934229373931885
1772534802862200800,7.491200927734375,0.24800479412078857,0.1525551825761795,-0.7369458079338074
1772534802872217600,7.501217529296875,0.19261188805103302,0.3293643891811371,-0.6535957455635071
1772534802882234600,7.511234619140625,0.13270755112171173,0.38889217376708984,-0.5593177080154419
1772534802892251600,7.521251708984375,0.05251491814851761,0.2918555438518524,-0.4231626093387604
1772534802902268700,7.5312685546875,-0.006090335547924042,0.16647659242153168,-0.28857043385505676
1772534802912285700,7.54128564453125,-0.04018359258770943,0.06213339790701866,-0.2258884310722351
1772534802922301700,7.5513017578125,-0.08117043972015381,-0.0006977587472647429,-0.19830794632434845
1772534802932318700,7.561318603515625,-0.09862665832042694,0.06759314239025116,-0.18800842761993408
1772534802942335500,7.57133544921875,-0.054167650640010834,0.28212276101112366,-0.25112855434417725
1772534802952352800,7.581352783203125,0.04516640305519104,0.4906441569328308,-0.3099879026412964
1772534802962369800,7.591369873046875,0.17306764423847198,0.5321953892707825,-0.19188231229782104
1772534802972386600,7.601386474609375,0.243456169962883,0.36864373087882996,0.053451698273420334
1772534802982403800,7.61140380859375,0.287043035030365,0.12156736850738525,0.292051762342453
1772534802992420600,7.621420654296875,0.36725541949272156,-0.09968551993370056,0.47744128108024597
1772534803002436600,7.6314365234375,0.3729622960090637,-0.5412418842315674,0.6436830163002014
1772534803012454000,7.641453857421875,0.3094736337661743,-1.1994750499725342,0.7935328483581543
1772534803022470700,7.651470703125,0.24373029172420502,-2.0113847255706787,0.7613999843597412
1772534803032487700,7.66148779296875,0.076937235891819,-2.6991636753082275,0.4812024235725403
1772534803042504700,7.671504638671875,-0.2656826972961426,-2.7012550830841064,0.17870193719863892
1772534803052521700,7.681521728515625,-0.7204483151435852,-1.840195894241333,-0.06939379870891571
1772534803062538500,7.69153857421875,-1.2484126091003418,-0.3930288553237915,-0.28286081552505493
1772534803072555800,7.7015556640625,-1.7973817586898804,1.069360375404358,-0.38799047470092773
1772534803082572800,7.71157275390625,-2.1731815338134766,2.165255069732666,-0.33412644267082214
1772534803092588500,7.721588623046875,-2.2335853576660156,2.647594451904297,-0.226141095161438
1772534803102605600,7.73160546875,-2.054481029510498,2.4423129558563232,-0.10482878237962723
1772534803112622800,7.741622802734375,-1.7309794425964355,1.7287182807922363,-0.025727756321430206
1772534803122639600,7.7516396484375,-1.3302698135375977,0.7748934626579285,0.035310566425323486
1772534803132656600,7.76165673828125,-0.9018064737319946,-0.10004639625549316,0.14502058923244476
1772534803142673700,7.771673583984375,-0.5723894238471985,-0.8115311861038208,0.28167909383773804
1772534803152690700,7.781690673828125,-0.3626178205013275,-1.2397549152374268,0.3737742602825165
1772534803162707700,7.791707763671875,-0.2857787013053894,-1.1715314388275146,0.33128005266189575
1772534803172723700,7.8017236328125,-0.3243388235569,-0.5305014252662659,0.1460888683795929
1772534803182740700,7.81174072265625,-0.47031012177467346,0.2874906063079834,-0.04975360259413719
1772534803192757500,7.821757568359375,-0.6849268674850464,0.9889527559280396,-0.06387959420681
1772534803202774800,7.83177490234375,-0.9292641878128052,1.4159666299819946,0.1791871190071106
1772534803212791800,7.841791748046875,-1.207597255706787,1.5022536516189575,0.5242719650268555
1772534803222808600,7.85180859375,-1.3658145666122437,1.3944401741027832,0.7903295159339905
1772534803232825900,7.861825927734375,-1.3227083683013916,1.2489933967590332,0.8820270299911499
1772534803242842600,7.871842529296875,-1.1798186302185059,1.1059595346450806,0.8152778148651123
1772534803252858600,7.881858642578125,-0.9991401433944702,0.9872855544090271,0.6418009400367737
1772534803262876000,7.8918759765625,-0.7996472716331482,0.8507401347160339,0.44961535930633545
1772534803272892700,7.901892578125,-0.6014801263809204,0.6462999582290649,0.2961869239807129
1772534803282909700,7.91190966796875,-0.4344562292098999,0.3977082669734955,0.17641741037368774
1772534803292926700,7.9219267578125,-0.32078462839126587,0.22237421572208405,0.08626707643270493
1772534803302943700,7.93194384765625,-0.24742066860198975,0.1291246861219406,0.015616871416568756
1772534803312960500,7.94196044921875,-0.22812509536743164,0.008738266304135323,-0.05552532151341438
1772534803322977800,7.951977783203125,-0.26841261982917786,-0.2212776243686676,-0.15737445652484894
1772534803332994800,7.961994873046875,-0.3307265043258667,-0.45914366841316223,-0.30327874422073364
1772534803343010600,7.972010498046875,-0.4189288020133972,-0.6163511872291565,-0.48142024874687195
1772534803353027600,7.982027587890625,-0.5315783619880676,-0.6889786124229431,-0.6487085819244385
1772534803363044900,7.992044921875,-0.6085003018379211,-0.6790263652801514,-0.7543287873268127
1772534803373061600,8.0020615234375,-0.6517055034637451,-0.6422674655914307,-0.7898078560829163
1772534803383078700,8.01207861328125,-0.6987691521644592,-0.6002339720726013,-0.7461227178573608
1772534803393095700,8.022095703125,-0.7533016204833984,-0.5318008661270142,-0.6745079159736633
1772534803403112700,8.03211279296875,-0.7989974617958069,-0.4830878973007202,-0.6461023688316345
1772534803413129700,8.042129638671875,-0.8507955074310303,-0.46515512466430664,-0.662285566329956
1772534803423145700,8.052145751953125,-0.8959752321243286,-0.4284653067588806,-0.6661229133605957
1772534803433162800,8.062162841796875,-0.8410542607307434,-0.33890512585639954,-0.6284927725791931
1772534803443179500,8.072179443359374,-0.7014976739883423,-0.22681163251399994,-0.5544547438621521
1772534803453196800,8.08219677734375,-0.5743958353996277,-0.1567147970199585,-0.4400756061077118
1772534803463213600,8.092213623046876,-0.5369824171066284,-0.13111115992069244,-0.25438857078552246
1772534803473230600,8.102230712890625,-0.5262908339500427,-0.16915777325630188,-0.03011457249522209
1772534803483247900,8.112247802734375,-0.49134328961372375,-0.18994800746440887,0.11391770094633102
1772534803493264600,8.1222646484375,-0.4483828842639923,-0.18161047995090485,0.11610923707485199
1772534803503280600,8.13228076171875,-0.3897075951099396,-0.12671473622322083,0.04019849747419357
1772534803513298000,8.1422978515625,-0.3523535430431366,-0.0357893630862236,-0.042954444885253906
1772534803523314700,8.152314697265625,-0.3492421805858612,-0.10363099724054337,-0.06591116636991501
1772534803533331700,8.162331787109375,-0.3629968762397766,-0.44766587018966675,0.051407478749752045
1772534803543348700,8.1723486328125,-0.4539954960346222,-0.7638489603996277,0.24279870092868805
1772534803553365800,8.18236572265625,-0.5175517201423645,-0.9332918524742126,0.38559913635253906
1772534803563382500,8.192382568359376,-0.5304259657859802,-1.3703209161758423,0.38477250933647156
1772534803573399800,8.20239990234375,-0.5309088826179504,-2.1364142894744873,0.20349061489105225
1772534803583415800,8.212415771484375,-0.5455347299575806,-2.6831183433532715,-0.061381250619888306
1772534803593432600,8.2224326171875,-0.6817797422409058,-2.8400702476501465,-0.2605251371860504
1772534803603449600,8.23244970703125,-1.037927508354187,-2.3439781665802,-0.3535829186439514
1772534803613466600,8.242466552734374,-1.6076302528381348,-1.1216140985488892,-0.4241253435611725
1772534803623483600,8.252483642578126,-2.168011426925659,0.21112912893295288,-0.5616559982299805
1772534803633500700,8.262500732421875,-2.509328842163086,1.2488025426864624,-0.7287470102310181
1772534803643517700,8.272517578125,-2.6001944541931152,1.805484414100647,-0.8684468269348145
1772534803653534700,8.28253466796875,-2.442206859588623,1.7701112031936646,-0.9534921050071716
1772534803663551700,8.2925517578125,-2.0758330821990967,1.2931071519851685,-0.9478355646133423
1772534803673567700,8.302567626953126,-1.6725897789001465,0.4330500066280365,-0.850131094455719
1772534803683584800,8.312584716796875,-1.345679521560669,-0.7340829968452454,-0.66984623670578
1772534803693601500,8.3226015625,-0.9917110204696655,-1.7765698432922363,-0.4126005172729492
1772534803703618800,8.332618896484375,-0.5881800651550293,-2.2629125118255615,-0.16631324589252472
1772534803713635600,8.342635498046874,-0.11779329925775528,-1.8839515447616577,-0.025789717212319374
1772534803723652600,8.352652587890624,0.2032691389322281,-1.018863320350647,0.10236372798681259
1772534803733669600,8.362669677734376,0.259250670671463,-0.07139570266008377,0.28280162811279297
1772534803743686700,8.372686767578125,0.09621047973632812,0.6139690279960632,0.5318383574485779
1772534803753702700,8.38270263671875,-0.27250978350639343,0.8786217570304871,0.8762149214744568
1772534803763719700,8.3927197265625,-0.7568905353546143,0.8625889420509338,1.1958775520324707
1772534803773736700,8.40273681640625,-1.1668506860733032,0.7498915195465088,1.2655303478240967
1772534803783753700,8.412753662109376,-1.3623003959655762,0.7206616997718811,0.9873479604721069
1772534803793770800,8.422770751953125,-1.3832815885543823,0.7824196219444275,0.4557039141654968
1772534803803787800,8.432787841796875,-1.3165616989135742,0.8915181159973145,-0.11221198737621307
1772534803813804500,8.442804443359375,-1.2044693231582642,1.0178289413452148,-0.5756140947341919
1772534803823821800,8.45282177734375,-1.0878468751907349,1.0693901777267456,-0.8604788184165955
1772534803833837800,8.462837890625,-0.9804425239562988,0.9767423868179321,-0.9296282529830933
1772534803843854600,8.4728544921875,-0.88642418384552,0.7736036777496338,-0.8005253672599792
1772534803853871600,8.48287158203125,-0.7791692018508911,0.5499674081802368,-0.5811327695846558
1772534803863888400,8.492888427734375,-0.6702317595481873,0.3384093642234802,-0.4258604049682617
1772534803873905700,8.50290576171875,-0.6052394509315491,0.12249445915222168,-0.4020002782344818
1772534803883922700,8.512922607421874,-0.5865224599838257,-0.09117255359888077,-0.4854767918586731
1772534803893939500,8.522939453125,-0.6165117025375366,-0.30296972393989563,-0.6376885175704956
1772534803903956700,8.532956787109375,-0.7043097019195557,-0.48680585622787476,-0.8275727033615112
1772534803913972700,8.54297265625,-0.8093640208244324,-0.5510162115097046,-1.0111383199691772
1772534803923989500,8.552989501953125,-0.9036518931388855,-0.5383872389793396,-1.17849862575531
1772534803934006500,8.563006591796874,-0.9837104678153992,-0.5097224116325378,-1.2520889043807983
1772534803944023600,8.5730234375,-1.0313446521759033,-0.4339619278907776,-1.2368916273117065
1772534803954040600,8.58304052734375,-1.0625678300857544,-0.27165544033050537,-1.166136384010315
1772534803964057300,8.593057373046875,-1.0676451921463013,-0.08612021058797836,-1.016113042831421
1772534803974074600,8.60307470703125,-1.0251874923706055,-0.006604987196624279,-0.7478609681129456
1772534803984091600,8.613091552734375,-0.9949387311935425,-0.01645069383084774,-0.4572480022907257
1772534803994107400,8.623107421875,-0.9554639458656311,-0.0019342303276062012,-0.24895568192005157
1772534804004124700,8.633124755859376,-0.8621494770050049,0.11894798278808594,-0.11765971779823303
1772534804014141400,8.643141357421875,-0.6881089210510254,0.2749769985675812,-0.020574402064085007
1772534804024158500,8.653158447265625,-0.5259272456169128,0.3479076623916626,0.11001689732074738
1772534804034175700,8.66317578125,-0.426941454410553,0.227859228849411,0.28196239471435547
1772534804044192500,8.673192626953124,-0.4082665741443634,-0.047566235065460205,0.37954407930374146
1772534804054209500,8.68320947265625,-0.441719651222229,-0.2495701164007187,0.3109305500984192
1772534804064226600,8.6932265625,-0.4012145698070526,-0.3161669969558716,0.0551547110080719
1772534804074242600,8.70324267578125,-0.2467804253101349,-0.2890007495880127,-0.22175312042236328
1772534804084259600,8.713259521484375,-0.07235802710056305,-0.5484206080436707,-0.1972922533750534
1772534804094276600,8.723276611328124,0.03856174275279045,-1.1663155555725098,0.35027557611465454
1772534804104293600,8.733293701171876,0.006443222053349018,-1.853009819984436,1.2625235319137573
1772534804114310400,8.743310302734375,-0.19321070611476898,-2.6537070274353027,1.790839433670044
1772534804124327700,8.75332763671875,-0.5061917901039124,-2.977051258087158,1.6362940073013306
1772534804134344700,8.7633447265625,-0.8694762587547302,-2.420651435852051,1.0355812311172485
1772534804144361500,8.773361572265625,-1.2938841581344604,-1.4049105644226074,0.3142237365245819
1772534804154377500,8.78337744140625,-1.7666471004486084,-0.351186603307724,-0.06084761023521423
1772534804164394500,8.79339453125,-2.119678497314453,0.4970259368419647,0.005550585687160492
1772534804174411500,8.80341162109375,-2.2721107006073,0.9027546048164368,0.2509356737136841
1772534804184428500,8.813428466796875,-2.2011899948120117,0.9404430985450745,0.4127386808395386
1772534804194445600,8.823445556640625,-1.9324259757995605,0.7867741584777832,0.3516717851161957
1772534804204462600,8.833462646484374,-1.547378420829773,0.5158465504646301,0.13851502537727356
1772534804214479400,8.843479248046876,-1.1308165788650513,-0.013152404688298702,-0.07408136874437332
1772534804224496600,8.85349658203125,-0.7438881993293762,-0.7459733486175537,-0.16494229435920715
1772534804234512600,8.8635126953125,-0.445428729057312,-1.2893056869506836,-0.1690763533115387
1772534804244529400,8.873529296875,-0.2880348563194275,-1.52874755859375,-0.15265795588493347
1772534804254546700,8.883546630859374,-0.2806873321533203,-1.3597986698150635,-0.0932004377245903
1772534804264563500,8.8935634765625,-0.3044581711292267,-0.7589476704597473,0.036870215088129044
1772534804274580500,8.90358056640625,-0.2867647409439087,0.02883997932076454,0.14178454875946045
1772534804284597800,8.91359765625,-0.25552213191986084,0.6468549966812134,0.26857176423072815
1772534804294614500,8.923614501953125,-0.24639657139778137,0.9365331530570984,0.48060065507888794
1772534804304631600,8.933631591796875,-0.3102607727050781,0.8865259289741516,0.705137312412262
1772534804314647600,8.9436474609375,-0.43980923295021057,0.6524264216423035,0.8010251522064209
1772534804324664600,8.95366455078125,-0.5658910274505615,0.5252290368080139,0.6718629002571106
1772534804334681600,8.963681640625,-0.6522099375724792,0.5464642643928528,0.3290610611438751
1772534804344698600,8.97369873046875,-0.6952924132347107,0.592163622379303,-0.089913010597229
1772534804354715600,8.983715576171875,-0.6728009581565857,0.6225414872169495,-0.4670368731021881
1772534804364732400,8.993732421875,-0.5977085828781128,0.646184504032135,-0.7608287930488586
1772534804374749700,9.003749755859374,-0.5173653960227966,0.6539924144744873,-0.9248831272125244
1772534804384766500,9.013766357421876,-0.4492497444152832,0.5769719481468201,-0.9351696372032166
1772534804394782500,9.023782470703125,-0.3829619288444519,0.39646288752555847,-0.8117119073867798
1772534804404799500,9.033799560546875,-0.30737635493278503,0.19096435606479645,-0.6375725865364075
1772534804414816500,9.04381640625,-0.22350911796092987,0.015419798903167248,-0.51217120885849
1772534804424833500,9.05383349609375,-0.16722773015499115,-0.11720775067806244,-0.45338112115859985
1772534804434850600,9.0638505859375,-0.18001599609851837,-0.22246505320072174,-0.47611743211746216
1772534804444867600,9.07386767578125,-0.2637194097042084,-0.28923237323760986,-0.5918552279472351
1772534804454884600,9.083884521484375,-0.41449403762817383,-0.27466443181037903,-0.8260959386825562
1772534804464901400,9.0939013671875,-0.5822795629501343,-0.14574134349822998,-1.1481941938400269
1772534804474917600,9.103917724609374,-0.7130048274993896,0.03478996455669403,-1.4486525058746338
1772534804484934700,9.1139345703125,-0.8205597400665283,0.18731878697872162,-1.578479290008545
1772534804494951400,9.123951416015625,-0.9098144173622131,0.257635235786438,-1.4405083656311035
1772534804504968700,9.13396875,-0.9632108211517334,0.18438877165317535,-1.085050344467163
1772534804514985500,9.1439853515625,-0.9515930414199829,0.019693832844495773,-0.7017319202423096
1772534804525002500,9.15400244140625,-0.8431070446968079,-0.05917685106396675,-0.45136210322380066
1772534804535019500,9.16401953125,-0.6937766671180725,0.047604721039533615,-0.324844092130661
1772534804545036500,9.17403662109375,-0.5960418581962585,0.32865530252456665,-0.27356255054473877
1772534804555052500,9.184052490234375,-0.5659176111221313,0.604398787021637,-0.3012813627719879
1772534804565069600,9.194069580078125,-0.5487468242645264,0.7543973922729492,-0.3777841329574585
1772534804575086600,9.204086669921875,-0.5015062093734741,0.6857671141624451,-0.39839181303977966
1772534804585103600,9.214103515625,-0.36181893944740295,0.33161911368370056,-0.2917332649230957
1772534804595120600,9.22412060546875,-0.1965029537677765,-0.1615077704191208,-0.07337883859872818
1772534804605137700,9.2341376953125,-0.13883645832538605,-0.37646934390068054,0.2375260442495346
1772534804615154400,9.244154541015625,-0.2201610654592514,-0.3005404472351074,0.4709659218788147
1772534804625171700,9.254171630859375,-0.38492143154144287,0.057639192789793015,0.47439804673194885
1772534804635187700,9.264187744140624,-0.5780999064445496,0.5068382620811462,0.35021111369132996
1772534804645204500,9.27420458984375,-0.7802996635437012,0.5235885381698608,0.2561839520931244
1772534804655221500,9.284221435546876,-1.0321725606918335,-0.024334309622645378,0.23726661503314972
1772534804665238500,9.294238525390625,-1.168491005897522,-0.8543116450309753,0.24293941259384155
1772534804675255600,9.304255615234375,-1.1779359579086304,-1.6244150400161743,0.22867824137210846
1772534804685272600,9.3142724609375,-1.1468989849090576,-2.2006354331970215,0.09071372449398041
1772534804695289600,9.32428955078125,-1.1044750213623047,-2.17751145362854,-0.10174506902694702
1772534804705305600,9.3343056640625,-1.1089584827423096,-1.600329041481018,-0.17724648118019104
1772534804715322400,9.344322265625,-1.1313809156417847,-0.6290000677108765,-0.045859962701797485
1772534804725339600,9.354339599609375,-1.1845251321792603,0.22497425973415375,0.18068170547485352
1772534804735356700,9.364356689453125,-1.2370426654815674,0.7265358567237854,0.3577800691127777
1772534804745373400,9.37437353515625,-1.2406365871429443,0.8809435367584229,0.4011841416358948
1772534804755390700,9.384390625,-1.2147713899612427,0.6951473355293274,0.32489416003227234
1772534804765407500,9.394407470703126,-1.207709550857544,0.22374166548252106,0.17871832847595215
1772534804775423500,9.404423583984375,-1.2675633430480957,-0.4868887662887573,-0.009859312325716019
1772534804785440500,9.4144404296875,-1.331508755683899,-1.3703665733337402,-0.21658436954021454
1772534804795457500,9.42445751953125,-1.226211667060852,-1.8676743507385254,-0.2997293174266815
1772534804805474600,9.434474609375,-0.8555265069007874,-1.487682580947876,-0.25431814789772034
1772534804815491600,9.44449169921875,-0.4508221447467804,-0.6450770497322083,-0.07520031929016113
1772534804825508600,9.454508544921875,-0.2253778576850891,0.13847488164901733,0.21410906314849854
1772534804835525600,9.464525634765625,-0.1876981258392334,0.5927438735961914,0.5420893430709839
1772534804845542700,9.474542724609375,-0.310207337141037,0.7416806221008301,0.8534426093101501
1772534804855558400,9.484558349609374,-0.5158630013465881,0.7109155058860779,1.0790128707885742
1772534804865575400,9.494575439453126,-0.7040504217147827,0.6435560584068298,1.111741542816162
1772534804875592400,9.504592529296875,-0.7908692359924316,0.6395442485809326,0.9052360653877258
1772534804885609500,9.514609375,-0.7765820026397705,0.6616414785385132,0.552212119102478
1772534804895626200,9.524626220703125,-0.6799441576004028,0.6309150457382202,0.18566183745861053
1772534804905643500,9.5346435546875,-0.5527085661888123,0.5133948922157288,-0.09814976900815964
1772534804915660300,9.544660400390624,-0.4098661541938782,0.35378310084342957,-0.2373225837945938
1772534804925676300,9.55467626953125,-0.2831481397151947,0.15974651277065277,-0.2588403820991516
1772534804935693300,9.564693359375,-0.1738072782754898,-0.03669703006744385,-0.2066943645477295
1772534804945710300,9.57471044921875,-0.07688365876674652,-0.20938332378864288,-0.15130780637264252
1772534804955727400,9.584727294921874,-0.030815856531262398,-0.3262188136577606,-0.1232832595705986
1772534804965744400,9.594744384765624,-0.026160070672631264,-0.38557887077331543,-0.14369310438632965
1772534804975761400,9.604761474609376,-0.06800152361392975,-0.39427196979522705,-0.22913795709609985
1772534804985778400,9.6147783203125,-0.20292548835277557,-0.31991738080978394,-0.33900174498558044
1772534804995795200,9.624795166015625,-0.3927750587463379,-0.21932578086853027,-0.4628104865550995
1772534805005811500,9.6348115234375,-0.5620595216751099,-0.15427570044994354,-0.6149070858955383
1772534805015828500,9.644828369140624,-0.6671087145805359,-0.11280496418476105,-0.7880277037620544
1772534805025845200,9.65484521484375,-0.7182013392448425,-0.043674059212207794,-0.9430343508720398
1772534805035862500,9.664862548828125,-0.7137508988380432,0.06837870925664902,-1.0382217168807983
1772534805046505500,9.67550537109375,-0.6909151077270508,0.18590426445007324,-1.0658314228057861
1772534805056522500,9.6855224609375,-0.6774786114692688,0.2913059592247009,-0.9831008315086365
1772534805066539300,9.695539306640624,-0.6681514382362366,0.39386776089668274,-0.7441220283508301
1772534805076556500,9.705556640625,-0.6566081047058105,0.4940454363822937,-0.358137845993042
1772534805086573300,9.7155732421875,-0.6652026772499084,0.5697473883628845,0.10084464401006699
1772534805096590300,9.72559033203125,-0.7124643921852112,0.6080669164657593,0.4993356168270111
1772534805106606300,9.7356064453125,-0.7401341199874878,0.6475530862808228,0.715829074382782
1772534805116623400,9.745623291015624,-0.6454713344573975,0.7099661827087402,0.7626950144767761
1772534805126640400,9.755640380859376,-0.4946865141391754,0.6571998000144958,0.6414465308189392
1772534805136657200,9.7656572265625,-0.36789101362228394,0.34974026679992676,0.35868197679519653
1772534805146674400,9.77567431640625,-0.2523822486400604,-0.12083952128887177,0.013255598954856396
1772534805156691200,9.785691162109375,-0.15078392624855042,-0.48545318841934204,-0.20096425712108612
1772534805166708500,9.79570849609375,-0.09214990586042404,-0.6449230313301086,-0.24806226789951324
1772534805176725500,9.8057255859375,-0.191554456949234,-0.37846630811691284,-0.21364782750606537
1772534805186741200,9.8157412109375,-0.3783493638038635,0.3926546275615692,-0.1500704437494278
1772534805196758300,9.82575830078125,-0.5380608439445496,0.808154821395874,-0.0496513731777668
1772534805206775600,9.835775634765625,-0.7345190048217773,0.8308703899383545,0.13153831660747528
1772534805216792300,9.845792236328125,-0.973191499710083,0.5257003307342529,0.26289287209510803
1772534805226809300,9.855809326171874,-1.225142240524292,-0.20517119765281677,0.2439037412405014
1772534805236826400,9.865826416015626,-1.395833134651184,-0.9499320387840271,0.149325430393219
1772534805246843400,9.875843505859375,-1.275003433227539,-1.2537468671798706,-0.04672449827194214
1772534805256860200,9.885860107421875,-0.9877254366874695,-0.9889161586761475,-0.2434031218290329
1772534805266876400,9.89587646484375,-0.6681628823280334,-0.49060651659965515,-0.3356768488883972
1772534805276893400,9.9058935546875,-0.5039700865745544,-0.2947404682636261,-0.4064769744873047
1772534805286910200,9.91591015625,-0.5234106183052063,-0.5039479732513428,-0.4168153703212738
1772534805296927500,9.925927490234375,-0.4804825484752655,-0.8079976439476013,-0.3505796194076538
1772534805306944300,9.9359443359375,-0.27394986152648926,-0.9314157366752625,-0.27406299114227295
1772534805316961300,9.945961181640625,0.06796827167272568,-0.8813004493713379,-0.1329386830329895
1772534805326978600,9.955978515625,0.42156362533569336,-0.9215725064277649,0.1690797656774521
1772534805336994300,9.965994384765626,0.6561638116836548,-1.1562432050704956,0.5889583230018616
1772534805347011300,9.97601123046875,0.6874679327011108,-1.420139193534851,0.9372337460517883
1772534805357028400,9.9860283203125,0.521865725517273,-1.6036322116851807,1.0434318780899048
1772534805367045400,9.99604541015625,0.2814355790615082,-1.4747860431671143,0.9272451996803284
1772534805377062400,10.0060625,-0.06724143028259277,-1.2271897792816162,0.5504253506660461
1772534805387079200,10.0160791015625,-0.46108195185661316,-0.8122444748878479,0.06228923425078392
1772534805397096400,10.026096435546876,-0.7561210989952087,-0.2612999379634857,-0.4259346127510071
1772534805407113200,10.03611328125,-0.8499922156333923,0.2952415347099304,-0.8621037602424622
1772534805417129200,10.046129150390625,-0.8020222783088684,0.7077524065971375,-1.1824620962142944
1772534805427146500,10.056146484375,-0.7477579712867737,0.839286744594574,-1.3386369943618774
1772534805437163300,10.066163330078124,-0.635138213634491,0.6439176797866821,-1.2992850542068481
1772534805447180300,10.07618017578125,-0.44922876358032227,0.27057555317878723,-1.111158013343811
1772534805457197300,10.086197265625,-0.25873708724975586,-0.05467595160007477,-0.8446500301361084
1772534805467214300,10.09621435546875,-0.07824213802814484,-0.2574002742767334,-0.5728864669799805
1772534805477231400,10.1062314453125,0.10293624550104141,-0.30074843764305115,-0.4065816402435303
1772534805487248400,10.116248291015625,0.22792504727840424,-0.25813546776771545,-0.3578556478023529
1772534805497264400,10.126264404296874,0.24064761400222778,-0.20209020376205444,-0.369798481464386
1772534805507281400,10.136281494140626,0.1284569799900055,-0.16258803009986877,-0.4361293911933899
1772534805517298400,10.14629833984375,0.00027450406923890114,-0.04180276393890381,-0.5363260507583618
1772534805527315500,10.1563154296875,-0.11152419447898865,0.07363541424274445,-0.6492520570755005
1772534805537332200,10.166332275390625,-0.22833606600761414,0.09769198298454285,-0.6804524660110474
1772534805547349500,10.176349609375,-0.31383204460144043,0.10951454937458038,-0.48468056321144104
1772534805557366300,10.1863662109375,-0.25806406140327454,0.1704910695552826,-0.17565906047821045
1772534805567382300,10.19638232421875,-0.23139305412769318,0.3034224808216095,-0.008037837222218513
1772534805577399300,10.2063994140625,-0.29752981662750244,0.4997994601726532,-0.045103009790182114
1772534805587416300,10.216416259765625,-0.44675764441490173,0.6305409669876099,-0.24059873819351196
1772534805597433300,10.226433349609374,-0.564334511756897,0.6124207377433777,-0.39250221848487854
1772534805607450400,10.236450439453124,-0.5635858178138733,0.5455191731452942,-0.4488624036312103
1772534805617467400,10.24646728515625,-0.489145964384079,0.46880069375038147,-0.45762819051742554
1772534805627484400,10.256484375,-0.42394378781318665,0.4074521064758301,-0.39425161480903625
1772534805637501200,10.266501220703125,-0.40214449167251587,0.41473227739334106,-0.23138046264648438
1772534805647517400,10.276517333984375,-0.42276933789253235,0.3384004831314087,-0.06537310034036636
1772534805657534500,10.286534423828124,-0.4297406077384949,0.24794650077819824,-0.02763991616666317
1772534805667551200,10.29655126953125,-0.3842056095600128,0.4760481119155884,-0.14539025723934174
1772534805677568500,10.306568603515625,-0.3191029727458954,0.9220097661018372,-0.278705358505249
1772534805687585300,10.316585205078125,-0.22039663791656494,1.2208638191223145,-0.2755165100097656
1772534805697602300,10.326602294921875,-0.3063199520111084,1.2262673377990723,-0.018660683184862137
1772534805707619300,10.336619384765624,-0.6126087307929993,0.8775205016136169,0.41595229506492615
1772534805717636400,10.34663623046875,-0.8108024597167969,0.7539985775947571,0.7916662693023682
1772534805727652400,10.35665234375,-0.8777247667312622,0.5158044099807739,0.8247049450874329
1772534805737669400,10.36666943359375,-0.8124964237213135,0.12872865796089172,0.5709001421928406
1772534805747686400,10.376686279296875,-0.5712637901306152,-0.3072603642940521,0.2068260908126831
1772534805757703400,10.386703369140625,-0.2996257245540619,-0.9717326760292053,-0.11583603918552399
1772534805767720400,10.396720458984374,-0.2094614952802658,-1.4694069623947144,-0.29886817932128906
1772534805777737500,10.406737548828126,-0.36742815375328064,-1.330588698387146,-0.2978322505950928
1772534805787754200,10.416754150390625,-0.5795074105262756,-0.5660260319709778,-0.05854295566678047
1772534805797770200,10.426770263671875,-0.6270352005958557,0.055758897215127945,0.34252551198005676
1772534805807787500,10.43678759765625,-0.6600030660629272,0.2041621208190918,0.6919140815734863
1772534805817804300,10.44680419921875,-0.662570059299469,-0.051802534610033035,0.7644500732421875
1772534805827821300,10.4568212890625,-0.6061781644821167,-0.3562159538269043,0.5610716342926025
1772534805837838300,10.46683837890625,-0.5324870944023132,-0.5688871741294861,0.20614685118198395
1772534805847855400,10.47685546875,-0.43257275223731995,-0.8368704319000244,-0.10048471391201019
1772534805857872600,10.48687255859375,-0.259365051984787,-0.9134076833724976,-0.1399787813425064
1772534805867889700,10.4968896484375,0.050937701016664505,-0.8747151494026184,0.0429990254342556
1772534805877906000,10.506906005859374,0.3007816970348358,-0.6454424858093262,0.23974211513996124
1772534805887922700,10.516922607421876,0.41919437050819397,-0.35754305124282837,0.3476230204105377
1772534805897939700,10.526939697265625,0.41177302598953247,-0.11474432796239853,0.3974200189113617
1772534805907956700,10.536956787109375,0.31019532680511475,0.15502102673053741,0.4218085706233978
1772534805917973800,10.546973876953125,0.22562184929847717,0.22098246216773987,0.373043417930603
1772534805927990800,10.55699072265625,0.03594086691737175,0.048586200922727585,0.2368890345096588
1772534805938007800,10.5670078125,-0.22542735934257507,-0.08050600439310074,0.048950035125017166
1772534805948023800,10.57702392578125,-0.35525962710380554,-0.11965766549110413,-0.21285122632980347
1772534805958040800,10.587040771484375,-0.3685751259326935,-0.058579664677381516,-0.4953848719596863
1772534805968057600,10.5970576171875,-0.3872641324996948,0.08704091608524323,-0.7851229310035706
1772534805978075000,10.607074951171874,-0.37070149183273315,0.19186651706695557,-0.9591287970542908
1772534805988091600,10.617091552734376,-0.24064362049102783,0.15378917753696442,-0.8900988698005676
1772534805998108700,10.627108642578126,-0.01296475250273943,-0.027680834755301476,-0.5953256487846375
1772534806008125700,10.637125732421875,0.25956469774246216,-0.225175142288208,-0.19294114410877228
1772534806018142700,10.647142822265625,0.5030980110168457,-0.42718204855918884,0.12248311191797256
1772534806028158700,10.65715869140625,0.557022750377655,-0.5257155299186707,0.17381608486175537
1772534806038175700,10.66717578125,0.47582510113716125,-0.4601433277130127,-0.004519002046436071
1772534806048192800,10.67719287109375,0.3222493827342987,-0.4075824022293091,-0.26461556553840637
1772534806058209500,10.68720947265625,0.18789242208003998,-0.32491129636764526,-0.44671452045440674
1772534806068226800,10.697226806640625,0.1027277410030365,-0.14137105643749237,-0.5747374892234802
1772534806078243800,10.707243896484375,0.0009615448070690036,0.06271716952323914,-0.6650534868240356
1772534806088260600,10.717260498046874,-0.12454258650541306,0.15541061758995056,-0.6737399101257324
1772534806098276600,10.727276611328126,-0.20581559836864471,0.15327982604503632,-0.591284990310669
1772534806108294000,10.7372939453125,-0.1952555775642395,0.163644939661026,-0.35889241099357605
1772534806118310700,10.747310546875,-0.1273137629032135,0.19205394387245178,-0.09439492225646973
1772534806128328000,10.757327880859375,-0.05003202334046364,0.3342302739620209,0.06895219534635544
1772534806138344700,10.7673447265625,0.03523170202970505,0.6753097176551819,0.03282393142580986
1772534806148361700,10.77736181640625,0.1109086126089096,1.0247493982315063,-0.13766871392726898
1772534806158378800,10.787378662109376,0.1214662566781044,1.158307433128357,-0.23152199387550354
1772534806168395800,10.797395751953125,0.10019053518772125,0.9788659811019897,-0.15538035333156586
1772534806178411800,10.807411865234375,0.07785561680793762,0.5207356214523315,-0.056310564279556274
1772534806188428500,10.817428466796875,0.09203774482011795,0.024064883589744568,0.0138272475451231
1772534806198445800,10.82744580078125,0.21585474908351898,-0.31603479385375977,0.08086411654949188
1772534806208462600,10.837462646484376,0.4254681169986725,-0.3578927218914032,0.17598357796669006
1772534806218479600,10.847479736328125,0.5958691835403442,-0.1592017263174057,0.24230507016181946
1772534806228497000,10.857496826171875,0.6155166625976562,0.017159994691610336,0.2415095865726471
1772534806238513700,10.867513671875,0.5552992820739746,0.0752173513174057,0.21754959225654602
