time,seconds_elapsed,z,y,x
1772534907373004800,0.0630048828125,-0.025996611043810843,-0.07211144261732697,-0.04488141732104122
1772534907383021800,0.073021728515625,0.169262341684103,-0.04333382255285978,0.12396883643083273
1772534907393038000,0.0830380859375,0.09375964919328689,0.038190906706452366,0.14137823639325797
1772534907403054800,0.093054931640625,-0.12464520132243632,0.22190160659030078,0.051014147922396655
1772534907413072000,0.10307177734375,-0.39846214245855804,0.3968777958765626,0.02867386742904782
1772534907423087900,0.113087890625,-0.4374965142518282,0.4331863959677517,0.00212835379820317
1772534907433105000,0.12310498046875,0.015246084448695182,0.4646078085392713,0.01734276446700096
1772534907443122000,0.133121826171875,-0.004494973331689835,0.5542072693131864,0.06713449445497244
1772534907453138000,0.143137939453125,0.8948439763993025,0.20423720895349978,0.34869876178223635
1772534907463155000,0.153155029296875,1.1055343070149422,-0.029274317540228367,0.32384306440185756
1772534907473172000,0.163171875,1.0059984125077723,0.032270576746761793,0.0357797173788771
1772534907483188000,0.17318798828125,0.7964040604352951,0.15843524272143839,-0.10906308985240756
1772534907493204700,0.183204833984375,0.7930448131352662,0.1570370663613081,-0.1726965539164841
1772534907503222000,0.193221923828125,0.2898918776243925,0.2527764911949634,0.04544460416175425
1772534907513238000,0.203238037109375,0.24606617990136145,0.2770829571947455,0.03286912716180086
1772534907523254800,0.2132548828125,0.20271102229952812,0.37523587291091676,-0.11136771353296934
1772534907533272000,0.22327197265625,0.07953004831075668,0.6065896368488669,-0.5364807662256061
1772534907543288000,0.2332880859375,0.08041852158308029,0.5929460191607475,-0.5669048383228481
1772534907553304800,0.243304931640625,0.3323614845633507,0.8835524747952819,-1.079560784585774
1772534907563322000,0.253322021484375,0.16044658254384994,1.1199328347235917,-1.28447180114761
1772534907573338000,0.263338134765625,-0.4625368474841118,0.9576803718015551,-1.3302692373350262
1772534907583355000,0.27335498046875,-1.0065367571681738,-0.13227116615623236,-0.5763279887717216
1772534907593372000,0.283371826171875,-0.9982359618127346,-0.14589520236104725,-0.5199801516711712
1772534907603388000,0.293387939453125,0.5645224732309579,-2.0923516337126493,1.2230582781553268
1772534907613405000,0.303405029296875,0.7809031244426965,-1.0242759736068545,0.6964214450739323
1772534907623422000,0.313421875,0.6444733773022889,0.27100422180294986,-0.24813947904407976
1772534907633438000,0.32343798828125,0.8625140706807375,0.9271012552730739,-0.5756188906542956
1772534907643455000,0.333455078125,0.8741641764640807,0.8627854349680244,-0.6195083743285388
1772534907653472000,0.343471923828125,0.7045084515482187,-0.05311316602826118,0.3729869980055839
1772534907663488000,0.353488037109375,0.09585866729915142,0.06804448543936013,0.11678820421174167
1772534907673504800,0.3635048828125,0.055602644756436344,0.30859993909522887,0.5549248429980128
1772534907683522000,0.37352197265625,0.6161059454739093,0.08499152858704329,0.4972490452293306
1772534907693538000,0.3835380859375,0.6241799463361501,0.058086570526659484,0.5210769339319318
1772534907703554800,0.393554931640625,-0.04758241990804672,-0.3945787251539528,0.5003144241493195
1772534907713572000,0.403572021484375,-0.4085498212307691,-0.38755072621330616,-0.9209003548063337
1772534907723588000,0.413588134765625,-1.540610316121578,0.36591391781419513,-2.3278867749884724
1772534907733604900,0.42360498046875,-2.345436752465367,0.44434228849336505,-2.3118571389466522
1772534907743622100,0.4336220703125,-2.350554826131463,0.5043335235975682,-2.0780127272367475
1772534907753638100,0.44363818359375,-2.4611335081785914,0.6401479153186083,-4.237178135550022
1772534907763655000,0.453655029296875,-1.4814292283564805,0.6269609553568065,-4.7287508156433695
1772534907773672000,0.463671875,7.944706373807787,-1.3153138063959777,1.6334531427308916
1772534907783688000,0.47368798828125,7.24925918059349,-5.339554270794987,11.677262670338154
1772534907793705000,0.483705078125,7.241490884679555,-5.398874474769831,11.856053887867926
1772534907803722000,0.493721923828125,4.987838097420335,2.340285945573449,-0.3077906685389578
1772534907813738000,0.503738037109375,2.5867694741040466,-0.9284431714013218,-0.24269275794550776
1772534907823755000,0.513755126953125,0.9311930546313524,-0.6426631130099296,-0.8286126778617501
1772534907833772000,0.52377197265625,1.623198582959175,0.8353199204154312,-0.4160467528574168
1772534907843788000,0.5337880859375,1.6598118650853633,0.6563121375255286,-0.456952617610991
1772534907853805000,0.54380517578125,1.4866080922991036,0.9200219645366072,-1.1302142094369978
1772534907863822000,0.553822021484375,1.3291478320896626,0.7853505323056131,-0.37692185323648153
1772534907873837800,0.563837890625,2.026715086197853,0.08850158253461123,1.0583262003120035
1772534907883854800,0.573854736328125,2.3501550131589175,0.7129934443641454,1.7025791397966443
1772534907893872000,0.5838720703125,2.373988308688998,0.5499225046660751,1.5742694246172904
1772534907903888000,0.593887939453125,1.2604746933579445,1.406878429763019,1.4566989839866757
1772534907913905000,0.60390478515625,1.2609089931219815,0.7339183781668543,1.679019838902354
1772534907923922200,0.613922119140625,1.825846476894617,1.4523131701178849,0.7435252876847982
1772534907933938000,0.62393798828125,2.466723875531554,2.181765947178006,0.3848006968528032
1772534907943955000,0.633954833984375,2.466744918319583,2.2316335554137825,0.30914986459556965
1772534907953972200,0.64397216796875,4.132363423857092,2.204481636855006,2.512191495242715
1772534907963988200,0.65398828125,4.459723739132285,1.815778525736183,3.4955607273131606
1772534907974005200,0.664005126953125,4.001867158418894,1.62322181770429,3.9955557833150026
1772534907984022000,0.67402197265625,3.880426306095719,2.035478530628979,3.3699244691267607
1772534907994038000,0.6840380859375,3.296860694220662,2.5571941277906296,2.7633181734040377
1772534908004055300,0.69405517578125,2.1381115143686533,2.4605016400158406,1.5551540975198148
1772534908014072000,0.704072021484375,0.3213175279796123,1.2877439546860754,0.3663246540395543
1772534908024088000,0.714088134765625,-2.794666959130764,0.8366018499847501,-1.1099250893197954
1772534908034105300,0.724105224609375,-2.80668472918272,0.8586171363074332,-0.9732772424492985
1772534908044122000,0.7341220703125,-4.535700478875637,2.252070778764784,-2.8601082763344046
1772534908054138000,0.74413818359375,-5.631779559803008,0.9431281148359179,-3.4122900311693547
1772534908064155100,0.754155029296875,-6.763643070816993,0.843179036417976,-4.866295538288354
1772534908074172200,0.764172119140625,-8.315579667595028,1.1229437800426036,-7.285522334107756
1772534908084188200,0.774188232421875,-10.444351691210269,1.0311470284201205,-9.22329540052712
1772534908094205200,0.784205078125,-10.45494556593895,0.9582841098483651,-9.118692870280146
1772534908104222200,0.79422216796875,-13.85076523156166,-0.3244068722970784,-9.503599950116872
1772534908114238200,0.80423828125,-15.622233637058734,-0.16876564420834184,-9.322346141865848
1772534908124255200,0.814255126953125,-16.143166559410094,-0.1618229123983532,-8.307966269981861
1772534908134272000,0.82427197265625,-15.756795252239703,-0.6109582438545301,-6.3973804856956
1772534908144288300,0.834288330078125,-14.21992587621212,-1.2563643354296683,-4.399456901957095
1772534908154305300,0.84430517578125,-11.819117949658631,-2.0367329146042463,-2.920019431939721
1772534908164322000,0.854322021484375,-8.394491291746496,-2.908935143345594,-1.089393027292192
1772534908174338000,0.864338134765625,-5.372720042815804,-3.6395933506727216,1.4308641393758357
1772534908184355300,0.874355224609375,-3.405909097960591,-2.776497972972691,2.8212565676316617
1772534908194372000,0.8843720703125,-2.1885335416167973,-2.362464459633827,4.014256392131745
1772534908204388000,0.89438818359375,-0.5817249524444341,-2.206373441950977,3.4826252578943966
1772534908214405400,0.9044052734375,0.5277782582014798,-0.8852638087578117,1.8694111855939028
1772534908224422100,0.914422119140625,-0.7059615729659795,-1.8986644603461027,2.868088169172406
1772534908234438100,0.924438232421875,-0.32755729915201665,-4.562524480654299,1.053163191525638
1772534908244455200,0.934455078125,-0.39834465355873105,-4.754065581902862,1.1988760230571032
1772534908254472200,0.94447216796875,-2.2329987062871455,-3.237497235625982,-3.630691082292795
1772534908264488200,0.95448828125,-4.357245945954323,-5.5995449311524625,-3.503912083812058
1772534908274505200,0.964505126953125,-4.146669012585282,-4.925882868766784,-2.705814078940451
1772534908284522200,0.974522216796875,-3.3197675225555896,-3.974572324258089,-1.9990610633358359
1772534908294538200,0.984538330078125,-1.944153122845292,-3.1433599852919576,-0.8506289870977402
1772534908304555300,0.99455517578125,-0.018808745366334916,-2.3525980223968626,0.7797340806633234
1772534908314572000,1.004572021484375,1.7128636563152073,-1.9452914792254565,3.0317139662742614
1772534908324588300,1.01458837890625,3.2610312559485433,-2.039694102497399,4.887755967207252
1772534908334605300,1.024605224609375,5.490231738996505,-2.5474112771838904,5.6554304845035075
1772534908344622000,1.0346220703125,5.531164053365588,-2.413816168947518,5.574732561457157
1772534908354638000,1.04463818359375,8.592374747759104,-1.6381583978123961,4.49843311675489
1772534908364655400,1.0546552734375,8.608006032133101,-1.5288842224925756,4.470192233915626
1772534908374672100,1.064672119140625,8.99151025943458,-1.5145121443994343,3.8242873625054954
1772534908384688000,1.074688232421875,9.014404812809824,-1.295982206199318,3.706085345973074
1772534908394705400,1.084705322265625,8.972128098094462,-0.49330144011471416,3.504266011816263
1772534908404722200,1.09472216796875,9.115959645923972,-0.22427706701736896,3.6734310306057334
1772534908414738200,1.10473828125,9.232682822075486,-0.022816282240953296,3.8308909985542297
1772534908424755200,1.114755126953125,9.266257759419084,0.03291240004794672,3.730216747666895
1772534908434772200,1.124772216796875,8.524639182138442,0.38124578085020183,4.341401018829644
1772534908444788200,1.134788330078125,8.02342335216999,0.4585039387062192,4.703706683018804
1772534908454805200,1.14480517578125,7.676061282351613,0.3946266559489071,4.848349254970252
1772534908464822300,1.154822265625,7.490445771759748,0.5900813869772479,4.627605440112948
1772534908474838300,1.16483837890625,7.282263624572754,0.9445841588631272,4.216233839459717
1772534908484855300,1.174855224609375,7.274685882794857,1.018211851262301,3.91744466189146
1772534908494872000,1.1848720703125,7.171309679472446,1.1689845965318382,3.6761563639163968
1772534908504888300,1.194888427734375,7.074667168319225,1.2463082208395004,3.3021213912278413
1772534908514905000,1.204905029296875,6.937027460867166,1.090255635470897,2.866609328791499
1772534908524922000,1.214922119140625,6.985564989542961,0.764054719363898,2.6866724483579394
1772534908534938000,1.224938232421875,7.208011224403977,0.6131896927010267,2.3822576859928666
1772534908544955100,1.234955078125,6.858897927004098,0.9401887003831565,1.969560681954771
1772534908554972200,1.24497216796875,5.881020862609148,0.9892346900377422,2.10424416994974
1772534908564988200,1.25498828125,4.1251428249537945,0.24504180528968572,2.0663145445279776
1772534908575005200,1.265005126953125,4.1421635178595775,0.30621662415526807,1.9435991422243415
1772534908585022200,1.275022216796875,1.1087263810545205,0.2860750227499753,0.001437339326739311
1772534908595038200,1.2850380859375,1.1032125860691069,0.3977813936527818,-0.036900574634969235
1772534908605055000,1.295054931640625,-1.1375766279637813,0.040241701756417746,-0.8348020340211689
1772534908615072300,1.305072265625,-3.1525118445187803,-0.5367829640425741,-1.1978124854788184
1772534908625088300,1.315088134765625,-3.168424868443608,-0.4362446144945919,-1.1874321073703467
1772534908635105000,1.32510498046875,-8.18996766706705,-1.076254144255817,-1.7909465745575726
1772534908645122300,1.335122314453125,-10.974534087944031,-0.0345152869336307,-3.8803339516371484
1772534908655138300,1.34513818359375,-13.77411336903572,1.6641744442090391,-6.915178617152571
1772534908665155000,1.355155029296875,-16.338546508169173,2.785574721136689,-9.45912192596495
1772534908675172000,1.365172119140625,-18.184172036767006,3.6352895159989593,-11.212865874201059
1772534908685188400,1.375188232421875,-19.758965192997454,4.935387194693088,-11.761889749526977
1772534908695205000,1.385205078125,-20.992252604222298,5.484207656401395,-11.917261513024568
1772534908705222100,1.39522216796875,-22.039140661001206,5.449384764823317,-10.879331838726996
1772534908715238100,1.405238037109375,-22.53313413850069,4.596445747217536,-7.126890692031383
1772534908725255200,1.415255126953125,-22.476797918772697,4.4788329287499185,-7.20375298243761
1772534908735272200,1.425272216796875,-20.896241376709938,2.8879481771573423,-0.9156795514181256
1772534908745288200,1.4352880859375,-20.800384462976453,2.806556134366989,-1.1418167497515679
1772534908755305200,1.44530517578125,-11.66415535148382,-0.561251196475327,3.405523021252453
1772534908765322200,1.455322265625,-6.4624687516778705,-2.6339187632918355,4.264496350586414
1772534908775338200,1.465338134765625,-2.688210325449705,-4.142935379014909,3.7099861528038978
1772534908785355000,1.47535498046875,-0.8600666775286198,-4.2403336769714945,2.1518965863540767
1772534908795372300,1.485372314453125,0.09740940387248992,-3.833523685145378,0.5888292314916849
1772534908805388300,1.49538818359375,2.29246504073441,-6.391341790053248,-2.884149953918159
1772534908815405000,1.505405029296875,4.888520229578018,-8.60787977540493,-8.384197276747226
1772534908825422300,1.51542236328125,4.775446223583817,-7.596634109893441,-9.691861006781458
1772534908835438300,1.525438232421875,4.460824393850564,-6.769214733469486,-7.303767600372433
1772534908845455000,1.535455078125,4.524074338489771,-6.814996825957298,-7.438387083220482
1772534908855472000,1.54547216796875,6.042561670130491,-3.1077590950787064,0.70163377289474
1772534908865488400,1.55548828125,7.276849782830476,-1.9062053772449492,3.402513025781512
1772534908875505200,1.565505126953125,8.837810813063383,-0.646748628757894,5.3439124660044905
1772534908885522200,1.575522216796875,10.214814621305464,0.25341288940235973,6.622527211686968
1772534908895538200,1.5855380859375,10.22129580001831,0.3435843048453331,6.555490149724483
1772534908905555200,1.59555517578125,12.484372833704947,1.3095366842992604,6.318228038525581
1772534908915572200,1.605572265625,13.862736239862441,1.3313339439570904,5.688380567947029
1772534908925588200,1.615588134765625,14.148576796269415,1.753142767472565,5.5216305013447995
1772534908935605200,1.625605224609375,13.74451551862955,1.811092559877038,5.598514419060945
1772534908945622300,1.635622314453125,12.552614595282076,2.0466284318052232,5.44048308096528
1772534908955638000,1.645637939453125,11.376085428589581,2.5061565989926455,5.450265639311075
1772534908965655000,1.655655029296875,10.355235483908652,2.9291321281999347,5.34195607123971
1772534908975672000,1.665672119140625,9.74896587279439,3.240741916635632,5.147220265603065
1772534908985688000,1.67568798828125,9.468891040307282,3.3056755765780803,5.072999429616332
1772534908995704800,1.685704833984375,9.050764412435889,3.120246820729971,5.072743993550539
1772534909005722000,1.69572216796875,8.822113477715849,2.916149897029996,4.901413028898835
1772534909015738000,1.705738037109375,8.711818873307108,2.467561495399475,4.561716963663697
1772534909025755000,1.7157548828125,8.717982072111964,2.4261548415169116,4.56216850682348
1772534909035772200,1.725772216796875,8.641827053192257,1.5404507416456936,3.540866726721823
1772534909045788200,1.7357880859375,8.842562976026535,1.1682616890847681,3.204257813847065
1772534909055805000,1.745804931640625,8.754325305125116,0.9894291166312992,3.0263854647278783
1772534909065822000,1.755822021484375,8.347735385790466,0.7131998536564409,2.836532754957676
1772534909075838200,1.765838134765625,7.412948690581321,0.42239517203606664,2.3701421546548604
1772534909085855000,1.77585498046875,6.93478289681077,0.28666129820533093,1.3766503186292947
1772534909095872000,1.7858720703125,6.954515771284699,0.26714900767952204,1.2999994790166616
1772534909105888000,1.795887939453125,6.0486477120459075,-0.21325740462467074,-0.023932518120855093
1772534909115905000,1.805905029296875,4.800895137616991,-0.8149624843023717,-0.5699041662693023
1772534909125922000,1.815922119140625,4.811080431544781,-0.8205997595369815,-0.6159487090855836
1772534909135938000,1.82593798828125,0.019822890844941137,-1.6728512332700192,-2.1635791331022975
1772534909145955000,1.835955078125,-3.2350434127330776,-2.2315371093019842,-2.954932632149756
1772534909155972000,1.84597216796875,-7.429632698878645,-2.457712593819201,-3.9959424445450304
1772534909165988000,1.855988037109375,-11.007726747971773,-2.5108801203832027,-4.855623337626457
1772534909176004900,1.8660048828125,-13.581340387904643,-2.925200341708958,-5.368764583188295
1772534909186022100,1.876022216796875,-15.411859532785416,-3.327210239776969,-5.326442860287427
1772534909196038000,1.886037841796875,-17.197114471572636,-2.687581379896402,-5.70311344217658
1772534909206055000,1.896054931640625,-18.651731096327303,-0.5626438198775052,-6.94338004476428
1772534909216072200,1.906072265625,-20.293592294180392,1.5057415395751594,-7.495013225805759
1772534909226088000,1.916087890625,-22.59564524747133,3.0393156734496354,-7.796746932393312
1772534909236105000,1.92610498046875,-24.429942741847036,4.1574610402345655,-7.241020929080247
1772534909246121000,1.936120849609375,-24.96681674517393,4.676996370747685,-5.790461470761895
1772534909256138000,1.946137939453125,-24.458736290132997,4.437122615745664,-3.937968979004025
1772534909266155000,1.956155029296875,-23.49830603510141,3.637197395446896,-1.6857333650663493
1772534909276171000,1.9661708984375,-22.088663693583012,2.7995594073474406,0.2056663649737835
1772534909286187800,1.976187744140625,-19.446275208109615,2.0040248232230544,0.9305424817681311
1772534909296205000,1.986205078125,-15.675333943605422,0.9816530758023262,0.6895306626468897
1772534909306221000,1.996220947265625,-11.017978092873095,-0.26120186277814206,0.3541062833815813
1772534909316237800,2.00623779296875,-6.500725709357857,-1.1579813372846692,-0.07828677025139331
1772534909326255000,2.016255126953125,-3.06769187310636,-1.2916168505966663,-0.5850473748654127
1772534909336271000,2.02627099609375,-0.7724637973994016,-0.5703957491785288,-1.3400900818645953
1772534909346287900,2.036287841796875,1.447360370016098,0.04254048021808266,-1.9273609779983758
1772534909356305000,2.046304931640625,4.053196363639831,0.17821502507701514,-2.669367677813768
1772534909366321200,2.056321044921875,3.993987218824029,0.2619109608955681,-2.5500699749991296
1772534909376338000,2.066337890625,9.48040319892466,-0.22974998200312255,-3.09227335665524
1772534909386355000,2.07635498046875,11.422649611365795,-0.9879871011294424,-2.35857972715497
1772534909396371000,2.086370849609375,13.093973050546646,-1.4581523976653814,-1.2429901823326945
1772534909406388000,2.096387939453125,14.147082758319376,-1.7027046658724545,0.15757307293415068
1772534909416405000,2.106405029296875,14.038658623957634,-1.2309388022720813,1.5695318747013807
1772534909426421000,2.1164208984375,14.095615605932473,-1.2801364022918045,1.4326605212733148
1772534909436438000,2.12643798828125,12.174379832816124,0.1237364159144461,3.8403164140254256
1772534909446455000,2.136455078125,11.170814200413226,0.5486651250161231,4.79045440762341
1772534909456471000,2.146470947265625,10.235511372375488,1.00626166655384,5.232339512223005
1772534909466487800,2.15648779296875,9.692164373642205,1.0718688418436795,5.572479814094304
1772534909476505000,2.166505126953125,9.73861340560615,1.0065754817433654,5.4321214953333135
1772534909486521000,2.17652099609375,9.24832228975594,0.7199924364060163,5.271783633860945
1772534909496537900,2.186537841796875,9.236092922779918,0.4678462790038436,5.106715821257233
1772534909506555100,2.19655517578125,9.584615268549323,0.2681795197710395,4.978359490457177
1772534909516571100,2.206571044921875,9.640077628052234,0.30346177248917516,4.724374792516231
1772534909526588000,2.216587890625,9.2976156052351,0.2854936426654458,4.443549433922767
1772534909536605000,2.22660498046875,8.922163166964054,0.16412746301367878,4.060110088551045
1772534909546621200,2.23662109375,8.72955092935264,0.14967705898731945,3.592855564895272
1772534909556638000,2.246637939453125,8.533343297597765,0.2059500042207539,3.057496057784557
1772534909566655000,2.256655029296875,8.194066919079422,0.19210107321888206,2.546841368341446
1772534909576671000,2.2666708984375,7.9599033584177485,0.01029328434690833,2.219073933570087
1772534909586688000,2.27668798828125,7.721761541774868,-0.15334887936785815,1.872191756223142
1772534909596705000,2.286705078125,7.54803345285356,-0.2784787224020809,1.4788766212642193
1772534909606721000,2.296720947265625,7.067254846236109,-0.38822080749459564,0.7853281012780964
1772534909616738000,2.306738037109375,6.712875591132044,-0.46404213748052714,-0.012781447900831699
1772534909626755000,2.316755126953125,6.528065551704168,-0.798253341563791,-0.5142999140776694
1772534909636771000,2.32677099609375,6.3649447815150015,-0.9665690500475466,-1.1440092913597821
1772534909646787800,2.336787841796875,6.362974942746758,-0.9135872553139924,-1.1631764947749674
1772534909656805000,2.34680517578125,4.601963633856177,-0.9871647518958896,-1.9003407229952514
1772534909666821000,2.356821044921875,2.1645044312536714,-0.9991827411435544,-2.244803418110311
1772534909676838000,2.366837890625,2.1679951959788797,-0.9367697587851435,-2.308668279777467
1772534909686855200,2.376855224609375,-2.9342525399535893,-1.6739156476311385,-3.3763252760797737
1772534909696871200,2.38687109375,-4.992205060458183,-1.7543736244417727,-3.9726369722813364
1772534909706888000,2.396887939453125,-6.225422329056262,-2.2990566940844057,-4.034826594212651
1772534909716905000,2.406905029296875,-6.604001959437132,-2.8781898764699694,-4.316821288846433
1772534909726921000,2.4169208984375,-6.660013184994459,-2.661006968964636,-4.2450154050469395
1772534909736938000,2.42693798828125,-7.586606052353978,-3.0370810462653637,-3.014056436769664
1772534909746955000,2.436955078125,-10.405329009854793,-2.166562240566313,-2.369178862580657
1772534909756971000,2.446970947265625,-14.539374103188514,-0.4789855857208371,-3.1533138085514305
1772534909766988000,2.456988037109375,-18.545465016782284,0.16274550713598726,-3.8706253353103994
1772534909777005000,2.467005126953125,-21.619086864459515,0.11296499266177415,-4.371635413573682
1772534909787020800,2.477020751953125,-24.33644262037277,-0.20510756204724312,-5.299933623546361
1772534909797038000,2.4870380859375,-25.78534612817764,-0.573340278197825,-5.860467903923988
1772534909807055000,2.49705517578125,-25.693767914676666,-0.5995309505090117,-5.3224757102221245
1772534909817070800,2.50707080078125,-24.28907296643257,0.5126349034748972,-4.655715682309865
1772534909827088000,2.517087890625,-22.19000576072931,1.0704247074499726,-3.2119083286002277
1772534909837105200,2.527105224609375,-19.500195014345646,1.382657596220076,-1.7816770803004502
1772534909847121000,2.537120849609375,-16.412321353954077,1.6721332942590117,-1.0782099544987083
1772534909857138000,2.547137939453125,-12.602284927380085,1.5103846892058848,-0.5342912933573126
1772534909867154000,2.55715380859375,-8.475999362131953,0.8255082821056247,-0.40705812136828895
1772534909877171000,2.5671708984375,-8.467136256718636,0.7891231096468866,-0.4135214721634984
1772534909887188000,2.57718798828125,-1.3923492614120243,-0.6749445034116506,-0.7272828856751322
1772534909897204000,2.587203857421875,2.2523978187620637,-1.6314759974390267,-1.3796353257894516
1772534909907221000,2.597220947265625,6.146255853360891,-2.298723808868229,-2.0036825856566427
1772534909917238000,2.607238037109375,10.247739570307731,-2.531217682752013,-2.4317355642586946
1772534909927254000,2.61725390625,10.214643940913676,-2.440010494520515,-2.3955223873659968
1772534909937270800,2.627270751953125,14.728628262543678,-3.409979123878479,-2.528185475449264
1772534909947288000,2.6372880859375,16.094861670446395,-2.187983652649075,-1.7836343518480657
1772534909957304800,2.647304931640625,15.898191097354887,-1.5848388955570756,-0.6955810487270355
1772534909967321600,2.657321533203125,14.074692060369252,-1.2713210815429687,0.7772355418458581
1772534909977338600,2.667338623046875,11.297192509138583,-0.5740232920259237,2.31443488048017
1772534909987354600,2.677354736328125,9.45326793923974,0.04833996027708053,3.457742161050439
1772534909997371600,2.68737158203125,8.925299711424111,0.5361405744858085,4.522937151153386
1772534910007388700,2.697388671875,9.237461288523674,0.9389445455409586,5.37949815864861
1772534910017404700,2.70740478515625,9.651613167545198,1.2947013726085423,5.685176803469657
1772534910027421700,2.717421630859375,9.694285603579878,1.2481499031834304,5.575591224113106
1772534910037438700,2.727438720703125,9.817883341675996,1.2364901527889072,5.438794397225975
1772534910047454700,2.737454833984375,9.687197691145538,1.2633917498484253,5.565335203036666
1772534910057471500,2.747471435546875,9.580427753731607,1.4587863116547464,5.685611103233695
1772534910067488800,2.75748876953125,8.951471679034828,1.5789533446498214,5.436887102299928
1772534910077504500,2.76750439453125,8.95764130758047,1.5134507987782357,5.445763067194819
1772534910087521500,2.777521484375,7.513387671408057,1.5714730718970298,4.347557495632768
1772534910097538800,2.787538818359375,7.056020920038223,1.5740513979524373,4.068336649626493
1772534910107554600,2.797554443359375,6.682101682683825,1.4346680617034435,3.964055314157903
1772534910117571600,2.807571533203125,6.482776211169361,1.1938417552169411,3.7269767428323624
1772534910127588600,2.817588623046875,6.499460219466686,1.1560987384084611,3.681408000834286
1772534910137604600,2.8276044921875,7.001421899366378,0.6413333987761288,3.3785280468210575
1772534910147621600,2.83762158203125,7.321723528301716,0.22598507651165126,3.0134926654070613
1772534910157638700,2.847638671875,7.6303855728477235,-0.20405615329816937,2.448018590539694
1772534910167654400,2.857654296875,7.4899384067595,-0.6688656218893826,1.927998399119079
1772534910177671700,2.867671630859375,7.309262690657377,-1.0866896135523916,1.2002375206686555
1772534910187688700,2.877688720703125,7.129258590206503,-1.1036376065481452,0.7278089553758501
1772534910197704400,2.887704345703125,6.96764296388328,-0.9823038678612559,0.6341388841621577
1772534910207721700,2.8977216796875,6.698608580848574,-0.8990084756676107,0.4510881094917655
1772534910217738800,2.90773876953125,5.9181216359913345,-0.94849307593517,0.39804873935207724
1772534910227754500,2.91775439453125,4.783139116173983,-1.076194596088305,0.12090586866363882
1772534910237771500,2.927771484375,2.832555668020248,-1.416174519766122,0.097754271787405
1772534910247788500,2.93778857421875,0.7437368846088648,-1.9068819613322614,-0.01761705136373639
1772534910257804500,2.947804443359375,-0.9257780438452958,-2.2520631799802184,-0.42705972978100176
1772534910267821600,2.957821533203125,-2.2460130861610175,-2.5712621083706617,-1.033747274046391
1772534910277838600,2.967838623046875,-3.2207951071500776,-2.988138443920016,-1.9908438546106217
1772534910287854600,2.9778544921875,-4.93144985524416,-3.51963952203691,-2.2867976626224813
1772534910297871600,2.98787158203125,-8.12493785327375,-3.7951702813535926,-2.5941774122729897
1772534910307888400,2.997888427734375,-12.599745764291285,-2.8416514131456614,-3.623449148340523
1772534910317904600,3.007904541015625,-17.952386895674465,-1.1135942793518303,-4.775379003566504
1772534910327921700,3.017921630859375,-22.650209196829795,0.31077202243730423,-5.957013968965411
1772534910337938400,3.0279384765625,-25.478553969156742,1.6609744791239498,-7.7553353100746865
1772534910347954400,3.037954345703125,-26.14900057662725,3.22351313393712,-9.142807320839166
1772534910357971700,3.0479716796875,-25.623861434757707,3.8481630358725782,-8.148200655439496
1772534910367987700,3.05798779296875,-25.627595360589027,3.8067245255470272,-8.113675285503268
1772534910378004500,3.06800439453125,-24.127688810777663,4.536707610091566,-3.105526221460104
1772534910388021800,3.078021728515625,-22.5819370401144,4.604728714655339,-0.5724328079640865
1772534910398037800,3.088037841796875,-20.234892267930505,4.087960803028941,1.2664020375803111
1772534910408054500,3.098054443359375,-17.144243297606707,3.4295442405700682,1.8108979140877723
1772534910418071600,3.108071533203125,-13.665740672600268,2.5223089846313,1.4971367928370833
1772534910428087800,3.118087890625,-10.551957494926452,1.9315100605018436,-0.1252998658388853
1772534910438104600,3.1281044921875,-7.798909078863263,1.7806097433298824,-2.2463597076416013
1772534910448121600,3.13812158203125,-5.12581975017786,1.8125810448691249,-4.07937505325228
1772534910458137600,3.1481376953125,-2.5169138475894925,1.9319713944032788,-5.337790768253803
1772534910468154600,3.158154541015625,0.04053191687464714,1.5173814162254333,-5.247057773405313
1772534910478171600,3.168171630859375,0.020680968979001044,1.5352081648170948,-5.202264691954851
1772534910488187600,3.178187744140625,5.455681819140911,-0.4835639995522797,-4.029364529414475
1772534910498204700,3.18820458984375,8.674746156975626,-1.1979072510901838,-2.5302260413661597
1772534910508221700,3.1982216796875,11.921188331079483,-1.6639055641397833,-0.9664195585742592
1772534910518237700,3.20823779296875,14.967570289653539,-1.9530228041298687,0.5522153648436069
1772534910528254500,3.21825439453125,14.994585722351074,-1.870325085568428,0.4389823688954115
1772534910538271700,3.228271728515625,18.15272008292675,-1.7016697698667644,3.168395642349124
1772534910548287700,3.238287841796875,16.954391756880284,-1.2823024942845105,2.7859543681040404
1772534910558304500,3.248304443359375,14.570288296890258,-0.9146221513196825,2.5027777702093124
1772534910568321800,3.25832177734375,11.82861409227848,-0.9430961122624576,2.9827473985314366
1772534910578337800,3.268337890625,9.630492053583264,-1.0137099367331712,3.467249117325246
1772534910588354600,3.2783544921875,8.329970011997222,-1.1397520723067223,3.72608651599437
1772534910598371600,3.28837158203125,7.83237178800404,-1.4607885913878678,3.5561093040391802
1772534910608387600,3.2983876953125,8.185303766909241,-2.0079428734496236,3.3466958614915607
1772534910618404600,3.308404541015625,9.259806975844501,-2.4721292417064307,3.3842829570859667
1772534910628421600,3.318421630859375,10.011958637577294,-2.5592197883993384,3.470983335417509
1772534910638437600,3.328437744140625,9.726148476308584,-2.3220208055645224,3.56708516382277
1772534910648454700,3.33845458984375,8.854473194050788,-2.012334532537311,3.850732009577751
1772534910658471700,3.3484716796875,7.855787734904885,-1.740005930262804,4.127842147040367
1772534910668487400,3.3584873046875,7.112234390169382,-1.5238437441073358,4.156078061443567
1772534910678504700,3.368504638671875,6.7292895503163335,-1.3912544519126415,4.049943207062781
1772534910688521700,3.378521728515625,6.5196507745802394,-1.1709469826459884,3.9522099780634043
1772534910698537500,3.388537353515625,6.2662657960981125,-1.108813182555139,3.705432727283239
1772534910708554500,3.398554443359375,6.064605744156241,-1.0131862781852483,3.2957658847212787
1772534910718571800,3.40857177734375,5.955694118538498,-0.8040593974940479,2.6498627668768164
1772534910728587500,3.41858740234375,5.878208727797865,-0.7539689402878283,2.1807246214315295
1772534910738604500,3.4286044921875,5.982748714202642,-0.5937781956685707,2.051733353728801
1772534910748621800,3.438621826171875,6.210872994700074,-0.18077903034612536,1.802482698572427
1772534910758637600,3.448637451171875,6.885408332788944,0.17440752255283296,1.0619899104513226
1772534910768654600,3.458654541015625,7.743960514101386,0.45944618799239395,0.004074117571115494
1772534910778670600,3.468670654296875,8.225462174296378,0.8746995985150336,-0.8524488960012793
1772534910788687600,3.4786875,7.715130140936374,1.0635286643259227,-1.3203637832619248
1772534910798704600,3.48870458984375,6.212116857281327,1.0160345802884547,-1.5680970195926724
1772534910808720600,3.498720703125,4.340629742196202,0.8905196103941648,-1.4453924309439956
1772534910818737400,3.5087373046875,2.31031341663599,0.8176573494095355,-1.2747060478061436
1772534910828754700,3.518754638671875,0.3502846792668104,0.2829149512838572,-1.2826174054525792
1772534910838770700,3.528770751953125,-2.2837159170895815,-0.806853485191986,-1.1746857307828962
1772534910848787500,3.538787353515625,-6.205302501091361,-1.8763789787799119,-0.696915877527371
1772534910858804700,3.5488046875,-10.069638088607787,-3.090812928713858,-0.24245025442652404
1772534910868820700,3.55882080078125,-14.31271054289341,-4.001571098081767,-0.21915683792680501
1772534910878837500,3.56883740234375,-19.507949281734227,-3.1432740605741736,-0.8603970785267651
1772534910888854500,3.5788544921875,-25.106603986048697,-1.146499354609847,-2.2074182748287914
1772534910898870800,3.588870849609375,-29.756288571500775,0.5883446628451346,-3.4744659168362615
1772534910908887600,3.598887451171875,-31.636160068571566,1.9830463326022028,-4.036024864086508
1772534910918904600,3.608904541015625,-30.98039431288242,1.9010364501744508,-3.1005428800895807
1772534910928920600,3.618920654296875,-29.801535241937636,1.1129847691513597,-1.2650333795756101
1772534910938937600,3.6289375,-28.19094362709522,1.2539730563789606,0.3455098660804331
1772534910948954600,3.63895458984375,-25.454244872808456,1.7094235988639295,1.5455854741856454
1772534910958969600,3.648969482421875,-21.69746189751625,1.6886702953010797,1.7751140685230493
1772534910968986600,3.658986572265625,-16.9325762309134,1.0565871015597135,1.1266793863743543
1772534910979003600,3.669003662109375,-11.66298163152933,0.5334262009605765,-0.2382083790730685
1772534910989019600,3.67901953125,-7.0480953877359624,0.16002821100130676,-2.1801735634200274
1772534910999036700,3.68903662109375,-3.363005191257596,-0.28303192872703076,-4.1743110527485605
1772534911009053400,3.699053466796875,-0.4781079261034727,-0.24690248459503053,-6.362471669399738
1772534911019069700,3.709069580078125,2.057080998367071,-0.014550211139023304,-7.7123010549902915
1772534911029086500,3.71908642578125,2.0242922429651022,0.05407675036340952,-7.5907883064746855
1772534911039103500,3.729103515625,4.176930879858136,0.49285629016309973,-7.866817078441381
1772534911049119500,3.739119384765625,7.39169021397531,1.0116403639174998,-5.282418425121903
1772534911059136500,3.749136474609375,7.414929050743579,1.001232513280213,-5.401436434212327
1772534911069153500,3.759153564453125,8.966587999624013,1.363246793307364,-1.6728443651378153
1772534911079169500,3.76916943359375,9.98848774561882,1.9559226172246038,-0.31057913021370764
1772534911089186600,3.7791865234375,11.377518676263094,2.046065098834038,0.9760225956346839
1772534911099203600,3.78920361328125,12.676679366368054,2.196947441957891,1.7266253474250435
1772534911109219600,3.799219482421875,13.62521343190074,2.3467070646621284,1.8534104833856224
1772534911119236400,3.809236328125,14.209526062750815,2.1941258086659015,1.5476222407102584
1772534911129253600,3.819253662109375,14.421055182278156,1.8448428537875412,1.045173654076457
1772534911139269600,3.82926953125,14.31766962660551,1.4994528146944939,0.6459942301940172
1772534911149286400,3.839286376953125,14.195093048250675,1.0115389493696392,0.5226720941688865
1772534911159303700,3.8493037109375,13.991092570662497,0.4190289835385978,0.5661255245134235
1772534911169319700,3.859319580078125,13.65803433600664,-0.008410685470700263,0.6161424780920147
1772534911179336400,3.86933642578125,13.649243126785754,-0.059742228779196736,0.7396186356350779
1772534911189352400,3.8793525390625,12.304836935287714,-0.1259196051724255,0.7459804257519542
1772534911199369700,3.88936962890625,10.855495036065578,-0.05383665799722075,1.106253707330674
1772534911209386500,3.899386474609375,9.230876064914465,0.11008519944176078,1.642157112059742
1772534911219402500,3.909402587890625,7.838205316463112,0.24378917488008736,2.031155406732857
1772534911229419500,3.91941943359375,7.834198418909311,0.15860395035184918,2.103023249852657
1772534911239436500,3.9294365234375,6.487028607916832,0.1540459217213094,2.536891636735201
1772534911249452500,3.93945263671875,6.16298662340939,-0.20993622431270778,2.9525103734388947
1772534911259469600,3.949469482421875,5.905881747621297,-0.6491376427862793,3.225149210706353
1772534911269486600,3.959486572265625,6.1337786491036415,-0.8333040505483746,3.2724659654155372
1772534911279502600,3.969502685546875,6.660701751780509,-0.7689272207710891,3.03231310121119
1772534911289519600,3.97951953125,7.034698730546236,-0.7934544899147004,2.6229770980387923
1772534911299536400,3.989536376953125,7.075432307472824,-0.8384385638926177,2.3159495228268203
1772534911309552600,3.999552734375,6.979243385306,-0.8146022726878523,2.0710896499752995
1772534911319569700,4.009569580078125,6.891721169197559,-0.5955553248763084,1.9583703026376664
1772534911329586400,4.01958642578125,6.8009197852879755,-0.2491543551750481,1.999622204349935
1772534911339602400,4.0296025390625,6.684959994724393,-0.020563845405355094,1.9257677174575625
1772534911349619700,4.03961962890625,6.378084833595156,0.166457878722623,1.4662711144521832
1772534911359636500,4.049636474609375,5.580035928562284,0.08482683954462408,0.8975007745184004
1772534911369652500,4.059652587890625,5.580550307825208,0.12828063521534203,0.8661953895419836
1772534911379669800,4.069669677734375,0.8902911354005336,-0.20662563845999538,0.5396605653055012
1772534911389686500,4.0796865234375,-3.6678906398743387,0.474865510116145,-0.10224822220578789
1772534911399702500,4.08970263671875,-9.129008512589335,1.1885418221779167,-1.4441392160125075
1772534911409719600,4.099719482421875,-9.138238697749376,1.166240777716413,-1.3818734601050615
1772534911419736600,4.109736572265625,-20.88730286797285,2.2833672497823834,-5.501875999560952
1772534911429752600,4.119752685546875,-24.1873381005764,3.611754034371674,-7.540307827037572
1772534911439769600,4.12976953125,-24.901513959658143,4.281341394664347,-6.93991090734899
1772534911449786600,4.13978662109375,-24.030482820522785,4.243915334850549,-7.299767717081308
1772534911459802600,4.149802734375,-24.057052847540376,4.184491962762177,-7.159072129189967
1772534911469819600,4.159819580078125,-23.629133724451062,4.017971905523538,-6.8842036331743
1772534911479836400,4.16983642578125,-22.4487034586668,3.193312056940794,-3.6426582912012933
1772534911489852700,4.179852783203125,-20.46571762408018,2.8787141926050186,-0.4498661664813757
1772534911499869700,4.18986962890625,-19.841132604074478,1.9831755119398236,2.379075256564468
1772534911509885400,4.199885498046875,-19.824990447568894,1.7678069603800772,2.3518730691231786
1772534911519902500,4.20990234375,-20.301829376649856,0.48915717991683627,4.555026818375289
1772534911529919700,4.219919677734375,-20.337585749685765,0.3520041600031778,4.700760108172894
1772534911539935500,4.229935546875,-15.279063173711299,-0.8305162464607506,1.2722688837870955
1772534911549952500,4.239952392578125,-10.35792779173255,-1.5192201759599149,-0.9847963422641157
1772534911559969500,4.249969482421875,-10.389101513153314,-1.478274563717842,-0.8822691569864749
1772534911569985500,4.259985595703125,-0.13489654622375966,-4.192754764194786,-4.487309665194154
1772534911580002600,4.27000244140625,3.5875077741265295,-5.6748833729922765,-6.731582045167684
1772534911590019600,4.28001953125,6.3315709197014565,-5.209114703980088,-6.116717624187469
1772534911600035600,4.29003564453125,9.59276934891045,-4.327792472454905,-4.0301103793457145
1772534911610052600,4.300052490234375,9.596658757564425,-4.16866164868474,-4.069556254549324
1772534911620069400,4.3100693359375,14.328759175896645,-1.4767254345797,0.017691431774199008
1772534911630085400,4.32008544921875,15.267896467530726,-0.7910708827137947,1.2151447285518049
1772534911640102700,4.3301025390625,15.206508809632062,-0.06417940750904381,1.4043395589351653
1772534911650119400,4.340119384765625,14.364581015384196,0.057237114090472455,1.3219623044997453
1772534911660135400,4.350135498046875,14.35679518381357,0.07466923734135926,1.3427452725484967
1772534911670152700,4.360152587890625,11.575340757477283,-0.12814034996181725,1.6327300891533494
1772534911680169500,4.37016943359375,10.70931195667386,-0.04441058493889868,1.6986869546636938
1772534911690185500,4.380185546875,10.411029267323016,-0.14781528370343147,2.0800842728137967
1772534911700202500,4.390202392578125,10.60740991755724,0.0330205913964659,2.577555947817862
1772534911710219500,4.400219482421875,10.632822591233253,0.04278700232505798,2.4782734435498712
1772534911720235500,4.410235595703125,11.222279014712571,0.5312575516846031,3.6338700045898555
1772534911730252500,4.42025244140625,11.075569865620135,0.7133283754069357,3.901194953358173
1772534911740269600,4.43026953125,10.585555813145637,0.9735157273802906,4.1426778971225025
1772534911750285600,4.44028564453125,10.081118098521232,1.1671972016584127,4.237428018657863
1772534911760302600,4.450302490234375,9.810354699736832,1.0714259203817695,4.171669598329067
1772534911770319400,4.4603193359375,9.436639460521937,0.6051868573788554,4.160093726825714
1772534911780335600,4.470335693359375,8.79229000186026,0.6263208308223635,3.9424347262412307
1772534911790352600,4.4803525390625,8.714005569696425,0.9344194693319499,3.239612620344758
1772534911800369400,4.490369384765625,8.784464422801136,0.9357785557907075,2.1937239498667416
1772534911810385400,4.500385498046875,8.797668772289157,0.9097706927005201,2.147309843085706
1772534911820402700,4.510402587890625,6.858155584204196,0.7462601194761693,2.7681024850711227
1772534911830419500,4.52041943359375,5.04239737060368,0.31120193828716874,2.932285331533849
1772534911840435500,4.530435546875,5.154385334926843,0.06905234730765224,2.422595541600138
1772534911850452700,4.54045263671875,6.452078290566802,0.7254903762351721,1.8358185664631426
1772534911860469500,4.550469482421875,6.889213570290804,0.8413628538414836,1.4955945318311452
1772534911870485500,4.560485595703125,8.016251853105425,0.18618446958623824,0.8837541348472238
1772534911880502500,4.57050244140625,7.838138680967688,-0.12323080447986721,0.6597571634128689
1772534911890518800,4.580518798828125,6.7839335791736834,-0.486764695289731,0.8437970952510834
1772534911900535600,4.59053564453125,5.294827240318059,-1.0125598168499768,0.8150223977960646
1772534911910552600,4.600552490234375,5.296399604201317,-0.9602782793402671,0.7543617389976978
1772534911920568600,4.610568603515625,1.2140490422695875,-1.2806919903479517,-0.20685893575921654
1772534911930585600,4.620585693359375,-2.4654846891254185,-1.7770900447711349,-0.10077508091330528
1772534911940602600,4.6306025390625,-6.112790221610665,-2.0612465936139226,-0.34689898235127326
1772534911950618600,4.64061865234375,-9.740296244126558,-2.029665022044629,-1.5218134073235094
1772534911960636200,4.65063623046875,-12.651094843256473,-2.0313687572225927,-2.750113823916018
1772534911970653200,4.660653076171875,-13.938443515014647,-1.446500538316369,-4.231682753004134
1772534911980669000,4.6706689453125,-15.637961952066421,-0.21907748908028005,-5.953071368819475
1772534911990686200,4.680686279296875,-19.506463427090644,-0.057688218858838076,-7.901202163124084
1772534912000703000,4.690702880859375,-24.199150118923185,0.6235390180841088,-9.573273790323734
1772534912010719000,4.700718994140625,-27.953094655919074,4.547889513841271,-10.381391669428348
1772534912020736000,4.710736083984375,-30.564373717379567,7.100811078879237,-8.766744057193398
1772534912030753000,4.7207529296875,-30.519657792818546,6.911458719846606,-8.859943149894475
1772534912040769000,4.73076904296875,-23.715692063963413,5.6042859881997105,-1.8006971303299069
1772534912050786000,4.7407861328125,-15.783579214268922,4.349572927108407,0.6124366093114018
1772534912060803000,4.750802978515625,-9.285830474895238,3.2838846005305644,2.3090562561817465
1772534912070819000,4.760819091796875,-6.422658719336986,2.8350527455329892,2.263477723442018
1772534912080836000,4.770836181640625,-7.707848167234658,3.064641253364086,0.8596085584975779
1772534912090852900,4.780852783203125,-10.142444966143369,1.6549769922748208,-0.4994190096795559
1772534912100869000,4.790869140625,-10.436475843268632,-0.0948098340996541,-2.078561885552108
1772534912110886100,4.80088623046875,-10.540959131050109,-0.19954273099433628,-1.7564304108411073
1772534912120903000,4.81090283203125,-4.512953809538484,-1.958926767476648,-5.047078221896291
1772534912130919000,4.8209189453125,-0.6093108785063028,-2.6669702612832187,-4.9371945363759995
1772534912140936200,4.830936279296875,2.7827970731168983,-3.6586385351434347,-3.8561490661904214
1772534912150953000,4.840952880859375,5.570225897687673,-4.451543647547066,-2.319123330557346
1772534912160969000,4.850968994140625,5.610464384573698,-4.4267841770827765,-2.4287162164375187
1772534912170986200,4.860986328125,9.879081614482402,-4.047381247620284,0.1774047316074371
1772534912181002200,4.871002197265625,11.445737056964635,-3.5906770518124103,1.5531538636133073
1772534912191019000,4.88101904296875,12.274412570929526,-3.203543528097868,2.548972242890298
1772534912201036000,4.8910361328125,12.183584883534907,-2.735062969778478,3.0515353958144784
1772534912211052300,4.90105224609375,12.183960146588086,-2.7755729670822618,3.049537792256474
1772534912221069000,4.911069091796875,10.754982990002631,-2.6340257307976485,3.664617609553039
1772534912231086000,4.921086181640625,10.331973850786685,-2.73446266579777,4.040395918777585
1772534912241102000,4.93110205078125,10.046876806223391,-2.6864158432483674,4.456892315098643
1772534912251119000,4.941119140625,9.993250429975985,-2.4728759684205053,4.5143785816445945
1772534912261136100,4.95113623046875,10.049317769634722,-2.0063906755715606,4.291008509936929
1772534912271152000,4.961152099609375,10.312076725661754,-2.730506913909316,4.834285366043448
1772534912281169200,4.971169189453125,10.298834966772795,-3.2174124789744614,5.4967719544202085
1772534912291186200,4.981186279296875,9.822793325549364,-2.557306940515339,5.135007849761843
1772534912301202200,4.9912021484375,9.209454506701231,-2.663652222776413,5.2234121094018215
1772534912311219000,5.001218994140625,8.208527990630268,-2.5447140009239315,5.540125358456373
1772534912321236200,5.011236328125,7.185590133759379,-2.147485930304974,5.628733616235852
1772534912331252200,5.021252197265625,6.432428418201208,-1.9145093874707817,5.671702404868602
1772534912341269000,5.03126904296875,6.027935178884864,-1.9804177376642822,5.689419263345003
1772534912351286300,5.041286376953125,5.802283425980806,-2.084486453295499,5.264537315994501
1772534912361302000,5.051302001953125,5.816306690636277,-2.055763778288662,5.225891066735983
1772534912371319000,5.061319091796875,5.909786353844404,-2.04210247881338,4.7514992385461925
1772534912381336000,5.071336181640625,6.1580602729231115,-2.1693758366823195,4.258473437035083
1772534912391352000,5.08135205078125,5.984661269825697,-1.83118886083588,3.8490409877508878
1772534912401369000,5.091369140625,5.705376126411557,-1.6230356474824248,3.374045348449051
1772534912411386000,5.10138623046875,5.725738530960679,-1.5426846381776034,3.3091672180861234
1772534912421401900,5.11140185546875,4.886772509127855,-1.3826739628329872,1.6324091866359114
1772534912431419100,5.121419189453125,4.11323260692954,-1.8668289140157401,1.03546036157459
1772534912441436200,5.131436279296875,2.752522930884361,-2.413402765841037,0.44792555380761623
1772534912451452000,5.141451904296875,0.8552332660228014,-2.56920429905802,0.0200859256953001
1772534912461469200,5.15146923828125,-1.4434610244899988,-2.376654897549748,-0.24653978876248
1772534912471485200,5.161485107421875,-4.387081112247706,-1.993921800751239,-0.24972061075568197
1772534912481502000,5.171501953125,-7.602436658692359,-1.3040528460606933,-0.6498067011542618
1772534912491519000,5.18151904296875,-10.304280372697114,-0.6261222395103424,-1.6789895898945628
1772534912501535200,5.19153515625,-11.611945856297016,-0.9336790262281894,-2.4557599984467027
1772534912511552000,5.201552001953125,-11.624255887293815,-0.7344472243465483,-2.5138579671502113
1772534912521569000,5.211569091796875,-13.414461726486682,0.9060111209712922,-6.200777717143297
1772534912531585000,5.2215849609375,-15.038509035229682,1.6635083815157412,-7.729198998299241
1772534912541602000,5.23160205078125,-17.71306609838009,1.4754669589512048,-8.464488957080244
1772534912551619000,5.241619140625,-20.55424930949211,1.9949037975259125,-9.10734554683566
1772534912561635000,5.251635009765625,-22.453052301526068,2.6983798372864722,-8.686029183012247
1772534912571652000,5.261652099609375,-22.644850300145148,2.6623008081674575,-7.107402732229232
1772534912581669000,5.271669189453125,-19.694174448657034,1.7691098596721886,-4.434231570479273
1772534912591685000,5.28168505859375,-15.117968940913677,1.2253814604058861,-1.298231446430832
1772534912601702000,5.291701904296875,-11.794079369992017,1.0671095915526152,1.0549084277577698
1772534912611719200,5.30171923828125,-10.498787045753001,1.4732269249394536,2.196531846894324
1772534912621735200,5.311735107421875,-10.100268204671144,1.6211081865511834,3.0448204083457586
1772534912633004300,5.32300439453125,-10.092527965807914,1.491586026842147,3.094091804254055
1772534912644899000,5.334899169921875,-8.629597101694346,1.1225511274632065,3.3186937558442353
1772534912654915000,5.3449150390625,-5.666116129168867,0.57387854979299,3.4964597219794986
1772534912664932000,5.35493212890625,-3.0377456476539373,0.20196743739061057,3.1241692548707127
1772534912674949000,5.36494921875,-0.6519155100017786,0.06114150111787021,2.2221073099166153
1772534912684965000,5.374965087890625,1.502359203660488,0.01450819862820208,0.9341142027750611
1772534912694982100,5.384982177734375,3.421584805998206,0.3134409493856132,-0.2108329539567232
1772534912704999000,5.3949990234375,5.1020647805809975,0.32984511782824993,-0.7267559391915798
1772534912715015200,5.40501513671875,5.941104452171921,0.37549174736812707,-0.747419664774835
1772534912725032200,5.4150322265625,6.5407029149591915,0.46508112513944505,-0.27678017485588785
1772534912735049000,5.425049072265625,7.255389061650633,0.2952772239245474,0.6761655696392059
1772534912745065000,5.43506494140625,8.175710009133816,0.052279857009276745,1.6668588609874249
1772534912755082200,5.445082275390625,9.056071871194243,-0.0468714220944792,2.360907293319702
1772534912765099000,5.45509912109375,9.761377026078105,-0.006025836160778999,2.844117510998249
1772534912775115000,5.465114990234375,10.395892488467693,-0.018509762419760226,3.2161881978765128
1772534912785132300,5.47513232421875,10.753329962098597,-0.18475809004493057,3.4620062482357024
1772534912795149000,5.485149169921875,10.757881049531697,-0.3446676431026309,3.3211528394341467
1772534912805165000,5.4951650390625,10.517760626292228,-0.44665487628467376,2.9385043521791694
1772534912815182000,5.50518212890625,10.361288792598247,-0.5368836479380726,2.6587027836754915
1772534912825198000,5.515197998046875,10.325004011774062,-0.5197945659711957,2.5587176840960977
1772534912835215000,5.525215087890625,10.291017571020125,-0.617667130376026,2.482242347180843
1772534912845232000,5.535232177734375,10.266140319395065,-0.7751700606834143,2.3970929976835844
1772534912855248000,5.545247802734375,10.075780244624614,-0.9438235497541725,2.5117855447903272
1772534912865265200,5.55526513671875,9.653789342540502,-0.970244231428951,2.7067946144104003
1772534912875282200,5.5652822265625,9.151744660532474,-0.9113819272894412,2.7653423727080226
1772534912885298000,5.5752978515625,8.584887022352218,-0.9141250154525041,2.798174674990773
1772534912895315200,5.585315185546875,8.010469762572646,-0.8432271864086389,2.8292376295134423
1772534912905332000,5.59533203125,7.468144508102536,-0.795851248858124,2.8249343793615695
1772534912915348000,5.605347900390625,7.028740114402771,-0.901957900057733,2.6853555205404755
1772534912925365000,5.615364990234375,6.857790258023142,-1.2023442106243223,2.621702840319276
1772534912935382000,5.625382080078125,6.928928910085559,-1.2937950714185833,2.5598273989036677
1772534912945398000,5.63539794921875,6.977373499780893,-1.669489063360542,2.4577371437385676
1772534912955415000,5.6454150390625,6.807257756137847,-2.1153587075516582,1.9512081559233367
1772534912965431800,5.655431884765625,6.722517864224314,-2.230809671810269,1.2073363928884266
1772534912975447600,5.665447509765625,6.435406557229161,-2.540234809683263,0.8405923078604042
1772534912985464600,5.675464599609375,5.328222729441523,-3.08570859131217,0.6779803639762103
1772534912995481900,5.68548193359375,3.8730677600264545,-3.3597049806684254,0.46003611670956013
1772534913005497600,5.69549755859375,2.5192583648890254,-3.3025410779446362,0.016096125406771897
1772534913015514600,5.7055146484375,0.7524380774587393,-3.1192084175929424,-0.6710419430151582
1772534913025531600,5.71553173828125,-1.542287309423089,-3.01667451031357,-1.1326321572989224
1772534913035547600,5.725547607421875,-4.882597269269824,-2.9766169329524037,-1.7509513949081301
1772534913045564700,5.735564697265625,-8.670446413955093,-2.1185614491157234,-3.0131682557582855
1772534913055581700,5.745581787109375,-11.954554009586571,-1.5943588574439287,-2.837268668016791
1772534913065597400,5.755597412109375,-14.209651150435208,-3.5176819582283496,-0.9191079184316098
1772534913075614700,5.76561474609375,-16.942493229293824,-2.7214509162724014,-2.340476645839959
1772534913085631500,5.775631591796875,-20.545327167367933,2.3482595548011362,-5.716880101722478
1772534913095647500,5.7856474609375,-25.275051504218577,3.3887224008381365,-6.676314331454038
1772534913105664800,5.795664794921875,-29.74729394866228,2.554407419681549,-6.927262438178062
1772534913115681500,5.805681640625,-31.607558243465423,4.104116403537988,-6.483205834758281
1772534913125697500,5.815697509765625,-31.04117991323471,5.329512769252061,-4.80464718362689
1772534913135714600,5.825714599609375,-27.886456822407244,5.0869467064261435,-2.266166816395521
1772534913145730800,5.835730712890625,-22.913784145414827,5.3335354488968845,-0.7635112601369619
1772534913155747600,5.84574755859375,-17.04220097323656,5.25433740901947,0.6331671165205538
1772534913165764600,5.8557646484375,-11.56307398110032,4.731471472778916,1.8928396997153758
1772534913175780600,5.865780517578125,-6.785712279284,4.190023001143336,2.72440041372776
1772534913185797600,5.875797607421875,-2.7808552913993596,3.389995197252929,3.403140217769146
1772534913195814700,5.885814697265625,0.3385907343417406,3.0922876774415373,3.185501090928912
1772534913205830700,5.89583056640625,2.3100199866473674,3.3338106609553098,2.071133342986554
1772534913215847700,5.90584765625,3.0814959420531984,3.3278093747138975,-0.09921879138201474
1772534913225864700,5.91586474609375,4.054899075904489,3.0862983738988636,-2.7645266724109647
1772534913235880700,5.925880615234375,5.767208605468273,2.519964175070822,-5.0980204736262555
1772534913245897500,5.9358974609375,7.87890557564199,1.6601269223839044,-6.719552584677934
1772534913255914800,5.945914794921875,9.847982711863517,0.9861363586962223,-7.350320677232742
1772534913265930800,5.9559306640625,11.347087297642231,0.3531767474465072,-6.415640949529409
1772534913275947500,5.965947509765625,11.968596563464402,-0.14975436200723052,-4.417356131263077
1772534913285964800,5.97596484375,12.053666710245608,-0.1445972715049982,-2.6175740699514747
1772534913295980800,5.985980712890625,11.676782193344831,-0.08238543774187565,-1.088195634201169
1772534913305997600,5.99599755859375,10.669317799937724,-0.09122487001866102,0.24010522567033765
1772534913316014600,6.0060146484375,9.619285599914193,0.12688450468182563,1.1332140488401055
1772534913326030800,6.01603076171875,9.181123315230012,0.2120407223112881,1.6530755425676702
1772534913336047600,6.026047607421875,9.503978720301388,0.2318646360695362,1.9378353180006145
1772534913346064600,6.036064697265625,10.517405236983299,0.14501140526384115,2.3768382912926374
1772534913356080600,6.04608056640625,11.490095254129171,0.10291735363900661,2.771303619199991
1772534913366097700,6.05609765625,12.201207049465179,0.030085487792640923,2.9976217270582914
1772534913376113700,6.06611376953125,12.314253582930563,-0.23397885174453256,3.044051469799876
1772534913386130700,6.076130615234375,11.874730531287193,-0.5722629312898964,3.0090421157389877
1772534913396147700,6.086147705078125,11.364227817535399,-0.7088922195903956,2.8239579355448483
1772534913406163700,6.096163818359375,10.84265893536806,-0.6491007448419929,2.5320409818336365
1772534913416180700,6.1061806640625,10.343151078361272,-0.639454014770314,2.2694999063409864
1772534913426197500,6.116197509765625,10.000112716960906,-0.6208866038791835,2.1016858637690543
1772534913436213800,6.1262138671875,9.69579367005527,-0.6342530851263553,2.1121888453438875
1772534913446230500,6.13623046875,9.342891501766443,-0.6659038494743407,2.0926868570163846
1772534913456247600,6.14624755859375,9.03289499374628,-0.6722023650966584,1.9769629210352897
1772534913466263600,6.156263671875,8.757125749498606,-0.6571040916208177,1.906869686372578
1772534913476280600,6.166280517578125,8.410259354242681,-0.9236242268122732,1.7949283376701175
1772534913486297600,6.176297607421875,8.201205684918165,-1.2400085361734032,1.8765481978669762
1772534913496313600,6.186313720703125,8.113544937121867,-1.374362792214006,1.7683476431280374
1772534913506330600,6.19633056640625,7.9612378218919035,-1.520158041331917,1.2093924486353993
1772534913516347600,6.20634765625,7.618173157006502,-1.4160215211614966,0.9001070114940405
1772534913526363600,6.21636376953125,6.960054700711369,-1.3226003101423383,0.8713811216168105
1772534913536380400,6.22638037109375,5.935035361391305,-1.4474866267442703,0.9093257984772324
1772534913546397700,6.236397705078125,4.037698934778571,-1.730434676580131,0.8898184033222496
1772534913556413700,6.24641357421875,1.583854414564371,-2.1023412589378654,0.7006631742969155
1772534913566430500,6.256430419921875,-1.397976453644037,-1.8822845495618878,0.26846447419226166
1772534913576447700,6.26644775390625,-5.333390487468242,-1.9950380914300678,-0.35390842272192236
1772534913586463700,6.276463623046875,-9.846687411355973,-2.448939943168312,-1.4919954844258725
1772534913596480500,6.28648046875,-13.532759604609012,-2.7600290687307716,-2.0116214158318937
1772534913606496500,6.29649658203125,-15.004050300788878,-4.248346303035318,-1.0950516375757753
1772534913616513800,6.306513671875,-14.994644174540042,-5.698625483107566,-0.8156549966111779
1772534913626530600,6.316530517578125,-15.343452936035394,-4.60766447584629,-1.6834662969172
1772534913636546600,6.326546630859375,-17.224889782726763,-3.3030396751165387,-1.318650403472781
1772534913646563600,6.3365634765625,-21.590473348915577,-2.7356328786209225,-0.9535388880826532
1772534913656580600,6.34658056640625,-26.22765384210348,-1.4614372645549476,-2.1213361745260655
1772534913666596600,6.3565966796875,-28.206954850697517,-0.26644864085782316,-3.014776859998703
1772534913676613600,6.366613525390625,-26.545231599032878,0.8759516444027423,-3.5737265015333888
1772534913686630700,6.376630615234375,-24.94807229721546,1.286552260683477,-2.17030814909637
1772534913696646700,6.386646728515625,-22.625472230458257,1.2468817829437553,-1.1350737052321433
1772534913706663700,6.39666357421875,-19.295465053439138,2.6464354227766393,-1.4050553059890865
1772534913716680400,6.406680419921875,-17.192805376201868,2.8328461753994225,-1.0912179046317934
1772534913726696700,6.41669677734375,-14.699717809879779,2.194853830679506,-1.3074798978999256
1772534913736713700,6.426713623046875,-11.544530608671902,2.1314102631643412,-1.6988810159310697
1772534913746730500,6.43673046875,-8.863450865754485,2.0509708449237047,-1.3582789417669177
1772534913756746500,6.44674658203125,-6.961614789634942,2.060102830406278,-0.36135640064030883
1772534913766763800,6.456763671875,-5.287872014352679,2.525108552221954,0.38496027132868765
1772534913776780500,6.466780517578125,-3.0724025350153443,3.1699890490204092,0.6580734481096268
1772534913786796500,6.476796630859375,-0.046377135771512985,3.6880838253363963,0.6260588919505476
1772534913796813800,6.486813720703125,3.2635949689567085,4.026460624666512,0.6579948299154639
1772534913806829600,6.49682958984375,6.4519222232222555,4.385739634510874,0.9259913943350314
1772534913816846600,6.5068466796875,9.666208679130673,4.650222053329646,1.5579355449318886
1772534913826863600,6.516863525390625,12.369706005561351,4.4716921170845625,2.5394907133176923
1772534913836879600,6.526879638671875,14.523618900173902,4.074454547984898,3.321806334906816
1772534913846896600,6.536896728515625,15.89124931539297,3.766455643522739,3.518598488551378
1772534913856913700,6.54691357421875,16.36044269815683,3.878410582359135,3.3472926583409306
1772534913866929400,6.556929443359375,15.648574531495571,3.8413217916756865,3.000421294648945
1772534913876946700,6.56694677734375,14.715318699115514,1.9640353426620363,3.731749948583543
1772534913886963700,6.576963623046875,12.783678436362743,2.1091953626163304,2.9984023560419675
1772534913896979500,6.5869794921875,11.727484791100025,1.9374224994160234,2.4037016021683812
1772534913906996700,6.596996826171875,10.865568686312436,1.5637138360723852,2.089947787441313
1772534913917013800,6.607013671875,10.568045875418186,1.3814644409127532,1.531050460615754
1772534913927029500,6.617029541015625,10.721689792209864,1.1368734481304883,1.0001882649242877
1772534913937046500,6.627046630859375,11.05463696770668,1.043022467391938,0.7715767854318022
1772534913947063800,6.637063720703125,11.435435443180799,0.9040868749104439,0.8664049406394362
1772534913957079600,6.64707958984375,11.658017871642112,0.5331902002476155,1.1398558249421418
1772534913967097600,6.65709765625,11.723624608540534,0.3068007807187736,1.4959408610507845
1772534913977114600,6.667114501953125,11.530143186879158,0.28475816799774767,1.8649176735669373
1772534913987130600,6.677130615234375,11.018712252366543,0.24459055439084768,1.8853174875169991
1772534913997147600,6.687147705078125,10.425539438712596,0.23917028290778397,1.6863804307982324
1772534914007163600,6.69716357421875,9.78180781968832,0.3025537907987833,1.7742537984319031
1772534914017180700,6.7071806640625,8.907600388604402,0.24773908154964447,2.123449805679172
1772534914027197700,6.71719775390625,7.9233140416890375,-0.008873042285442351,2.3818546581499276
1772534914037213400,6.72721337890625,6.984039387410879,-0.19997648276910185,2.37471735361591
1772534914047230700,6.737230712890625,5.96773994564116,-0.36101284789964555,2.30137476176843
1772534914057247700,6.747247802734375,5.164767028209567,-0.580877541834861,2.1877663566365837
1772534914067263500,6.757263427734375,5.06205484175384,-0.7864733257904648,2.071282396068424
1772534914077280500,6.767280517578125,5.336856117752194,-1.0634248386252672,1.672779775469005
1772534914087297800,6.7772978515625,5.058659354096651,-1.6357215260542928,1.227456366983801
1772534914097313500,6.7873134765625,3.6708325385451315,-2.270646299897134,0.8538143391355871
1772534914107330600,6.79733056640625,0.9614514147728681,-2.7127432936817404,0.47708778927549716
1772534914117347800,6.807347900390625,-2.759879138866067,-2.8344086024105546,-0.0195478732958436
1772534914127363600,6.817363525390625,-6.6239581212729215,-2.3731091877669095,-0.7866801004089414
1772534914137380600,6.827380615234375,-10.471108765232563,-1.599215211433917,-1.610094771236181
1772534914147397600,6.837397705078125,-13.58170045338869,-0.7360689803294838,-2.179769366533309
1772534914157413600,6.84741357421875,-15.545972235155105,-2.8500401790454983,-0.969581237475574
1772534914167430700,6.8574306640625,-16.298915924048423,-4.544730757549405,-0.5698252558141946
1772534914177447700,6.86744775390625,-15.994782170581816,-1.3605211677357554,-3.521095566064119
1772534914187463400,6.87746337890625,-18.109269063735006,0.21873189051300285,-4.486858414295315
1772534914197480700,6.887480712890625,-21.895890712451934,-0.6091171094998717,-4.3576995349407195
1772534914207496700,6.89749658203125,-24.84855160027742,0.23062954131662844,-5.124461321306228
1772534914217513500,6.907513427734375,-25.988778450489043,0.8708646965272724,-4.3580777206033465
1772534914227530800,6.91753076171875,-24.82266663291454,0.8316744035199284,-1.8948310196630656
1772534914237546800,6.927546630859375,-21.807059751832483,0.5995208675064146,0.49739013420045375
1772534914247563500,6.9375634765625,-18.407060754698513,0.7553498732522129,1.7045519011743366
1772534914257580500,6.94758056640625,-15.539355447363853,0.6146981245025992,2.5969126824557778
1772534914267596800,6.9575966796875,-13.203378012639284,0.34895036192312834,2.594710203975439
1772534914277613600,6.967613525390625,-10.64530330262184,0.12929448843300342,1.6697167346365749
1772534914287630600,6.977630615234375,-7.1722975214660165,-0.25111235737502574,0.6249843945868313
1772534914297646600,6.987646484375,-3.5315251901417968,-0.5860198731593788,-0.41740781207755207
1772534914307663600,6.99766357421875,-0.5846674356371164,-0.7986196906581521,-1.7589271960929036
1772534914317680600,7.0076806640625,1.5012743310332297,-0.8340992925792932,-3.071084730415046
1772534914327696600,7.017696533203125,2.9255986933767795,-0.690171590898931,-3.9913764518037436
1772534914337713700,7.027713623046875,4.28699635168612,-0.35927857145294545,-4.516140915142
1772534914347730700,7.037730712890625,5.6132560611188405,-0.09170052470639348,-4.521774537114799
1772534914357746700,7.04774658203125,6.953298796710372,0.03251198428720235,-4.002819929099083
1772534914367763500,7.057763427734375,8.273876368853449,-0.011155308003723621,-3.1454812152296303
1772534914377779700,7.06777978515625,9.196221515640616,0.0666420712955296,-2.367611759394407
1772534914387796700,7.077796630859375,10.318597651863097,0.8940895047701894,-2.327756718868017
1772534914397813500,7.0878134765625,11.378054098314045,1.424578190974146,-1.8610111676476895
1772534914407829500,7.09782958984375,11.861612691038847,1.2286692499049008,-1.1270327298566698
1772534914417846800,7.1078466796875,12.103631641376017,1.0115532701559364,-0.32149040032848714
1772534914427863600,7.117863525390625,12.193916892457008,1.0914210259884596,0.28812340664714575
1772534914437879600,7.127879638671875,12.15592296962738,1.2446530009783803,0.7358882169350981
1772534914447896800,7.137896728515625,11.759694285309314,1.230896424435079,1.3957941411688923
1772534914457913600,7.14791357421875,11.001825414973498,0.9837547973219305,2.0272851411707697
1772534914467929600,7.1579296875,10.383014302194118,0.721063938095048,2.247019048333168
1772534914477946600,7.167946533203125,10.04400797278881,0.4130187833383679,2.484668697544932
1772534914487963600,7.177963623046875,9.861045607054233,0.1626370783254504,2.601659292460978
1772534914497979600,7.187979736328125,9.738751937294007,0.01421257668249309,2.5445699162781237
1772534914507996700,7.19799658203125,9.659745620596409,-0.262749969002977,2.561671565465629
1772534914518013700,7.208013671875,9.681566407260298,-0.5012564542397856,2.0855121430814263
1772534914528029700,7.21802978515625,9.896419702774285,-0.6144560593750328,1.5451776240371167
1772534914538046700,7.228046630859375,9.909967751133442,-0.7910835229996591,1.2026282151974736
1772534914548062500,7.2380625,9.723646138098836,-0.7978598122015595,0.8103058906681835
1772534914558079700,7.248079833984375,9.175406106626987,-0.6238168851774185,0.6536909952417016
1772534914568096500,7.258096435546875,8.172311598867177,-0.8381037059150636,0.7484175897710025
1772534914578112500,7.268112548828125,6.931005716359615,-1.0990195182934404,0.7575861078716815
1772534914588129500,7.278129638671875,5.771669092008471,-1.210360343819484,0.8085624080017209
1772534914598146600,7.288146484375,5.09355472638905,-1.4268202708125113,0.9576683891028165
1772534914608162600,7.29816259765625,4.785020107614994,-1.7370678309842944,0.9639766954667865
1772534914618179600,7.3081796875,4.801929156839847,-1.706936458223313,0.7055610293410718
1772534914628196600,7.318196533203125,4.917296826729178,-1.4754827410422264,0.7287995738483964
1772534914638212600,7.328212646484375,4.565508172640204,-1.7524372495517133,0.9745778767190874
1772534914648229600,7.338229736328125,3.3589702366530894,-2.046006208253652,1.0759170212559401
1772534914658246400,7.348246337890625,1.4899293456763028,-2.177510627821088,0.8785710331209003
1772534914668262700,7.3582626953125,-1.4261393028110265,-1.7873429971076547,0.18528335602805018
1772534914678279700,7.36827978515625,-4.737157117199898,-1.1713017874330283,-1.177979073239863
1772534914688295700,7.378295654296875,-8.396467560255527,-0.9628897770129143,-2.4716613319337366
1772534914698312400,7.3883125,-11.858764900392293,-1.2912420259349047,-3.020619448547065
1772534914708329700,7.398329833984375,-14.827358685886859,-2.4212393046855927,-3.2160826916754246
1772534914718345700,7.408345703125,-17.269659483301638,-1.038093851883337,-4.495172653654217
1772534914728362500,7.418362548828125,-18.032867376577855,3.179684513604641,-6.890186214715242
1772534914738379800,7.4283798828125,-18.379139313071963,5.087110957077146,-8.406028000283241
1772534914748395800,7.438395751953125,-19.82971338443756,4.550227601400017,-8.120257586503028
1772534914758412500,7.44841259765625,-20.900718814384938,3.2427646546348927,-7.117197565534711
1772534914768429600,7.4584296875,-20.692021118891237,2.3163851377651095,-5.682492678952217
1772534914778445800,7.46844580078125,-19.11439069340825,2.6854858689218757,-3.91771500326544
1772534914788462600,7.478462646484375,-16.39398022609949,3.329805809228122,-1.999704037414491
1772534914798479600,7.488479736328125,-13.361868784940242,3.088408497920632,0.394111253772676
1772534914808495600,7.49849560546875,-10.820344227707386,2.196822646534443,2.479623104593158
1772534914818512600,7.5085126953125,-8.883192508056759,1.1736399480570108,4.0458962697595355
1772534914828529700,7.51852978515625,-8.246511976587772,0.45390550500005483,4.741745321772992
1772534914838545700,7.528545654296875,-7.691375755861401,-0.1225941140115261,4.636178622668981
1772534914848562700,7.538562744140625,-7.496255919343232,-0.49347683321423824,3.5445939305514096
1772534914858578700,7.54857861328125,-6.220767781248688,-0.652082683262229,2.316484214225411
1772534914868595700,7.558595703125,-4.1638124550879,-1.169130434743315,1.1209329516768456
1772534914878612500,7.568612548828125,-1.8103233290702103,-2.4568498395100233,-0.633559184578061
1772534914888628700,7.578628662109375,1.1315478691935539,-2.9702789621025323,-1.3162246376305817
1772534914898645800,7.588645751953125,3.0777158389925954,-3.080625004437566,-1.7665937851980327
1772534914908662500,7.59866259765625,4.7193040651232,-2.8852634681180116,-1.7466107353553175
1772534914918678500,7.608678466796875,6.903111162739992,-2.7433205105140805,-0.9403832000419496
1772534914928695600,7.618695556640625,8.382777473077178,-3.099604722456634,-0.15285685806721447
1772534914938712600,7.628712646484375,7.717350155073404,-2.7245602804645896,-0.13951806854456664
1772534914948728600,7.638728515625,7.967422648006677,-2.1626190558984875,0.11067425137609242
1772534914958745600,7.64874560546875,7.745760256999731,-1.4311083233952522,0.5831789506450296
1772534914968761600,7.65876171875,7.514334596869349,-0.7740885490570217,1.233911972863972
1772534914978777600,7.668777587890625,7.558917250439524,-0.4367900464829057,1.7251318939968943
1772534914988795000,7.678794921875,7.7766650983512395,-0.35477168848775326,2.0192598017558456
1772534914998811000,7.688810791015625,8.124080944183468,-0.34785887689199296,2.4353224828347564
1772534915008827600,7.69882763671875,8.372956336286663,-0.40130847180038687,2.59517489887774
1772534915018845000,7.708844970703125,8.385337094432115,-0.4080526122983545,2.5215698567017912
1772534915028861000,7.71886083984375,8.130247650119662,-0.37898634801823644,2.6854084197714925
1772534915038877700,7.728877685546875,7.444252175861597,-0.4534844300437718,3.247456319582462
1772534915048894700,7.738894775390625,6.342878495657444,-0.8527529935143887,3.9289828317329287
1772534915058910700,7.74891064453125,5.9862371408402915,-1.4224118067204952,3.9948450046971438
1772534915068927700,7.758927734375,6.778911951619386,-1.5904140653409062,3.163449125857651
1772534915078944800,7.76894482421875,7.671998270696401,-1.335711720649898,2.3368644466921684
1772534915088960800,7.778960693359375,8.289392502415179,-0.9413879201050848,2.0247861639618874
1772534915098977800,7.788977783203125,8.535064714562893,-0.41266142126806077,2.184577789728343
1772534915108994800,7.798994873046875,8.537487557795643,0.38993148386999965,2.806253936550021
1772534915119010600,7.809010498046875,8.283993858242034,0.5854520832087844,3.1680636339157817
1772534915129027800,7.81902783203125,7.781019201907515,0.3907524448640644,3.6241704483523964
1772534915139044900,7.829044921875,7.902939946702122,0.2199981110565364,4.795924655728042
1772534915149060600,7.839060546875,7.5359215747773645,-0.21307795640453694,5.165223539805412
1772534915159077600,7.84907763671875,7.1764821136742825,-0.5649678789108992,3.9092970112711187
1772534915169094000,7.859093994140625,7.318866969826817,-0.5368620206281542,2.637944950067997
1772534915179110700,7.869110595703125,5.48393936085403,-0.2652928584188223,1.7407547028034924
1772534915189127700,7.879127685546875,3.0344997976005077,0.5905493332825601,1.7313262185923755
1772534915199143700,7.889143798828125,1.2745645935088394,1.2359253585129975,1.4180672016449272
1772534915209160700,7.89916064453125,-1.0484235957831143,0.9597967794336378,0.4500850699290633
1772534915219177700,7.909177734375,-4.175584725946187,0.05249591091275215,-0.5707578604891896
1772534915229193700,7.91919384765625,-6.90208883395493,-0.9055138389736413,-1.351917736171931
1772534915239210800,7.929210693359375,-8.586474583804607,-1.0595946858778595,-1.6088462324798105
1772534915249227800,7.939227783203125,-9.798587105053663,-1.0970204534307122,-0.7287275315254926
1772534915259243800,7.949243896484375,-10.169014993160962,-1.3485356925182044,-0.0317082666888833
1772534915269260500,7.959260498046875,-10.996958685719965,0.3820293324433267,-2.383493803659081
1772534915279277800,7.96927783203125,-12.971150972998142,2.566332250753045,-4.8484138446390626
1772534915289293800,7.9792939453125,-12.420691511911153,1.6725807457655668,-5.208528428524732
1772534915299310600,7.989310546875,-12.745963914996384,-0.11265782640874385,-4.495816212254763
1772534915309326600,7.99932666015625,-14.209682714617252,-0.9091276455566286,-3.8086750750929115
1772534915319343900,8.00934375,-13.295523212373256,-0.7354583010852337,-2.756262409673631
1772534915329360600,8.019360595703125,-11.892010167390108,0.38207477902024983,-1.8222396845743059
1772534915339376600,8.029376708984374,-9.511133852753042,1.467699685950577,-3.0254551981404423
1772534915349394000,8.039393798828126,-6.756997641453147,1.2983943819075823,-2.48786194062829
1772534915359410700,8.04941064453125,-4.9368379780232905,0.2746469622194767,0.2544079648543149
1772534915369426700,8.0594267578125,-3.389562358793616,0.23085428998321295,1.8345489849187433
1772534915379443700,8.069443603515625,-3.7719869741648435,1.467308640806377,1.333384154485166
1772534915389460700,8.079460693359374,-5.477719463425874,2.1642732528463005,0.7061858832411467
1772534915399476700,8.089476806640626,-5.096245865169167,1.793024842136353,0.8492185357779264
1772534915409493800,8.09949365234375,-1.1403922699064015,0.9120777275338768,-0.04273497987687588
1772534915419510800,8.1095107421875,2.037301362141967,-0.2810447004325688,-1.415746211351454
1772534915429526800,8.11952685546875,-0.09247428555786609,0.1492101721279323,-2.5429069515019656
1772534915439543800,8.129543701171874,0.20444763683378694,0.5054869314163923,-2.963244241160154
1772534915449559800,8.139559814453126,2.007751442530751,0.4040209456294775,-2.4442536850482224
1772534915459576800,8.149576904296875,3.217413063496351,0.6526603370197117,-1.4226809790506958
1772534915469593900,8.15959375,4.127786617460846,0.8221841061189771,-0.5612725315243006
1772534915479609600,8.169609619140624,4.35980673635304,0.6815031312748789,0.40946050633490083
1772534915489626600,8.179626708984374,4.374941177120805,0.09846519653573632,1.4744295787274837
1772534915499644000,8.189643798828126,5.007543499365449,-0.0395041812621057,1.5338003438457846
1772534915509659600,8.19965966796875,5.511423580107093,0.3221215378388762,0.8815186308801174
1772534915519676700,8.2096767578125,5.741415408042073,0.26219408868588506,0.45137627878338094
1772534915529694000,8.21969384765625,5.981435878038406,-0.045139775996282695,0.5131736865267157
1772534915539709700,8.229709716796876,6.00552519415617,-0.14768332788683472,0.9475345331013202
1772534915549726700,8.239726806640626,5.893968022465706,-0.09867175195850432,1.60499627905339
1772534915559743700,8.24974365234375,6.056852645811438,-0.08577456872351467,2.2260700760677454
1772534915569759700,8.259759765625,6.7390171636044975,-0.058825990717113016,2.3437870855621994
1772534915579776800,8.26977685546875,8.063362563848495,0.08065722570978105,1.9663702153503895
1772534915589792800,8.279792724609376,9.239134190171956,0.2413172318086028,1.111451568234712
1772534915599809500,8.2898095703125,9.65504080390632,0.18205094997808335,0.4727801552094519
1772534915609826800,8.299826904296875,9.476327327787876,-0.10679697155132889,0.2710847396932542
1772534915619842800,8.3098427734375,9.281918269887566,-0.4899133685790002,0.3982254841584712
1772534915629859600,8.319859619140624,9.040068246376514,-0.6894197496183216,0.4530351519063115
1772534915639876900,8.329876953125,8.26774064257741,-0.6907432533070444,0.06330529155563562
1772534915649892900,8.339892822265625,7.382492177519202,-0.6566372778266668,-0.5588982766736299
1772534915659909600,8.34990966796875,7.147271216759085,-0.6031957566268742,-1.1302290416799485
1772534915669926700,8.3599267578125,7.613882181814312,-0.35920784430429337,-1.2095692665070295
1772534915679943000,8.36994287109375,7.773356119933724,-0.2826004054419696,-0.6606324118774384
1772534915689959700,8.379959716796876,7.226306759551167,-0.7063355208449065,-0.18262443901710212
1772534915699976700,8.389976806640625,6.063122812122106,-1.2876084917381405,-0.23504538499750197
1772534915709992700,8.39999267578125,4.703679210489988,-1.6295539433352648,-0.2667849236074835
1772534915720009700,8.410009765625,3.1967069600760936,-1.5829467982001602,0.20025909910276532
1772534915730025700,8.420025634765626,1.4671417598068712,-1.418405785949528,0.5462227003000676
1772534915740042800,8.430042724609375,-0.017269699230790136,-1.3872082452617585,0.5372159486323594
1772534915750059800,8.440059814453125,-1.5856418825030325,-1.5161942522674798,0.40463659330978985
1772534915760075800,8.45007568359375,-3.964631360480189,-1.5887700975261627,0.4454299010669812
1772534915770092800,8.4600927734375,-5.737502033990621,-1.78885793171525,0.5685511442251503
1772534915780109600,8.470109619140626,-8.082479352250695,-1.172264202724397,-0.12480113166966475
1772534915790125800,8.480125732421875,-10.520521907699107,0.47409971337541934,-1.3890842682667075
1772534915800142800,8.490142822265625,-10.042530301451682,0.5472929598800838,-1.6922566293552517
1772534915810159600,8.50015966796875,-9.328299497312306,0.6898075798921287,-2.0085553062595425
1772534915820175600,8.510175537109374,-8.56451935710609,1.6993512637913226,-2.6084511445581913
1772534915830193000,8.52019287109375,-7.135271566885709,1.8257108678162097,-3.337619697849452
1772534915840209700,8.530209716796875,-7.48799954765141,0.47620852222293614,-3.504312189045548
1772534915850225700,8.5402255859375,-9.790826407924294,-1.0737785479225217,-1.895105598820746
1772534915860243000,8.550242919921875,-11.562392428576945,-1.3276897422358394,0.6183275670461357
1772534915870258700,8.5602587890625,-12.496093666636943,-0.33371552952080963,2.1855139015346765
1772534915880275700,8.570275634765625,-12.439092260998487,0.6095403033480048,2.304212031020969
1772534915890292700,8.580292724609375,-14.221708667975664,1.4712600087806582,2.8817577980846165
1772534915900308700,8.590308837890625,-15.095241560798883,2.487835929404199,2.8806413612753152
1772534915910325800,8.60032568359375,-15.038221450459956,3.355368412768841,1.7864498476602135
1772534915920342800,8.6103427734375,-14.26634392851591,3.4249908150494095,0.6115094114638865
1772534915930358500,8.620358642578125,-12.204742237854003,2.260789068879932,-0.13067739415876567
1772534915940375800,8.630375732421875,-9.475003385707735,0.49884844324998556,-0.5256713490501046
1772534915950392800,8.640392822265625,-6.227296890756487,-1.3135900513432919,-0.8891928187698125
1772534915960408600,8.65040869140625,-3.1058804417252537,-2.5972712866351007,-1.1661289879050105
1772534915970426000,8.660426025390626,-0.44308805064857004,-3.1473788655444976,-1.130585819228366
1772534915980442000,8.670442138671875,1.7025936067134142,-3.2631457638844847,-0.7044695077773183
1772534915990459000,8.680458984375,3.6292052276492117,-3.05188669347018,-0.10639701244831085
1772534916000476200,8.69047607421875,5.0865825492888685,-2.7705209443897005,0.4074212555922568
1772534916010492200,8.7004921875,6.0453042468369,-2.654036253169179,0.9148175277613103
1772534916020509000,8.710509033203126,6.756819946798682,-2.47711053725034,1.2859459653533993
1772534916030526200,8.720526123046875,7.239466685375571,-2.268732721360773,1.5556589783020316
1772534916040542200,8.730542236328125,7.4459975582242,-2.113859847296029,1.8346100674562156
1772534916050559000,8.74055908203125,7.342761055633425,-2.0309620761178433,2.1028040541440247
1772534916060576000,8.750575927734374,7.040034830877184,-2.144646030703932,2.2056746460318566
1772534916070592300,8.76059228515625,6.517474599584936,-2.3202833142474293,2.0667158188052475
1772534916080609000,8.770609130859375,6.03530892252326,-2.3009918999306858,1.8825807560294865
1772534916090625000,8.780625,5.780937855613232,-2.1430235440686345,1.8028339962281286
1772534916100642000,8.79064208984375,5.736486134946346,-2.2145642010606825,1.7986169630549846
1772534916110659000,8.8006591796875,5.907295706072449,-2.424965777862817,1.7191782462894916
1772534916120675000,8.810675048828125,6.057374623858928,-2.545417765279114,1.683544330589473
1772534916130692000,8.820692138671875,6.212531867823004,-2.6084599123865364,1.7532547034144401
1772534916140709000,8.830709228515625,6.366562153583764,-2.4785379397049545,1.9088914014585314
1772534916150725000,8.84072509765625,6.392845180353522,-2.2542209425359965,2.171078402816504
1772534916160742100,8.8507421875,6.197143744555115,-1.9620076362267136,2.428432577190548
1772534916170759000,8.860759033203125,5.910836739680171,-1.8005486617699265,2.639080676099658
1772534916180775200,8.870775146484375,5.751704746866226,-1.8766180482327937,2.7845646673113107
1772534916190792200,8.880792236328125,5.571886524376273,-2.199669706528634,2.9140801050186154
1772534916200809000,8.89080908203125,5.503244949826598,-2.636324070867896,2.98555719525516
1772534916210825000,8.900824951171876,5.372033229595423,-2.918060406826436,2.862498678602278
1772534916220842200,8.91084228515625,4.3324347453027965,-3.013894231945276,2.491393621885776
1772534916230858000,8.92085791015625,3.6263317180395123,-2.773036726602912,1.854274698999524
1772534916240875000,8.930875,3.135231039372086,-2.1965162109337744,1.0625212408490479
1772534916250892300,8.940892333984374,1.253916357755661,-1.738431520552933,0.3998294852890074
1772534916260908000,8.950907958984375,-1.4903174682110547,-1.2906658334821461,0.2025570007815957
1772534916270925000,8.960925048828125,-3.8694460623979565,-1.160787115420401,0.655431993690133
1772534916280942000,8.970942138671875,-5.281726351204514,-1.3104301260076463,1.298756493218243
1772534916290958000,8.9809580078125,-5.9275359455466266,-1.3852540424540638,1.6254004769176245
1772534916300975000,8.99097509765625,-6.249311154165864,-1.1855411790572106,0.997678474060446
1772534916310992100,9.0009921875,-6.785575501161813,-0.10527794529050588,-0.3091245474912226
1772534916321007900,9.0110078125,-7.569281992587447,1.5637129592895507,-1.571574340314418
1772534916331025200,9.021025146484375,-8.40103267621398,3.164883250313997,-2.450489072306454
1772534916341041200,9.031041259765624,-9.112369512477517,3.9542072893604634,-2.4113319509163498
1772534916351058000,9.041057861328126,-10.273977588891983,3.39615751927495,-1.6736356616459787
1772534916361075200,9.0510751953125,-11.475585082739592,2.4366003938160836,-1.4259541555024682
1772534916371091200,9.06109130859375,-11.809251220160721,1.6668166292808948,-2.395834522055089
1772534916381108000,9.07110791015625,-11.013497148066758,1.4397585167102516,-3.699385263812542
1772534916391125000,9.081125,-9.968913276576995,1.1643339942470192,-4.513680370247363
1772534916401141200,9.091141357421876,-9.433699315416812,0.9005062399446964,-4.381581930309534
1772534916411158000,9.101157958984375,-8.940118510371446,0.9055730218149721,-3.579735386559367
1772534916421175000,9.111175048828125,-8.486760410121082,0.9836416192710399,-2.7361814524143933
1772534916431191000,9.12119091796875,-8.219978189927339,1.0923261581346393,-1.586839421724528
1772534916441208000,9.1312080078125,-7.905724608984589,1.226828005952388,-0.35862858311161394
1772534916451224000,9.14122412109375,-7.1283414753615855,1.1821253792643547,0.58120575087592
1772534916461241000,9.151240966796875,-5.861688970151543,0.8437307520166039,1.2764745187833904
1772534916471258000,9.161258056640625,-4.730024781101942,0.553213143709302,1.5900627676852046
1772534916481274000,9.171274169921874,-3.459643610757589,0.4299479985684156,1.3950252026230097
1772534916491291100,9.181291015625,-1.9857552992999552,0.25753106531091036,0.851616682960838
1772534916501308000,9.191307861328125,-0.7578256157159805,0.04032419240809977,0.2983117693148553
1772534916511324200,9.20132421875,0.4113970273554325,-0.0514971091337502,0.040594168455898756
1772534916521341200,9.211341064453125,1.7110136445343493,-0.06925444575101136,0.04166062864363193
1772534916531358000,9.22135791015625,2.966353313091397,-0.038919513241946695,0.21659400170147416
1772534916541374000,9.2313740234375,3.9349849947571753,-0.022720292786881327,0.5598081580601633
1772534916551391200,9.24139111328125,4.7568724560171365,-0.0721595926079899,0.8962417143680155
1772534916561407000,9.251406982421875,5.424716187512875,-0.11583974438048898,1.1461147392064333
1772534916571424000,9.261424072265624,5.825094977247715,0.003741670746356249,1.3812265405036508
1772534916581441300,9.271441162109374,6.139516315972805,0.18173939981088041,1.5773163910977541
1772534916591457000,9.28145703125,6.464341559812426,0.3497722727652639,1.6954865511871873
1772534916601474000,9.29147412109375,6.753699184429645,0.7342165573958307,1.8958045408703386
1772534916611491000,9.301490966796875,7.044345679813623,1.0170616583138703,2.067783740297705
1772534916621507000,9.311507080078124,7.52555858619511,0.7562715912070125,2.143065775775164
1772534916632776000,9.32277587890625,7.995621153008937,0.4934625854931771,2.192344770468026
1772534916643419100,9.333419189453124,8.238027056837081,0.36807423765324054,2.1928780005618926
1772534916653435000,9.343434814453126,8.242593341839314,0.3644237523216754,2.1137278914794324
1772534916663452200,9.3534521484375,8.218227546867729,0.37839367935471235,1.9495919528983532
1772534916673469200,9.36346923828125,8.145352864792942,0.2879053069170564,1.763093521992117
1772534916683485000,9.37348486328125,7.978343270471692,0.17392529199384152,1.5670378659285604
1772534916693502200,9.383502197265624,7.714087938407063,0.3392495635766536,1.4380062662154436
1772534916703518200,9.393518310546876,7.273017072799801,0.5025491243988275,1.1500856155987829
1772534916713535000,9.403534912109375,7.140135373529791,0.5123654388837516,0.8212000635176897
1772534916723552000,9.413552001953125,7.507756972044706,0.4596133612528443,0.5246655330084264
1772534916733568300,9.423568359375,7.9024068627387285,0.4710724745087325,0.2484738255649805
1772534916743585000,9.4335849609375,8.040212574407457,0.5749252093017101,-0.056276525430008766
1772534916753602000,9.44360205078125,8.058826089462638,0.6768228645041584,-0.40396673122420906
1772534916763618000,9.4536181640625,7.859737933835387,0.42885202002525324,-0.7107889200571924
1772534916773635000,9.463635009765625,7.547184727069735,0.22652575925961135,-0.7612254872873425
1772534916783652000,9.473652099609374,6.883257292234897,0.4349468297690153,-0.9315703635111451
1772534916793668000,9.483668212890626,5.891687218052149,0.5932261512763798,-1.0703068532239646
1772534916803685000,9.49368505859375,4.802635843804478,0.485749234636873,-1.0723626167099922
1772534916813701000,9.503701171875,3.7976404708594083,0.14836451508402823,-1.1099247239936143
1772534916823718100,9.51371826171875,2.0246073002636433,-0.5358978517711163,-1.3806092853881418
1772534916833735000,9.52373486328125,-0.7443494635492562,-1.1868712586171923,-1.9354908007010816
1772534916843751200,9.533751220703126,-4.034927716499567,-1.7019880420356988,-2.2843970312215385
1772534916853768200,9.543768310546875,-7.529049935442209,-2.448374272109568,-2.153623994668573
1772534916863785000,9.553784912109375,-11.651473564565181,-2.697512991324067,-1.7722352982163427
1772534916873801000,9.563801025390624,-14.351094926345347,-1.7273551230043172,-1.8947560547307132
1772534916883818200,9.573818359375,-14.163456385493278,0.4720141392730176,-3.615302666763961
1772534916893835000,9.5838349609375,-13.747372661626338,1.7202232252977787,-5.698228008222579
1772534916903851000,9.59385107421875,-12.81871000225544,1.4456737321034072,-6.497628327864408
1772534916913868300,9.603868408203125,-12.361045729243754,0.5797492684572935,-6.18993600513339
1772534916923884000,9.613884033203124,-12.679136696392296,-0.561228692382574,-5.419090164324641
1772534916933901000,9.623901123046876,-12.528713495212793,-1.74296916398257,-4.1918697980538004
1772534916943918000,9.63391796875,-11.60533608276844,-2.3514827546313404,-2.6722408951625227
1772534916953934000,9.64393408203125,-10.195069471871852,-2.0737240901321172,-1.3645327414646744
1772534916963951000,9.653951171875,-9.309367417827248,-1.2854042596921325,0.1085948147535324
1772534916973968100,9.663968017578124,-9.298837840506433,-1.3226479486763476,0.11662205386459827
1772534916983984000,9.673984130859376,-6.185537477913498,0.14006079711914063,1.8532674216531215
1772534916994001200,9.684001220703125,-4.557574457031488,0.8646858617618679,1.5697005092665552
1772534917004018200,9.69401806640625,-3.1510704135388132,1.3542244056791066,1.2381738680921495
1772534917014034000,9.704033935546875,-1.6153759265094993,1.3147542728170751,1.0134909602202475
1772534917024051200,9.71405126953125,-0.13454758665561675,0.8682584595516324,0.7592042105928063
1772534917034068200,9.724068115234376,0.9156441878437995,0.374643313845247,0.5983209901973605
1772534917044084000,9.734083984375,1.3608692505210638,-0.028318185859173534,0.5535714556276798
1772534917054101200,9.744101318359375,1.5880068580687046,-0.11786080187931657,0.6160745274223387
1772534917064118300,9.7541181640625,2.0512387020796536,-0.023377076195180414,0.5944841885134577
1772534917074134000,9.764134033203124,2.3342799831569194,0.10338234080225228,0.3963257149517536
1772534917084151000,9.774151123046876,2.7533237258732317,0.5237757445618509,0.31340076350569723
1772534917094167300,9.784167236328125,3.5067397084534164,0.863102391962707,0.42258448406308885
1772534917104184000,9.79418408203125,4.364864019742607,0.7628834836274385,0.44115006832331416
1772534917114201000,9.804201171875,5.281196189850569,0.5297245699636638,0.5984767652809619
1772534917124217000,9.814217041015626,6.080417645794153,0.4433937555968761,0.9263292479872703
1772534917134234000,9.824234130859375,6.6616299725413315,0.5243947532430291,1.403480311757326
1772534917144251100,9.834251220703125,7.084196628686786,0.5870120990671217,1.967508571730554
1772534917154267100,9.84426708984375,7.510735111072659,0.46909328339025375,2.4636779319643973
1772534917164284200,9.8542841796875,8.033126415538787,0.24757307733297346,2.8741861937865614
1772534917174301200,9.86430126953125,8.54290139953792,0.0950248468235135,3.1097920622110364
1772534917184317200,9.874317138671875,8.846486871472,0.09203428670540452,3.005204729533195
1772534917194334000,9.884333984375,8.84740340179503,0.28305165634080764,2.47237357185632
1772534917204350200,9.89435009765625,8.952084257975221,0.5159212316691875,2.0172291727110743
1772534917214367200,9.9043671875,9.183017750674486,0.247688666536659,1.8682083856754004
1772534917224384000,9.914384033203126,9.106130910348892,-0.2217633671633899,1.6807212359927595
1772534917234400000,9.92439990234375,8.564123635786771,-0.7950703276135027,1.6246422058962284
1772534917244417300,9.934417236328125,8.029215379574895,-1.038270304428786,1.8854599647276102
1772534917254434000,9.94443408203125,7.681739327988028,-0.6510455952994525,1.7833878297410903
1772534917264450000,9.954449951171876,7.426348854902386,-0.38376872345656154,1.4370643091902136
1772534917274467300,9.96446728515625,7.628858801671862,-0.53804027062729,0.9835710382528603
1772534917284484000,9.974484130859375,7.758148029407859,-0.7589728860549628,0.6581465133458375
1772534917294500000,9.9845,7.364323483622074,-0.8992167846560478,0.6981131975531578
1772534917304517000,9.99451708984375,6.238355460387468,-0.8491868254654109,1.0119191808588803
1772534917314533000,10.004533203125,4.044408077028393,-0.9324543067388236,1.1205709134314208
1772534917324550100,10.014550048828125,1.6935148127228021,-1.136909396226704,0.6808861684203148
1772534917334567200,10.024567138671875,0.06116553958058357,-1.0228975248605012,-0.16316650902703403
1772534917344583000,10.0345830078125,-1.3734236116677523,-1.052364296232909,-0.9211887432936579
1772534917354600200,10.04460009765625,-2.545300568640232,-1.9994813345745204,-1.2500754644185303
1772534917364617200,10.0546171875,-4.50290763182044,-3.6498306670486924,-0.6093637046720832
1772534917374633000,10.064633056640625,-7.325246441730856,-4.990012518849968,0.6075608199685811
1772534917384650200,10.074650146484375,-9.427338548213243,-5.418958646899461,1.3611803622968495
1772534917394667300,10.084667236328125,-10.30958666241169,-4.427797153517604,1.470344647501409
1772534917404683000,10.09468310546875,-11.1995843678236,-2.351014406467229,0.7141239096987992
1772534917414700000,10.104699951171876,-11.858088024044037,-0.8083512494690716,-0.4711719893604517
1772534917424716300,10.11471630859375,-12.2686445089221,-0.03684489892497658,-0.9761566703431308
1772534917434733000,10.124733154296875,-12.636902651774882,0.07844765990152955,-0.7748870059583336
1772534917444750000,10.13475,-12.990610875749587,-0.23700579835027455,-0.6909311040293425
1772534917454766000,10.14476611328125,-13.384388075262308,-0.8388150690548122,-0.015292480873689054
1772534917464783000,10.154783203125,-13.62153678921461,-1.9022896651059389,1.5370231052845715
1772534917474800000,10.164800048828125,-13.77165136283636,-3.317096257519722,2.8773060793727634
1772534917484816100,10.174816162109375,-13.809845192152261,-4.034713781487942,3.604713175949454
1772534917494833200,10.184833251953124,-12.889556393373011,-3.2432579911097883,3.2374235858678815
1772534917504850200,10.19485009765625,-11.67385490772128,-1.2676198889374732,2.218993707940727
1772534917514866200,10.2048662109375,-10.382695153242349,0.6269504339627922,1.5271037688165903
1772534917524883000,10.214883056640625,-9.316386356678604,1.2708993489995597,1.1480521370097994
1772534917534899000,10.22489892578125,-7.88854667969048,1.4451044077828525,0.8351035011857747
1772534917544916200,10.234916259765624,-7.275510058659314,1.7008084768623113,0.63377574993819
1772534917554933000,10.24493310546875,-6.836467484009265,2.0841133821994067,-0.11984949147850274
1772534917564949000,10.254948974609375,-4.98596353572011,2.1368303885169326,-1.0800085283532739
1772534917574966300,10.26496630859375,-2.8995956525921818,2.2493591817185283,-1.6095023583009838
1772534917584983000,10.274983154296875,-0.6111784259438514,2.5774565790966153,-1.5491232929229735
1772534917594999000,10.2849990234375,1.5343155998915432,2.6423905313000082,-1.1052785786882042
1772534917605016300,10.295016357421876,3.298203341001272,2.3704680256083606,-0.44137890864312646
1772534917615033000,10.305033203125,4.782133154001832,1.981305918675661,0.29489480047822
1772534917625049000,10.315049072265625,5.978194704160094,1.7438519381664692,0.9950357044667005
1772534917635066000,10.325066162109374,6.968883319333195,1.6394757640212774,1.6644892092466352
1772534917645082000,10.33508203125,7.63205204475522,1.5248784939825535,2.1524333235792814
1772534917655099100,10.34509912109375,7.9877710240304465,1.3154495616048574,2.4066078450039026
1772534917665116200,10.3551162109375,8.290556285497546,0.9994149424642323,2.3645669848710296
1772534917675132200,10.365132080078125,8.460401980027555,0.837241243866831,2.2528590065330265
1772534917685149200,10.375149169921874,8.585333012554049,0.8433066813856362,2.1078053695626555
1772534917695166200,10.385166259765626,8.689744988664984,1.0662447914168238,1.8933321594074368
1772534917705182000,10.395181884765625,8.794072209101914,1.3448038125135005,1.7581503665015101
1772534917715199200,10.40519921875,8.906210395550728,1.5226619869768618,1.658530154711753
1772534917725216300,10.41521630859375,8.950490266782046,1.688153285689652,1.5968289008192718
1772534917735232000,10.42523193359375,8.91456087526679,1.8460352784425018,1.5131998927570878
1772534917745249000,10.4352490234375,8.760232483342289,2.0149495373412964,1.3949112208545207
1772534917755265000,10.44526513671875,8.558802733024955,2.1582839493036268,1.171353371489793
1772534917765282000,10.455281982421875,8.30806154704988,2.1703028883993625,0.7778730360317975
1772534917775299000,10.465299072265625,7.991815915507078,1.7976970717310905,0.2905635663408786
1772534917785315000,10.475315185546876,7.892755237296223,1.4882498681567609,-0.09474537229500711
1772534917795332000,10.48533203125,8.038638456958532,1.2161501062020659,-0.35654841583669183
1772534917805349000,10.49534912109375,8.076515475410222,0.8367714343979954,-0.5836350969146937
1772534917815365000,10.505365234375,7.625045380863547,0.3216645878516137,-0.8655929666694253
1772534917825382100,10.515382080078124,6.813063227546214,-0.12451982137709855,-0.9803714384939521
1772534917835399200,10.525399169921876,5.947579785665869,-0.41674350294992324,-0.9203358527913689
1772534917845415200,10.535415283203125,4.804126374623179,-0.668593380819261,-0.8541853644050658
1772534917855432000,10.545431884765625,3.5393127752780913,-0.8701318522080779,-0.8562109519485384
1772534917865448000,10.555447998046875,2.242789447939396,-0.8982055617868899,-0.942370209140703
1772534917875465200,10.56546533203125,0.8989286153644322,-0.8699836759090424,-1.4034101691305636
1772534917885482000,10.57548193359375,-0.9225830471962689,-0.8997178660459816,-2.3624716200269757
1772534917895498000,10.585498046875,-2.5769752253204583,-0.9518513733871281,-3.5953222472697495
1772534917905515300,10.595515380859375,-3.0240929698765275,-1.3089229363150894,-4.067815548361837
1772534917915532000,10.605531982421875,-3.330575916817784,-2.275767880694568,-3.4720205695107578
1772534917925548000,10.615548095703126,-5.639231044852734,-3.392612101753056,-2.1369940546460446
1772534917935565300,10.6255654296875,-9.474203175240755,-3.687504564143717,-0.6502542257260531
1772534917945582000,10.63558203125,-11.802600530099868,-2.749669587279856,-0.22292636479446662
1772534917955598000,10.64559814453125,-12.018503042405843,-1.4094164238080382,-0.4688809558138251
1772534917965615000,10.655614990234374,-11.88726735677719,-0.6725415339231491,-1.0125926962062717
1772534917975631000,10.665631103515626,-12.213395499908923,-0.7153022327631712,-2.219524161555618
1772534917985647900,10.67564794921875,-12.625277680432795,-0.9444839133590459,-3.4568992804855108
1772534917995665000,10.685664794921875,-12.495887914931773,-1.21035135679543,-3.8977532884716983
1772534918005681200,10.69568115234375,-11.935859830510616,-1.3405825415566563,-3.2306387480333445
1772534918015698000,10.705697998046874,-11.222699870473146,-1.5542656242474913,-2.1544702362343666
1772534918025715000,10.71571484375,-10.70802483947277,-1.4778329574301838,-0.8496627724140882
1772534918035731000,10.72573095703125,-11.154046605485677,-0.42431218463853,0.6848727538384497
1772534918045748000,10.735748046875,-11.784478013432025,1.1800282608546315,2.0725015625998378
1772534918055764000,10.745763916015624,-10.524176338553428,2.480303488072753,2.617636613793671
1772534918065781000,10.755781005859374,-8.456037939599156,3.033811230814457,2.1607361647613343
1772534918075798000,10.765798095703126,-6.283076645645499,2.9694851813763377,1.0292951169431208
1772534918085814000,10.77581396484375,-3.753801913654804,2.499505616670847,0.16448329071402548
1772534918095831000,10.7858310546875,-1.3210989656686782,1.6694472700454295,-0.4319212714027613
1772534918105847800,10.795847900390624,0.9321820656687021,0.7361126733407378,-0.752650112774223
1772534918115864000,10.805864013671876,3.148990100133419,-0.28533012266680596,-1.0344398594204336
1772534918125880800,10.815880859375,5.114024098443985,-1.1002863233588636,-1.212946049463749
1772534918135897900,10.82589794921875,6.569017739817499,-1.1455867698095739,-0.9986136360187083
1772534918145913900,10.835913818359375,7.35133014653623,-0.615506956667453,-0.3131352444373071
1772534918155931000,10.845930908203124,7.4715855884671205,0.004348258337378502,0.6137425042781979
1772534918165947000,10.85594677734375,7.008582877036929,0.3736151398412883,1.4107605318933725
1772534918175964000,10.8659638671875,6.33885640053451,0.4097238334462046,2.0005781899005175
1772534918185981000,10.87598095703125,6.149861768898368,0.3378860932037234,2.3167872888252137
1772534918195997000,10.885996826171874,6.449273754540085,0.13066899165660142,2.1225211465269327
1772534918206014000,10.896013916015624,6.735310125780106,-0.36041707396358247,1.5537708264678716
1772534918216030700,10.90603076171875,7.0116346658229824,-0.8039144360654056,1.0966410256590693
1772534918226047000,10.916046875,7.270369773161411,-1.356786365121603,0.6960295962121337
1772534918236064000,10.92606396484375,7.721019198974966,-1.6384923059418797,0.45204051484577357
1772534918246080800,10.936080810546875,8.19388747085929,-1.3843962565809487,0.5984194090705365
1772534918256096800,10.9460966796875,8.364189092463254,-0.7959352738797664,1.1025763339921832
1772534918266114000,10.956114013671876,8.43583101787269,-0.2841187010504305,1.4943030307158827
1772534918276130000,10.966130126953125,8.589128897705674,-0.12365677480697632,1.4003183405950665
1772534918286146800,10.976146728515625,9.51899099599421,-0.33677659759186207,0.9933571767952293
1772534918296164000,10.9861640625,10.702179620575905,-0.6125754332602024,0.6380490433432161
1772534918306180000,10.99618017578125,8.114391324818135,-1.4116291314214466,0.31010935727749017
1772534918316196900,11.00619677734375,5.0503205648183815,-1.7826196218475698,-0.04272073215581476
1772534918326214000,11.0162138671875,5.079434431099892,-0.9563605213746428,-0.17293850944619624
1772534918336230100,11.026230224609375,5.949246257573366,0.7159718025878071,0.1839233927864581
1772534918346247000,11.036246826171874,6.2133677341252564,1.0134856995232402,0.6408620549373328
1772534918356263000,11.046262939453126,6.059044602897763,0.04678944289945066,0.9034002808857708
1772534918366280000,11.056280029296875,5.51523290926218,-0.9466696599002927,0.9989439639516174
1772534918376297000,11.066296875,4.66641243289113,-1.5006260962575673,0.7424744634576141
1772534918386313000,11.07631298828125,3.643049044084549,-1.416787244836986,-0.027813761734683064
1772534918396330000,11.086330078125,3.671276775181293,-0.7819615474544465,-0.6316615342631936
