time,seconds_elapsed,z,y,x
1772534907360483800,0.05048388671875,-0.99603271484375,-0.15325927734375,0.075592041015625
1772534907370501000,0.060501220703125,-1.004638671875,-0.166656494140625,0.0680999755859375
1772534907380518000,0.070517822265625,-0.977752685546875,-0.1762237548828125,0.0801544189453125
1772534907390534000,0.080533935546875,-0.9628448486328125,-0.1829071044921875,0.0911712646484375
1772534907400551000,0.090551025390625,-0.9734039306640625,-0.18377685546875,0.0834808349609375
1772534907410568000,0.10056787109375,-0.9966583251953125,-0.177459716796875,0.0723114013671875
1772534907420584000,0.110583984375,-1.017608642578125,-0.17620849609375,0.0677490234375
1772534907430601000,0.12060107421875,-1.0086822509765625,-0.1866607666015625,0.0616607666015625
1772534907440618000,0.130617919921875,-0.9525299072265625,-0.193878173828125,0.0587005615234375
1772534907450634000,0.140634033203125,-0.9070281982421875,-0.20721435546875,0.071044921875
1772534907460651000,0.150651123046875,-0.86505126953125,-0.244537353515625,0.0861663818359375
1772534907470667800,0.160667724609375,-0.8519287109375,-0.2653350830078125,0.073760986328125
1772534907480684000,0.17068408203125,-0.8648223876953125,-0.2564697265625,0.045745849609375
1772534907490701000,0.180701171875,-0.88800048828125,-0.248138427734375,0.0459136962890625
1772534907500717800,0.1907177734375,-0.914581298828125,-0.2435150146484375,0.0659332275390625
1772534907510733800,0.20073388671875,-0.9359588623046875,-0.236297607421875,0.073455810546875
1772534907520751000,0.210751220703125,-0.9369049072265625,-0.232269287109375,0.0792694091796875
1772534907530768000,0.220767822265625,-0.9457244873046875,-0.213134765625,0.0604095458984375
1772534907540783900,0.230783935546875,-0.952911376953125,-0.19635009765625,0.025970458984375
1772534907550801200,0.24080126953125,-0.9412689208984375,-0.187713623046875,0.0064239501953125
1772534907560818000,0.25081787109375,-0.92791748046875,-0.1588897705078125,-0.0283966064453125
1772534907570834000,0.260833984375,-0.9598236083984375,-0.139312744140625,-0.0423736572265625
1772534907580851000,0.270850830078125,-1.0291595458984375,-0.174346923828125,-0.04425048828125
1772534907590868000,0.280867919921875,-1.0684051513671875,-0.306884765625,0.067169189453125
1772534907600884000,0.290884033203125,-0.994873046875,-0.448486328125,0.1997528076171875
1772534907610901000,0.30090087890625,-0.889404296875,-0.447845458984375,0.190582275390625
1772534907620918000,0.31091796875,-0.8935394287109375,-0.3123626708984375,0.125274658203125
1772534907630934000,0.32093408203125,-0.8974609375,-0.1895294189453125,0.0333251953125
1772534907640951000,0.330950927734375,-0.8741607666015625,-0.13543701171875,0.035247802734375
1772534907650967800,0.3409677734375,-0.8670196533203125,-0.1787261962890625,0.1180419921875
1772534907660984000,0.350984130859375,-0.9158477783203125,-0.2338409423828125,0.1191864013671875
1772534907671000800,0.361000732421875,-0.9700927734375,-0.19708251953125,0.113861083984375
1772534907681017900,0.371017822265625,-0.9581146240234375,-0.1841888427734375,0.158172607421875
1772534907691033900,0.381033935546875,-0.896209716796875,-0.2034912109375,0.141357421875
1772534907701051000,0.39105078125,-0.9307403564453125,-0.2189788818359375,0.1371612548828125
1772534907711068000,0.40106787109375,-0.9855499267578125,-0.252838134765625,0.1181488037109375
1772534907721084000,0.411083984375,-1.0428924560546875,-0.224456787109375,-0.065338134765625
1772534907731101000,0.421100830078125,-1.160369873046875,-0.1570892333984375,-0.1905975341796875
1772534907741118000,0.431117919921875,-1.2302093505859375,-0.16943359375,-0.1920013427734375
1772534907751134000,0.441134033203125,-1.2512054443359375,-0.169097900390625,-0.3000030517578125
1772534907761150700,0.451150634765625,-1.212371826171875,-0.1582794189453125,-0.47857666015625
1772534907771168000,0.46116796875,-1.0161590576171875,-0.1718597412109375,-0.4992828369140625
1772534907781184000,0.47118408203125,0.073760986328125,-0.5482635498046875,0.4164276123046875
1772534907791200800,0.48120068359375,-0.4427490234375,-0.6594390869140625,1.0584869384765625
1772534907801218000,0.491218017578125,-0.569671630859375,0.071563720703125,0.1820831298828125
1772534907811234000,0.501234130859375,-0.490020751953125,-0.0826263427734375,-0.17626953125
1772534907821250800,0.511250732421875,-0.772796630859375,-0.3315887451171875,-0.174407958984375
1772534907831267800,0.521267822265625,-0.872650146484375,-0.2140655517578125,-0.2137603759765625
1772534907841284000,0.5312841796875,-0.79052734375,-0.077239990234375,-0.165191650390625
1772534907851300900,0.54130078125,-0.7965087890625,-0.08251953125,-0.2020416259765625
1772534907861318000,0.55131787109375,-0.836456298828125,-0.0378875732421875,-0.2270660400390625
1772534907871334000,0.561333984375,-0.843353271484375,-0.06072998046875,-0.1111907958984375
1772534907881351000,0.571350830078125,-0.7674713134765625,-0.0902557373046875,0.0411376953125
1772534907891368000,0.581367919921875,-0.7434844970703125,0.0224761962890625,0.076141357421875
1772534907901384000,0.591384033203125,-0.757293701171875,0.11907958984375,0.021209716796875
1772534907911401000,0.60140087890625,-0.8888397216796875,0.0643463134765625,0.1049346923828125
1772534907921418000,0.61141796875,-0.85150146484375,0.0334014892578125,0.1051177978515625
1772534907931434000,0.62143408203125,-0.80023193359375,0.1332244873046875,0.0086517333984375
1772534907941450800,0.63145068359375,-0.727813720703125,0.175140380859375,0.029510498046875
1772534907951468300,0.64146826171875,-0.6602630615234375,0.15997314453125,0.17291259765625
1772534907961484300,0.651484375,-0.5556640625,0.16082763671875,0.254364013671875
1772534907971501000,0.6615009765625,-0.5518798828125,0.1074066162109375,0.3642578125
1772534907981518300,0.671518310546875,-0.5977630615234375,0.0998992919921875,0.377899169921875
1772534907991534300,0.681534423828125,-0.605010986328125,0.142547607421875,0.302978515625
1772534908001551000,0.691551025390625,-0.6888580322265625,0.1862030029296875,0.225982666015625
1772534908011568400,0.701568359375,-0.8003387451171875,0.147125244140625,0.0786285400390625
1772534908021584400,0.71158447265625,-1.059814453125,0.0216827392578125,-0.0382537841796875
1772534908031601200,0.72160107421875,-1.3073577880859375,0.0238189697265625,-0.253448486328125
1772534908041618200,0.7316181640625,-1.3644561767578125,0.153472900390625,-0.4158935546875
1772534908051634400,0.741634521484375,-1.4842376708984375,0.107940673828125,-0.39129638671875
1772534908061651200,0.751651123046875,-1.5904541015625,-0.014312744140625,-0.5001373291015625
1772534908071668200,0.761668212890625,-1.7063751220703125,-0.004791259765625,-0.684722900390625
1772534908081684200,0.771684326171875,-1.8862152099609375,0.017120361328125,-0.958221435546875
1772534908091701200,0.781701171875,-2.088104248046875,-0.0047760009765625,-1.124786376953125
1772534908110482200,0.800482177734375,-2.3935546875,-0.111419677734375,-1.1456451416015625
1772534908120499200,0.810499267578125,-2.5753021240234375,-0.0787506103515625,-1.127655029296875
1772534908130515200,0.82051513671875,-2.6298370361328125,-0.0599365234375,-1.0217132568359375
1772534908140532200,0.8305322265625,-2.59161376953125,-0.0894622802734375,-0.823516845703125
1772534908150549200,0.84054931640625,-2.4354095458984375,-0.143035888671875,-0.6183319091796875
1772534908160565200,0.850565185546875,-2.1900787353515625,-0.2153778076171875,-0.470916748046875
1772534908170582300,0.860582275390625,-1.839019775390625,-0.3019256591796875,-0.2945098876953125
1772534908180599300,0.870599365234375,-1.5275421142578125,-0.376708984375,-0.054595947265625
1772534908190615300,0.880615234375,-1.321807861328125,-0.2889862060546875,0.063385009765625
1772534908200632000,0.890632080078125,-1.1904449462890625,-0.2453460693359375,0.1556549072265625
1772534908210649300,0.9006494140625,-1.0174102783203125,-0.22467041015625,0.06866455078125
1772534908220665300,0.910665283203125,-0.8936614990234375,-0.0801544189453125,-0.1290283203125
1772534908230682000,0.92068212890625,-1.0084686279296875,-0.1691741943359375,-0.057403564453125
1772534908240699400,0.930699462890625,-0.959869384765625,-0.424224853515625,-0.2667388916015625
1772534908250715100,0.940715087890625,-0.869598388671875,-0.3336029052734375,-0.6668853759765625
1772534908260732200,0.950732177734375,-1.1421356201171875,-0.2490234375,-0.766754150390625
1772534908270749200,0.960749267578125,-1.3541717529296875,-0.4715576171875,-0.7601318359375
1772534908280765200,0.97076513671875,-1.32891845703125,-0.38916015625,-0.683624267578125
1772534908290782200,0.9807822265625,-1.2438201904296875,-0.2855224609375,-0.61138916015625
1772534908300799200,0.99079931640625,-1.1061553955078125,-0.2013702392578125,-0.488616943359375
1772534908310815000,1.00081494140625,-0.91455078125,-0.1269989013671875,-0.3133697509765625
1772534908320832300,1.010832275390625,-0.743438720703125,-0.09576416015625,-0.0736846923828125
1772534908330849300,1.020849365234375,-0.590972900390625,-0.118438720703125,0.12542724609375
1772534908340865000,1.030864990234375,-0.368804931640625,-0.1847381591796875,0.213409423828125
1772534908350882300,1.04088232421875,-0.2021026611328125,-0.1649932861328125,0.1791534423828125
1772534908360899300,1.0508994140625,-0.059356689453125,-0.1175537109375,0.1089630126953125
1772534908370915000,1.0609150390625,-0.02667236328125,-0.0885009765625,0.0529937744140625
1772534908380932000,1.07093212890625,-0.0211181640625,-0.1273193359375,0.0443878173828125
1772534908390949400,1.080949462890625,-0.01953125,-0.1161041259765625,0.0336761474609375
1772534908400965000,1.090965087890625,-0.02490234375,-0.044647216796875,0.0156707763671875
1772534908410982100,1.100982177734375,-0.0120849609375,-0.0266571044921875,0.03802490234375
1772534908420999200,1.110999267578125,-0.002899169921875,-0.01397705078125,0.0619659423828125
1772534908431015200,1.12101513671875,-0.0234527587890625,0.009246826171875,0.099609375
1772534908441032200,1.1310322265625,-0.082305908203125,0.0177459716796875,0.136016845703125
1772534908451049200,1.14104931640625,-0.1369781494140625,0.0229339599609375,0.1844482421875
1772534908461065200,1.151065185546875,-0.1753997802734375,0.0137786865234375,0.209320068359375
1772534908471082200,1.161082275390625,-0.1967926025390625,0.030364990234375,0.1955718994140625
1772534908481099000,1.17109912109375,-0.22003173828125,0.06231689453125,0.1612091064453125
1772534908491115000,1.181114990234375,-0.2224273681640625,0.0651702880859375,0.13726806640625
1772534908501132300,1.19113232421875,-0.234527587890625,0.0756683349609375,0.1192474365234375
1772534908511149000,1.201149169921875,-0.2460784912109375,0.0783843994140625,0.08856201171875
1772534908521165000,1.2111650390625,-0.2618408203125,0.0569305419921875,0.0521697998046875
1772534908531182300,1.221182373046875,-0.258575439453125,0.0174713134765625,0.0422515869140625
1772534908541199000,1.23119921875,-0.2376556396484375,-0.0044708251953125,0.020599365234375
1772534908551215000,1.241215087890625,-0.275238037109375,0.0227508544921875,-0.0106048583984375
1772534908561232100,1.251232177734375,-0.377197265625,0.0225982666015625,0.0157012939453125
1772534908571249200,1.261249267578125,-0.5585479736328125,-0.0580596923828125,0.0255584716796875
1772534908581265200,1.27126513671875,-0.7504425048828125,-0.086029052734375,-0.0611419677734375
1772534908591282200,1.2812822265625,-0.8684844970703125,-0.069183349609375,-0.1638641357421875
1772534908601299200,1.29129931640625,-0.9407196044921875,-0.0730743408203125,-0.220367431640625
1772534908611315200,1.301315185546875,-1.0955810546875,-0.1175537109375,-0.2451934814453125
1772534908621332200,1.311332275390625,-1.2992706298828125,-0.1874542236328125,-0.284271240234375
1772534908631349000,1.321348876953125,-1.537445068359375,-0.2349395751953125,-0.2847747802734375
1772534908641365200,1.331365234375,-1.8098602294921875,-0.263153076171875,-0.3450927734375
1772534908651382300,1.34138232421875,-2.0915679931640625,-0.16845703125,-0.5602569580078125
1772534908661399000,1.35139892578125,-2.37274169921875,-0.007720947265625,-0.881683349609375
1772534908671415000,1.3614150390625,-2.62677001953125,0.094085693359375,-1.166961669921875
1772534908681432300,1.371432373046875,-2.8038482666015625,0.168914794921875,-1.38336181640625
1772534908691449000,1.381448974609375,-2.9501495361328125,0.2922515869140625,-1.4834442138671875
1772534908701465000,1.391465087890625,-3.0608367919921875,0.344635009765625,-1.54254150390625
1772534908711482400,1.401482421875,-3.1567535400390625,0.344146728515625,-1.467529296875
1772534908721499100,1.4114990234375,-3.2046661376953125,0.2655487060546875,-1.0958099365234375
1772534908731515100,1.42151513671875,-3.191436767578125,0.161285400390625,-0.717498779296875
1772534908741532200,1.4315322265625,-3.05340576171875,0.1153717041015625,-0.4350738525390625
1772534908751549200,1.441549072265625,-2.67279052734375,-0.026519775390625,-0.150634765625
1772534908761565200,1.451565185546875,-2.1290435791015625,-0.224212646484375,0.048583984375
1772534908771582200,1.461582275390625,-1.6025848388671875,-0.4344482421875,0.1483001708984375
1772534908781599200,1.47159912109375,-1.2178955078125,-0.5879364013671875,0.0921173095703125
1772534908791615200,1.481615234375,-1.0272216796875,-0.5969390869140625,-0.0809478759765625
1772534908801632300,1.49163232421875,-0.9208221435546875,-0.5538482666015625,-0.2672882080078125
1772534908811649000,1.50164892578125,-0.6856231689453125,-0.81298828125,-0.6528778076171875
1772534908821665300,1.511665283203125,-0.4119110107421875,-1.0348663330078125,-1.2376861572265625
1772534908831682300,1.521682373046875,-0.4205169677734375,-0.924835205078125,-1.3806304931640625
1772534908841699000,1.531698974609375,-0.45550537109375,-0.833160400390625,-1.133087158203125
1772534908851715000,1.541715087890625,-0.3787841796875,-0.5903472900390625,-0.661468505859375
1772534908861732400,1.551732421875,-0.3081207275390625,-0.454681396484375,-0.2844085693359375
1772534908871749000,1.5617490234375,-0.1885986328125,-0.3358001708984375,0.009429931640625
1772534908881765000,1.57176513671875,-0.0337371826171875,-0.2142181396484375,0.22259521484375
1772534908891782400,1.581782470703125,0.1043701171875,-0.1310882568359375,0.3639678955078125
1772534908901799200,1.591799072265625,0.188812255859375,-0.048828125,0.399261474609375
1772534908911815200,1.601815185546875,0.335540771484375,-0.0416259765625,0.3436279296875
1772534908921832200,1.611832275390625,0.476226806640625,-0.046875,0.2834625244140625
1772534908931849200,1.62184912109375,0.5042724609375,-0.007904052734375,0.27252197265625
1772534908941865200,1.631865234375,0.4608001708984375,-0.0018768310546875,0.2877197265625
1772534908951882200,1.64188232421875,0.33648681640625,0.0259552001953125,0.2784271240234375
1772534908961899000,1.65189892578125,0.2140045166015625,0.078826904296875,0.2841339111328125
1772534908971915000,1.6619150390625,0.1080322265625,0.128509521484375,0.27545166015625
1772534908981932000,1.67193212890625,0.045074462890625,0.1662750244140625,0.2558746337890625
1772534908991949000,1.681948974609375,0.01593017578125,0.178009033203125,0.2472991943359375
1772534909001965000,1.691965087890625,-0.026947021484375,0.16351318359375,0.2455596923828125
1772534909011982000,1.701982177734375,-0.0503082275390625,0.1467742919921875,0.2259674072265625
1772534909021998800,1.711998779296875,-0.06170654296875,0.10504150390625,0.1896820068359375
1772534909032015000,1.72201513671875,-0.0823211669921875,0.059844970703125,0.1394195556640625
1772534909042032000,1.7320322265625,-0.0709381103515625,0.0192108154296875,0.0883331298828125
1772534909052049000,1.742048828125,-0.0529937744140625,-0.01385498046875,0.06048583984375
1772534909062065000,1.75206494140625,-0.065399169921875,-0.0265960693359375,0.0520782470703125
1772534909072082000,1.76208203125,-0.1106109619140625,-0.04888916015625,0.044158935546875
1772534909082099000,1.772098876953125,-0.209320068359375,-0.0731353759765625,0.007537841796875
1772534909092115000,1.782114990234375,-0.260711669921875,-0.0831146240234375,-0.0846099853515625
1772534909102132000,1.792132080078125,-0.2859039306640625,-0.0924530029296875,-0.16326904296875
1772534909112149000,1.80214892578125,-0.354705810546875,-0.1312713623046875,-0.212677001953125
1772534909122165000,1.8121650390625,-0.4832611083984375,-0.192047119140625,-0.2624664306640625
1772534909132181800,1.822181640625,-0.698760986328125,-0.235504150390625,-0.32373046875
1772534909142199000,1.832198974609375,-0.972503662109375,-0.27838134765625,-0.41729736328125
1772534909152215000,1.842215087890625,-1.3047637939453125,-0.33477783203125,-0.4965362548828125
1772534909162231800,1.852231689453125,-1.732421875,-0.3577880859375,-0.6030731201171875
1772534909172249000,1.8622490234375,-2.0967254638671875,-0.3651580810546875,-0.69244384765625
1772534909182265000,1.87226513671875,-2.3583831787109375,-0.41241455078125,-0.7457733154296875
1772534909192281900,1.88228173828125,-2.54400634765625,-0.461669921875,-0.7416229248046875
1772534909202299000,1.892298828125,-2.7242279052734375,-0.406829833984375,-0.7822723388671875
1772534909212315100,1.902315185546875,-2.8695831298828125,-0.20001220703125,-0.91619873046875
1772534909222332000,1.912331787109375,-3.033233642578125,0.00390625,-0.98468017578125
1772534909232348000,1.922347900390625,-3.2640380859375,0.1576995849609375,-1.030364990234375
1772534909242365000,1.932364990234375,-3.4475250244140625,0.2732696533203125,-0.98870849609375
1772534909252382000,1.9423818359375,-3.499755859375,0.3308258056640625,-0.852813720703125
1772534909262398000,1.95239794921875,-3.4470672607421875,0.3134002685546875,-0.67083740234375
1772534909272415000,1.9624150390625,-3.34991455078125,0.2409820556640625,-0.442962646484375
1772534909282432000,1.972431884765625,-3.2078857421875,0.1656646728515625,-0.2487030029296875
1772534909292448000,1.982447998046875,-2.9401092529296875,0.0939178466796875,-0.1728515625
1772534909302465000,1.992465087890625,-2.556243896484375,-0.003387451171875,-0.1978302001953125
1772534909312481800,2.002481689453125,-2.08026123046875,-0.1270599365234375,-0.2369537353515625
1772534909322498000,2.012498046875,-1.616485595703125,-0.2192535400390625,-0.29156494140625
1772534909332515000,2.02251513671875,-1.2610931396484375,-0.2360992431640625,-0.3594512939453125
1772534909342531800,2.03253173828125,-1.01983642578125,-0.167724609375,-0.456634521484375
1772534909352547800,2.0425478515625,-0.785003662109375,-0.1124725341796875,-0.5380401611328125
1772534909362565000,2.052565185546875,-0.511077880859375,-0.1071929931640625,-0.6324615478515625
1772534909372582000,2.062581787109375,-0.209930419921875,-0.113494873046875,-0.703399658203125
1772534909382598000,2.072597900390625,0.0512237548828125,-0.164947509765625,-0.6919097900390625
1772534909392615200,2.082615234375,0.2490692138671875,-0.2483062744140625,-0.6142578125
1772534909402632000,2.0926318359375,0.4169158935546875,-0.30010986328125,-0.4925384521484375
1772534909412648000,2.10264794921875,0.52001953125,-0.3261566162109375,-0.3383026123046875
1772534909422665000,2.1126650390625,0.5036468505859375,-0.275848388671875,-0.1811370849609375
1772534909432682000,2.122681884765625,0.413360595703125,-0.193206787109375,-0.0478973388671875
1772534909442698000,2.132697998046875,0.3018798828125,-0.125823974609375,0.078460693359375
1772534909452715000,2.142715087890625,0.1939697265625,-0.0744781494140625,0.1889801025390625
1772534909462732000,2.15273193359375,0.093353271484375,-0.019500732421875,0.2474212646484375
1772534909472748000,2.162748046875,0.0329742431640625,-0.005096435546875,0.295806884765625
1772534909482765000,2.17276513671875,0.006439208984375,-0.0196533203125,0.3119659423828125
1772534909492781800,2.18278173828125,-0.0213623046875,-0.0289459228515625,0.293853759765625
1772534909502798000,2.192798095703125,-0.0262298583984375,-0.05078125,0.290130615234375
1772534909512815000,2.202815185546875,0.0064849853515625,-0.0686492919921875,0.2881317138671875
1772534909522832000,2.212831787109375,0.0100250244140625,-0.063323974609375,0.271026611328125
1772534909532847900,2.222847900390625,-0.026275634765625,-0.0637054443359375,0.248199462890625
1772534909542865200,2.232865234375,-0.0652008056640625,-0.0749969482421875,0.211669921875
1772534909552882000,2.2428818359375,-0.0849761962890625,-0.07586669921875,0.164398193359375
1772534909562898000,2.25289794921875,-0.105072021484375,-0.0697479248046875,0.1100616455078125
1772534909572915200,2.262915283203125,-0.1400146484375,-0.0706024169921875,0.059417724609375
1772534909582932000,2.272931884765625,-0.1645965576171875,-0.088226318359375,0.0290374755859375
1772534909592948000,2.282947998046875,-0.1898193359375,-0.10394287109375,-0.0020751953125
1772534909602965000,2.292965087890625,-0.208404541015625,-0.1162872314453125,-0.0379180908203125
1772534909612982000,2.30298193359375,-0.2579345703125,-0.1280670166015625,-0.1057281494140625
1772534909622998000,2.312998046875,-0.2940521240234375,-0.1380157470703125,-0.1861419677734375
1772534909633015000,2.32301513671875,-0.3124847412109375,-0.1761627197265625,-0.2374267578125
1772534909643032000,2.333031982421875,-0.3286590576171875,-0.198638916015625,-0.30126953125
1772534909653048000,2.343048095703125,-0.3734893798828125,-0.1781158447265625,-0.371734619140625
1772534909663064800,2.35306494140625,-0.508514404296875,-0.210845947265625,-0.372100830078125
1772534909673081900,2.363081787109375,-0.75762939453125,-0.216796875,-0.4010467529296875
1772534909683098000,2.37309814453125,-1.029937744140625,-0.2371063232421875,-0.441131591796875
1772534909693115000,2.383114990234375,-1.277587890625,-0.3015899658203125,-0.504425048828125
1772534909703132000,2.3931318359375,-1.486053466796875,-0.323699951171875,-0.5616912841796875
1772534909713148000,2.40314794921875,-1.60888671875,-0.3971099853515625,-0.5686798095703125
1772534909723165000,2.4131650390625,-1.6429595947265625,-0.476806640625,-0.6026458740234375
1772534909733182000,2.423181884765625,-1.6551666259765625,-0.4943084716796875,-0.611572265625
1772534909743198000,2.433197998046875,-1.7313079833984375,-0.5369720458984375,-0.483917236328125
1772534909753215000,2.443215087890625,-2.0126800537109375,-0.46685791015625,-0.425750732421875
1772534909763232000,2.45323193359375,-2.428253173828125,-0.30767822265625,-0.518402099609375
1772534909773248000,2.463248046875,-2.830718994140625,-0.2488555908203125,-0.6107330322265625
1772534909783264800,2.4732646484375,-3.1379241943359375,-0.25506591796875,-0.6860198974609375
1772534909793282000,2.483281982421875,-3.408447265625,-0.2838592529296875,-0.8085174560546875
1772534909803298000,2.493298095703125,-3.549285888671875,-0.3140106201171875,-0.89501953125
1772534909813314800,2.503314697265625,-3.5333709716796875,-0.3065032958984375,-0.8677215576171875
1772534909823332000,2.51333203125,-3.385711669921875,-0.1804351806640625,-0.8207550048828125
1772534909833348000,2.52334814453125,-3.1712493896484375,-0.1081085205078125,-0.6844940185546875
1772534909843364900,2.53336474609375,-2.8999786376953125,-0.059478759765625,-0.5407867431640625
1772534909853382000,2.5433818359375,-2.5893707275390625,-0.014190673828125,-0.466644287109375
1772534909863398100,2.553398193359375,-2.20452880859375,-0.0181732177734375,-0.4079742431640625
1772534909873415000,2.563414794921875,-1.7861785888671875,-0.0800628662109375,-0.392486572265625
1772534909883431000,2.573430908203125,-1.415618896484375,-0.14984130859375,-0.3911285400390625
1772534909893448000,2.583447998046875,-1.064300537109375,-0.2295379638671875,-0.4255828857421875
1772534909903465000,2.59346484375,-0.6910552978515625,-0.331207275390625,-0.4943389892578125
1772534909913481000,2.60348095703125,-0.291259765625,-0.406951904296875,-0.5613861083984375
1772534909923498000,2.613498046875,0.130523681640625,-0.4405059814453125,-0.609222412109375
1772534909933515000,2.623514892578125,0.4351806640625,-0.5178985595703125,-0.642578125
1772534909943531000,2.633531005859375,0.59356689453125,-0.5458984375,-0.6261138916015625
1772534909953548000,2.643548095703125,0.7343292236328125,-0.4237213134765625,-0.55242919921875
1772534909963565600,2.653565673828125,0.713226318359375,-0.36004638671875,-0.4400787353515625
1772534909973581600,2.66358154296875,0.5232086181640625,-0.3211669921875,-0.283447265625
1772534909983598600,2.6735986328125,0.2339935302734375,-0.2407379150390625,-0.116241455078125
1772534909993615600,2.68361572265625,0.0399322509765625,-0.168426513671875,0.0118408203125
1772534910003631600,2.693631591796875,-0.019256591796875,-0.111572265625,0.13165283203125
1772534910013648400,2.7036484375,0.007720947265625,-0.0650787353515625,0.230224609375
1772534910023665700,2.713665771484375,0.0452880859375,-0.024200439453125,0.273040771484375
1772534910033681700,2.723681640625,0.06085205078125,-0.0130767822265625,0.2730712890625
1772534910043698400,2.733698486328125,0.054290771484375,-0.0204925537109375,0.268280029296875
1772534910053715700,2.7437158203125,0.038421630859375,-0.012969970703125,0.287261962890625
1772534910063731700,2.753731689453125,0.0259552001953125,0.0120697021484375,0.3023529052734375
1772534910073748500,2.76374853515625,-0.0391387939453125,0.0303802490234375,0.2773590087890625
1772534910083765500,2.773765625,-0.120941162109375,0.0378875732421875,0.2159423828125
1772534910093781800,2.78378173828125,-0.18707275390625,0.0429229736328125,0.164764404296875
1772534910103798500,2.793798583984375,-0.234710693359375,0.0494537353515625,0.13714599609375
1772534910113815600,2.803815673828125,-0.2742156982421875,0.04095458984375,0.1290283203125
1772534910123831600,2.81383154296875,-0.2961273193359375,0.0213165283203125,0.108551025390625
1772534910133848600,2.8238486328125,-0.27618408203125,0.00457763671875,0.081787109375
1772534910143865600,2.833865478515625,-0.2466888427734375,-0.02838134765625,0.0830078125
1772534910153881600,2.843881591796875,-0.215667724609375,-0.068695068359375,0.0511474609375
1772534910163898600,2.853898681640625,-0.1856536865234375,-0.1112060546875,-0.0014495849609375
1772534910173915600,2.86391552734375,-0.20111083984375,-0.157928466796875,-0.050323486328125
1772534910183931600,2.873931640625,-0.220245361328125,-0.200592041015625,-0.1217193603515625
1772534910193948400,2.883948486328125,-0.239227294921875,-0.2032928466796875,-0.1670379638671875
1772534910203965700,2.893965576171875,-0.2567138671875,-0.19232177734375,-0.1719818115234375
1772534910213981700,2.903981689453125,-0.285858154296875,-0.18487548828125,-0.1831207275390625
1772534910223998500,2.91399853515625,-0.3677825927734375,-0.190399169921875,-0.1782073974609375
1772534910234015700,2.924015625,-0.4860992431640625,-0.2035064697265625,-0.19464111328125
1772534910244031700,2.93403173828125,-0.6873321533203125,-0.2384490966796875,-0.1855926513671875
1772534910254048500,2.944048583984375,-0.9019012451171875,-0.290191650390625,-0.1884918212890625
1772534910264065500,2.9540654296875,-1.072662353515625,-0.329833984375,-0.225128173828125
1772534910274081800,2.964081787109375,-1.206695556640625,-0.36981201171875,-0.2859344482421875
1772534910284098600,2.9740986328125,-1.3045501708984375,-0.4218597412109375,-0.3859405517578125
1772534910294115600,2.984115478515625,-1.4768218994140625,-0.486053466796875,-0.420928955078125
1772534910304131600,2.994131591796875,-1.799957275390625,-0.52313232421875,-0.4588623046875
1772534910314148600,3.004148681640625,-2.2534027099609375,-0.433441162109375,-0.5724639892578125
1772534910324165600,3.01416552734375,-2.795654296875,-0.2628936767578125,-0.7024383544921875
1772534910334181600,3.024181640625,-3.2700653076171875,-0.1214447021484375,-0.84027099609375
1772534910344198700,3.03419873046875,-3.552947998046875,0.0134429931640625,-1.043670654296875
1772534910354215700,3.044215576171875,-3.6157379150390625,0.171356201171875,-1.20452880859375
1772534910364231700,3.054231689453125,-3.55841064453125,0.23602294921875,-1.116485595703125
1772534910374248400,3.06424853515625,-3.5022125244140625,0.2607269287109375,-0.8625335693359375
1772534910384264700,3.0742646484375,-3.40863037109375,0.3184356689453125,-0.5994415283203125
1772534910394281700,3.08428173828125,-3.2563018798828125,0.3365936279296875,-0.32855224609375
1772534910404298500,3.094298583984375,-3.0222625732421875,0.2964019775390625,-0.1278533935546875
1772534910414314500,3.104314453125,-2.71063232421875,0.240875244140625,-0.0641937255859375
1772534910424331800,3.114331787109375,-2.356475830078125,0.1576385498046875,-0.097930908203125
1772534910434348500,3.1243486328125,-2.0356903076171875,0.103424072265625,-0.2778167724609375
1772534910444364500,3.134364501953125,-1.7475738525390625,0.090576171875,-0.52032470703125
1772534910454381800,3.1443818359375,-1.46466064453125,0.093414306640625,-0.738983154296875
1772534910464398600,3.154398681640625,-1.188232421875,0.103912353515625,-0.895721435546875
1772534910474414600,3.16441455078125,-0.9204559326171875,0.060302734375,-0.9041290283203125
1772534910484431600,3.174431640625,-0.647003173828125,-0.0367889404296875,-0.871734619140625
1772534910494448600,3.18444873046875,-0.3682403564453125,-0.1496429443359375,-0.7784576416015625
1772534910504464600,3.194464599609375,-0.0439453125,-0.2299346923828125,-0.6132965087890625
1772534910514481700,3.204481689453125,0.28289794921875,-0.287750244140625,-0.4392547607421875
1772534910524498700,3.214498779296875,0.59002685546875,-0.3282012939453125,-0.2704925537109375
1772534910534514700,3.2245146484375,0.8272857666015625,-0.33575439453125,-0.0867767333984375
1772534910544531500,3.234531494140625,0.9095458984375,-0.3137054443359375,0.01666259765625
1772534910554548500,3.244548583984375,0.7844390869140625,-0.2664794921875,-0.0153045654296875
1772534910564564700,3.254564697265625,0.53765869140625,-0.2185821533203125,-0.0370330810546875
1772534910574581500,3.26458154296875,0.253753662109375,-0.20770263671875,0.020538330078125
1772534910584598500,3.2745986328125,0.024993896484375,-0.20050048828125,0.0803680419921875
1772534910594614500,3.284614501953125,-0.1121978759765625,-0.2008056640625,0.118927001953125
1772534910604631600,3.294631591796875,-0.167144775390625,-0.22442626953125,0.114654541015625
1772534910614648600,3.304648681640625,-0.1346435546875,-0.2748870849609375,0.10565185546875
1772534910624664600,3.31466455078125,-0.027801513671875,-0.319793701171875,0.1202545166015625
1772534910634681600,3.324681640625,0.0467071533203125,-0.3273468017578125,0.13836669921875
1772534910644698600,3.33469873046875,0.01580810546875,-0.3010101318359375,0.15557861328125
1772534910654714600,3.344714599609375,-0.0743408203125,-0.26629638671875,0.189544677734375
1772534910664731400,3.3547314453125,-0.1769866943359375,-0.2352294921875,0.2207489013671875
1772534910674748700,3.364748779296875,-0.2533111572265625,-0.2104644775390625,0.2253265380859375
1772534910684764700,3.3747646484375,-0.29278564453125,-0.1949005126953125,0.2160491943359375
1772534910694781400,3.384781494140625,-0.314727783203125,-0.1709442138671875,0.2085113525390625
1772534910704798700,3.394798828125,-0.34130859375,-0.163726806640625,0.1868896484375
1772534910714814700,3.404814697265625,-0.3626861572265625,-0.1537322998046875,0.1492767333984375
1772534910724831500,3.41483154296875,-0.3745880126953125,-0.1331329345703125,0.0878448486328125
1772534910734848500,3.4248486328125,-0.383148193359375,-0.13043212890625,0.0442962646484375
1772534910744864800,3.43486474609375,-0.372894287109375,-0.1186981201171875,0.0348663330078125
1772534910754881500,3.444881591796875,-0.3497161865234375,-0.083251953125,0.012298583984375
1772534910764897500,3.4548974609375,-0.2808074951171875,-0.05517578125,-0.060638427734375
1772534910774914600,3.46491455078125,-0.1932220458984375,-0.03466796875,-0.1647796630859375
1772534910784931600,3.474931640625,-0.1444244384765625,-0.0001220703125,-0.246185302734375
1772534910794948600,3.484948486328125,-0.1971588134765625,0.013092041015625,-0.2859039306640625
1772534910804964600,3.494964599609375,-0.351348876953125,0.0041351318359375,-0.3022308349609375
1772534910814981600,3.504981689453125,-0.5431365966796875,-0.0115509033203125,-0.28082275390625
1772534910824997600,3.51499755859375,-0.750946044921875,-0.0213623046875,-0.255615234375
1772534910835014700,3.5250146484375,-0.9512786865234375,-0.0783233642578125,-0.250579833984375
1772534910845031400,3.535031494140625,-1.21990966796875,-0.1925201416015625,-0.2364349365234375
1772534910855047700,3.545047607421875,-1.6191558837890625,-0.3055877685546875,-0.189300537109375
1772534910865064700,3.555064697265625,-2.0117950439453125,-0.4345245361328125,-0.1495208740234375
1772534910875081500,3.56508154296875,-2.4425201416015625,-0.5329132080078125,-0.15673828125
1772534910885097500,3.575097412109375,-2.970001220703125,-0.4490966796875,-0.2347412109375
1772534910895114800,3.58511474609375,-3.538330078125,-0.2459716796875,-0.387969970703125
1772534910905131500,3.595131591796875,-4.00970458984375,-0.0676727294921875,-0.533966064453125
1772534910915147500,3.6051474609375,-4.1989898681640625,0.075714111328125,-0.6046142578125
1772534910925164800,3.615164794921875,-4.1309814453125,0.068756103515625,-0.5157623291015625
1772534910935181600,3.625181640625,-4.0116424560546875,-0.00811767578125,-0.3264923095703125
1772534910945197600,3.635197509765625,-3.8501739501953125,0.01165771484375,-0.151580810546875
1772534910955214600,3.645214599609375,-3.57489013671875,0.0637359619140625,-0.012054443359375
1772534910965230600,3.655230712890625,-3.1953887939453125,0.0652313232421875,0.0308837890625
1772534910975246600,3.66524658203125,-2.7118377685546875,0.0003662109375,-0.0187530517578125
1772534910985263600,3.675263671875,-2.1750946044921875,-0.057891845703125,-0.149139404296875
1772534910995280400,3.6852802734375,-1.703369140625,-0.104278564453125,-0.348388671875
1772534911005296400,3.69529638671875,-1.324920654296875,-0.1594085693359375,-0.5622406005859375
1772534911015313700,3.705313720703125,-1.026947021484375,-0.1659698486328125,-0.801483154296875
1772534911025330400,3.715330322265625,-0.7642822265625,-0.1515350341796875,-0.955902099609375
1772534911035346400,3.725346435546875,-0.5433197021484375,-0.110626220703125,-0.9884033203125
1772534911045363700,3.73536376953125,-0.356658935546875,-0.0763092041015625,-0.88507080078125
1772534911055380500,3.74538037109375,-0.21624755859375,-0.0585174560546875,-0.7202606201171875
1772534911065396500,3.755396484375,-0.1257476806640625,-0.047393798828125,-0.5190582275390625
1772534911075413500,3.76541357421875,-0.06103515625,-0.0204315185546875,-0.3229827880859375
1772534911085430500,3.775430419921875,0.0404510498046875,0.039794921875,-0.1652679443359375
1772534911095446500,3.785446533203125,0.1801910400390625,0.0470428466796875,-0.01666259765625
1772534911105463600,3.795463623046875,0.3116607666015625,0.0594940185546875,0.073272705078125
1772534911115480600,3.80548046875,0.4080657958984375,0.07196044921875,0.0940704345703125
1772534911125496600,3.81549658203125,0.467742919921875,0.0545654296875,0.0652008056640625
1772534911135513600,3.825513671875,0.4896240234375,0.0184326171875,0.0116424560546875
1772534911145529600,3.835529541015625,0.479522705078125,-0.01605224609375,-0.034759521484375
1772534911155546600,3.845546630859375,0.467559814453125,-0.064056396484375,-0.05517578125
1772534911165563600,3.855563720703125,0.4474029541015625,-0.121826171875,-0.060211181640625
1772534911175579600,3.86557958984375,0.4142303466796875,-0.16168212890625,-0.0662841796875
1772534911185596400,3.875596435546875,0.369140625,-0.17181396484375,-0.079620361328125
1772534911195613700,3.88561376953125,0.278045654296875,-0.1614227294921875,-0.07879638671875
1772534911205629700,3.895629638671875,0.131103515625,-0.145538330078125,-0.054840087890625
1772534911215646500,3.905646484375,-0.033782958984375,-0.11944580078125,-0.0118865966796875
1772534911225663700,3.915663818359375,-0.175140380859375,-0.096405029296875,0.01788330078125
1772534911235679700,3.9256796875,-0.2681732177734375,-0.0867919921875,0.032257080078125
1772534911245696500,3.935696533203125,-0.3125,-0.0894317626953125,0.0579833984375
1772534911255713500,3.945713623046875,-0.345947265625,-0.120635986328125,0.0993194580078125
1772534911265729800,3.955729736328125,-0.3726654052734375,-0.161285400390625,0.1275482177734375
1772534911275746600,3.96574658203125,-0.34967041015625,-0.177886962890625,0.132537841796875
1772534911285763600,3.975763671875,-0.2958984375,-0.1708526611328125,0.107635498046875
1772534911295779600,3.985779541015625,-0.2576141357421875,-0.17388916015625,0.0654296875
1772534911305796600,3.995796630859375,-0.25341796875,-0.179473876953125,0.0343780517578125
1772534911315813600,4.005813720703125,-0.263458251953125,-0.1783599853515625,0.0111541748046875
1772534911325829600,4.01582958984375,-0.2729644775390625,-0.157806396484375,0.003387451171875
1772534911335846700,4.0258466796875,-0.2830657958984375,-0.1247711181640625,0.01300048828125
1772534911345863700,4.03586376953125,-0.29583740234375,-0.1042327880859375,0.0118865966796875
1772534911355879400,4.04587939453125,-0.3279876708984375,-0.0884246826171875,-0.028472900390625
1772534911365896400,4.055896484375,-0.4099273681640625,-0.10064697265625,-0.0809478759765625
1772534911375913700,4.065913818359375,-0.5774688720703125,-0.1446075439453125,-0.1218719482421875
1772534911385929500,4.075929443359375,-0.88763427734375,-0.13861083984375,-0.1149139404296875
1772534911395946500,4.085946533203125,-1.351287841796875,-0.070770263671875,-0.185760498046875
1772534911405963800,4.0959638671875,-1.9068145751953125,0.00299072265625,-0.3306121826171875
1772534911415979500,4.1059794921875,-2.52008056640625,0.0680389404296875,-0.4829254150390625
1772534911425996500,4.11599658203125,-3.104278564453125,0.1175689697265625,-0.7542266845703125
1772534911436013600,4.126013671875,-3.4393768310546875,0.2501220703125,-0.967376708984375
1772534911446029600,4.136029541015625,-3.5093536376953125,0.3143463134765625,-0.917327880859375
1772534911456046600,4.146046630859375,-3.4169921875,0.3105621337890625,-0.9698028564453125
1772534911466063600,4.156063720703125,-3.36627197265625,0.3611907958984375,-1.13226318359375
1772534911476079400,4.166079345703125,-3.37261962890625,0.3044281005859375,-0.949615478515625
1772534911486096600,4.1760966796875,-3.2537384033203125,0.233856201171875,-0.61865234375
1772534911496113700,4.18611376953125,-3.05462646484375,0.2184906005859375,-0.286529541015625
1772534911506129400,4.19612939453125,-2.9941558837890625,0.147674560546875,0.0095062255859375
1772534911516146700,4.206146728515625,-3.037445068359375,0.0814056396484375,0.184844970703125
1772534911526162700,4.21616259765625,-3.0418243408203125,0.036834716796875,0.228271484375
1772534911536179500,4.226179443359375,-2.8872528076171875,-0.0138092041015625,0.1124267578125
1772534911546196500,4.236196533203125,-2.5207672119140625,-0.076904296875,-0.140594482421875
1772534911556212700,4.246212646484375,-2.01385498046875,-0.1468353271484375,-0.388275146484375
1772534911566229500,4.2562294921875,-1.4559783935546875,-0.218902587890625,-0.545318603515625
1772534911576246500,4.26624658203125,-0.9679107666015625,-0.42987060546875,-0.7568817138671875
1772534911586262500,4.276262451171875,-0.59027099609375,-0.588897705078125,-0.97930908203125
1772534911596279600,4.286279541015625,-0.31304931640625,-0.5527801513671875,-0.9073638916015625
1772534911606296600,4.296296630859375,0.0179443359375,-0.4778289794921875,-0.687713623046875
1772534911616312600,4.3063125,0.3205413818359375,-0.334564208984375,-0.4630584716796875
1772534911626329600,4.31632958984375,0.50091552734375,-0.2185516357421875,-0.269073486328125
1772534911636346600,4.3263466796875,0.5977935791015625,-0.16131591796875,-0.147430419921875
1772534911646362600,4.336362548828125,0.593017578125,-0.096160888671875,-0.13055419921875
1772534911656379400,4.34637939453125,0.508544921875,-0.0887908935546875,-0.1420745849609375
1772534911666396700,4.356396728515625,0.3748931884765625,-0.1161346435546875,-0.1255645751953125
1772534911676412700,4.36641259765625,0.2248687744140625,-0.109100341796875,-0.1124725341796875
1772534911686429400,4.376429443359375,0.135589599609375,-0.0995635986328125,-0.102752685546875
1772534911696446700,4.38644677734375,0.1033172607421875,-0.1097259521484375,-0.0574798583984375
1772534911706462700,4.396462646484375,0.120941162109375,-0.091796875,0.0021209716796875
1772534911716479500,4.4064794921875,0.1619873046875,-0.059356689453125,0.0732574462890625
1772534911726496500,4.41649658203125,0.1786041259765625,-0.042999267578125,0.1299591064453125
1772534911736512800,4.4265126953125,0.1616973876953125,-0.02520751953125,0.165496826171875
1772534911746529500,4.436529541015625,0.110504150390625,0.000701904296875,0.195556640625
1772534911756546600,4.446546630859375,0.058685302734375,0.0200042724609375,0.2070465087890625
1772534911766562600,4.4565625,0.0313720703125,0.0101318359375,0.1991119384765625
1772534911776579600,4.46657958984375,-0.0062713623046875,-0.03692626953125,0.19573974609375
1772534911786596600,4.4765966796875,-0.0717926025390625,-0.0336151123046875,0.172271728515625
1772534911796612600,4.486612548828125,-0.08001708984375,-0.000457763671875,0.10089111328125
1772534911806629600,4.496629638671875,-0.073699951171875,0.00189208984375,-0.00299072265625
1772534911816646700,4.506646728515625,-0.1628875732421875,-0.0263214111328125,0.02789306640625
1772534911826662700,4.51666259765625,-0.272857666015625,-0.0127716064453125,0.06561279296875
1772534911836679400,4.526679443359375,-0.459320068359375,-0.0576019287109375,0.0885009765625
1772534911846696700,4.53669677734375,-0.4488677978515625,-0.0862579345703125,0.042816162109375
1772534911856712700,4.546712646484375,-0.3170318603515625,-0.02667236328125,-0.0110931396484375
1772534911866729500,4.5567294921875,-0.2726287841796875,-0.0249481201171875,-0.039459228515625
1772534911876745500,4.566745361328125,-0.1578369140625,-0.1028289794921875,-0.0943145751953125
1772534911886762500,4.576762451171875,-0.17645263671875,-0.1441192626953125,-0.1078338623046875
1772534911896779500,4.586779541015625,-0.284515380859375,-0.189208984375,-0.0794525146484375
1772534911906795500,4.59679541015625,-0.436767578125,-0.2497100830078125,-0.073822021484375
1772534911916812500,4.6068125,-0.601715087890625,-0.2636871337890625,-0.1161041259765625
1772534911926829600,4.61682958984375,-0.8531341552734375,-0.28582763671875,-0.1677398681640625
1772534911936845600,4.626845458984375,-1.2283477783203125,-0.3385009765625,-0.1546783447265625
1772534911946862300,4.6368623046875,-1.600128173828125,-0.3692626953125,-0.17877197265625
1772534911956879600,4.646879638671875,-1.96966552734375,-0.3693695068359375,-0.297332763671875
1772534911966896000,4.656896240234375,-2.2654266357421875,-0.3763885498046875,-0.4218597412109375
1772534911976913000,4.666912841796875,-2.3944244384765625,-0.325469970703125,-0.57781982421875
1772534911986930200,4.67693017578125,-2.564483642578125,-0.204498291015625,-0.7689056396484375
1772534911996946200,4.6869462890625,-2.9553680419921875,-0.1829681396484375,-0.9927215576171875
1772534912006963000,4.696962890625,-3.43048095703125,-0.0994873046875,-1.1914215087890625
1772534912016980200,4.706980224609375,-3.811431884765625,0.320953369140625,-1.2953948974609375
1772534912026996200,4.716996337890625,-4.0792694091796875,0.6037750244140625,-1.1368255615234375
1772534912037013000,4.727012939453125,-4.03460693359375,0.6505126953125,-0.788360595703125
1772534912047030000,4.737030029296875,-3.390777587890625,0.4830474853515625,-0.3993072509765625
1772534912057046300,4.74704638671875,-2.586151123046875,0.3631744384765625,-0.1366729736328125
1772534912067063000,4.75706298828125,-1.92559814453125,0.262603759765625,0.0433349609375
1772534912077080000,4.767080078125,-1.6328887939453125,0.2293548583984375,0.0307464599609375
1772534912087096000,4.777095947265625,-1.7599334716796875,0.2709197998046875,-0.13525390625
1772534912097113000,4.787113037109375,-2.000762939453125,0.1468963623046875,-0.30657958984375
1772534912107130000,4.797130126953125,-2.0206146240234375,-0.014984130859375,-0.503997802734375
1772534912117146000,4.80714599609375,-1.77410888671875,-0.1170654296875,-0.730987548828125
1772534912127163100,4.8171630859375,-1.397674560546875,-0.189178466796875,-0.8625335693359375
1772534912137180200,4.82718017578125,-0.9956512451171875,-0.2596435546875,-0.8617706298828125
1772534912147196200,4.837196044921875,-0.6501922607421875,-0.361053466796875,-0.750396728515625
1772534912157213000,4.847212890625,-0.3692779541015625,-0.4435577392578125,-0.58489990234375
1772534912167229200,4.857229248046875,-0.13397216796875,-0.4478759765625,-0.4421844482421875
1772534912177246200,4.86724609375,0.0625457763671875,-0.4076690673828125,-0.3094024658203125
1772534912187263000,4.877262939453125,0.220062255859375,-0.3632965087890625,-0.1626129150390625
1772534912197280300,4.8872802734375,0.303466796875,-0.3241119384765625,-0.0578155517578125
1772534912207296300,4.897296142578125,0.2938232421875,-0.274139404296875,-0.005401611328125
1772534912217313000,4.90731298828125,0.2181854248046875,-0.2431488037109375,0.027557373046875
1772534912227329000,4.9173291015625,0.1482086181640625,-0.2548828125,0.05718994140625
1772534912237346000,4.927345947265625,0.105224609375,-0.2607574462890625,0.09527587890625
1772534912247363000,4.937363037109375,0.0763092041015625,-0.252593994140625,0.137481689453125
1772534912257379000,4.947379150390625,0.071014404296875,-0.22869873046875,0.142974853515625
1772534912267396000,4.95739599609375,0.0769195556640625,-0.1798248291015625,0.1197357177734375
1772534912277413000,4.9674130859375,0.10394287109375,-0.2530517578125,0.17449951171875
1772534912287429000,4.97742919921875,0.1029052734375,-0.3018341064453125,0.2411956787109375
1772534912297446000,4.98744580078125,0.0549468994140625,-0.23309326171875,0.20269775390625
1772534912307463200,4.997463134765625,-0.006866455078125,-0.24224853515625,0.209716796875
1772534912317479200,5.007479248046875,-0.108184814453125,-0.228240966796875,0.2400054931640625
1772534912327496000,5.017495849609375,-0.211883544921875,-0.186004638671875,0.2474365234375
1772534912337513000,5.027512939453125,-0.2885284423828125,-0.1609954833984375,0.251495361328125
1772534912347529200,5.037529296875,-0.330322265625,-0.1674652099609375,0.254913330078125
1772534912357546000,5.0475458984375,-0.3545074462890625,-0.1793365478515625,0.2148895263671875
1772534912367563000,5.05756298828125,-0.346435546875,-0.182403564453125,0.170501708984375
1772534912377579000,5.0675791015625,-0.3245697021484375,-0.202117919921875,0.15325927734375
1772534912387596000,5.077595947265625,-0.3225555419921875,-0.2011566162109375,0.124176025390625
1772534912397613000,5.087613037109375,-0.3416900634765625,-0.1733856201171875,0.0865478515625
1772534912407629000,5.097629150390625,-0.3719024658203125,-0.1596221923828125,0.0433197021484375
1772534912417646000,5.10764599609375,-0.4275054931640625,-0.1450347900390625,-0.0353851318359375
1772534912427663000,5.1176630859375,-0.4598388671875,-0.1522369384765625,-0.1195831298828125
1772534912437679000,5.12767919921875,-0.541351318359375,-0.211151123046875,-0.170928955078125
1772534912447696000,5.13769580078125,-0.6826629638671875,-0.27703857421875,-0.2208099365234375
1772534912457713200,5.147713134765625,-0.87847900390625,-0.3034820556640625,-0.2543182373046875
1772534912467729200,5.157729248046875,-1.1152191162109375,-0.2946319580078125,-0.270477294921875
1772534912477746000,5.167745849609375,-1.4178009033203125,-0.2666168212890625,-0.2583465576171875
1772534912487762000,5.177761962890625,-1.7478790283203125,-0.2079620361328125,-0.2861175537109375
1772534912497779200,5.187779296875,-2.024993896484375,-0.152740478515625,-0.37841796875
1772534912507796000,5.1977958984375,-2.1588287353515625,-0.201629638671875,-0.44677734375
1772534912517812000,5.20781201171875,-2.2359771728515625,-0.2187042236328125,-0.5816802978515625
1772534912527829200,5.217829345703125,-2.3379058837890625,-0.05340576171875,-0.8267822265625
1772534912537846000,5.227845947265625,-2.4985198974609375,0.01031494140625,-0.9963836669921875
1772534912547862000,5.237862060546875,-2.766082763671875,-0.0152130126953125,-1.0894927978515625
1772534912557879000,5.247879150390625,-3.051727294921875,0.0377044677734375,-1.1716461181640625
1772534912567896000,5.25789599609375,-3.2433929443359375,0.1123809814453125,-1.13818359375
1772534912577912000,5.267912109375,-3.2632293701171875,0.110382080078125,-0.97723388671875
1772534912587929000,5.27792919921875,-2.9639434814453125,0.017486572265625,-0.69732666015625
1772534912597946000,5.287946044921875,-2.499603271484375,-0.04058837890625,-0.366546630859375
1772534912607962000,5.297962158203125,-2.1634368896484375,-0.055572509765625,-0.11578369140625
1772534912617979100,5.307979248046875,-2.0342864990234375,-0.007232666015625,0.0084075927734375
1772534912635089200,5.325089111328125,-1.9959564208984375,0.018951416015625,0.0974273681640625
1772534912644899000,5.334899169921875,-1.8450927734375,-0.007537841796875,0.1067657470703125
1772534912654915000,5.3449150390625,-1.539154052734375,-0.05731201171875,0.106842041015625
1772534912664932000,5.35493212890625,-1.2655181884765625,-0.0910797119140625,0.0464324951171875
1772534912674949000,5.36494921875,-1.015411376953125,-0.1025848388671875,-0.06951904296875
1772534912684965000,5.374965087890625,-0.7890472412109375,-0.1051025390625,-0.222259521484375
1772534912694982100,5.384982177734375,-0.5885009765625,-0.0727996826171875,-0.353607177734375
1772534912704999000,5.3949990234375,-0.415374755859375,-0.069671630859375,-0.4116058349609375
1772534912715015200,5.40501513671875,-0.3308868408203125,-0.064056396484375,-0.4110260009765625
1772534912725032200,5.4150322265625,-0.2725067138671875,-0.0548553466796875,-0.355224609375
1772534912735049000,5.425049072265625,-0.2029876708984375,-0.07318115234375,-0.2479095458984375
1772534912745065000,5.43506494140625,-0.1123809814453125,-0.09991455078125,-0.13641357421875
1772534912755082200,5.445082275390625,-0.025177001953125,-0.112396240234375,-0.0567474365234375
1772534912765099000,5.45509912109375,0.045074462890625,-0.1103363037109375,-0.001312255859375
1772534912775115000,5.465114990234375,0.1088104248046875,-0.1128692626953125,0.040283203125
1772534912785132300,5.47513232421875,0.1446380615234375,-0.1298675537109375,0.0674285888671875
1772534912795149000,5.485149169921875,0.1445159912109375,-0.144989013671875,0.0545654296875
1772534912805165000,5.4951650390625,0.1192779541015625,-0.153411865234375,0.0173187255859375
1772534912815182000,5.50518212890625,0.102264404296875,-0.1602630615234375,-0.008514404296875
1772534912825198000,5.515197998046875,0.0970916748046875,-0.15576171875,-0.014678955078125
1772534912835215000,5.525215087890625,0.091796875,-0.162445068359375,-0.0172882080078125
1772534912845232000,5.535232177734375,0.0872650146484375,-0.1748046875,-0.020172119140625
1772534912855248000,5.545247802734375,0.0659637451171875,-0.18804931640625,-0.002960205078125
1772534912865265200,5.55526513671875,0.0213470458984375,-0.186614990234375,0.02142333984375
1772534912875282200,5.5652822265625,-0.0311126708984375,-0.1765899658203125,0.030853271484375
1772534912885298000,5.5752978515625,-0.0899200439453125,-0.1734466552734375,0.036956787109375
1772534912895315200,5.585315185546875,-0.149322509765625,-0.1638946533203125,0.0426177978515625
1772534912905332000,5.59533203125,-0.205352783203125,-0.1582489013671875,0.0447998046875
1772534912915348000,5.605347900390625,-0.2508544921875,-0.1699981689453125,0.0336456298828125
1772534912925365000,5.615364990234375,-0.269012451171875,-0.2032470703125,0.030975341796875
1772534912935382000,5.625382080078125,-0.262542724609375,-0.2165374755859375,0.0293121337890625
1772534912945398000,5.63539794921875,-0.258453369140625,-0.2595977783203125,0.0243072509765625
1772534912955415000,5.6454150390625,-0.2767486572265625,-0.310455322265625,-0.02099609375
1772534912965431800,5.655431884765625,-0.2864227294921875,-0.328369140625,-0.0894317626953125
1772534912975447600,5.665447509765625,-0.316619873046875,-0.3664398193359375,-0.119293212890625
1772534912985464600,5.675464599609375,-0.430145263671875,-0.4286346435546875,-0.1292572021484375
1772534912995481900,5.68548193359375,-0.578948974609375,-0.46331787109375,-0.1453399658203125
1772534913005497600,5.69549755859375,-0.7175140380859375,-0.464385986328125,-0.18341064453125
1772534913015514600,5.7055146484375,-0.8984222412109375,-0.4525299072265625,-0.2445068359375
1772534913025531600,5.71553173828125,-1.1331634521484375,-0.44873046875,-0.281982421875
1772534913035547600,5.725547607421875,-1.474151611328125,-0.4516754150390625,-0.3365325927734375
1772534913045564700,5.735564697265625,-1.860137939453125,-0.372833251953125,-0.4583892822265625
1772534913055581700,5.745581787109375,-2.194000244140625,-0.3299560546875,-0.435638427734375
1772534913066849800,5.756849853515625,-2.4221649169921875,-0.53759765625,-0.2383270263671875
1772534913076866600,5.766866455078125,-2.697906494140625,-0.4660797119140625,-0.3904876708984375
1772534913086883600,5.776883544921875,-3.061370849609375,0.048583984375,-0.7555084228515625
1772534913096899600,5.786899658203125,-3.5394439697265625,0.1600494384765625,-0.880645751953125
1772534913106916600,5.79691650390625,-3.991607666015625,0.083251953125,-0.9308624267578125
1772534913116933600,5.80693359375,-4.1790618896484375,0.2488861083984375,-0.9005126953125
1772534913126949600,5.81694970703125,-4.121917724609375,0.3784332275390625,-0.7301177978515625
1772534913136966700,5.826966552734375,-3.8031768798828125,0.354644775390625,-0.459869384765625
1772534913146982700,5.836982666015625,-3.2994537353515625,0.37762451171875,-0.290435791015625
1772534913156999700,5.846999755859375,-2.703369140625,0.365325927734375,-0.132049560546875
1772534913167016400,5.857016357421875,-2.146240234375,0.3070068359375,0.009002685546875
1772534913177032700,5.86703271484375,-1.6593780517578125,0.2463836669921875,0.1007080078125
1772534913187049700,5.8770498046875,-1.24969482421875,0.1602935791015625,0.1674957275390625
1772534913197066500,5.88706640625,-0.928466796875,0.1280975341796875,0.130950927734375
1772534913207082500,5.89708251953125,-0.722259521484375,0.1533966064453125,-0.0074005126953125
1772534913217099800,5.907099853515625,-0.636199951171875,0.1547393798828125,-0.260345458984375
1772534913227116500,5.917116455078125,-0.5278167724609375,0.132171630859375,-0.56585693359375
1772534913237132500,5.927132568359375,-0.343841552734375,0.075927734375,-0.8340606689453125
1772534913247149800,5.93714990234375,-0.1209716796875,-0.010589599609375,-1.0215606689453125
1772534913257166600,5.94716650390625,0.08380126953125,-0.0777740478515625,-1.0974273681640625
1772534913267182600,5.9571826171875,0.2362823486328125,-0.139373779296875,-1.002593994140625
1772534913277199600,5.96719970703125,0.29547119140625,-0.185455322265625,-0.7902069091796875
1772534913287216600,5.977216552734375,0.297515869140625,-0.17730712890625,-0.59197998046875
1772534913297232600,5.987232666015625,0.251434326171875,-0.1615753173828125,-0.4180755615234375
1772534913307249700,5.997249755859375,0.141357421875,-0.1528778076171875,-0.26416015625
1772534913317266700,6.0072666015625,0.0282745361328125,-0.1226348876953125,-0.1567230224609375
1772534913327282700,6.01728271484375,-0.020721435546875,-0.108795166015625,-0.090789794921875
1772534913337299700,6.0272998046875,0.00927734375,-0.104827880859375,-0.051727294921875
1772534913347316500,6.03731640625,0.1103973388671875,-0.113922119140625,0.0018768310546875
1772534913357332700,6.047332763671875,0.20745849609375,-0.1184539794921875,0.0509033203125
1772534913367349500,6.057349609375,0.277618408203125,-0.1243133544921875,0.083099365234375
1772534913377365500,6.067365478515625,0.2866058349609375,-0.1472320556640625,0.0968017578125
1772534913387382500,6.077382568359375,0.2393798828125,-0.175750732421875,0.1009368896484375
1772534913397399600,6.087399658203125,0.1853179931640625,-0.1825408935546875,0.0876617431640625
1772534913407415600,6.09741552734375,0.1306304931640625,-0.1688995361328125,0.06121826171875
1772534913417432600,6.1074326171875,0.07867431640625,-0.1604766845703125,0.0357666015625
1772534913427449600,6.11744970703125,0.04302978515625,-0.1515960693359375,0.0186920166015625
1772534913437465600,6.127465576171875,0.011566162109375,-0.1465911865234375,0.0191497802734375
1772534913447482600,6.137482666015625,-0.024688720703125,-0.1439971923828125,0.0161590576171875
1772534913457499400,6.14749951171875,-0.056610107421875,-0.139373779296875,0.003936767578125
1772534913467515600,6.157515625,-0.0852508544921875,-0.1331939697265625,-0.0022430419921875
1772534913477532700,6.16753271484375,-0.121307373046875,-0.156524658203125,-0.0114898681640625
1772534913487549400,6.177549560546875,-0.143310546875,-0.1857757568359375,-0.000640869140625
1772534913497565400,6.1875654296875,-0.152862548828125,-0.1971588134765625,-0.0092315673828125
1772534913507582700,6.197582763671875,-0.1690521240234375,-0.210205078125,-0.0633392333984375
1772534913517599500,6.207599609375,-0.2048797607421875,-0.1981201171875,-0.0908203125
1772534913527615500,6.217615478515625,-0.272979736328125,-0.1870880126953125,-0.0887908935546875
1772534913537632800,6.2276328125,-0.3785858154296875,-0.1981201171875,-0.0793304443359375
1772534913547649500,6.2376494140625,-0.5730438232421875,-0.2253570556640625,-0.076080322265625
1772534913557665500,6.24766552734375,-0.823974609375,-0.2617034912109375,-0.0915985107421875
1772534913567682600,6.2576826171875,-1.1285552978515625,-0.2369232177734375,-0.1331787109375
1772534913577699600,6.267699462890625,-1.53057861328125,-0.2448883056640625,-0.193115234375
1772534913587715600,6.277715576171875,-1.991973876953125,-0.288665771484375,-0.3023223876953125
1772534913597732600,6.287732666015625,-2.369171142578125,-0.321929931640625,-0.3459014892578125
1772534913607748600,6.29774853515625,-2.5201568603515625,-0.4804534912109375,-0.243316650390625
1772534913617765600,6.307765625,-2.51934814453125,-0.6378631591796875,-0.2098388671875
1772534913627782700,6.31778271484375,-2.5540618896484375,-0.5333404541015625,-0.3017730712890625
1772534913637798700,6.327798583984375,-2.7442779541015625,-0.4004974365234375,-0.2763824462890625
1772534913647815700,6.337815673828125,-3.1867828369140625,-0.3376007080078125,-0.2584991455078125
1772534913657832700,6.347832763671875,-3.6552276611328125,-0.202117919921875,-0.4042205810546875
1772534913667848700,6.3578486328125,-3.8510894775390625,-0.0781402587890625,-0.524688720703125
1772534913677865500,6.367865478515625,-3.6754913330078125,0.0369720458984375,-0.6073455810546875
1772534913687882800,6.3778828125,-3.507110595703125,0.076080322265625,-0.4846954345703125
1772534913697898800,6.387898681640625,-3.2653656005859375,0.068572998046875,-0.395751953125
1772534913707915500,6.39791552734375,-2.921234130859375,0.20867919921875,-0.43792724609375
1772534913717932800,6.407932861328125,-2.701934814453125,0.225677490234375,-0.4208984375
1772534913727948500,6.417948486328125,-2.4420623779296875,0.158355712890625,-0.4593048095703125
1772534913737965600,6.427965576171875,-2.1142578125,0.1490936279296875,-0.515716552734375
1772534913747982600,6.437982666015625,-1.8352508544921875,0.1372528076171875,-0.4952545166015625
1772534913757998600,6.44799853515625,-1.6368865966796875,0.1330413818359375,-0.4039154052734375
1772534913768015600,6.458015625,-1.4631500244140625,0.1726837158203125,-0.333770751953125
1772534913778032600,6.46803271484375,-1.235443115234375,0.22698974609375,-0.3075714111328125
1772534913788048400,6.47804833984375,-0.9263763427734375,0.2646026611328125,-0.307830810546875
1772534913798065700,6.488065673828125,-0.589569091796875,0.2806549072265625,-0.296722412109375
1772534913808081700,6.49808154296875,-0.26593017578125,0.296875,-0.2575836181640625
1772534913818098400,6.508098388671875,0.059844970703125,0.3034820556640625,-0.178314208984375
1772534913828115700,6.51811572265625,0.3333282470703125,0.267120361328125,-0.0621185302734375
1772534913838131700,6.528131591796875,0.5509033203125,0.2124176025390625,0.0326385498046875
1772534913848148500,6.5381484375,0.6885223388671875,0.1719512939453125,0.0646820068359375
1772534913858165500,6.54816552734375,0.7344512939453125,0.179962158203125,0.0558929443359375
1772534913868181800,6.558181640625,0.65972900390625,0.1776123046875,0.0264892578125
1772534913878198500,6.568198486328125,0.5621490478515625,-0.0080108642578125,0.10479736328125
1772534913888215600,6.578215576171875,0.3629913330078125,0.0149993896484375,0.0313873291015625
1772534913898231600,6.5882314453125,0.2534027099609375,0.005645751953125,-0.0286102294921875
1772534913908248600,6.59824853515625,0.1638336181640625,-0.0252685546875,-0.0597686767578125
1772534913918265600,6.608265625,0.13177490234375,-0.0380859375,-0.1146392822265625
1772534913928281600,6.618281494140625,0.145355224609375,-0.0587005615234375,-0.1642608642578125
1772534913938298600,6.628298583984375,0.1767425537109375,-0.064971923828125,-0.18048095703125
1772534913948315600,6.638315673828125,0.2127532958984375,-0.0761871337890625,-0.1622467041015625
1772534913958331600,6.64833154296875,0.232696533203125,-0.1108551025390625,-0.125823974609375
1772534913968349700,6.658349609375,0.236907958984375,-0.13006591796875,-0.08221435546875
1772534913978366700,6.66836669921875,0.2150421142578125,-0.1273040771484375,-0.0391845703125
1772534913988382500,6.678382568359375,0.1609954833984375,-0.125,-0.0334014892578125
1772534913998399500,6.6883994140625,0.09857177734375,-0.1177215576171875,-0.0504608154296875
1772534914008415700,6.698415771484375,0.0306854248046875,-0.1021728515625,-0.0373382568359375
1772534914018432500,6.7084326171875,-0.0609283447265625,-0.097869873046875,0.00347900390625
1772534914028449500,6.718449462890625,-0.1636962890625,-0.1140899658203125,0.035308837890625
1772534914038465500,6.728465576171875,-0.26153564453125,-0.12469482421875,0.039642333984375
1772534914048482600,6.738482666015625,-0.366607666015625,-0.134613037109375,0.0358734130859375
1772534914058499600,6.74849951171875,-0.4491119384765625,-0.1538238525390625,0.0258026123046875
1772534914068515600,6.758515625,-0.4594879150390625,-0.174407958984375,0.0132598876953125
1772534914078532600,6.76853271484375,-0.4310760498046875,-0.2036285400390625,-0.0288238525390625
1772534914088549600,6.778549560546875,-0.459228515625,-0.262847900390625,-0.0748748779296875
1772534914098565600,6.788565673828125,-0.600799560546875,-0.32769775390625,-0.1126708984375
1772534914108582400,6.79858251953125,-0.87713623046875,-0.37225341796875,-0.15106201171875
1772534914118599700,6.808599609375,-1.25640869140625,-0.383758544921875,-0.203094482421875
1772534914128615700,6.81861572265625,-1.6501922607421875,-0.3359832763671875,-0.2828369140625
1772534914138632400,6.828632568359375,-2.042510986328125,-0.2580108642578125,-0.36627197265625
1772534914148649700,6.838649658203125,-2.3600616455078125,-0.17523193359375,-0.4200592041015625
1772534914158665700,6.848665771484375,-2.5603179931640625,-0.4017181396484375,-0.29095458984375
1772534914168682500,6.8586826171875,-2.63531494140625,-0.5881195068359375,-0.250885009765625
1772534914178699800,6.86869970703125,-2.601104736328125,-0.273162841796875,-0.5611724853515625
1772534914188715800,6.8787158203125,-2.8135833740234375,-0.1151885986328125,-0.6722412109375
1772534914198732500,6.888732666015625,-3.1973419189453125,-0.1981658935546875,-0.67034912109375
1772534914208748500,6.89874853515625,-3.49700927734375,-0.1094970703125,-0.7562713623046875
1772534914218765600,6.908765625,-3.6132354736328125,-0.042572021484375,-0.679229736328125
1772534914228782600,6.918782470703125,-3.4958953857421875,-0.0471038818359375,-0.42120361328125
1772534914238798600,6.928798583984375,-3.1911163330078125,-0.071563720703125,-0.1649169921875
1772534914248815600,6.938815673828125,-2.8477630615234375,-0.0547027587890625,-0.0268402099609375
1772534914258832600,6.94883251953125,-2.558685302734375,-0.066162109375,0.0790557861328125
1772534914268848600,6.9588486328125,-2.3229522705078125,-0.0898590087890625,0.0897979736328125
1772534914278865700,6.96886572265625,-2.0630950927734375,-0.1104583740234375,-0.0001983642578125
1772534914288882700,6.978882568359375,-1.708465576171875,-0.149658203125,-0.1091766357421875
1772534914298898700,6.988898681640625,-1.335723876953125,-0.1851654052734375,-0.2227325439453125
1772534914308915700,6.998915771484375,-1.03338623046875,-0.207763671875,-0.368621826171875
1772534914318932500,7.008932373046875,-0.8189849853515625,-0.2116241455078125,-0.5107879638671875
1772534914328948500,7.018948486328125,-0.672393798828125,-0.1970977783203125,-0.6110687255859375
1772534914338965800,7.0289658203125,-0.532623291015625,-0.16412353515625,-0.6685638427734375
1772534914348982500,7.038982421875,-0.3968963623046875,-0.138763427734375,-0.6702117919921875
1772534914358998500,7.04899853515625,-0.2601776123046875,-0.1290130615234375,-0.6157989501953125
1772534914369015800,7.059015869140625,-0.125732421875,-0.1368408203125,-0.5251617431640625
1772534914379031600,7.069031494140625,-0.0320587158203125,-0.1324005126953125,-0.441650390625
1772534914389048600,7.079048583984375,0.082061767578125,-0.0509490966796875,-0.43389892578125
1772534914399065900,7.08906591796875,0.18975830078125,0.00128173828125,-0.3832550048828125
1772534914409081600,7.09908154296875,0.2386322021484375,-0.0192413330078125,-0.3058013916015625
1772534914419098600,7.1090986328125,0.2627410888671875,-0.0404052734375,-0.2214813232421875
1772534914429115600,7.11911572265625,0.2712249755859375,-0.02960205078125,-0.1575927734375
1772534914439131400,7.12913134765625,0.266387939453125,-0.009552001953125,-0.110198974609375
1772534914449148700,7.139148681640625,0.2247314453125,-0.0048675537109375,-0.0406951904296875
1772534914459165700,7.149165771484375,0.146026611328125,-0.0227203369140625,0.026214599609375
1772534914469181400,7.159181396484375,0.08154296875,-0.0417022705078125,0.05096435546875
1772534914479198700,7.16919873046875,0.0458831787109375,-0.0656585693359375,0.0765228271484375
1772534914489215500,7.179215576171875,0.02667236328125,-0.084503173828125,0.0875701904296875
1772534914499231500,7.1892314453125,0.014312744140625,-0.0940093994140625,0.07806396484375
1772534914509248800,7.199248779296875,0.00701904296875,-0.11767578125,0.073455810546875
1772534914519265500,7.209265625,0.0106353759765625,-0.1381988525390625,0.0160675048828125
1772534914529281500,7.219281494140625,0.0344390869140625,-0.146087646484375,-0.0497283935546875
1772534914539298600,7.229298583984375,0.0379638671875,-0.1599578857421875,-0.096038818359375
1772534914549314600,7.239314453125,0.02093505859375,-0.1555023193359375,-0.1463623046875
1772534914559331600,7.24933154296875,-0.03363037109375,-0.1314239501953125,-0.1698455810546875
1772534914569348600,7.2593486328125,-0.1352996826171875,-0.146148681640625,-0.16461181640625
1772534914579364600,7.269364501953125,-0.2617340087890625,-0.165740966796875,-0.1659088134765625
1772534914589381600,7.279381591796875,-0.380035400390625,-0.1713104248046875,-0.161590576171875
1772534914599398700,7.289398681640625,-0.4492950439453125,-0.18988037109375,-0.1466064453125
1772534914609414700,7.29941455078125,-0.48089599609375,-0.2208099365234375,-0.145538330078125
1772534914619431700,7.309431640625,-0.4794464111328125,-0.21942138671875,-0.1704864501953125
1772534914629448700,7.31944873046875,-0.4681396484375,-0.198822021484375,-0.1656951904296875
1772534914639464700,7.329464599609375,-0.504486083984375,-0.230010986328125,-0.138092041015625
1772534914649481500,7.3394814453125,-0.627838134765625,-0.2616729736328125,-0.126068115234375
1772534914659498800,7.349498779296875,-0.818572998046875,-0.2749786376953125,-0.1456146240234375
1772534914669514800,7.3595146484375,-1.115753173828125,-0.233367919921875,-0.217437744140625
1772534914679531500,7.369531494140625,-1.4528350830078125,-0.167999267578125,-0.359222412109375
1772534914689547500,7.379547607421875,-1.8251495361328125,-0.145416259765625,-0.4947509765625
1772534914699564800,7.389564697265625,-2.177215576171875,-0.1814117431640625,-0.5541534423828125
1772534914709581600,7.39958154296875,-2.47821044921875,-0.3046875,-0.5790252685546875
1772534914719597600,7.40959765625,-2.72314453125,-0.1753387451171875,-0.7219696044921875
1772534914729614600,7.419614501953125,-2.7942657470703125,0.2435150146484375,-0.9865875244140625
1772534914739631600,7.429631591796875,-2.8224334716796875,0.429931640625,-1.16192626953125
1772534914749647600,7.439647705078125,-2.964874267578125,0.37091064453125,-1.1481170654296875
1772534914759664600,7.44966455078125,-3.0716094970703125,0.2353668212890625,-1.052398681640625
1772534914769681700,7.459681640625,-3.0514068603515625,0.137969970703125,-0.902099609375
1772534914779697700,7.46969775390625,-2.89453125,0.170867919921875,-0.7086944580078125
1772534914789714700,7.479714599609375,-2.6224822998046875,0.230987548828125,-0.49420166015625
1772534914799731700,7.489731689453125,-2.318450927734375,0.2017669677734375,-0.2307586669921875
1772534914809747700,7.499747802734375,-2.062957763671875,0.109222412109375,-0.0040740966796875
1772534914819764700,7.5097646484375,-1.8669586181640625,0.0078887939453125,0.16009521484375
1772534914829781500,7.519781494140625,-1.8012237548828125,-0.0579833984375,0.224822998046875
1772534914839797500,7.529797607421875,-1.7414703369140625,-0.1066436767578125,0.1989593505859375
1772534914849814500,7.539814453125,-1.7157135009765625,-0.1329345703125,0.064483642578125
1772534914859830500,7.54983056640625,-1.5769805908203125,-0.1369781494140625,-0.0900726318359375
1772534914869847600,7.55984765625,-1.3567962646484375,-0.179779052734375,-0.242523193359375
1772534914879864600,7.569864501953125,-1.104888916015625,-0.3035430908203125,-0.452239990234375
1772534914889880600,7.579880615234375,-0.7925262451171875,-0.349609375,-0.5507659912109375
1772534914899897600,7.589897705078125,-0.58233642578125,-0.3552398681640625,-0.6219329833984375
1772534914909914600,7.59991455078125,-0.40478515625,-0.330230712890625,-0.640350341796875
1772534914919930600,7.6099306640625,-0.1749725341796875,-0.31146240234375,-0.5718536376953125
1772534914929947600,7.61994775390625,-0.021636962890625,-0.3451385498046875,-0.4962158203125
1772534914939964400,7.62996435546875,-0.090362548828125,-0.3060150146484375,-0.493316650390625
1772534914949980400,7.63998046875,-0.06817626953125,-0.24896240234375,-0.461669921875
1772534914959997700,7.649997802734375,-0.0951080322265625,-0.1749267578125,-0.405303955078125
1772534914970014000,7.660013916015625,-0.122589111328125,-0.108367919921875,-0.331451416015625
1772534914980029700,7.67002978515625,-0.1209564208984375,-0.074249267578125,-0.275634765625
1772534914990046700,7.680046630859375,-0.1010589599609375,-0.0663299560546875,-0.24102783203125
1772534915000062700,7.690062744140625,-0.068267822265625,-0.0666046142578125,-0.1932220458984375
1772534915010079700,7.700079833984375,-0.046905517578125,-0.07391357421875,-0.1685333251953125
1772534915020096800,7.7100966796875,-0.0516204833984375,-0.077667236328125,-0.1631317138671875
1772534915030112800,7.72011279296875,-0.08538818359375,-0.0791778564453125,-0.12884521484375
1772534915040129500,7.730129638671875,-0.1638946533203125,-0.09271240234375,-0.05084228515625
1772534915050146800,7.740146728515625,-0.2839202880859375,-0.1405792236328125,0.038848876953125
1772534915060162800,7.750162841796875,-0.3262176513671875,-0.206695556640625,0.0625457763671875
1772534915070179600,7.7601796875,-0.249755859375,-0.2325439453125,-0.008392333984375
1772534915080196900,7.77019677734375,-0.1620330810546875,-0.2158203125,-0.080841064453125
1772534915090212900,7.780212890625,-0.101898193359375,-0.1852874755859375,-0.1015472412109375
1772534915100229600,7.790229736328125,-0.07940673828125,-0.14117431640625,-0.0741729736328125
1772534915110246700,7.80024658203125,-0.0816650390625,-0.068756103515625,0.000762939453125
1772534915120262700,7.8102626953125,-0.1099700927734375,-0.057861328125,0.0496978759765625
1772534915130279700,7.82027978515625,-0.1635894775390625,-0.0867767333984375,0.1086883544921875
1772534915140296700,7.830296630859375,-0.1533966064453125,-0.11297607421875,0.2411346435546875
1772534915150312700,7.840312744140625,-0.1930084228515625,-0.1647796630859375,0.291900634765625
1772534915160329700,7.850329833984375,-0.2319183349609375,-0.206756591796875,0.1772613525390625
1772534915170345700,7.860345703125,-0.2203216552734375,-0.2079315185546875,0.0637054443359375
1772534915180362800,7.87036279296875,-0.4106292724609375,-0.1820220947265625,-0.010650634765625
1772534915190379800,7.8803798828125,-0.663116455078125,-0.09466552734375,0.0028839111328125
1772534915200395800,7.890395751953125,-0.8446044921875,-0.027740478515625,-0.01837158203125
1772534915210412800,7.900412841796875,-1.08270263671875,-0.0551300048828125,-0.1103668212890625
1772534915220429600,7.9104296875,-1.4017181396484375,-0.1494140625,-0.2118682861328125
1772534915230445600,7.920445556640625,-1.6785888671875,-0.2539215087890625,-0.291839599609375
1772534915240462800,7.930462890625,-1.8479766845703125,-0.283355712890625,-0.318023681640625
1772534915250479600,7.940479736328125,-1.968017578125,-0.307647705078125,-0.2260284423828125
1772534915260495600,7.95049560546875,-2.00103759765625,-0.35791015625,-0.15142822265625
1772534915270513000,7.960512939453125,-2.079681396484375,-0.20654296875,-0.3892822265625
1772534915280529700,7.97052978515625,-2.2747039794921875,-0.00555419921875,-0.6435546875
1772534915290545700,7.980545654296875,-2.2129058837890625,-0.11395263671875,-0.684356689453125
1772534915300563000,7.99056298828125,-2.24188232421875,-0.3090972900390625,-0.6126251220703125
1772534915310579000,8.000578857421875,-2.3885955810546875,-0.399200439453125,-0.5406646728515625
1772534915320595700,8.010595703125,-2.2945556640625,-0.38629150390625,-0.4286041259765625
1772534915330612700,8.02061279296875,-2.1519012451171875,-0.2742462158203125,-0.3261871337890625
1772534915340628700,8.030628662109375,-1.91046142578125,-0.163726806640625,-0.43914794921875
1772534915350645800,8.040645751953125,-1.6317596435546875,-0.178802490234375,-0.373687744140625
1772534915360662800,8.050662841796875,-1.4489898681640625,-0.27679443359375,-0.0880279541015625
1772534915370678800,8.0606787109375,-1.2945404052734375,-0.2696380615234375,0.0703125
1772534915380695800,8.07069580078125,-1.3361968994140625,-0.1283111572265625,0.0045013427734375
1772534915390712800,8.080712890625,-1.510101318359375,-0.0420379638671875,-0.0878753662109375
1772534915400728600,8.090728515625,-1.4674224853515625,-0.06683349609375,-0.1119842529296875
1772534915410745900,8.100745849609375,-1.05877685546875,-0.1436614990234375,-0.2403717041015625
1772534915420763000,8.110762939453124,-0.731231689453125,-0.249542236328125,-0.408050537109375
1772534915430778600,8.120778564453126,-0.9456634521484375,-0.188018798828125,-0.5459442138671875
1772534915440795600,8.130795654296875,-0.9131927490234375,-0.13409423828125,-0.6072998046875
1772534915450811600,8.140811767578125,-0.7287750244140625,-0.128082275390625,-0.5653228759765625
1772534915460828700,8.15082861328125,-0.60675048828125,-0.0887603759765625,-0.464385986328125
1772534915470845700,8.160845703125,-0.51678466796875,-0.060028076171875,-0.3734893798828125
1772534915480861700,8.17086181640625,-0.496612548828125,-0.0646514892578125,-0.2683563232421875
1772534915490878700,8.180878662109375,-0.4981842041015625,-0.1154937744140625,-0.153839111328125
1772534915500895700,8.190895751953125,-0.4364776611328125,-0.1222076416015625,-0.1419677734375
1772534915510911700,8.200911865234374,-0.3878936767578125,-0.0796966552734375,-0.201690673828125
1772534915520928500,8.210928466796876,-0.36724853515625,-0.0823211669921875,-0.23760986328125
1772534915530945800,8.22094580078125,-0.345550537109375,-0.11224365234375,-0.2223663330078125
1772534915540961800,8.2309619140625,-0.3458251953125,-0.12249755859375,-0.1684722900390625
1772534915550978600,8.240978515625,-0.3596954345703125,-0.1179046630859375,-0.092071533203125
1772534915560995800,8.250995849609374,-0.3452606201171875,-0.117584228515625,-0.019989013671875
1772534915571011800,8.26101171875,-0.2778778076171875,-0.116790771484375,0.0015716552734375
1772534915581028600,8.271028564453125,-0.1457061767578125,-0.1056976318359375,-0.023345947265625
1772534915591044600,8.281044677734375,-0.0298614501953125,-0.0934295654296875,-0.0898895263671875
1772534915601062000,8.291061767578125,0.0076446533203125,-0.104034423828125,-0.1268463134765625
1772534915611078700,8.30107861328125,-0.0155181884765625,-0.1376495361328125,-0.1135406494140625
1772534915621094700,8.3110947265625,-0.0395660400390625,-0.1795654296875,-0.063751220703125
1772534915631111700,8.321111572265625,-0.0673370361328125,-0.2008819580078125,-0.0208587646484375
1772534915641128700,8.331128662109375,-0.147918701171875,-0.2004547119140625,-0.0255889892578125
1772534915651144700,8.341144775390624,-0.23883056640625,-0.196014404296875,-0.0590057373046875
1772534915661161700,8.35116162109375,-0.2625732421875,-0.1904754638671875,-0.092681884765625
1772534915671178800,8.3611787109375,-0.2141265869140625,-0.1667327880859375,-0.07940673828125
1772534915681194800,8.37119482421875,-0.1964874267578125,-0.161224365234375,-0.0037078857421875
1772534915691211800,8.381211669921875,-0.2505340576171875,-0.2076873779296875,0.0626983642578125
1772534915701228800,8.391228759765625,-0.3674468994140625,-0.2706756591796875,0.0706024169921875
1772534915711244800,8.401244873046876,-0.5048980712890625,-0.3092803955078125,0.07379150390625
1772534915721261800,8.41126171875,-0.6580963134765625,-0.3079376220703125,0.1211090087890625
1772534915731277800,8.42127783203125,-0.834564208984375,-0.2945556640625,0.15020751953125
1772534915741294600,8.431294677734375,-0.986480712890625,-0.2954864501953125,0.1360321044921875
1772534915751312000,8.441311767578124,-1.1468353271484375,-0.3144378662109375,0.10406494140625
1772534915761327600,8.45132763671875,-1.3890838623046875,-0.3305816650390625,0.087188720703125
1772534915771344600,8.4613447265625,-1.5683441162109375,-0.3631591796875,0.0800628662109375
1772534915781362000,8.47136181640625,-1.804840087890625,-0.315093994140625,-0.00433349609375
1772534915791377700,8.481377685546875,-2.0500335693359375,-0.1637725830078125,-0.138397216796875
1772534915801394700,8.491394775390624,-1.997344970703125,-0.1735687255859375,-0.163116455078125
1772534915811412000,8.501411865234376,-1.9204559326171875,-0.1746063232421875,-0.18060302734375
1772534915821427700,8.511427734375,-1.8392181396484375,-0.082366943359375,-0.22454833984375
1772534915831444700,8.52144482421875,-1.6915435791015625,-0.0735321044921875,-0.2823944091796875
1772534915841461800,8.531461669921875,-1.727264404296875,-0.2088165283203125,-0.2863616943359375
1772534915851477500,8.5414775390625,-1.9637298583984375,-0.3593292236328125,-0.1177825927734375
1772534915861494800,8.551494873046876,-2.147796630859375,-0.3737945556640625,0.13134765625
1772534915871510800,8.5615107421875,-2.2476654052734375,-0.2576446533203125,0.2723846435546875
1772534915881527600,8.571527587890625,-2.2469940185546875,-0.1424713134765625,0.258392333984375
1772534915891544800,8.581544921875,-2.4336090087890625,-0.0312957763671875,0.2867889404296875
1772534915901560800,8.591560791015626,-2.5264129638671875,0.0981597900390625,0.256439208984375
1772534915911577600,8.60157763671875,-2.52301025390625,0.211944580078125,0.1200408935546875
1772534915921595000,8.611594970703125,-2.44573974609375,0.2407073974609375,-0.016265869140625
1772534915931611000,8.62161083984375,-2.23651123046875,0.137725830078125,-0.0991973876953125
1772534915941627600,8.631627685546874,-1.95892333984375,-0.03271484375,-0.14007568359375
1772534915951644700,8.641644775390626,-1.6281890869140625,-0.214263916015625,-0.1751708984375
1772534915961660700,8.65166064453125,-1.309844970703125,-0.3465728759765625,-0.2026214599609375
1772534915971678000,8.661677978515625,-1.0377044677734375,-0.4069061279296875,-0.2019500732421875
1772534915981694000,8.67169384765625,-0.8177337646484375,-0.423919677734375,-0.1662445068359375
1772534915991711200,8.681711181640624,-0.6196746826171875,-0.4069671630859375,-0.116790771484375
1772534916001728000,8.69172802734375,-0.469268798828125,-0.3809967041015625,-0.0778045654296875
1772534916011744000,8.701743896484375,-0.3697052001953125,-0.36907958984375,-0.0401611328125
1772534916021761300,8.71176123046875,-0.29547119140625,-0.3476409912109375,-0.0164337158203125
1772534916031778000,8.721778076171875,-0.244781494140625,-0.31939697265625,-0.002471923828125
1772534916041794000,8.7317939453125,-0.2225189208984375,-0.29315185546875,0.01373291015625
1772534916051811000,8.74181103515625,-0.2321319580078125,-0.2713775634765625,0.03076171875
1772534916061828000,8.751828125,-0.2623138427734375,-0.2676849365234375,0.033050537109375
1772534916071844000,8.761843994140625,-0.3150482177734375,-0.269500732421875,0.012725830078125
1772534916081861000,8.771861083984374,-0.363677978515625,-0.2517242431640625,-0.010650634765625
1772534916091876900,8.781876953125,-0.389007568359375,-0.2208404541015625,-0.02239990234375
1772534916101894100,8.79189404296875,-0.392791748046875,-0.214874267578125,-0.0260772705078125
1772534916111911200,8.8019111328125,-0.3745269775390625,-0.225067138671875,-0.0372161865234375
1772534916121927000,8.811927001953125,-0.35845947265625,-0.228759765625,-0.04327392578125
1772534916131944200,8.821944091796874,-0.3422393798828125,-0.2299346923828125,-0.0371551513671875
1772534916141961200,8.831961181640626,-0.32659912109375,-0.21514892578125,-0.020721435546875
1772534916151977000,8.84197705078125,-0.324371337890625,-0.19451904296875,0.0076904296875
1772534916161994000,8.851993896484375,-0.3448944091796875,-0.17034912109375,0.035675048828125
1772534916172011300,8.86201123046875,-0.374420166015625,-0.1621856689453125,0.05767822265625
1772534916182027000,8.872027099609374,-0.3905792236328125,-0.1802215576171875,0.0714111328125
1772534916192044000,8.8820439453125,-0.4085235595703125,-0.2247161865234375,0.0825347900390625
1772534916202061000,8.89206103515625,-0.4151611328125,-0.2808380126953125,0.0885162353515625
1772534916212077000,8.9020771484375,-0.4288787841796875,-0.3196868896484375,0.07830810546875
1772534916222094000,8.912093994140625,-0.5360107421875,-0.3372955322265625,0.0466461181640625
1772534916232110000,8.922110107421876,-0.6097869873046875,-0.318084716796875,-0.0088958740234375
1772534916242127000,8.932127197265626,-0.6625518798828125,-0.2630157470703125,-0.0750885009765625
1772534916252144000,8.94214404296875,-0.85772705078125,-0.2198638916015625,-0.1229248046875
1772534916262160100,8.95216015625,-1.140533447265625,-0.1782073974609375,-0.122772216796875
1772534916272177000,8.962177001953124,-1.385040283203125,-0.169830322265625,-0.060943603515625
1772534916282194200,8.972194091796876,-1.5298919677734375,-0.191558837890625,0.0142974853515625
1772534916292210200,8.982210205078125,-1.5958404541015625,-0.2073516845703125,0.05279541015625
1772534916302227000,8.99222705078125,-1.62835693359375,-0.196441650390625,-0.0078277587890625
1772534916312244200,9.002244140625,-1.6825714111328125,-0.0963134765625,-0.137908935546875
1772534916322260200,9.01226025390625,-1.761993408203125,0.0642852783203125,-0.263031005859375
1772534916332277000,9.022277099609376,-1.846405029296875,0.2188262939453125,-0.3479766845703125
1772534916342293000,9.03229296875,-1.9185638427734375,0.2909698486328125,-0.33843994140625
1772534916352310300,9.042310302734375,-2.0363616943359375,0.2253265380859375,-0.25909423828125
1772534916362327000,9.0523271484375,-2.1575927734375,0.11773681640625,-0.2344818115234375
1772534916372343000,9.062343017578126,-2.1895294189453125,0.028594970703125,-0.339996337890625
1772534916382360000,9.072360107421876,-2.1057281494140625,-0.005279541015625,-0.483245849609375
1772534916392377000,9.082377197265625,-1.99652099609375,-0.0425567626953125,-0.5770416259765625
1772534916402393000,9.09239306640625,-1.9397125244140625,-0.075469970703125,-0.5734100341796875
1772534916412410000,9.10241015625,-1.8879547119140625,-0.0768280029296875,-0.4998931884765625
1772534916422427100,9.11242724609375,-1.8412628173828125,-0.0667572021484375,-0.4197235107421875
1772534916432443100,9.122443115234375,-1.814361572265625,-0.05035400390625,-0.30657958984375
1772534916442460200,9.132460205078125,-1.782928466796875,-0.0291595458984375,-0.1853179931640625
1772534916452476000,9.142475830078125,-1.7041473388671875,-0.0252838134765625,-0.0946807861328125
1772534916462493200,9.1524931640625,-1.5751800537109375,-0.05126953125,-0.030242919921875
1772534916472510200,9.16251025390625,-1.4595794677734375,-0.07281494140625,-0.0060272216796875
1772534916482526000,9.17252587890625,-1.3294219970703125,-0.0783843994140625,-0.0345001220703125
1772534916492543000,9.18254296875,-1.1782379150390625,-0.0904388427734375,-0.098358154296875
1772534916502560300,9.192560302734375,-1.0519256591796875,-0.1085205078125,-0.16290283203125
1772534916512576000,9.202575927734374,-0.9314117431640625,-0.1152496337890625,-0.197021484375
1772534916522593000,9.212593017578126,-0.797576904296875,-0.115753173828125,-0.2038421630859375
1772534916532610300,9.2226103515625,-0.66845703125,-0.1124114990234375,-0.191253662109375
1772534916542626000,9.2326259765625,-0.5689239501953125,-0.1112823486328125,-0.159423828125
1772534916552643000,9.24264306640625,-0.4847564697265625,-0.11737060546875,-0.126190185546875
1772534916562659000,9.2526591796875,-0.4167022705078125,-0.1231842041015625,-0.0998077392578125
1772534916572676000,9.262676025390626,-0.3762664794921875,-0.112579345703125,-0.0732421875
1772534916582693000,9.272693115234375,-0.3448944091796875,-0.0962066650390625,-0.04913330078125
1772534916592709000,9.282709228515625,-0.3127593994140625,-0.0809478759765625,-0.031402587890625
1772534916602726000,9.292725830078124,-0.2845458984375,-0.0433807373046875,-0.003753662109375
1772534916612743200,9.3027431640625,-0.2564849853515625,-0.0150604248046875,0.022064208984375
1772534916622759200,9.31275927734375,-0.2091827392578125,-0.041351318359375,0.038909912109375
1772534916632776000,9.32277587890625,-0.1634368896484375,-0.067474365234375,0.0557861328125
1772534916643419100,9.333419189453124,-0.1408843994140625,-0.0797882080078125,0.0686492919921875
1772534916653435000,9.343434814453126,-0.142364501953125,-0.0802154541015625,0.073486328125
1772534916663452200,9.3534521484375,-0.1465301513671875,-0.0795440673828125,0.0695953369140625
1772534916673469200,9.36346923828125,-0.1552734375,-0.09033203125,0.0625762939453125
1772534916683485000,9.37348486328125,-0.1732177734375,-0.1042633056640625,0.053131103515625
1772534916693502200,9.383502197265624,-0.2007598876953125,-0.089691162109375,0.0484619140625
1772534916703518200,9.393518310546876,-0.24603271484375,-0.07476806640625,0.0244293212890625
1772534916713535000,9.403534912109375,-0.25958251953125,-0.075042724609375,-0.007354736328125
1772534916723552000,9.413552001953125,-0.2219390869140625,-0.0814208984375,-0.0378875732421875
1772534916733568300,9.423568359375,-0.181610107421875,-0.081146240234375,-0.0657196044921875
1772534916743585000,9.4335849609375,-0.1676788330078125,-0.071746826171875,-0.0937347412109375
1772534916753602000,9.44360205078125,-0.166107177734375,-0.0631866455078125,-0.1225433349609375
1772534916763618000,9.4536181640625,-0.1867828369140625,-0.0912322998046875,-0.1441802978515625
1772534916773635000,9.463635009765625,-0.218902587890625,-0.115814208984375,-0.137359619140625
1772534916783652000,9.473652099609374,-0.2866058349609375,-0.099517822265625,-0.141510009765625
1772534916793668000,9.483668212890626,-0.387420654296875,-0.0886993408203125,-0.1436614990234375
1772534916803685000,9.49368505859375,-0.497894287109375,-0.105010986328125,-0.135986328125
1772534916813701000,9.503701171875,-0.5997161865234375,-0.14404296875,-0.1368255615234375
1772534916823718100,9.51371826171875,-0.7799835205078125,-0.2169952392578125,-0.165008544921875
1772534916833735000,9.52373486328125,-1.061798095703125,-0.2862091064453125,-0.2242889404296875
1772534916843751200,9.533751220703126,-1.3964385986328125,-0.343353271484375,-0.2639617919921875
1772534916853768200,9.543768310546875,-1.7511749267578125,-0.4269561767578125,-0.2575836181640625
1772534916863785000,9.553784912109375,-2.1688995361328125,-0.4631195068359375,-0.232757568359375
1772534916873801000,9.563801025390624,-2.439910888671875,-0.378204345703125,-0.2680816650390625
1772534916885070000,9.575070068359375,-2.414794921875,-0.1702728271484375,-0.470550537109375
1772534916895087000,9.585087158203125,-2.365203857421875,-0.0603485107421875,-0.70892333984375
1772534916905102800,9.595102783203124,-2.2631683349609375,-0.105224609375,-0.8115386962890625
1772534916915120000,9.6051201171875,-2.2100372314453125,-0.2086639404296875,-0.79437255859375
1772534916925137200,9.61513720703125,-2.2374420166015625,-0.3379364013671875,-0.72308349609375
1772534916935153000,9.62515283203125,-2.2187347412109375,-0.4687347412109375,-0.59930419921875
1772534916945170200,9.635170166015625,-2.1229400634765625,-0.5380401611328125,-0.440826416015625
1772534916955186200,9.645186279296874,-1.9789581298828125,-0.5135650634765625,-0.301483154296875
1772534916965203000,9.655202880859376,-1.8893585205078125,-0.43310546875,-0.1472015380859375
1772534916975220200,9.66522021484375,-1.7680511474609375,-0.350738525390625,-0.0127410888671875
1772534916985236200,9.675236328125,-1.5731353759765625,-0.2773284912109375,0.025054931640625
1772534916995253000,9.6852529296875,-1.4084014892578125,-0.1949920654296875,-0.0111846923828125
1772534917005270000,9.69527001953125,-1.2659454345703125,-0.13568115234375,-0.054656982421875
1772534917015286300,9.705286376953126,-1.109771728515625,-0.129974365234375,-0.0894317626953125
1772534917025303000,9.715302978515625,-0.95880126953125,-0.1655120849609375,-0.128204345703125
1772534917035320000,9.725320068359375,-0.8515777587890625,-0.2054901123046875,-0.1573638916015625
1772534917045336000,9.735336181640625,-0.8058929443359375,-0.236083984375,-0.1742706298828125
1772534917055353000,9.74535302734375,-0.7822113037109375,-0.23492431640625,-0.1798858642578125
1772534917065370000,9.7553701171875,-0.734405517578125,-0.2154998779296875,-0.1928558349609375
1772534917075386000,9.76538623046875,-0.7053070068359375,-0.1940765380859375,-0.2208251953125
1772534917085403100,9.775403076171875,-0.6628265380859375,-0.14495849609375,-0.2331695556640625
1772534917095419100,9.785419189453124,-0.5867156982421875,-0.106781005859375,-0.222137451171875
1772534917105436200,9.795436279296876,-0.5002593994140625,-0.1163330078125,-0.21697998046875
1772534917115453000,9.805452880859375,-0.408050537109375,-0.1424102783203125,-0.1947021484375
1772534917125469200,9.81546923828125,-0.327789306640625,-0.1561279296875,-0.1527252197265625
1772534917135486200,9.825486328125,-0.269500732421875,-0.154632568359375,-0.0945281982421875
1772534917145503000,9.8355029296875,-0.2269439697265625,-0.15576171875,-0.02801513671875
1772534917155519000,9.84551904296875,-0.1834869384765625,-0.1750335693359375,0.0298004150390625
1772534917165536300,9.855536376953125,-0.1298828125,-0.2038726806640625,0.07666015625
1772534917175553000,9.865552978515625,-0.0774993896484375,-0.2241363525390625,0.1039886474609375
1772534917185569000,9.875569091796875,-0.0464935302734375,-0.2269744873046875,0.095916748046875
1772534917195586300,9.88558642578125,-0.0469512939453125,-0.207550048828125,0.0441436767578125
1772534917205602000,9.89560205078125,-0.03753662109375,-0.18145751953125,0.0008544921875
1772534917215619000,9.905619140625,-0.016082763671875,-0.2044219970703125,-0.009521484375
1772534917225636000,9.915635986328125,-0.0267791748046875,-0.246490478515625,-0.0214691162109375
1772534917235652000,9.925652099609374,-0.08544921875,-0.2988128662109375,-0.0170745849609375
1772534917245669000,9.935669189453124,-0.143585205078125,-0.3177032470703125,0.0218658447265625
1772534917255686100,9.94568603515625,-0.1825408935546875,-0.2721099853515625,0.0243988037109375
1772534917265702000,9.955701904296875,-0.21185302734375,-0.238372802734375,0.001312255859375
1772534917275719200,9.96571923828125,-0.194122314453125,-0.247589111328125,-0.033782958984375
1772534917285736200,9.975736083984375,-0.1835174560546875,-0.2638092041015625,-0.0567779541015625
1772534917295752000,9.985751953125,-0.225921630859375,-0.27178955078125,-0.0440673828125
1772534917305769200,9.995769287109376,-0.3426361083984375,-0.259765625,-0.006439208984375
1772534917315785200,10.00578515625,-0.56787109375,-0.2604827880859375,0.0061798095703125
1772534917325802000,10.015802001953125,-0.8087615966796875,-0.273406982421875,-0.0399017333984375
1772534917335819000,10.025819091796874,-0.9761962890625,-0.25469970703125,-0.1271209716796875
1772534917345835300,10.035835205078126,-1.1234893798828125,-0.25177001953125,-0.2033843994140625
1772534917355852000,10.04585205078125,-1.2441864013671875,-0.3428497314453125,-0.2332000732421875
1772534917365869000,10.055869140625,-1.445037841796875,-0.5057373046875,-0.1632537841796875
1772534917375885000,10.065885009765625,-1.7337799072265625,-0.6376953125,-0.0360107421875
1772534917385902000,10.075902099609374,-1.9485321044921875,-0.6792144775390625,0.041961669921875
1772534917395919000,10.085919189453126,-2.038238525390625,-0.5806121826171875,0.0537261962890625
1772534917407187200,10.097187255859374,-2.127899169921875,-0.377227783203125,-0.022979736328125
1772534917417204200,10.107204345703124,-2.192840576171875,-0.23431396484375,-0.1447906494140625
1772534917427220200,10.11722021484375,-2.231201171875,-0.17498779296875,-0.199493408203125
1772534917437237000,10.127237060546875,-2.264068603515625,-0.185699462890625,-0.1836700439453125
1772534917447254300,10.137254150390625,-2.2946929931640625,-0.2413330078125,-0.1795501708984375
1772534917457270300,10.147270263671874,-2.3292236328125,-0.3247833251953125,-0.1142578125
1772534917467287000,10.157287109375,-2.348358154296875,-0.4513092041015625,0.04083251953125
1772534917477304300,10.16730419921875,-2.35992431640625,-0.607452392578125,0.1736297607421875
1772534917487320000,10.177320068359375,-2.36175537109375,-0.6851654052734375,0.241790771484375
1772534917497337000,10.187337158203125,-2.26763916015625,-0.6015625,0.196258544921875
1772534917507354000,10.19735400390625,-2.14495849609375,-0.3903961181640625,0.0826416015625
1772534917517370000,10.2073701171875,-2.0155792236328125,-0.181427001953125,-0.000030517578125
1772534917527387100,10.21738720703125,-1.9092864990234375,-0.095062255859375,-0.05413818359375
1772534917537403100,10.227403076171875,-1.7655029296875,-0.0533905029296875,-0.1045684814453125
1772534917547420000,10.237419921875,-1.703521728515625,-0.00189208984375,-0.1464080810546875
1772534917557437200,10.247437255859374,-1.6576080322265625,0.0613861083984375,-0.2459564208984375
1772534917567453200,10.257453125,-1.467041015625,0.0862884521484375,-0.3625946044921875
1772534917577470000,10.267469970703125,-1.2529144287109375,0.1101531982421875,-0.4277191162109375
1772534917587487200,10.2774873046875,-1.019439697265625,0.148590087890625,-0.4241943359375
1772534917597503200,10.287503173828124,-0.80181884765625,0.15411376953125,-0.3742523193359375
1772534917607520000,10.29752001953125,-0.623809814453125,0.12066650390625,-0.2969818115234375
1772534917617537000,10.307537109375,-0.474395751953125,0.0717926025390625,-0.2097625732421875
1772534917627553300,10.31755322265625,-0.3538360595703125,0.0358123779296875,-0.1257171630859375
1772534917637570000,10.327570068359375,-0.253387451171875,0.011688232421875,-0.0458984375
1772534917647586000,10.3375859375,-0.185394287109375,-0.01446533203125,0.013336181640625
1772534917657603000,10.34760302734375,-0.1478118896484375,-0.0508270263671875,0.046173095703125
1772534917667620000,10.3576201171875,-0.1149139404296875,-0.098114013671875,0.0467376708984375
1772534917677636000,10.367635986328125,-0.0952301025390625,-0.1291961669921875,0.0392303466796875
1772534917687653000,10.377653076171875,-0.080108642578125,-0.14202880859375,0.02813720703125
1772534917697670100,10.387670166015624,-0.0673675537109375,-0.1310272216796875,0.0102996826171875
1772534917707686100,10.39768603515625,-0.055206298828125,-0.1121063232421875,0.0013275146484375
1772534917717703200,10.407703125,-0.0430145263671875,-0.1009063720703125,-0.0029296875
1772534917727720000,10.417719970703125,-0.03857421875,-0.0884246826171875,-0.0020599365234375
1772534917737736200,10.427736083984374,-0.04315185546875,-0.0742645263671875,-0.00201416015625
1772534917747753200,10.437753173828124,-0.0605926513671875,-0.056671142578125,-0.0039825439453125
1772534917757769200,10.447769287109375,-0.0834503173828125,-0.039703369140625,-0.0153961181640625
1772534917767786000,10.457785888671875,-0.1117401123046875,-0.034637451171875,-0.0429534912109375
1772534917777803300,10.46780322265625,-0.1468505859375,-0.0678558349609375,-0.079345703125
1772534917787819300,10.4778193359375,-0.1597137451171875,-0.094268798828125,-0.1051177978515625
1772534917797836000,10.4878359375,-0.1474456787109375,-0.11676025390625,-0.1177978515625
1772534917807853300,10.497853271484376,-0.146026611328125,-0.1501312255859375,-0.1260833740234375
1772534917817869300,10.507869384765625,-0.1942291259765625,-0.1975250244140625,-0.139434814453125
1772534917827886000,10.517885986328125,-0.278778076171875,-0.2384490966796875,-0.1360321044921875
1772534917837903000,10.527903076171874,-0.3683319091796875,-0.264373779296875,-0.1162872314453125
1772534917847919000,10.537919189453126,-0.48577880859375,-0.2871551513671875,-0.0984954833984375
1772534917857936100,10.54793603515625,-0.6151123046875,-0.306365966796875,-0.0912628173828125
1772534917867952000,10.5579521484375,-0.7471160888671875,-0.3101806640625,-0.096221923828125
1772534917877969200,10.56796923828125,-0.88330078125,-0.311065673828125,-0.1421661376953125
1772534917887986200,10.577986083984374,-1.06756591796875,-0.3204803466796875,-0.2415008544921875
1772534917898002200,10.588002197265626,-1.234344482421875,-0.33380126953125,-0.370330810546875
1772534917908019000,10.59801904296875,-1.277862548828125,-0.3785400390625,-0.4202423095703125
1772534917918036200,10.6080361328125,-1.30712890625,-0.4849090576171875,-0.3560333251953125
1772534917928052200,10.61805224609375,-1.5407562255859375,-0.60546875,-0.211181640625
1772534917938069000,10.628069091796876,-1.9303131103515625,-0.64080810546875,-0.0528717041015625
1772534917948086000,10.6380859375,-2.1668548583984375,-0.54852294921875,-0.0122528076171875
1772534917958102300,10.648102294921875,-2.1885833740234375,-0.4130706787109375,-0.05096435546875
1772534917968118800,10.658118896484375,-2.175018310546875,-0.337677001953125,-0.125579833984375
1772534917978134800,10.668134765625,-2.207855224609375,-0.34130859375,-0.26751708984375
1772534917988152000,10.678152099609376,-2.2493896484375,-0.3636932373046875,-0.4083709716796875
1772534917998168800,10.6881689453125,-2.236175537109375,-0.3891143798828125,-0.461181640625
1772534918008184800,10.698184814453125,-2.1800079345703125,-0.398834228515625,-0.393707275390625
1772534918018202000,10.7082021484375,-2.1095428466796875,-0.4133758544921875,-0.279083251953125
1772534918028219000,10.718218994140624,-2.0605621337890625,-0.3935546875,-0.139007568359375
1772534918038235000,10.72823486328125,-2.1102142333984375,-0.269805908203125,0.021820068359375
1772534918048252000,10.738251953125,-2.1784820556640625,-0.087646484375,0.1602630615234375
1772534918058268000,10.748267822265625,-2.0529632568359375,0.062408447265625,0.2060546875
1772534918068285000,10.758284912109374,-1.84375,0.132476806640625,0.1467132568359375
1772534918078302000,10.768302001953124,-1.622650146484375,0.1344146728515625,0.0188751220703125
1772534918088318000,10.77831787109375,-1.3643951416015625,0.0899505615234375,-0.079315185546875
1772534918098335000,10.7883349609375,-1.1156768798828125,0.0052642822265625,-0.1464996337890625
1772534918108352000,10.79835205078125,-0.8853759765625,-0.0914459228515625,-0.1817626953125
1772534918118368000,10.808367919921874,-0.659210205078125,-0.1969146728515625,-0.20947265625
1772534918128385000,10.818385009765626,-0.459259033203125,-0.2800445556640625,-0.2235260009765625
1772534918138402000,10.828402099609375,-0.311767578125,-0.2830657958984375,-0.1955413818359375
1772534918148418000,10.83841796875,-0.233123779296875,-0.225738525390625,-0.1193389892578125
1772534918158434800,10.848434814453125,-0.222076416015625,-0.1576385498046875,-0.0200042724609375
1772534918168450800,10.858450927734374,-0.2704620361328125,-0.1138153076171875,0.0637054443359375
1772534918178468000,10.868468017578126,-0.3397369384765625,-0.103424072265625,0.1234893798828125
1772534918188484900,10.87848486328125,-0.3597412109375,-0.104217529296875,0.153228759765625
1772534918198500900,10.8885009765625,-0.329803466796875,-0.119232177734375,0.1305389404296875
1772534918208518100,10.89851806640625,-0.3011627197265625,-0.16363525390625,0.070068359375
1772534918218535000,10.908534912109374,-0.273468017578125,-0.203582763671875,0.021453857421875
1772534918228551000,10.918551025390625,-0.2475738525390625,-0.2550506591796875,-0.0205078125
1772534918238568000,10.92856787109375,-0.2022552490234375,-0.2791290283203125,-0.0443267822265625
1772534918248585000,10.9385849609375,-0.1548919677734375,-0.24871826171875,-0.0254058837890625
1772534918258601000,10.94860107421875,-0.1384735107421875,-0.1846466064453125,0.0321197509765625
1772534918268618000,10.958617919921876,-0.1320648193359375,-0.128936767578125,0.0789794921875
1772534918278633700,10.9686337890625,-0.117218017578125,-0.1092529296875,0.0758514404296875
1772534918288651000,10.978651123046875,-0.023101806640625,-0.127960205078125,0.040802001953125
1772534918298668000,10.98866796875,0.0970306396484375,-0.1573333740234375,0.0161590576171875
1772534918308683800,10.998683837890624,-0.1669921875,-0.2440643310546875,-0.0013275146484375
1772534918318701000,11.008701171875,-0.479156494140625,-0.2879791259765625,-0.02423095703125
1772534918328717800,11.0187177734375,-0.4757843017578125,-0.2084503173828125,-0.03070068359375
1772534918338733800,11.02873388671875,-0.386810302734375,-0.04058837890625,0.00762939453125
1772534918348750800,11.038750732421875,-0.35980224609375,-0.0108184814453125,0.0533599853515625
1772534918358767000,11.04876708984375,-0.375701904296875,-0.107757568359375,0.07830810546875
1772534918368784000,11.058783935546876,-0.4316253662109375,-0.20452880859375,0.0858612060546875
1772534918378801000,11.06880078125,-0.5190277099609375,-0.2523193359375,0.0563507080078125
1772534918388817000,11.07881689453125,-0.62445068359375,-0.2313232421875,-0.026580810546875
1772534918398834000,11.088833984375,-0.6225433349609375,-0.1537322998046875,-0.0908050537109375
