time,seconds_elapsed,z,y,x
1772534907359232000,0.04923193359375,0.46951717138290405,-0.2541806101799011,0.44664114713668823
1772534907369248800,0.059248779296875,0.524956464767456,-0.36324000358581543,0.7615743279457092
1772534907379264800,0.0692646484375,0.5340335965156555,-0.3955382704734802,1.0318084955215454
1772534907389282000,0.079281982421875,0.4770650863647461,-0.3283850848674774,1.2147681713104248
1772534907399298800,0.089298828125,0.3612796366214752,-0.25124529004096985,1.3189035654067993
1772534907409314800,0.099314697265625,0.22523152828216553,-0.26481273770332336,1.3492820262908936
1772534907419332000,0.10933203125,0.12189660966396332,-0.36902517080307007,1.301517128944397
1772534907429348900,0.119348876953125,0.07932225614786148,-0.5144851803779602,1.1188699007034302
1772534907439364900,0.12936474609375,0.1375804990530014,-0.48513367772102356,0.9028696417808533
1772534907449382100,0.139382080078125,0.25389033555984497,-0.30619561672210693,0.7025514841079712
1772534907459399000,0.14939892578125,0.3455590009689331,-0.005154281854629517,0.48388171195983887
1772534907469415000,0.159414794921875,0.3739349842071533,0.327630877494812,0.265469491481781
1772534907479432000,0.169431884765625,0.3382568657398224,0.6233645081520081,0.0915437638759613
1772534907489449000,0.179448974609375,0.27113163471221924,0.7695635557174683,-0.0531122200191021
1772534907499465000,0.18946484375,0.21773844957351685,0.8201777338981628,-0.1590311974287033
1772534907509482000,0.19948193359375,0.20642241835594177,0.8149299621582031,-0.19925744831562042
1772534907519499000,0.2094990234375,0.20038609206676483,0.7329719662666321,-0.20170356333255768
1772534907529515000,0.219514892578125,0.14154355227947235,0.5309203267097473,-0.18542525172233582
1772534907539532000,0.229531982421875,0.011640144512057304,0.3021814227104187,-0.14655642211437225
1772534907549548800,0.239548828125,-0.17066627740859985,0.09909436106681824,-0.09003961086273193
1772534907559565000,0.24956494140625,-0.38007649779319763,-0.12819765508174896,-0.054555654525756836
1772534907569582000,0.25958203125,-0.5934380292892456,-0.397007554769516,-0.03635933995246887
1772534907579598800,0.269598876953125,-0.7712572813034058,-0.7191176414489746,-0.05212658271193504
1772534907589614800,0.27961474609375,-0.8089077472686768,-0.820173442363739,-0.08326958864927292
1772534907599632100,0.289632080078125,-0.6450173258781433,-0.5016790628433228,-0.16550374031066895
1772534907609649000,0.29964892578125,-0.31667327880859375,0.0692557692527771,-0.35178226232528687
1772534907619665000,0.309664794921875,-0.015557654201984406,0.2722213864326477,-0.5170721411705017
1772534907629682200,0.31968212890625,0.12673556804656982,0.4067102372646332,-0.6411325931549072
1772534907639699000,0.329698974609375,0.14338618516921997,0.5147019624710083,-0.700549304485321
1772534907649715000,0.33971484375,0.17482933402061462,0.4698423445224762,-0.6717344522476196
1772534907659732000,0.34973193359375,0.31070008873939514,0.3981732130050659,-0.6042459607124329
1772534907669749000,0.3597490234375,0.48465588688850403,0.3945917785167694,-0.5264981389045715
1772534907679765000,0.369764892578125,0.6272838711738586,0.18420764803886414,-0.4291708171367645
1772534907689782000,0.379781982421875,0.6433752179145813,-0.14606532454490662,-0.3358200788497925
1772534907699799000,0.389799072265625,0.5241599082946777,-0.6293731331825256,-0.24548059701919556
1772534907709815000,0.39981494140625,0.33044955134391785,-1.0480047464370728,-0.09463915973901749
1772534907719832000,0.40983203125,0.09213578701019287,-1.452812910079956,0.10565798729658127
1772534907729848800,0.419848876953125,-0.09335923939943314,-1.9847195148468018,0.3813561499118805
1772534907739865000,0.429864990234375,-0.2763013541698456,-2.5615732669830322,0.6640411019325256
1772534907749881900,0.4398818359375,-0.4312201142311096,-3.2033603191375732,0.9103342294692993
1772534907759899000,0.44989892578125,-0.4928392469882965,-4.075177192687988,1.0662410259246826
1772534907769915000,0.459914794921875,-0.5293176174163818,-4.383790493011475,0.9833919405937195
1772534907779932000,0.469931884765625,0.40677735209465027,-2.3412749767303467,-0.014955779537558556
1772534907789949000,0.479948974609375,0.958103597164154,-1.5370469093322754,-0.5925376415252686
1772534907799965000,0.48996484375,0.23861150443553925,-0.4162060022354126,-1.1210219860076904
1772534907809982000,0.49998193359375,-0.19171670079231262,0.1956629753112793,-1.490397334098816
1772534907819999000,0.5099990234375,-0.17353689670562744,0.31938570737838745,-1.684370756149292
1772534907830015000,0.520014892578125,0.09388788044452667,0.29921892285346985,-1.7814326286315918
1772534907840031700,0.53003173828125,0.3507534861564636,0.5177688598632812,-1.8356205224990845
1772534907850049000,0.540049072265625,0.5981518626213074,0.830791711807251,-1.8284296989440918
1772534907860065000,0.55006494140625,0.904974102973938,1.006752610206604,-1.764622449874878
1772534907870081800,0.560081787109375,1.2568352222442627,1.1514520645141602,-1.678966999053955
1772534907880099000,0.57009912109375,1.4573118686676025,1.3281296491622925,-1.6417688131332397
1772534907890115000,0.580114990234375,1.3043358325958252,1.447566032409668,-1.5562103986740112
1772534907900131800,0.5901318359375,0.9434554576873779,1.2840681076049805,-1.3739548921585083
1772534907910148900,0.60014892578125,0.6939020752906799,1.0150457620620728,-0.9273810982704163
1772534907920165000,0.6101650390625,0.661248505115509,0.9462836980819702,-0.28931835293769836
1772534907930182000,0.620181884765625,0.7459572553634644,0.8673409819602966,0.2345094382762909
1772534907940199000,0.630198974609375,0.9304064512252808,0.8105008602142334,0.5740838050842285
1772534907950215000,0.64021484375,1.2390879392623901,0.6749430298805237,0.797676682472229
1772534907960232200,0.650232177734375,1.656188726425171,0.4117875397205353,0.7915878891944885
1772534907970249200,0.660249267578125,2.184945821762085,0.05240195617079735,0.7187621593475342
1772534907980265200,0.67026513671875,2.7458508014678955,-0.3033082187175751,0.5936776995658875
1772534907990282200,0.6802822265625,3.229374885559082,-0.47576892375946045,0.38567444682121277
1772534908000299300,0.69029931640625,3.526196002960205,-0.7076178789138794,0.18281376361846924
1772534908010315300,0.700315185546875,3.7493832111358643,-1.1684435606002808,0.06898971647024155
1772534908020332000,0.71033203125,3.811246633529663,-0.9851717352867126,0.2899567186832428
1772534908030349300,0.720349365234375,3.413728713989258,-1.1245306730270386,0.5077963471412659
1772534908040365300,0.730365234375,2.8668928146362305,-1.4499852657318115,0.7033419013023376
1772534908050382000,0.740382080078125,2.585937023162842,-1.624739170074463,0.8453741669654846
1772534908060399400,0.7503994140625,2.464158296585083,-1.4446756839752197,0.7849680781364441
1772534908070415400,0.760415283203125,2.135932207107544,-1.223366141319275,0.5302300453186035
1772534908080432000,0.77043212890625,1.5345005989074707,-1.1415927410125732,0.010725880973041058
1772534908090449200,0.78044921875,0.8736023306846619,-0.9724007844924927,-0.6900548338890076
1772534908100465400,0.79046533203125,0.33477160334587097,-0.4674699902534485,-1.3255887031555176
1772534908110482200,0.800482177734375,-0.11955568939447403,0.010372213087975979,-1.7838870286941528
1772534908120499200,0.810499267578125,-0.5469768047332764,0.2651163637638092,-1.9537439346313477
1772534908130515200,0.82051513671875,-0.8974964618682861,0.3256518542766571,-1.7820701599121094
1772534908140532200,0.8305322265625,-1.104225993156433,0.10380922257900238,-1.3793944120407104
1772534908150549200,0.84054931640625,-1.1889674663543701,-0.42508044838905334,-0.8751741051673889
1772534908160565200,0.850565185546875,-1.230967402458191,-1.1432255506515503,-0.40029388666152954
1772534908170582300,0.860582275390625,-1.0797269344329834,-1.8263460397720337,-0.1590794026851654
1772534908180599300,0.870599365234375,-0.7208625674247742,-2.5202524662017822,-0.13626863062381744
1772534908190615300,0.880615234375,-0.2630145847797394,-3.098310708999634,-0.24126800894737244
1772534908200632000,0.890632080078125,0.2894113063812256,-3.441725969314575,-0.46042966842651367
1772534908210649300,0.9006494140625,0.657440721988678,-3.5029399394989014,-0.9081696271896362
1772534908220665300,0.910665283203125,0.8921728134155273,-3.1874988079071045,-1.2575606107711792
1772534908230682000,0.92068212890625,1.2936818599700928,-2.5791923999786377,-1.2872394323349
1772534908240699400,0.930699462890625,1.4830989837646484,-1.5243843793869019,-1.569126009941101
1772534908250715100,0.940715087890625,1.0287953615188599,-0.8077002763748169,-1.7962896823883057
1772534908260732200,0.950732177734375,0.412293016910553,-0.7477450370788574,-1.802402377128601
1772534908270749200,0.960749267578125,-0.17265459895133972,-0.49583956599235535,-1.518185019493103
1772534908280765200,0.97076513671875,-0.7524343729019165,0.2042974829673767,-0.9683110117912292
1772534908290782200,0.9807822265625,-1.2589185237884521,0.8724622130393982,-0.3971867859363556
1772534908300799200,0.99079931640625,-1.5685914754867554,1.2308895587921143,0.07323586195707321
1772534908310815000,1.00081494140625,-1.6535143852233887,1.3034255504608154,0.47295689582824707
1772534908320832300,1.010832275390625,-1.4899859428405762,1.2130011320114136,0.8341127038002014
1772534908330849300,1.020849365234375,-1.0817533731460571,1.1528373956680298,1.1617792844772339
1772534908340865000,1.030864990234375,-0.6012072563171387,0.8934401869773865,1.197040319442749
1772534908350882300,1.04088232421875,-0.33001840114593506,0.5475632548332214,1.122498631477356
1772534908360899300,1.0508994140625,-0.28566691279411316,0.28324636816978455,1.0694868564605713
1772534908370915000,1.0609150390625,-0.36468183994293213,0.13222993910312653,1.0640926361083984
1772534908380932000,1.07093212890625,-0.4523693323135376,0.16133002936840057,1.0041613578796387
1772534908390949400,1.080949462890625,-0.5488705635070801,0.29625269770622253,0.8902696967124939
1772534908400965000,1.090965087890625,-0.651013195514679,0.5819222927093506,0.7536615133285522
1772534908410982100,1.100982177734375,-0.7235044240951538,0.8661039471626282,0.5510737895965576
1772534908420999200,1.110999267578125,-0.7321977615356445,1.1070140600204468,0.3149968385696411
1772534908431015200,1.12101513671875,-0.7084064483642578,1.2383661270141602,0.12818193435668945
1772534908441032200,1.1310322265625,-0.673491358757019,1.1822803020477295,0.052569467574357986
1772534908451049200,1.14104931640625,-0.5829899311065674,1.0208746194839478,0.09590043127536774
1772534908461065200,1.151065185546875,-0.4659261405467987,0.8827388286590576,0.21961943805217743
1772534908471082200,1.161082275390625,-0.36148256063461304,0.7613586187362671,0.34183430671691895
1772534908481099000,1.17109912109375,-0.2713846266269684,0.6515202522277832,0.40854036808013916
1772534908491115000,1.181114990234375,-0.15876434743404388,0.6806176900863647,0.46029090881347656
1772534908501132300,1.19113232421875,-0.04824875667691231,0.7843413949012756,0.5221865177154541
1772534908511149000,1.201149169921875,0.0280942190438509,0.8343417048454285,0.5796210169792175
1772534908521165000,1.2111650390625,0.07186007499694824,0.8780356645584106,0.6631545424461365
1772534908531182300,1.221182373046875,0.12137410044670105,0.9893550276756287,0.70271897315979
1772534908541199000,1.23119921875,0.1883517950773239,1.1510690450668335,0.6590367555618286
1772534908551215000,1.241215087890625,0.30007272958755493,1.3370094299316406,0.5710134506225586
1772534908561232100,1.251232177734375,0.4263465106487274,1.4569374322891235,0.558594286441803
1772534908571249200,1.261249267578125,0.4913843870162964,1.3007563352584839,0.7432019710540771
1772534908581265200,1.27126513671875,0.4661320149898529,0.8662179112434387,1.0389753580093384
1772534908591282200,1.2812822265625,0.46218788623809814,0.38663798570632935,1.2639447450637817
1772534908601299200,1.29129931640625,0.5553867816925049,0.020807011052966118,1.3009190559387207
1772534908611315200,1.301315185546875,0.7081470489501953,-0.14411082863807678,1.227676272392273
1772534908621332200,1.311332275390625,0.8841543197631836,0.04460208863019943,1.1793369054794312
1772534908631349000,1.321348876953125,1.0066463947296143,0.26711317896842957,1.237032413482666
1772534908641365200,1.331365234375,1.0368860960006714,-0.08169406652450562,1.3694642782211304
1772534908651382300,1.34138232421875,0.9459643959999084,-1.202712059020996,1.4609010219573975
1772534908661399000,1.35139892578125,0.7064633965492249,-2.738812208175659,1.4343180656433105
1772534908671415000,1.3614150390625,0.2099393904209137,-4.034225940704346,1.2771096229553223
1772534908681432300,1.371432373046875,-0.37641996145248413,-4.844956398010254,0.8367273807525635
1772534908691449000,1.381448974609375,-0.8927557468414307,-4.864802837371826,-0.0022652847692370415
1772534908701465000,1.391465087890625,-1.432330846786499,-3.504861354827881,-0.9794983863830566
1772534908711482400,1.401482421875,-1.8518556356430054,-1.3222591876983643,-1.7454195022583008
1772534908721499100,1.4114990234375,-1.8921040296554565,0.7191083431243896,-2.136687755584717
1772534908731515100,1.42151513671875,-1.7232625484466553,1.934787631034851,-1.9624040126800537
1772534908741532200,1.4315322265625,-1.474029302597046,2.2402594089508057,-1.351491928100586
1772534908751549200,1.441549072265625,-0.9881160855293274,1.9025899171829224,-0.6689565181732178
1772534908761565200,1.451565185546875,-0.3377876281738281,1.1185673475265503,-0.1919206976890564
1772534908771582200,1.461582275390625,0.34585142135620117,-0.058869440108537674,0.06588128209114075
1772534908781599200,1.47159912109375,0.9222404360771179,-1.547389268875122,0.1724410057067871
1772534908791615200,1.481615234375,1.3346590995788574,-2.8277275562286377,0.26462048292160034
1772534908801632300,1.49163232421875,1.6065740585327148,-3.187868356704712,0.44000107049942017
1772534908811649000,1.50164892578125,1.2104836702346802,-2.243480682373047,-0.026561835780739784
1772534908821665300,1.511665283203125,0.23473981022834778,-0.7916563153266907,-0.7016758322715759
1772534908831682300,1.521682373046875,-0.7443162202835083,0.5116885900497437,-1.1330949068069458
1772534908841699000,1.531698974609375,-1.4295486211776733,1.4158644676208496,-1.0619951486587524
1772534908851715000,1.541715087890625,-1.7822622060775757,1.8173280954360962,-0.6938442587852478
1772534908861732400,1.551732421875,-1.8154116868972778,1.6968435049057007,-0.22804461419582367
1772534908871749000,1.5617490234375,-1.6230283975601196,1.323534369468689,0.20449881255626678
1772534908881765000,1.57176513671875,-1.2931891679763794,0.9047069549560547,0.5046743750572205
1772534908891782400,1.581782470703125,-0.9235848188400269,0.5134289860725403,0.6765707731246948
1772534908901799200,1.591799072265625,-0.6283124089241028,0.2542903423309326,0.7586616277694702
1772534908911815200,1.601815185546875,-0.3948698341846466,0.3721346855163574,0.6425555348396301
1772534908921832200,1.611832275390625,-0.2394448071718216,0.633003830909729,0.3007238805294037
1772534908931849200,1.62184912109375,-0.15416187047958374,0.7725657224655151,-0.12145905196666718
1772534908941865200,1.631865234375,-0.06980597972869873,0.6996850967407227,-0.4785839021205902
1772534908951882200,1.64188232421875,-0.012536564841866493,0.4655815362930298,-0.6697964668273926
1772534908961899000,1.65189892578125,0.050158243626356125,0.2292076200246811,-0.6849945783615112
1772534908971915000,1.6619150390625,0.13071486353874207,0.024440094828605652,-0.5868557691574097
1772534908981932000,1.67193212890625,0.20644184947013855,-0.08236358314752579,-0.4695552587509155
1772534908991949000,1.681948974609375,0.29156845808029175,-0.13861513137817383,-0.3746905028820038
1772534909001965000,1.691965087890625,0.3933371603488922,-0.16413381695747375,-0.31460827589035034
1772534909011982000,1.701982177734375,0.48744717240333557,-0.08763930201530457,-0.2832285165786743
1772534909021998800,1.711998779296875,0.5320508480072021,0.1010320782661438,-0.29578185081481934
1772534909032015000,1.72201513671875,0.506353497505188,0.40949830412864685,-0.3324623703956604
1772534909042032000,1.7320322265625,0.4341280162334442,0.7942438721656799,-0.3985990583896637
1772534909052049000,1.742048828125,0.38819247484207153,1.1147183179855347,-0.48250114917755127
1772534909062065000,1.75206494140625,0.40939897298812866,1.2668620347976685,-0.5137056708335876
1772534909072082000,1.76208203125,0.49266669154167175,1.1827865839004517,-0.43602150678634644
1772534909082099000,1.772098876953125,0.552079975605011,0.9858340620994568,-0.24810834228992462
1772534909092115000,1.782114990234375,0.5726725459098816,0.858205258846283,-0.052204616367816925
1772534909102132000,1.792132080078125,0.6055301427841187,0.7746014595031738,0.05612984672188759
1772534909112149000,1.80214892578125,0.6490493416786194,0.6643444299697876,0.07525747269392014
1772534909122165000,1.8121650390625,0.6431486010551453,0.5421386361122131,0.06962967664003372
1772534909132181800,1.822181640625,0.6556012630462646,0.3555314838886261,0.0706627145409584
1772534909142199000,1.832198974609375,0.7073816657066345,0.21523721516132355,0.07740157842636108
1772534909152215000,1.842215087890625,0.7353842854499817,0.01321300771087408,0.144000843167305
1772534909162231800,1.852231689453125,0.7341416478157043,-0.10722073167562485,0.37191203236579895
1772534909172249000,1.8622490234375,0.6784871816635132,-0.00555295730009675,0.6889238357543945
1772534909182265000,1.87226513671875,0.5009611248970032,0.06299654394388199,0.9902660846710205
1772534909192281900,1.88228173828125,0.26472407579421997,-0.22287702560424805,1.1480016708374023
1772534909202299000,1.892298828125,-0.06343596428632736,-0.8528395295143127,0.9884215593338013
1772534909212315100,1.902315185546875,-0.4281010031700134,-1.3917176723480225,0.5847460031509399
1772534909222332000,1.912331787109375,-0.6320592164993286,-1.679721713066101,0.050939612090587616
1772534909232348000,1.922347900390625,-0.7606052160263062,-1.6845459938049316,-0.41348159313201904
1772534909242365000,1.932364990234375,-0.7851027846336365,-1.3297266960144043,-0.7318369150161743
1772534909252382000,1.9423818359375,-0.6546412110328674,-0.7489621043205261,-0.9561014771461487
1772534909262398000,1.95239794921875,-0.43388673663139343,-0.17132754623889923,-1.1155164241790771
1772534909272415000,1.9624150390625,-0.16473887860774994,0.16276708245277405,-1.117626667022705
1772534909282432000,1.972431884765625,0.22776898741722107,0.24132713675498962,-0.9069799780845642
1772534909292448000,1.982447998046875,0.6350339651107788,-0.006448045372962952,-0.516136884689331
1772534909302465000,1.992465087890625,0.8951275944709778,-0.47633859515190125,-0.013588513247668743
1772534909312481800,2.002481689453125,1.0603785514831543,-1.0632455348968506,0.4369019567966461
1772534909322498000,2.012498046875,1.1955180168151855,-1.6485837697982788,0.7298632860183716
1772534909332515000,2.02251513671875,1.2657873630523682,-2.0415172576904297,0.9865366220474243
1772534909342531800,2.03253173828125,1.3041070699691772,-2.156862258911133,1.2664806842803955
1772534909352547800,2.0425478515625,1.337669849395752,-1.795224666595459,1.4438937902450562
1772534909362565000,2.052565185546875,1.1871442794799805,-1.050828456878662,1.3969238996505737
1772534909372582000,2.062581787109375,0.7786201238632202,-0.2162390947341919,1.1331350803375244
1772534909382598000,2.072597900390625,0.2174292653799057,0.441168874502182,0.7216016054153442
1772534909392615200,2.082615234375,-0.3969087302684784,0.8736388087272644,0.22492951154708862
1772534909402632000,2.0926318359375,-1.0110094547271729,1.120548963546753,-0.31627967953681946
1772534909412648000,2.10264794921875,-1.5099416971206665,1.1944650411605835,-0.8557705879211426
1772534909422665000,2.1126650390625,-1.861501693725586,1.214369773864746,-1.2424447536468506
1772534909432682000,2.122681884765625,-2.01560115814209,1.200047254562378,-1.4429759979248047
1772534909442698000,2.132697998046875,-2.0024242401123047,1.152590274810791,-1.5147870779037476
1772534909452715000,2.142715087890625,-1.8705204725265503,1.1610043048858643,-1.4551868438720703
1772534909462732000,2.15273193359375,-1.6842049360275269,1.2353341579437256,-1.291572093963623
1772534909472748000,2.162748046875,-1.44577956199646,1.3370500802993774,-1.080416202545166
1772534909482765000,2.17276513671875,-1.2179421186447144,1.3678338527679443,-0.8585155010223389
1772534909492781800,2.18278173828125,-1.0489048957824707,1.2272067070007324,-0.6384981870651245
1772534909502798000,2.192798095703125,-0.8804181218147278,1.0293487310409546,-0.44561609625816345
1772534909512815000,2.202815185546875,-0.695844292640686,0.8098115921020508,-0.3269357681274414
1772534909522832000,2.212831787109375,-0.5221609473228455,0.5068533420562744,-0.2617999315261841
1772534909532847900,2.222847900390625,-0.37407186627388,0.18496452271938324,-0.186889186501503
1772534909542865200,2.232865234375,-0.24832113087177277,-0.012056929059326649,-0.10937735438346863
1772534909552882000,2.2428818359375,-0.11032570898532867,0.022892266511917114,-0.062485747039318085
1772534909562898000,2.25289794921875,0.02081899531185627,0.16541798412799835,-0.06017838418483734
1772534909572915200,2.262915283203125,0.1530417501926422,0.3525055944919586,-0.07247979193925858
1772534909582932000,2.272931884765625,0.24829742312431335,0.4763984978199005,-0.05474766716361046
1772534909592948000,2.282947998046875,0.3170522451400757,0.4663386642932892,0.02321983501315117
1772534909602965000,2.292965087890625,0.364992618560791,0.3112446963787079,0.1378161907196045
1772534909612982000,2.30298193359375,0.3554036319255829,0.10615786164999008,0.31350597739219666
1772534909622998000,2.312998046875,0.30185866355895996,0.0018434401135891676,0.49274924397468567
1772534909633015000,2.32301513671875,0.24075375497341156,0.07598850876092911,0.6017287373542786
1772534909643032000,2.333031982421875,0.1669788658618927,0.23771695792675018,0.5777035355567932
1772534909653048000,2.343048095703125,0.07181506603956223,0.4919532239437103,0.4755915701389313
1772534909663064800,2.35306494140625,0.015995478257536888,0.6570470929145813,0.48093706369400024
1772534909673081900,2.363081787109375,-0.02346591092646122,0.6668539047241211,0.6649510860443115
1772534909683098000,2.37309814453125,-0.10316207259893417,0.5303128957748413,1.004715085029602
1772534909693115000,2.383114990234375,-0.2783852815628052,0.30794957280158997,1.4309636354446411
1772534909703132000,2.3931318359375,-0.49500200152397156,-0.20776225626468658,1.7984135150909424
1772534909713148000,2.40314794921875,-0.6772474646568298,-0.716903805732727,2.040405035018921
1772534909723165000,2.4131650390625,-0.8810413479804993,-0.9589449167251587,2.1542341709136963
1772534909733182000,2.423181884765625,-1.0135959386825562,-0.9090574979782104,2.078327178955078
1772534909743198000,2.433197998046875,-0.9028142690658569,-1.0295008420944214,1.7314770221710205
1772534909753215000,2.443215087890625,-0.6489832997322083,-1.590515375137329,1.1406646966934204
1772534909763232000,2.45323193359375,-0.3489276170730591,-2.218904733657837,0.5365851521492004
1772534909773248000,2.463248046875,-0.02443636767566204,-2.6444835662841797,0.03959188237786293
1772534909783264800,2.4732646484375,0.23516032099723816,-2.975703239440918,-0.3977774679660797
1772534909793282000,2.483281982421875,0.32365182042121887,-3.10003662109375,-0.7525198459625244
1772534909803298000,2.493298095703125,0.16458255052566528,-2.9465177059173584,-1.0930010080337524
1772534909813314800,2.503314697265625,0.16060325503349304,-2.1500866413116455,-1.3612473011016846
1772534909823332000,2.51333203125,0.22004874050617218,-0.9930741190910339,-1.6631195545196533
1772534909833348000,2.52334814453125,0.3701373040676117,-0.019706860184669495,-1.7150919437408447
1772534909843364900,2.53336474609375,0.5136265754699707,0.42095282673835754,-1.507662057876587
1772534909853382000,2.5433818359375,0.6814520359039307,0.4881363809108734,-1.0495851039886475
1772534909863398100,2.553398193359375,0.8943350315093994,0.4256253242492676,-0.4568290710449219
1772534909873415000,2.563414794921875,1.185764193534851,0.2511981427669525,0.0999859869480133
1772534909883431000,2.573430908203125,1.47187077999115,0.11609598249197006,0.6281536817550659
1772534909893448000,2.583447998046875,1.6607632637023926,0.04295545816421509,1.1339577436447144
1772534909903465000,2.59346484375,1.6284230947494507,-0.08891575783491135,1.5137327909469604
1772534909913481000,2.60348095703125,1.4020118713378906,-0.19190339744091034,1.6509582996368408
1772534909923498000,2.613498046875,1.0303584337234497,-0.16955654323101044,1.411867618560791
1772534909933515000,2.623514892578125,0.5617496371269226,-0.24881701171398163,0.8927696347236633
1772534909943531000,2.633531005859375,0.03157630190253258,-0.22207114100456238,0.21801622211933136
1772534909953548000,2.643548095703125,-0.5160897374153137,0.09846798330545425,-0.5173915028572083
1772534909963565600,2.653565673828125,-0.9540976881980896,0.584145724773407,-1.2188998460769653
1772534909973581600,2.66358154296875,-1.3103079795837402,0.9323636293411255,-1.5594334602355957
1772534909983598600,2.6735986328125,-1.5368268489837646,0.9572117328643799,-1.523120403289795
1772534909993615600,2.68361572265625,-1.5749950408935547,0.9134341478347778,-1.3093663454055786
1772534910003631600,2.693631591796875,-1.4767006635665894,0.9484975934028625,-1.06950843334198
1772534910013648400,2.7036484375,-1.294393539428711,1.0359376668930054,-0.9138591885566711
1772534910023665700,2.713665771484375,-1.076843023300171,1.0035473108291626,-0.8554190397262573
1772534910033681700,2.723681640625,-0.9442613124847412,0.7973405718803406,-0.8110300302505493
1772534910043698400,2.733698486328125,-0.8866685628890991,0.46163153648376465,-0.7661908864974976
1772534910053715700,2.7437158203125,-0.7827738523483276,0.14241360127925873,-0.7785916328430176
1772534910063731700,2.753731689453125,-0.6231778264045715,-0.07740238308906555,-0.8347992897033691
1772534910073748500,2.76374853515625,-0.4959554374217987,-0.17403438687324524,-0.8555668592453003
1772534910083765500,2.773765625,-0.4037586450576782,-0.10564307123422623,-0.8141560554504395
1772534910093781800,2.78378173828125,-0.3197367191314697,0.0766468420624733,-0.7482156157493591
1772534910103798500,2.793798583984375,-0.2557382881641388,0.26009601354599,-0.6677761673927307
1772534910113815600,2.803815673828125,-0.18252933025360107,0.38276681303977966,-0.5575516819953918
1772534910123831600,2.81383154296875,-0.1155143454670906,0.48861709237098694,-0.42187532782554626
1772534910133848600,2.8238486328125,-0.05447735637426376,0.5638148784637451,-0.2947879731655121
1772534910143865600,2.833865478515625,0.02418895997107029,0.5595937967300415,-0.20034641027450562
1772534910153881600,2.843881591796875,0.07992732524871826,0.5338378548622131,-0.11169590801000595
1772534910163898600,2.853898681640625,0.11468476802110672,0.428768128156662,-0.03428793326020241
1772534910173915600,2.86391552734375,0.0793379619717598,0.2787086069583893,0.03313132002949715
1772534910183931600,2.873931640625,-0.029165875166654587,0.29652807116508484,0.10412027686834335
1772534910193948400,2.883948486328125,-0.13185442984104156,0.4907497465610504,0.11359766870737076
1772534910203965700,2.893965576171875,-0.16261927783489227,0.8054874539375305,0.057915497571229935
1772534910213981700,2.903981689453125,-0.134023055434227,1.0899481773376465,0.006848584860563278
1772534910223998500,2.91399853515625,-0.0655427873134613,1.2305498123168945,-0.01381275150924921
1772534910234015700,2.924015625,-0.0031228226143866777,1.1617143154144287,0.024394555017352104
1772534910244031700,2.93403173828125,0.08875596523284912,0.8806203007698059,0.20880967378616333
1772534910254048500,2.944048583984375,0.20591507852077484,0.49540576338768005,0.5283754467964172
1772534910264065500,2.9540654296875,0.3606165051460266,0.09488896280527115,0.8625475168228149
1772534910274081800,2.964081787109375,0.4890599548816681,-0.2306087166070938,1.0900214910507202
1772534910284098600,2.9740986328125,0.5299459099769592,-0.4507288336753845,1.123217225074768
1772534910294115600,2.984115478515625,0.4717792570590973,-0.6313303112983704,0.9936741590499878
1772534910304131600,2.994131591796875,0.33336731791496277,-0.8595144748687744,0.8234525918960571
1772534910314148600,3.004148681640625,0.1892884373664856,-1.3179360628128052,0.5941983461380005
1772534910324165600,3.01416552734375,0.009002549573779106,-1.8667196035385132,0.3680081069469452
1772534910334181600,3.024181640625,-0.21258975565433502,-2.1513640880584717,0.226617693901062
1772534910344198700,3.03419873046875,-0.5320590734481812,-2.1151070594787598,-0.021675467491149902
1772534910354215700,3.044215576171875,-0.9625231623649597,-1.475970983505249,-0.4253097474575043
1772534910364231700,3.054231689453125,-1.3413455486297607,-0.4478986859321594,-0.9051985740661621
1772534910374248400,3.06424853515625,-1.438084602355957,0.5860690474510193,-1.3326942920684814
1772534910384264700,3.0742646484375,-1.2631263732910156,1.2216564416885376,-1.591624140739441
1772534910394281700,3.08428173828125,-0.9175282120704651,1.2603559494018555,-1.5705382823944092
1772534910404298500,3.094298583984375,-0.4600088894367218,0.7212945222854614,-1.3149785995483398
1772534910414314500,3.104314453125,0.05037795379757881,-0.30881136655807495,-0.9197479486465454
1772534910424331800,3.114331787109375,0.5143304467201233,-1.624812126159668,-0.44774314761161804
1772534910434348500,3.1243486328125,0.8149499297142029,-2.819955825805664,0.01649269089102745
1772534910444364500,3.134364501953125,0.9649671316146851,-3.3245906829833984,0.40042704343795776
1772534910454381800,3.1443818359375,1.0891335010528564,-2.86684250831604,0.5862203240394592
1772534910464398600,3.154398681640625,1.1404798030853271,-1.6147704124450684,0.5745093822479248
1772534910474414600,3.16441455078125,1.009668231010437,-0.19732771813869476,0.6098337769508362
1772534910484431600,3.174431640625,0.7083435654640198,0.8762436509132385,0.757029116153717
1772534910494448600,3.18444873046875,0.30370423197746277,1.4386571645736694,0.9679043292999268
1772534910504464600,3.194464599609375,-0.12532863020896912,1.575498104095459,1.0944737195968628
1772534910514481700,3.204481689453125,-0.4617766737937927,1.4100420475006104,1.0121021270751953
1772534910524498700,3.214498779296875,-0.6905723214149475,1.0975725650787354,0.6205860376358032
1772534910534514700,3.2245146484375,-0.7978090047836304,0.782813310623169,-0.06491242349147797
1772534910544531500,3.234531494140625,-0.8999537825584412,0.5876739025115967,-0.8656319975852966
1772534910554548500,3.244548583984375,-1.0449578762054443,0.6206086874008179,-1.5038020610809326
1772534910564564700,3.254564697265625,-1.1280114650726318,0.7930195927619934,-1.8340373039245605
1772534910574581500,3.26458154296875,-1.1382461786270142,0.9938024878501892,-1.8433711528778076
1772534910584598500,3.2745986328125,-1.0610153675079346,1.195400595664978,-1.5741809606552124
1772534910594614500,3.284614501953125,-0.9387858510017395,1.290449857711792,-1.1442426443099976
1772534910604631600,3.294631591796875,-0.8533596396446228,1.1976171731948853,-0.7127641439437866
1772534910614648600,3.304648681640625,-0.8478399515151978,1.0274840593338013,-0.41366109251976013
1772534910624664600,3.31466455078125,-0.8609299063682556,0.8783949613571167,-0.3223849833011627
1772534910634681600,3.324681640625,-0.8770031929016113,0.6772221326828003,-0.432720810174942
1772534910644698600,3.33469873046875,-0.8772990703582764,0.4305404722690582,-0.5210565328598022
1772534910654714600,3.344714599609375,-0.8418971300125122,0.22459955513477325,-0.5158154368400574
1772534910664731400,3.3547314453125,-0.7176398634910583,0.12030430883169174,-0.4175602197647095
1772534910674748700,3.364748779296875,-0.5414627194404602,0.12935425341129303,-0.3121587038040161
1772534910684764700,3.3747646484375,-0.3482658267021179,0.2466752976179123,-0.21799172461032867
1772534910694781400,3.384781494140625,-0.16404938697814941,0.3701897859573364,-0.11795087158679962
1772534910704798700,3.394798828125,0.0009624664089642465,0.4320366382598877,-0.020473316311836243
1772534910714814700,3.404814697265625,0.12766528129577637,0.4636339843273163,0.10616745054721832
1772534910724831500,3.41483154296875,0.20906932651996613,0.4472898840904236,0.30194705724716187
1772534910734848500,3.4248486328125,0.2866322994232178,0.39081647992134094,0.5444483757019043
1772534910744864800,3.43486474609375,0.3941590189933777,0.3006961941719055,0.7693968415260315
1772534910754881500,3.444881591796875,0.5116254687309265,0.29605910181999207,0.9324089288711548
1772534910764897500,3.4548974609375,0.6087458729743958,0.4482731223106384,0.9729153513908386
1772534910774914600,3.46491455078125,0.6221383810043335,0.691505491733551,0.880547046661377
1772534910784931600,3.474931640625,0.5932247042655945,0.8981718420982361,0.675361156463623
1772534910794948600,3.484948486328125,0.5243998765945435,0.9701142311096191,0.4652462601661682
1772534910804964600,3.494964599609375,0.49836665391921997,0.9562423229217529,0.34352725744247437
1772534910814981600,3.504981689453125,0.5574550032615662,0.8337441086769104,0.30439186096191406
1772534910824997600,3.51499755859375,0.6626676917076111,0.6401296257972717,0.3250342905521393
1772534910835014700,3.5250146484375,0.798502504825592,0.37910524010658264,0.4117515981197357
1772534910845031400,3.535031494140625,0.8855040073394775,-0.1299116611480713,0.5183352828025818
1772534910855047700,3.545047607421875,0.8808797001838684,-0.6211873888969421,0.6393445730209351
1772534910865064700,3.555064697265625,0.807466983795166,-0.9004302024841309,0.6728013157844543
1772534910875081500,3.56508154296875,0.6100391149520874,-1.240140676498413,0.4310171604156494
1772534910885097500,3.575097412109375,0.33131667971611023,-1.622544765472412,0.0506511926651001
1772534910895114800,3.58511474609375,0.06557182222604752,-1.7176393270492554,-0.15630199015140533
1772534910905131500,3.595131591796875,-0.16167332231998444,-1.338354229927063,-0.14133262634277344
1772534910915147500,3.6051474609375,-0.3739858567714691,-0.6279310584068298,-0.23193442821502686
1772534910925164800,3.615164794921875,-0.47895193099975586,0.2753586173057556,-0.4943860173225403
1772534910935181600,3.625181640625,-0.41761136054992676,1.1611113548278809,-0.6630810499191284
1772534910945197600,3.635197509765625,-0.14276354014873505,1.8224554061889648,-0.606774628162384
1772534910955214600,3.645214599609375,0.315906286239624,2.052561044692993,-0.28969013690948486
1772534910965230600,3.655230712890625,0.8882089853286743,1.7235661745071411,0.22035740315914154
1772534910975246600,3.66524658203125,1.448609709739685,0.9485793709754944,0.7417483925819397
1772534910985263600,3.675263671875,1.8812159299850464,-0.033663421869277954,1.1182866096496582
1772534910995280400,3.6852802734375,2.0309832096099854,-0.9265821576118469,1.2956401109695435
1772534911005296400,3.69529638671875,1.8698506355285645,-1.4512486457824707,1.3257261514663696
1772534911015313700,3.705313720703125,1.447211503982544,-1.4955940246582031,1.171704888343811
1772534911025330400,3.715330322265625,0.8929099440574646,-1.065109133720398,0.8478255867958069
1772534911035346400,3.725346435546875,0.30578067898750305,-0.2815062403678894,0.4051815867424011
1772534911045363700,3.73536376953125,-0.23167690634727478,0.558447539806366,-0.006668555550277233
1772534911055380500,3.74538037109375,-0.6582982540130615,1.2360707521438599,-0.25597983598709106
1772534911065396500,3.755396484375,-0.9294221997261047,1.6629056930541992,-0.27281075716018677
1772534911075413500,3.76541357421875,-1.0131229162216187,1.7757155895233154,-0.1066388264298439
1772534911085430500,3.775430419921875,-0.9062537550926208,1.60738205909729,0.10591577738523483
1772534911095446500,3.785446533203125,-0.6184704303741455,1.2060271501541138,0.23997052013874054
1772534911105463600,3.795463623046875,-0.23878701031208038,0.6880524158477783,0.2559913098812103
1772534911115480600,3.80548046875,0.13165229558944702,0.18838030099868774,0.18118816614151
1772534911125496600,3.81549658203125,0.41700974106788635,-0.22131241858005524,0.07058442384004593
1772534911135513600,3.825513671875,0.5945999622344971,-0.5160886645317078,-0.03542004153132439
1772534911145529600,3.835529541015625,0.6794373989105225,-0.7018271088600159,-0.12176798284053802
1772534911155546600,3.845546630859375,0.6876606941223145,-0.8654823303222656,-0.20478270947933197
1772534911165563600,3.855563720703125,0.6198185086250305,-1.057407021522522,-0.3180519938468933
1772534911175579600,3.86557958984375,0.4794643223285675,-1.2241361141204834,-0.49103444814682007
1772534911185596400,3.875596435546875,0.2891212999820709,-1.3022713661193848,-0.6983295679092407
1772534911195613700,3.88561376953125,0.07595814764499664,-1.2871909141540527,-0.8842030167579651
1772534911205629700,3.895629638671875,-0.0968136265873909,-1.1935603618621826,-0.9910818338394165
1772534911215646500,3.905646484375,-0.18613497912883759,-1.010849118232727,-1.001744270324707
1772534911225663700,3.915663818359375,-0.23812147974967957,-0.743145763874054,-0.9308749437332153
1772534911235679700,3.9256796875,-0.282990962266922,-0.40950602293014526,-0.8067433834075928
1772534911245696500,3.935696533203125,-0.2948492169380188,-0.08861269056797028,-0.6511892080307007
1772534911255713500,3.945713623046875,-0.24516767263412476,0.036621395498514175,-0.455221563577652
1772534911265729800,3.955729736328125,-0.18327927589416504,-0.005834453273564577,-0.23786236345767975
1772534911275746600,3.96574658203125,-0.10205978900194168,-0.058280084282159805,-0.050395529717206955
1772534911285763600,3.975763671875,-0.04078817740082741,-0.04998859763145447,0.0536605641245842
1772534911295779600,3.985779541015625,-0.022894930094480515,0.03810237720608711,0.09961340576410294
1772534911305796600,3.995796630859375,-0.005020058713853359,0.2016308605670929,0.13257429003715515
1772534911315813600,4.005813720703125,0.0361018106341362,0.4167575538158417,0.19354736804962158
1772534911325829600,4.01582958984375,0.0941653773188591,0.5862538814544678,0.2555129826068878
1772534911335846700,4.0258466796875,0.20278213918209076,0.692560076713562,0.32435357570648193
1772534911345863700,4.03586376953125,0.3496224582195282,0.7025797367095947,0.3991146385669708
1772534911355879400,4.04587939453125,0.447144478559494,0.6041785478591919,0.48298877477645874
1772534911365896400,4.055896484375,0.499186635017395,0.3534954786300659,0.5442736744880676
1772534911375913700,4.065913818359375,0.5438598394393921,-0.052373725920915604,0.4697142243385315
1772534911385929500,4.075929443359375,0.7271583080291748,-0.5312085151672363,0.2612220048904419
1772534911395946500,4.085946533203125,1.0108033418655396,-0.7312704920768738,0.04213094338774681
1772534911405963800,4.0959638671875,1.3563599586486816,-0.4444189965724945,0.0067870658822357655
1772534911415979500,4.1059794921875,1.5655107498168945,-0.12209421396255493,0.26268941164016724
1772534911425996500,4.11599658203125,1.277587890625,-0.41710853576660156,0.6125717759132385
1772534911436013600,4.126013671875,0.7112498879432678,-1.1548124551773071,0.5789355039596558
1772534911446029600,4.136029541015625,0.35587021708488464,-1.6432536840438843,0.00390312890522182
1772534911456046600,4.146046630859375,0.006598514039069414,-1.4492307901382446,-0.7128352522850037
1772534911466063600,4.156063720703125,-0.725579559803009,-0.796859622001648,-1.370159387588501
1772534911476079400,4.166079345703125,-1.3844226598739624,0.024155404418706894,-1.7836966514587402
1772534911486096600,4.1760966796875,-1.6645880937576294,0.6180770993232727,-2.196800708770752
1772534911496113700,4.18611376953125,-1.5942842960357666,0.6902071833610535,-2.5589022636413574
1772534911506129400,4.19612939453125,-1.1972887516021729,0.1615108698606491,-2.560019016265869
1772534911516146700,4.206146728515625,-0.5372722148895264,-0.7313783168792725,-2.1023101806640625
1772534911526162700,4.21616259765625,0.22781798243522644,-1.6541063785552979,-1.310038447380066
1772534911536179500,4.226179443359375,0.9506797790527344,-2.046743392944336,-0.3543221354484558
1772534911546196500,4.236196533203125,1.4151595830917358,-1.8042389154434204,0.4669477343559265
1772534911556212700,4.246212646484375,1.5732314586639404,-0.9939987659454346,0.9763606786727905
1772534911566229500,4.2562294921875,1.5354154109954834,0.03934500738978386,1.1476680040359497
1772534911576246500,4.26624658203125,1.159997582435608,0.7781959176063538,1.1990251541137695
1772534911586262500,4.276262451171875,0.4474978744983673,1.0077625513076782,1.3717687129974365
1772534911596279600,4.286279541015625,-0.09391850233078003,0.6595696806907654,1.5713489055633545
1772534911606296600,4.296296630859375,-0.2966921329498291,0.3789459764957428,1.608875036239624
1772534911616312600,4.3063125,-0.29728999733924866,0.1501021534204483,1.4787883758544922
1772534911626329600,4.31632958984375,-0.13391439616680145,-0.09182365983724594,1.2450655698776245
1772534911636346600,4.3263466796875,0.09141646325588226,-0.26722344756126404,0.9051016569137573
1772534911646362600,4.336362548828125,0.18666468560695648,-0.3168589174747467,0.520039975643158
1772534911656379400,4.34637939453125,0.12749937176704407,-0.1901473104953766,0.17724455893039703
1772534911666396700,4.356396728515625,0.030493726953864098,0.03815670683979988,-0.06317950040102005
1772534911676412700,4.36641259765625,-0.14517582952976227,0.3428116738796234,-0.15391632914543152
1772534911686429400,4.376429443359375,-0.37077459692955017,0.6804488301277161,-0.13849183917045593
1772534911696446700,4.38644677734375,-0.5512839555740356,0.9007367491722107,-0.09011045098304749
1772534911706462700,4.396462646484375,-0.6662952303886414,1.000629186630249,-0.07113196700811386
1772534911716479500,4.4064794921875,-0.7177459001541138,0.9640440940856934,-0.08073639124631882
1772534911726496500,4.41649658203125,-0.7189245820045471,0.7591907978057861,-0.10288723558187485
1772534911736512800,4.4265126953125,-0.6994760632514954,0.4558095932006836,-0.10542602092027664
1772534911746529500,4.436529541015625,-0.6472722291946411,0.0730302706360817,-0.10954780131578445
1772534911756546600,4.446546630859375,-0.5470572113990784,-0.22090229392051697,-0.12419678270816803
1772534911766562600,4.4565625,-0.401608407497406,-0.2738001346588135,-0.15706604719161987
1772534911776579600,4.46657958984375,-0.23436856269836426,-0.13680019974708557,-0.18677228689193726
1772534911786596600,4.4765966796875,-0.10522495955228806,0.04108431935310364,-0.2165759801864624
1772534911796612600,4.486612548828125,-0.07356955856084824,0.32826417684555054,-0.25456997752189636
1772534911806629600,4.496629638671875,-0.08633968234062195,0.5063859820365906,-0.30685529112815857
1772534911816646700,4.506646728515625,-0.09730072319507599,0.5340924263000488,-0.22344426810741425
1772534911826662700,4.51666259765625,-0.040654219686985016,0.6554036736488342,0.07291575521230698
1772534911836679400,4.526679443359375,0.09890740364789963,0.645031213760376,0.46835842728614807
1772534911846696700,4.53669677734375,0.2024361938238144,0.6280553936958313,0.8378381729125977
1772534911856712700,4.546712646484375,0.2520948350429535,0.6822017431259155,1.1158360242843628
1772534911866729500,4.5567294921875,0.27622678875923157,0.8265432119369507,1.1964932680130005
1772534911876745500,4.566745361328125,0.2845398485660553,1.019449234008789,1.0165318250656128
1772534911886762500,4.576762451171875,0.25145965814590454,1.0233840942382812,0.8393362164497375
1772534911896779500,4.586779541015625,0.2635546624660492,0.9021655321121216,0.7315881848335266
1772534911906795500,4.59679541015625,0.3598348796367645,0.6524782180786133,0.5750398635864258
1772534911916812500,4.6068125,0.43841516971588135,0.4675126075744629,0.3882524073123932
1772534911926829600,4.61682958984375,0.49547791481018066,0.28496116399765015,0.26135730743408203
1772534911936845600,4.626845458984375,0.6301332116127014,0.18884767591953278,0.2660801410675049
1772534911946862300,4.6368623046875,0.7833067774772644,0.2743503451347351,0.47274890542030334
1772534911956879600,4.646879638671875,0.7394729852676392,0.20364314317703247,0.8627720475196838
1772534911966896000,4.656896240234375,0.5605977773666382,-0.47653698921203613,1.0040242671966553
1772534911976913000,4.666912841796875,0.3415951430797577,-1.6930439472198486,0.4075818955898285
1772534911986930200,4.67693017578125,0.010390056297183037,-2.719998359680176,-0.6585859060287476
1772534911996946200,4.6869462890625,-0.47802144289016724,-3.0434484481811523,-1.6744524240493774
1772534912006963000,4.696962890625,-1.1302669048309326,-2.317892074584961,-2.4574830532073975
1772534912016980200,4.706980224609375,-1.7304885387420654,-0.6208981871604919,-2.8069145679473877
1772534912026996200,4.716996337890625,-2.0153579711914062,0.9768650531768799,-2.4437263011932373
1772534912037013000,4.727012939453125,-1.7892149686813354,1.7558058500289917,-1.5988620519638062
1772534912047030000,4.737030029296875,-1.2474310398101807,1.5585596561431885,-1.0380620956420898
1772534912057046300,4.74704638671875,-0.5518833994865417,0.5435197353363037,-0.9403523206710815
1772534912067063000,4.75706298828125,0.31973859667778015,-1.0012710094451904,-1.2910197973251343
1772534912077080000,4.767080078125,1.1669141054153442,-2.4679982662200928,-1.6888753175735474
1772534912087096000,4.777095947265625,1.8627078533172607,-3.435122013092041,-1.5832172632217407
1772534912097113000,4.787113037109375,2.3300905227661133,-3.799232006072998,-0.9983610510826111
1772534912107130000,4.797130126953125,2.43906569480896,-3.399386167526245,-0.23450225591659546
1772534912117146000,4.80714599609375,2.2148642539978027,-2.3143279552459717,0.31974923610687256
1772534912127163100,4.8171630859375,1.8064823150634766,-0.9604834318161011,0.5411780476570129
1772534912137180200,4.82718017578125,1.329827904701233,0.26695287227630615,0.5631735920906067
1772534912147196200,4.837196044921875,0.906852126121521,1.02558434009552,0.5307088494300842
1772534912157213000,4.847212890625,0.5790337920188904,1.2056809663772583,0.48608842492103577
1772534912167229200,4.857229248046875,0.3121784031391144,1.00338876247406,0.40703433752059937
1772534912177246200,4.86724609375,0.12415150552988052,0.6398470997810364,0.2634026110172272
1772534912187263000,4.877262939453125,0.07176553457975388,0.30027860403060913,0.02178945206105709
1772534912197280300,4.8872802734375,0.10643749684095383,0.10043153166770935,-0.23470118641853333
1772534912207296300,4.897296142578125,0.14114966988563538,0.011771970428526402,-0.4184902012348175
1772534912217313000,4.90731298828125,0.1384928971529007,-0.015274826437234879,-0.47161439061164856
1772534912227329000,4.9173291015625,0.11706190556287766,-0.025374332442879677,-0.4158017337322235
1772534912237346000,4.927345947265625,0.09005559235811234,-0.02648300677537918,-0.300289511680603
1772534912247363000,4.937363037109375,0.07917577773332596,-0.04127979651093483,-0.18557386100292206
1772534912257379000,4.947379150390625,0.02297802083194256,-0.045216478407382965,-0.12554460763931274
1772534912267396000,4.95739599609375,-0.11709999293088913,-0.06505383551120758,-0.09200342744588852
1772534912277413000,4.9674130859375,-0.13683907687664032,-0.08596337586641312,-0.15326625108718872
1772534912287429000,4.97742919921875,-0.18759040534496307,-0.17377258837223053,-0.22629119455814362
1772534912297446000,4.98744580078125,-0.2711758315563202,-0.20414221286773682,-0.2770872712135315
1772534912307463200,4.997463134765625,-0.30179181694984436,-0.20048968493938446,-0.3093336224555969
1772534912317479200,5.007479248046875,-0.2688458561897278,-0.15507960319519043,-0.2772848606109619
1772534912327496000,5.017495849609375,-0.16822390258312225,-0.006124471314251423,-0.18945780396461487
1772534912337513000,5.027512939453125,-0.04626549780368805,0.2026015818119049,-0.03147243708372116
1772534912347529200,5.037529296875,0.0652165561914444,0.37131497263908386,0.1743883192539215
1772534912357546000,5.0475458984375,0.10644601285457611,0.4191301465034485,0.36479100584983826
1772534912367563000,5.05756298828125,0.11393056064844131,0.4181500971317291,0.5239801406860352
1772534912377579000,5.0675791015625,0.11550981551408768,0.41397374868392944,0.6591616868972778
1772534912387596000,5.077595947265625,0.11974983662366867,0.43239137530326843,0.7506793141365051
1772534912397613000,5.087613037109375,0.1495751142501831,0.5653049349784851,0.8346538543701172
1772534912407629000,5.097629150390625,0.19303496181964874,0.7106935381889343,0.9217464327812195
1772534912417646000,5.10764599609375,0.18205662071704865,0.8676155209541321,0.9930989146232605
1772534912427663000,5.1176630859375,0.11527119576931,1.0165746212005615,1.029152274131775
1772534912437679000,5.12767919921875,-0.024047279730439186,1.044793725013733,1.051417589187622
1772534912447696000,5.13769580078125,-0.19137288630008698,1.0388338565826416,1.04014253616333
1772534912457713200,5.147713134765625,-0.32901304960250854,1.1407320499420166,1.0267902612686157
1772534912467729200,5.157729248046875,-0.3604537844657898,1.283185362815857,1.044331431388855
1772534912477746000,5.167745849609375,-0.26574885845184326,1.3265905380249023,1.1412113904953003
1772534912487762000,5.177761962890625,-0.08024051040410995,1.2880208492279053,1.4362214803695679
1772534912497779200,5.187779296875,0.09775558859109879,1.103434443473816,1.8645573854446411
1772534912507796000,5.1977958984375,0.23638591170310974,0.578389585018158,2.168816089630127
1772534912517812000,5.20781201171875,0.26540371775627136,-0.5284332036972046,1.9835360050201416
1772534912527829200,5.217829345703125,0.1302245855331421,-1.5256192684173584,1.337288737297058
1772534912537846000,5.227845947265625,0.007436344865709543,-1.9315392971038818,0.558444619178772
1772534912547862000,5.237862060546875,-0.06593666970729828,-1.7136203050613403,-0.09962432831525803
1772534912557879000,5.247879150390625,-0.23889273405075073,-0.9246873259544373,-0.41640013456344604
1772534912567896000,5.25789599609375,-0.5852727890014648,0.04081294313073158,-0.30642756819725037
1772534912577912000,5.267912109375,-0.9008187651634216,0.7033682465553284,0.012271047569811344
1772534912587929000,5.27792919921875,-0.9859632253646851,1.0290073156356812,0.03344903513789177
1772534912597946000,5.287946044921875,-0.7409952878952026,0.9872649908065796,-0.3616580665111542
1772534912607962000,5.297962158203125,-0.30047672986984253,0.7191547155380249,-0.8729831576347351
1772534912617979100,5.307979248046875,0.21251146495342255,0.22402670979499817,-1.1594077348709106
1772534912627996000,5.317995849609375,0.7424954175949097,-0.3987484574317932,-1.0661249160766602
1772534912639890000,5.329889892578125,1.237181305885315,-1.0376567840576172,-0.6805598735809326
1772534912649907200,5.3399072265625,1.6518871784210205,-1.670071005821228,-0.227383092045784
1772534912659924000,5.349924072265625,1.907077431678772,-2.1288983821868896,0.08568613976240158
1772534912669940000,5.35993994140625,1.9897568225860596,-2.3066816329956055,0.29546838998794556
1772534912679957200,5.369957275390625,1.8622816801071167,-2.0743441581726074,0.36656653881073
1772534912689974000,5.37997412109375,1.5445133447647095,-1.3952319622039795,0.3400494456291199
1772534912699990000,5.389989990234375,1.136069416999817,-0.43662819266319275,0.24893897771835327
1772534912710007300,5.40000732421875,0.7208876013755798,0.39047080278396606,0.1499815136194229
1772534912720024000,5.410024169921875,0.31966906785964966,0.8893096446990967,0.10074498504400253
1772534912730040000,5.4200400390625,0.020654411986470222,1.0924081802368164,0.1119007021188736
1772534912740057000,5.43005712890625,-0.1320326030254364,1.1081693172454834,0.16374684870243073
1772534912750074000,5.44007421875,-0.18336743116378784,0.9263928532600403,0.1923966109752655
1772534912760090000,5.450090087890625,-0.18331415951251984,0.627845823764801,0.16511811316013336
1772534912770107100,5.460107177734375,-0.13006159663200378,0.36482083797454834,0.09148304164409637
1772534912780124200,5.470124267578125,-0.049264486879110336,0.20826531946659088,-0.013314207084476948
1772534912790140200,5.48014013671875,0.006538859568536282,0.15480102598667145,-0.1289537250995636
1772534912800157200,5.4901572265625,0.0006530070677399635,0.18410725891590118,-0.21401481330394745
1772534912810174000,5.500174072265625,-0.05216972902417183,0.27569228410720825,-0.26471394300460815
1772534912820190200,5.510190185546875,-0.10991611331701279,0.4134179353713989,-0.32343772053718567
1772534912830207200,5.520207275390625,-0.1705102175474167,0.5271255970001221,-0.3982813358306885
1772534912840223000,5.530222900390625,-0.2412927746772766,0.5864318013191223,-0.4580381512641907
1772534912850240000,5.540239990234375,-0.30366721749305725,0.551719069480896,-0.4977719783782959
1772534912860257000,5.550257080078125,-0.3301827013492584,0.4372015595436096,-0.5231689214706421
1772534912870273000,5.56027294921875,-0.33872291445732117,0.32852834463119507,-0.5135754346847534
1772534912880290000,5.5702900390625,-0.3280404508113861,0.25599634647369385,-0.4462469816207886
1772534912890307000,5.58030712890625,-0.29203373193740845,0.2335304617881775,-0.32131144404411316
1772534912900323000,5.590322998046875,-0.22233879566192627,0.253670871257782,-0.14606985449790955
1772534912910340000,5.600340087890625,-0.12854492664337158,0.3091573119163513,0.06040129065513611
1772534912920356900,5.61035693359375,-0.02106773480772972,0.3941028416156769,0.26267051696777344
1772534912930373000,5.620373046875,0.07978297770023346,0.4882974922657013,0.4287939667701721
1772534912940390100,5.63039013671875,0.18753314018249512,0.5753722190856934,0.5302143096923828
1772534912950407000,5.640406982421875,0.26080015301704407,0.6776764988899231,0.6091639995574951
1772534912960422400,5.65042236328125,0.23427560925483704,0.795731246471405,0.6821066737174988
1772534912970439700,5.660439697265625,0.17923153936862946,0.8029369115829468,0.7066487669944763
1772534912980456700,5.670456787109375,0.13069835305213928,0.6931942105293274,0.6962903738021851
1772534912990472400,5.680472412109375,0.11608453094959259,0.6351314187049866,0.710562527179718
1772534913000489700,5.69048974609375,0.12201298773288727,0.7505216598510742,0.7287226319313049
1772534913010506800,5.7005068359375,0.14707227051258087,0.9499391913414001,0.7251012325286865
1772534913020522500,5.7105224609375,0.2021067589521408,1.0269050598144531,0.7094568014144897
1772534913030539500,5.72053955078125,0.27615728974342346,0.9128112196922302,0.7511088848114014
1772534913040556500,5.730556640625,0.23685301840305328,0.7424259185791016,0.9159047603607178
1772534913050572500,5.740572509765625,0.13770993053913116,0.520941972732544,1.107380747795105
1772534913060589600,5.750589599609375,0.20258507132530212,0.2544093728065491,1.218126654624939
1772534913070606600,5.760606689453125,0.35570669174194336,-0.6241083145141602,1.0906187295913696
1772534913080622600,5.77062255859375,0.27675384283065796,-2.1405112743377686,0.2793496251106262
1772534913090639600,5.7806396484375,0.23455259203910828,-2.8389272689819336,-0.5523489117622375
1772534913100656400,5.790656494140625,0.06621843576431274,-2.5897908210754395,-0.8707689642906189
1772534913110672600,5.800672607421875,-0.32866042852401733,-1.645432710647583,-0.8968823552131653
1772534913120689700,5.810689697265625,-0.5689523816108704,-0.16590560972690582,-0.6293784379959106
1772534913130705700,5.82070556640625,-0.3535652458667755,1.1865136623382568,-0.1851554811000824
1772534913140722400,5.830722412109375,-0.08890457451343536,1.700731635093689,0.20761604607105255
1772534913150739700,5.84073974609375,0.2615719437599182,1.7215192317962646,0.49980929493904114
1772534913160755700,5.850755615234375,0.7612912058830261,1.451894998550415,0.662212073802948
1772534913170772500,5.8607724609375,1.3570430278778076,0.9908149838447571,0.8164394497871399
1772534913180789800,5.870789794921875,2.1229867935180664,0.17494943737983704,0.8659182786941528
1772534913190805800,5.8808056640625,2.981130361557007,-0.9187066555023193,0.7555060386657715
1772534913200822500,5.890822509765625,3.741220474243164,-1.8588038682937622,0.7153013348579407
1772534913210839600,5.900839599609375,4.25869083404541,-2.511476755142212,0.8265189528465271
1772534913220855800,5.910855712890625,4.403270721435547,-2.7387471199035645,1.0190998315811157
1772534913230872600,5.92087255859375,4.1120171546936035,-2.45672607421875,1.1549479961395264
1772534913240889600,5.9308896484375,3.453747272491455,-1.7250239849090576,1.0915093421936035
1772534913250905600,5.940905517578125,2.545238494873047,-0.7583385705947876,0.7857414484024048
1772534913260922600,5.950922607421875,1.5748016834259033,0.26904451847076416,0.2810108959674835
1772534913270939600,5.960939697265625,0.721098780632019,1.0924906730651855,-0.29643937945365906
1772534913280955600,5.97095556640625,0.017553959041833878,1.6067010164260864,-0.8209103345870972
1772534913290972700,5.98097265625,-0.5234326124191284,1.846936821937561,-1.194052815437317
1772534913300989700,5.99098974609375,-0.8781099915504456,1.8379446268081665,-1.3098819255828857
1772534913311005700,6.001005615234375,-1.0911426544189453,1.571159839630127,-1.1748119592666626
1772534913321022500,6.0110224609375,-1.2264058589935303,1.179794192314148,-0.8867061138153076
1772534913331039700,6.021039794921875,-1.326065182685852,0.8545021414756775,-0.551201343536377
1772534913341055700,6.0310556640625,-1.3634713888168335,0.7310491800308228,-0.3096199035644531
1772534913351072500,6.041072509765625,-1.3387798070907593,0.733879566192627,-0.2941056489944458
1772534913361088500,6.051088623046875,-1.2600430250167847,0.7801796793937683,-0.4574171006679535
1772534913371105800,6.061105712890625,-1.1665244102478027,0.7852151989936829,-0.6834656596183777
1772534913381122600,6.07112255859375,-1.1121618747711182,0.6638836860656738,-0.8633869886398315
1772534913391138600,6.081138671875,-1.094169020652771,0.4500585198402405,-0.9697259068489075
1772534913401155600,6.091155517578125,-1.1023460626602173,0.22170975804328918,-1.0043278932571411
1772534913411172600,6.101172607421875,-1.127334475517273,0.017827466130256653,-0.9935705065727234
1772534913421188600,6.111188720703125,-1.163116693496704,-0.10791102051734924,-0.9516733884811401
1772534913431205600,6.12120556640625,-1.1786980628967285,-0.1629529595375061,-0.8902044892311096
1772534913441222700,6.13122265625,-1.1618505716323853,-0.20274965465068817,-0.8326700925827026
1772534913451238700,6.14123876953125,-1.117863416671753,-0.12982749938964844,-0.7671730518341064
1772534913461255400,6.15125537109375,-1.0464353561401367,0.02919197455048561,-0.6909850835800171
1772534913471272700,6.161272705078125,-0.9843109846115112,0.1660749912261963,-0.5925458669662476
1772534913481288700,6.171288818359375,-0.9416071772575378,0.2051243931055069,-0.49550801515579224
1772534913491305500,6.181305419921875,-0.8836957216262817,0.1956150382757187,-0.4100804626941681
1772534913501322500,6.191322509765625,-0.8599328398704529,0.24090608954429626,-0.35334980487823486
1772534913511338800,6.2013388671875,-0.8644288182258606,0.3716004490852356,-0.31273314356803894
1772534913521355500,6.21135546875,-0.8391330242156982,0.46213701367378235,-0.3090265393257141
1772534913531372500,6.22137255859375,-0.7145865559577942,0.5389534831047058,-0.3069263696670532
1772534913541388500,6.231388427734375,-0.5077431201934814,0.51404869556427,-0.2546895444393158
1772534913551405600,6.241405517578125,-0.20843788981437683,0.37573981285095215,-0.1930520087480545
1772534913561422600,6.251422607421875,0.17521069943904877,0.2453431785106659,-0.20579683780670166
1772534913571438600,6.2614384765625,0.5708126425743103,0.3677777647972107,-0.28552496433258057
1772534913581455600,6.27145556640625,0.8661494851112366,0.7356007695198059,-0.14362934231758118
1772534913591471600,6.2814716796875,0.9098431468009949,1.009000301361084,0.27687978744506836
1772534913601488600,6.291488525390625,0.8117458820343018,0.9790450930595398,0.8037755489349365
1772534913611505400,6.30150537109375,0.7021847367286682,0.5764806270599365,1.0873303413391113
1772534913621521700,6.311521728515625,0.526692807674408,-0.318560928106308,0.7677552700042725
1772534913631538700,6.32153857421875,0.4529501795768738,-1.1695399284362793,0.06828664243221283
1772534913641555500,6.331555419921875,0.642341136932373,-1.9072872400283813,-0.44949206709861755
1772534913651571500,6.341571533203125,0.8229372501373291,-2.6889636516571045,-0.4491969645023346
1772534913661588700,6.351588623046875,0.8653206825256348,-2.9936113357543945,-0.04670731723308563
1772534913671605500,6.36160546875,0.8221753239631653,-2.5809457302093506,0.35463985800743103
1772534913681621500,6.37162158203125,0.8146567344665527,-2.0606024265289307,0.4923255443572998
1772534913691638800,6.381638671875,0.9342542290687561,-1.6630340814590454,0.6351767182350159
1772534913701655600,6.391655517578125,1.0459991693496704,-1.4443200826644897,0.5787251591682434
1772534913711671600,6.401671630859375,1.0759745836257935,-1.489193320274353,0.5428441166877747
1772534913721688600,6.4116884765625,0.9609241485595703,-1.6686503887176514,0.5559127926826477
1772534913731705600,6.42170556640625,0.6192033290863037,-1.7241607904434204,0.5112321376800537
1772534913741721600,6.4317216796875,0.15828923881053925,-1.5233182907104492,0.44081413745880127
1772534913751738600,6.441738525390625,-0.2527899146080017,-1.1281275749206543,0.4421984553337097
1772534913761755600,6.451755615234375,-0.5629485845565796,-0.6886545419692993,0.6007207036018372
1772534913771771600,6.461771728515625,-0.81232750415802,-0.25861451029777527,0.9061253666877747
1772534913781788700,6.47178857421875,-1.0272440910339355,0.2103433907032013,1.2315868139266968
1772534913791804700,6.4818046875,-1.2264301776885986,0.7015804648399353,1.5132701396942139
1772534913801821700,6.49182177734375,-1.3454452753067017,1.0794929265975952,1.6965670585632324
1772534913811838700,6.501838623046875,-1.3287913799285889,1.384294867515564,1.7139995098114014
1772534913821854500,6.5118544921875,-1.1514102220535278,1.5294039249420166,1.5548514127731323
1772534913831871500,6.52187158203125,-0.8670032620429993,1.444055199623108,1.23710036277771
1772534913841888800,6.531888671875,-0.546717643737793,1.1641854047775269,0.7967866063117981
1772534913851904500,6.541904541015625,-0.2792268395423889,0.8651283979415894,0.2661376893520355
1772534913861921500,6.551921630859375,-0.15024089813232422,0.5926534533500671,-0.19850189983844757
1772534913871938800,6.561938720703125,0.10045017302036285,0.4328116178512573,-0.6102412343025208
1772534913881954600,6.57195458984375,0.2340412586927414,0.18460074067115784,-0.8242073655128479
1772534913891971600,6.5819716796875,0.24988466501235962,0.11907046288251877,-0.8001869320869446
1772534913901988600,6.591988525390625,0.2480795830488205,0.13184325397014618,-0.6962235569953918
1772534913912004600,6.602004638671875,0.18545827269554138,0.25444772839546204,-0.5589346289634705
1772534913922021600,6.612021728515625,0.04321538284420967,0.48302578926086426,-0.44556334614753723
1772534913932038700,6.62203857421875,-0.15316691994667053,0.7278067469596863,-0.388570636510849
1772534913942054400,6.632054443359375,-0.36447569727897644,0.8456034660339355,-0.4086056053638458
1772534913952071700,6.64207177734375,-0.5552501678466797,0.8058840036392212,-0.4732075035572052
1772534913962089500,6.65208935546875,-0.6931249499320984,0.6507617831230164,-0.5773594975471497
1772534913972105500,6.66210546875,-0.7676694989204407,0.43687665462493896,-0.7083228230476379
1772534913982122800,6.672122802734375,-0.8089165091514587,0.24958506226539612,-0.8596814274787903
1772534913992138800,6.682138671875,-0.8621182441711426,0.19505152106285095,-1.0160937309265137
1772534914002155500,6.692155517578125,-0.8994898200035095,0.3038485646247864,-1.1510331630706787
1772534914012172800,6.7021728515625,-0.8834258913993835,0.42863762378692627,-1.225587010383606
1772534914022188500,6.7121884765625,-0.7874208092689514,0.4745931327342987,-1.2047557830810547
1772534914032205600,6.72220556640625,-0.6541037559509277,0.45672494173049927,-1.0612741708755493
1772534914042222600,6.73222265625,-0.5193153619766235,0.33411458134651184,-0.7843424677848816
1772534914052238600,6.742238525390625,-0.4108178913593292,0.11743342131376266,-0.411990225315094
1772534914062255600,6.752255615234375,-0.2847270667552948,-0.10337752103805542,-0.090110182762146
1772534914072272600,6.762272705078125,-0.14920492470264435,-0.1715933233499527,0.07668785005807877
1772534914082288400,6.772288330078125,-0.03821689262986183,-0.06781979650259018,0.08193667978048325
1772534914092305700,6.7823056640625,0.03166418522596359,0.04321351647377014,0.013728062622249126
1772534914102322700,6.79232275390625,0.10205952078104019,0.02731737494468689,-0.03760223463177681
1772534914112338400,6.80233837890625,0.23652039468288422,-0.12752068042755127,-0.0494714118540287
1772534914122355700,6.812355712890625,0.44378089904785156,-0.1268562227487564,0.005234443116933107
1772534914132372700,6.822372802734375,0.6686358451843262,0.1047557070851326,0.21293969452381134
1772534914142388500,6.832388427734375,0.7148041725158691,0.5275871157646179,0.6685945987701416
1772534914152405500,6.842405517578125,0.6903347373008728,0.72356778383255,1.2706907987594604
1772534914162422800,6.8524228515625,0.7503413558006287,0.03617451712489128,1.5853047370910645
1772534914172438500,6.8624384765625,0.6696332097053528,-0.910207211971283,1.1529649496078491
1772534914182455600,6.87245556640625,0.5479821562767029,-1.2501232624053955,0.410275936126709
1772534914192471600,6.882471435546875,0.49635249376296997,-1.1022168397903442,-0.05800844356417656
1772534914202488600,6.892488525390625,0.22945129871368408,-0.790812611579895,-0.2868887484073639
1772534914212505600,6.902505615234375,-0.19506803154945374,-0.15690386295318604,-0.23341062664985657
1772534914222521600,6.912521484375,-0.42561307549476624,0.6768173575401306,-0.036076512187719345
1772534914232538600,6.92253857421875,-0.327559232711792,1.2519354820251465,0.017896708101034164
1772534914242555600,6.9325556640625,-0.06226976588368416,1.5518654584884644,-0.11650663614273071
1772534914252571600,6.942571533203125,0.3089123070240021,1.6015888452529907,-0.24698421359062195
1772534914262588400,6.95258837890625,0.7383792400360107,1.2400317192077637,-0.2317192405462265
1772534914272605700,6.962605712890625,1.0729782581329346,0.5814151763916016,-0.003022954100742936
1772534914282621700,6.97262158203125,1.2574472427368164,-0.10187496244907379,0.26713475584983826
1772534914292638500,6.982638427734375,1.334072232246399,-0.5898411870002747,0.38494741916656494
1772534914302655700,6.99265576171875,1.3167006969451904,-0.7752485871315002,0.34022894501686096
1772534914312671700,7.002671630859375,1.15819251537323,-0.7129367589950562,0.24746838212013245
1772534914322688500,7.0126884765625,0.9142078161239624,-0.5429370403289795,0.19719189405441284
1772534914332705500,7.02270556640625,0.6319345831871033,-0.32918134331703186,0.20515182614326477
1772534914342721800,7.0327216796875,0.33947980403900146,-0.06095150113105774,0.26908260583877563
1772534914352738600,7.042738525390625,0.09245456755161285,0.17592735588550568,0.32047921419143677
1772534914362754600,7.052754638671875,-0.0987931564450264,0.3209175765514374,0.3254220485687256
1772534914372771600,7.062771484375,-0.21668224036693573,0.42502346634864807,0.31824934482574463
1772534914382788600,7.07278857421875,-0.3410119116306305,0.33165836334228516,0.2292180061340332
1772534914392804600,7.0828046875,-0.498590886592865,0.2407817244529724,0.08932667970657349
1772534914402821600,7.092821533203125,-0.6176501512527466,0.17915670573711395,-0.06844750046730042
1772534914412838700,7.102838623046875,-0.6649265885353088,0.12847088277339935,-0.23248091340065002
1772534914422854700,7.112854736328125,-0.6816536784172058,0.07642792910337448,-0.408777117729187
1772534914432871700,7.12287158203125,-0.663347601890564,0.08250392973423004,-0.5864166021347046
1772534914442888400,7.132888427734375,-0.5830330848693848,0.15058179199695587,-0.7408275008201599
1772534914452904700,7.14290478515625,-0.427834689617157,0.20802350342273712,-0.8413503766059875
1772534914462921700,7.152921630859375,-0.26655444502830505,0.21514134109020233,-0.8560347557067871
1772534914472938500,7.1629384765625,-0.10711792856454849,0.1350497007369995,-0.7889752984046936
1772534914482954500,7.17295458984375,0.07023634761571884,-0.07608278095722198,-0.6761749982833862
1772534914492971800,7.1829716796875,0.25523149967193604,-0.34896785020828247,-0.5309155583381653
1772534914502988500,7.192988525390625,0.4399417042732239,-0.6018815636634827,-0.3876739740371704
1772534914513004500,7.203004638671875,0.5961698889732361,-0.849605917930603,-0.27004745602607727
1772534914523021800,7.213021728515625,0.6695573329925537,-1.0408663749694824,-0.2350095808506012
1772534914533037600,7.22303759765625,0.6664291620254517,-1.120218276977539,-0.27909794449806213
1772534914543054600,7.2330546875,0.6033055782318115,-1.023700475692749,-0.39195606112480164
1772534914553071600,7.243071533203125,0.5180972218513489,-0.734471321105957,-0.5334218144416809
1772534914563087600,7.253087646484375,0.428312212228775,-0.41737860441207886,-0.6386837959289551
1772534914573104600,7.263104736328125,0.3263389766216278,-0.20317281782627106,-0.6518741846084595
1772534914583121700,7.27312158203125,0.19883373379707336,-0.07161080092191696,-0.5571082830429077
1772534914593137400,7.283137451171875,0.05234736204147339,-0.019602995365858078,-0.3552829921245575
1772534914603154700,7.29315478515625,-0.08950724452733994,0.041240379214286804,-0.095545694231987
1772534914613171500,7.30317138671875,-0.2345443218946457,0.13574478030204773,0.11784114688634872
1772534914623187500,7.3131875,-0.37977927923202515,0.24018970131874084,0.21984714269638062
1772534914633204700,7.323204833984375,-0.47921666502952576,0.24698209762573242,0.18974916636943817
1772534914643221500,7.333221435546875,-0.4720120131969452,0.15244759619235992,0.06288895010948181
1772534914653237500,7.343237548828125,-0.36274197697639465,0.04824769124388695,-0.10340414941310883
1772534914663254500,7.353254638671875,-0.21335116028785706,-0.12614434957504272,-0.2486116737127304
1772534914673271600,7.363271484375,-0.0644727349281311,-0.2895979881286621,-0.2940707802772522
1772534914683287600,7.37328759765625,0.019422966986894608,-0.37762051820755005,-0.1540449559688568
1772534914693304600,7.3833046875,-0.08126183599233627,-0.34656620025634766,0.22096993029117584
1772534914703320600,7.393320556640625,-0.3237421214580536,-0.4750205874443054,0.7573255300521851
1772534914713337600,7.403337646484375,-0.5910894274711609,-1.3265423774719238,1.0800273418426514
1772534914723354600,7.413354736328125,-0.9403315186500549,-2.2550466060638428,0.9155990481376648
1772534914733370600,7.42337060546875,-1.3760462999343872,-2.3335158824920654,0.42431533336639404
1772534914743387600,7.4333876953125,-1.7856178283691406,-1.809452772140503,-0.15677949786186218
1772534914753404700,7.44340478515625,-2.2312426567077637,-0.9313662648200989,-0.5589093565940857
1772534914763420700,7.453420654296875,-2.7112221717834473,0.15691158175468445,-0.6409943699836731
1772534914773437400,7.4634375,-3.089338541030884,1.1281776428222656,-0.5324809551239014
1772534914783454700,7.473454833984375,-3.349891185760498,1.6506088972091675,-0.46529683470726013
1772534914793470700,7.483470703125,-3.4011902809143066,1.671425700187683,-0.5074514746665955
1772534914803487500,7.493487548828125,-3.168694496154785,1.1124569177627563,-0.6901581883430481
1772534914813504800,7.5035048828125,-2.6611404418945312,0.15709614753723145,-1.0177754163742065
1772534914823520800,7.513520751953125,-1.9424759149551392,-0.8802444934844971,-1.3147096633911133
1772534914833537500,7.52353759765625,-1.0779786109924316,-1.6881186962127686,-1.3650774955749512
1772534914843553500,7.533553466796875,-0.18506892025470734,-2.4400134086608887,-1.2647349834442139
1772534914853570800,7.54357080078125,0.5295719504356384,-3.0971455574035645,-1.140262246131897
1772534914863587600,7.553587646484375,0.6522230505943298,-3.1962008476257324,-0.8169238567352295
1772534914873603600,7.563603515625,0.6031053066253662,-3.2998642921447754,-0.5677513480186462
1772534914883620600,7.57362060546875,0.4740264117717743,-3.1392524242401123,-0.47748905420303345
1772534914893637600,7.5836376953125,0.28660300374031067,-2.7906394004821777,-0.48886528611183167
1772534914903653600,7.593653564453125,0.07193517684936523,-2.2991461753845215,-0.5369393229484558
1772534914913670700,7.603670654296875,-0.1375589221715927,-1.6103874444961548,-0.5721287727355957
1772534914923687700,7.613687744140625,-0.23199808597564697,-0.505238950252533,-0.4321309030056
1772534914933703700,7.62370361328125,-0.24491015076637268,0.17682456970214844,-0.23189634084701538
1772534914943720700,7.633720703125,-0.24006213247776031,0.7131425738334656,-0.09790552407503128
1772534914953737500,7.643737548828125,-0.2105093002319336,0.9406594038009644,-0.04982268437743187
1772534914963752700,7.653752685546875,-0.13881513476371765,0.8494724631309509,-0.025774339213967323
1772534914973769700,7.663769775390625,-0.08358171582221985,0.6365314722061157,-0.017837852239608765
1772534914983786800,7.673786865234375,-0.07707800716161728,0.5022295713424683,0.005025651305913925
1772534914993802800,7.683802734375,-0.09565462172031403,0.5827073454856873,0.05631760135293007
1772534915003819800,7.69381982421875,-0.11241389065980911,0.9195040464401245,0.14592498540878296
1772534915013835800,7.703835693359375,-0.13828757405281067,1.4222861528396606,0.26895663142204285
1772534915023852800,7.713852783203125,-0.17264527082443237,1.9317853450775146,0.40869003534317017
1772534915033869800,7.723869873046875,-0.20593318343162537,2.2691144943237305,0.555891752243042
1772534915043885800,7.7338857421875,-0.21485398709774017,2.1861624717712402,0.6821625828742981
1772534915053902600,7.743902587890625,-0.20952872931957245,1.801517367362976,0.7754360437393188
1772534915063919900,7.753919921875,-0.2435348927974701,1.4477404356002808,0.8319323658943176
1772534915073936000,7.763935791015625,-0.3449174463748932,1.2176172733306885,0.8527354001998901
1772534915083952600,7.77395263671875,-0.4968886077404022,1.1279120445251465,0.854401707649231
1772534915093970000,7.783969970703125,-0.6360803246498108,1.0994831323623657,0.8273962140083313
1772534915103985700,7.793985595703125,-0.6633409857749939,1.1446229219436646,0.780121386051178
1772534915114002700,7.804002685546875,-0.6521351933479309,1.184354543685913,0.7482342720031738
1772534915124019700,7.814019775390625,-0.6588660478591919,1.2264477014541626,0.7587361931800842
1772534915134035700,7.82403564453125,-0.62240070104599,1.2589696645736694,0.7561537027359009
1772534915144052700,7.834052734375,-0.4858170449733734,1.2965344190597534,0.6712779998779297
1772534915154069800,7.84406982421875,-0.2698695659637451,1.3330096006393433,0.5674333572387695
1772534915164085500,7.85408544921875,-0.08872214704751968,1.6654056310653687,0.39619022607803345
1772534915174102800,7.864102783203125,0.06690339744091034,1.8089979887008667,0.1912360042333603
1772534915184118800,7.874118896484375,0.14410418272018433,1.5196197032928467,0.009140501730144024
1772534915194135600,7.884135498046875,0.1735435575246811,1.1269663572311401,-0.09751377254724503
1772534915204152800,7.89415283203125,0.2015855759382248,0.7217217087745667,-0.06482533365488052
1772534915214168800,7.9041689453125,0.213523730635643,0.29712969064712524,0.19405309855937958
1772534915224185600,7.914185546875,0.13489097356796265,-0.035785429179668427,0.7018364071846008
1772534915234202600,7.92420263671875,-0.07867324352264404,-0.020419787615537643,1.3900954723358154
1772534915244219000,7.934218994140625,-0.36512550711631775,0.17077679932117462,2.062504291534424
1772534915254235600,7.944235595703125,-0.48947808146476746,0.27763694524765015,2.4868500232696533
1772534915264252700,7.954252685546875,-0.5992557406425476,0.1000395119190216,2.541200876235962
1772534915274268700,7.9642685546875,-0.8951190710067749,-0.5872278213500977,2.1331679821014404
1772534915284285700,7.97428564453125,-1.1676304340362549,-0.7938965559005737,1.6242669820785522
1772534915294301700,7.9843017578125,-1.3246738910675049,-0.49541348218917847,1.1654472351074219
1772534915304318700,7.994318603515625,-1.4583076238632202,-0.2752470076084137,0.7002187967300415
1772534915314335700,8.004335693359375,-1.6800575256347656,-0.03483548015356064,0.22906939685344696
1772534915324351700,8.014351806640626,-1.7875314950942993,0.1685570627450943,-0.0845756009221077
1772534915334368800,8.02436865234375,-1.9044538736343384,0.4093771278858185,-0.2541441321372986
1772534915344385500,8.034385498046875,-1.8606430292129517,0.5562070608139038,-0.47015365958213806
1772534915354401800,8.04440185546875,-1.3842171430587769,0.20728448033332825,-0.843931257724762
1772534915364418800,8.054418701171874,-0.5681915283203125,-0.4451122283935547,-1.3055849075317383
1772534915374435600,8.064435546875,0.1191418394446373,-1.495173454284668,-1.6176040172576904
1772534915384451600,8.07445166015625,0.41543102264404297,-2.87693452835083,-1.5539497137069702
1772534915394468900,8.08446875,0.5426909923553467,-3.9985592365264893,-1.2574962377548218
1772534915404485600,8.094485595703125,0.7092016339302063,-3.8701112270355225,-1.183000087738037
1772534915414501600,8.104501708984374,0.9138283133506775,-2.644510269165039,-1.4449456930160522
1772534915424519000,8.114518798828126,1.0297040939331055,-2.2171497344970703,-1.5960907936096191
1772534915434535700,8.12453564453125,0.9211863279342651,-1.8059558868408203,-1.594628095626831
1772534915444551700,8.1345517578125,0.799769401550293,-1.0131703615188599,-1.4952435493469238
1772534915454568700,8.144568603515625,0.6475555896759033,-0.22342723608016968,-1.2741191387176514
1772534915464584700,8.154584716796874,0.5164665579795837,0.4332970976829529,-1.0412731170654297
1772534915474601700,8.164601806640626,0.472551554441452,0.7545270323753357,-0.8742489218711853
1772534915484618800,8.17461865234375,0.5821105241775513,0.7046263217926025,-0.7269745469093323
1772534915494634800,8.184634765625,0.7473729848861694,0.7048410177230835,-0.5444121956825256
1772534915504651800,8.19465185546875,0.8672810196876526,0.8225380778312683,-0.32950225472450256
1772534915514668800,8.204668701171874,0.934634268283844,0.9455236196517944,-0.08769416809082031
1772534915524684500,8.2146845703125,0.9674646258354187,1.0492721796035767,0.13888971507549286
1772534915534701800,8.224701904296875,0.9066463112831116,1.1140801906585693,0.23564395308494568
1772534915544718800,8.23471875,0.852294385433197,1.0763053894042969,0.26969194412231445
1772534915554734600,8.244734619140624,0.8844466805458069,1.0011587142944336,0.3289307653903961
1772534915564751600,8.254751708984376,0.9983860850334167,1.0850155353546143,0.44905024766921997
1772534915574767900,8.264767822265625,1.1190285682678223,1.5121015310287476,0.5913980603218079
1772534915584784600,8.27478466796875,1.1486629247665405,2.2615199089050293,0.6779830455780029
1772534915594801700,8.2848017578125,1.1021324396133423,3.0363309383392334,0.6841692924499512
1772534915604817700,8.294817626953124,1.034017562866211,3.605966091156006,0.5937951803207397
1772534915614834700,8.304834716796876,1.003964900970459,3.884373188018799,0.4152344763278961
1772534915624851700,8.314851806640625,1.0054751634597778,3.9232051372528076,0.1785212755203247
1772534915634867700,8.32486767578125,0.995604932308197,3.6815874576568604,-0.01805117167532444
1772534915644884700,8.334884765625,0.9592791199684143,3.157040596008301,-0.09436725080013275
1772534915654901800,8.34490185546875,0.8779028058052063,2.5730743408203125,-0.02363795042037964
1772534915664917800,8.354917724609376,0.7278727889060974,2.2392568588256836,0.08623954653739929
1772534915674934500,8.3649345703125,0.5480583310127258,2.0672872066497803,0.19989846646785736
1772534915684951800,8.374951904296875,0.4168001413345337,1.8601248264312744,0.2979784309864044
1772534915694967800,8.3849677734375,0.3070653975009918,1.4027659893035889,0.34665223956108093
1772534915704984600,8.394984619140626,0.1625012904405594,0.676257312297821,0.3613073229789734
1772534915715000600,8.40500048828125,-0.009633452631533146,-0.04330406337976456,0.3404523730278015
1772534915725017900,8.415017822265625,-0.1002589613199234,-0.6186544299125671,0.34499308466911316
1772534915735034600,8.42503466796875,-0.07382895052433014,-1.3728445768356323,0.41323816776275635
1772534915745050600,8.435050537109374,0.08085010945796967,-1.868695855140686,0.5690439939498901
1772534915755068000,8.44506787109375,0.2936140298843384,-2.10404109954834,0.862614631652832
1772534915765084700,8.455084716796875,0.4786217212677002,-1.9513682126998901,1.2237517833709717
1772534915775100700,8.4651005859375,0.6795598864555359,-1.2700399160385132,1.497251272201538
1772534915785117700,8.47511767578125,0.6975700259208679,-0.4022369384765625,1.6867245435714722
1772534915795134700,8.485134765625,0.6183095574378967,0.797311007976532,1.7751507759094238
1772534915805150700,8.495150634765626,0.4882974922657013,1.6863112449645996,1.6112390756607056
1772534915815167700,8.505167724609375,0.2670053243637085,1.8692759275436401,1.104706883430481
1772534915825184800,8.515184814453125,-0.0004183826094958931,1.7211158275604248,0.41166985034942627
1772534915835200800,8.52520068359375,-0.1890024095773697,1.3412480354309082,-0.23943442106246948
1772534915845217800,8.5352177734375,-0.5979760885238647,0.33072254061698914,-0.7486755847930908
1772534915855233800,8.54523388671875,-1.3007869720458984,-1.0663230419158936,-1.089611530303955
1772534915865250800,8.555250732421875,-2.036576271057129,-2.4666616916656494,-1.3878734111785889
1772534915875267800,8.565267822265625,-2.47904896736145,-3.2210774421691895,-1.8503408432006836
1772534915885283600,8.57528369140625,-2.337838649749756,-3.591282606124878,-2.368328332901001
1772534915895300600,8.585300537109376,-1.67073655128479,-3.379387378692627,-2.676283597946167
1772534915905318000,8.59531787109375,-0.8017129302024841,-2.6336610317230225,-2.624603748321533
1772534915915333600,8.605333740234375,0.039266977459192276,-1.6624934673309326,-2.199878454208374
1772534915925350700,8.6153505859375,0.7374972105026245,-0.6324443221092224,-1.5286539793014526
1772534915935368000,8.625367919921874,1.165226697921753,0.07048854976892471,-0.8258385062217712
1772534915945383700,8.6353837890625,1.2751593589782715,0.3297331631183624,-0.21455144882202148
1772534915955400700,8.645400634765625,1.1147770881652832,0.18858535587787628,0.2449628859758377
1772534915965418000,8.65541796875,0.7245861887931824,-0.22501979768276215,0.495862752199173
1772534915975434000,8.66543408203125,0.2700280249118805,-0.7602353096008301,0.5548251271247864
1772534915985451000,8.675450927734374,-0.07173410803079605,-1.1796858310699463,0.4602794647216797
1772534915995467300,8.68546728515625,-0.2665480673313141,-1.384530782699585,0.2463141679763794
1772534916005484000,8.695484130859375,-0.33317768573760986,-1.4608790874481201,-0.0462801456451416
1772534916015501000,8.7055009765625,-0.32553043961524963,-1.4637622833251953,-0.3929576575756073
1772534916025517000,8.71551708984375,-0.27896079421043396,-1.4024810791015625,-0.75889652967453
1772534916035534000,8.7255341796875,-0.1919662356376648,-1.2624739408493042,-1.1032229661941528
1772534916045551000,8.735551025390626,-0.07005951553583145,-1.0526868104934692,-1.377346396446228
1772534916055567000,8.745567138671875,0.03861929848790169,-0.8298345804214478,-1.5600014925003052
1772534916065584000,8.755584228515625,0.12101803719997406,-0.6154352426528931,-1.6266933679580688
1772534916075601200,8.76560107421875,0.15867432951927185,-0.459402471780777,-1.587393879890442
1772534916085617200,8.7756171875,0.12563195824623108,-0.3594801425933838,-1.4867695569992065
1772534916095634000,8.785634033203126,0.020169716328382492,-0.32981279492378235,-1.355599045753479
1772534916105650200,8.795650146484375,-0.1228920966386795,-0.3064712584018707,-1.1860384941101074
1772534916115667200,8.805667236328125,-0.26129472255706787,-0.2449658066034317,-0.9437342882156372
1772534916125684000,8.81568408203125,-0.40148645639419556,-0.08569546043872833,-0.6367213129997253
1772534916135700000,8.825699951171876,-0.5276970863342285,0.08326666057109833,-0.27960315346717834
1772534916145717200,8.83571728515625,-0.6400782465934753,0.2046588659286499,0.08768484741449356
1772534916155734000,8.845734130859375,-0.7555909752845764,0.21601751446723938,0.41182562708854675
1772534916165750000,8.85575,-0.8739839196205139,0.08146902918815613,0.6595768332481384
1772534916175767300,8.865767333984374,-0.9749651551246643,-0.09820859134197235,0.8379237055778503
1772534916185784000,8.8757841796875,-1.1285139322280884,-0.21397407352924347,0.937924861907959
1772534916195800000,8.885800048828125,-1.3309943675994873,-0.16525313258171082,0.8978146910667419
1772534916205817000,8.895817138671875,-1.4080007076263428,0.21784071624279022,0.7252549529075623
1772534916215833000,8.9058330078125,-1.2597377300262451,0.6103182435035706,0.5262712240219116
1772534916225850000,8.91585009765625,-0.9054327011108398,0.91834956407547,0.34683650732040405
1772534916235867100,8.9258671875,-0.528775691986084,1.4581304788589478,0.2614547610282898
1772534916245883000,8.9358828125,-0.29053995013237,2.0277698040008545,0.3031628131866455
1772534916255900200,8.945900146484375,-0.1967596709728241,2.0796873569488525,0.3688211739063263
1772534916265917200,8.955917236328125,-0.2190745621919632,1.5773751735687256,0.4517163336277008
1772534916275933000,8.965932861328126,-0.26651477813720703,0.9471076726913452,0.6145702004432678
1772534916285950200,8.9759501953125,-0.28716573119163513,0.4876767098903656,0.785956621170044
1772534916295967000,8.985967041015625,-0.20544983446598053,0.3195503056049347,0.929709255695343
1772534916305983000,8.99598291015625,-0.09029394388198853,0.3118857145309448,1.0042301416397095
1772534916316000000,9.006,-0.0418718159198761,0.35642150044441223,0.9597933888435364
1772534916326016300,9.016016357421876,-0.004709267523139715,0.4735065698623657,0.8714882731437683
1772534916336033000,9.026032958984375,0.15799549221992493,0.5946753621101379,0.8476636409759521
1772534916346050000,9.036050048828125,0.47857165336608887,0.49788621068000793,0.9165037274360657
1772534916356066000,9.046066162109375,0.7858490347862244,0.043352268636226654,1.0462605953216553
1772534916366083000,9.0560830078125,0.886370062828064,-0.562095582485199,1.1589899063110352
1772534916376100000,9.06610009765625,0.6389208436012268,-0.9735299944877625,1.1608405113220215
1772534916386116000,9.0761162109375,0.16285070776939392,-1.073533058166504,0.9615569114685059
1772534916396133000,9.086133056640625,-0.3316218852996826,-1.0598728656768799,0.5747429132461548
1772534916406150100,9.096150146484375,-0.7095340490341187,-0.9701924920082092,0.09204550087451935
1772534916416166100,9.106166259765626,-0.8707508444786072,-0.7415010333061218,-0.3477894067764282
1772534916426183000,9.116182861328125,-0.8388800024986267,-0.542298436164856,-0.6778793931007385
1772534916436200200,9.1262001953125,-0.7012388110160828,-0.5073950290679932,-0.8824695944786072
1772534916446216200,9.13621630859375,-0.5087726712226868,-0.6082667708396912,-0.9508720636367798
1772534916456233000,9.14623291015625,-0.2755815088748932,-0.6954647898674011,-0.921037495136261
1772534916466249000,9.1562490234375,-0.043352533131837845,-0.7982372641563416,-0.8407599329948425
1772534916476266200,9.166266357421875,0.1489412784576416,-0.8630287647247314,-0.6955311298370361
1772534916486283000,9.176282958984375,0.2730824053287506,-0.8285728096961975,-0.5178356766700745
1772534916496299000,9.186299072265625,0.3301941454410553,-0.7896224856376648,-0.3565879464149475
1772534916506316300,9.19631640625,0.2871643900871277,-0.7728418707847595,-0.21568915247917175
1772534916516333000,9.2063330078125,0.16647019982337952,-0.6951937079429626,-0.10137508809566498
1772534916526349000,9.21634912109375,0.05511545017361641,-0.5335230231285095,-0.015294001437723637
1772534916536366000,9.226365966796875,0.0011864382540807128,-0.3228004276752472,0.05264616757631302
1772534916546383000,9.236383056640625,0.008016381412744522,-0.10636984556913376,0.10756800323724747
1772534916556399000,9.246399169921874,0.04791639372706413,0.10336127877235413,0.14827682077884674
1772534916566416100,9.256416015625,0.08813305199146271,0.27996987104415894,0.18002063035964966
1772534916576431900,9.266431884765625,0.1193506270647049,0.43910545110702515,0.20543943345546722
1772534916586449200,9.27644921875,0.16482757031917572,0.6057279706001282,0.22471140325069427
1772534916596466200,9.286466064453125,0.21375755965709686,0.7742533683776855,0.2225198894739151
1772534916606482000,9.29648193359375,0.2192697674036026,0.8796402215957642,0.09040925651788712
1772534916616499200,9.306499267578126,0.3284708261489868,0.9774776101112366,0.023318372666835785
1772534916626516200,9.31651611328125,0.5289570689201355,1.1318902969360352,0.025723738595843315
1772534916637158100,9.327158203125,0.7785692811012268,1.3127222061157227,0.07380738109350204
1772534916647175200,9.337175048828126,1.0303107500076294,1.438620686531067,0.15034103393554688
1772534916657192000,9.34719189453125,1.2474344968795776,1.465419054031372,0.23650547862052917
1772534916667208000,9.3572080078125,1.3968602418899536,1.4059584140777588,0.3180975317955017
1772534916677225200,9.36722509765625,1.3741545677185059,1.2547563314437866,0.382966011762619
1772534916687241000,9.377240966796874,1.2245640754699707,1.0524293184280396,0.36247700452804565
1772534916697258000,9.387258056640626,1.0450571775436401,0.7240365147590637,0.2788068652153015
1772534916707275300,9.397275146484375,0.8988229632377625,0.32703590393066406,0.21194180846214294
1772534916717291000,9.407291015625,0.8296095728874207,0.07151306420564651,0.17597103118896484
1772534916727308000,9.41730810546875,0.8269085884094238,0.10703377425670624,0.16018114984035492
1772534916737325300,9.4273251953125,0.8553559184074402,0.37409237027168274,0.18794992566108704
1772534916747341000,9.437341064453125,0.860151469707489,0.7491623759269714,0.24451839923858643
1772534916757358000,9.447358154296875,0.8836346864700317,1.068535327911377,0.32897230982780457
1772534916767375000,9.457375,0.9119427800178528,1.314220666885376,0.4427071213722229
1772534916777390800,9.467390869140624,0.8471033573150635,1.4682220220565796,0.5384341478347778
1772534916787408100,9.477408203125,0.7729124426841736,1.3826050758361816,0.5656538009643555
1772534916797424000,9.487424072265625,0.7743332386016846,0.9880828261375427,0.5656002759933472
1772534916807441000,9.49744091796875,0.8312152028083801,0.4845605492591858,0.5058200359344482
1772534916817458200,9.507458251953125,0.9463239312171936,0.125152587890625,0.3515852093696594
1772534916827474200,9.51747412109375,1.106960415840149,-0.07496105879545212,0.28656306862831116
1772534916837491000,9.527490966796876,1.326664924621582,-0.16292446851730347,0.4642307758331299
1772534916847508200,9.53750830078125,1.5046758651733398,-0.3549186885356903,0.7652854323387146
1772534916857524200,9.547524169921875,1.4953089952468872,-1.014285922050476,1.1095541715621948
1772534916867541000,9.557541015625,1.2365357875823975,-2.020303249359131,1.4669580459594727
1772534916877558000,9.56755810546875,0.7168574333190918,-2.6260838508605957,1.7198089361190796
1772534916887574000,9.577573974609376,0.10152209550142288,-2.715306043624878,1.8025120496749878
1772534916897591000,9.587591064453125,-0.35425955057144165,-2.3759043216705322,1.7261738777160645
1772534916907607000,9.59760693359375,-0.5272963047027588,-1.7214851379394531,1.5244392156600952
1772534916917624000,9.6076240234375,-0.4625228941440582,-0.9790744185447693,1.3087079524993896
1772534916927641000,9.61764111328125,-0.32292798161506653,-0.3053300976753235,1.0685219764709473
1772534916937657000,9.627656982421875,-0.3037300705909729,0.24003896117210388,0.7546751499176025
1772534916947674000,9.637674072265625,-0.41139712929725647,0.5291698575019836,0.38555407524108887
1772534916957691000,9.64769091796875,-0.5416542291641235,0.33891814947128296,-0.05072043463587761
1772534916967707100,9.65770703125,-0.5861620306968689,-0.2135828584432602,-0.46606117486953735
1772534916977724200,9.66772412109375,-0.44176727533340454,-0.6189559102058411,-0.7565281391143799
1772534916987741200,9.6777412109375,-0.1646571308374405,-0.794625461101532,-0.9138980507850647
1772534916997757200,9.687757080078125,0.17621737718582153,-0.9325972199440002,-0.9609859585762024
1772534917007774200,9.697774169921875,0.5196724534034729,-1.088403582572937,-0.9272665977478027
1772534917017791000,9.707791015625,0.7654303312301636,-1.1450159549713135,-0.8931376934051514
1772534917027807000,9.717806884765626,0.8655819296836853,-1.1232917308807373,-0.9020224809646606
1772534917037824300,9.72782421875,0.8522541522979736,-1.088189721107483,-0.9144392013549805
1772534917047841000,9.737841064453125,0.7800912857055664,-1.0851646661758423,-0.90242600440979
1772534917057857000,9.74785693359375,0.6963364481925964,-1.0165581703186035,-0.8707900047302246
1772534917067874300,9.757874267578124,0.6120434403419495,-0.736339807510376,-0.7673786878585815
1772534917077891000,9.76789111328125,0.5299637317657471,-0.3459366261959076,-0.5519073605537415
1772534917087907000,9.777906982421875,0.496795117855072,0.05112843215465546,-0.2810359299182892
1772534917097924400,9.78792431640625,0.47720596194267273,0.4064314067363739,0.018198978155851364
1772534917107940000,9.797940185546874,0.38395699858665466,0.7059579491615295,0.3093312084674835
1772534917117957000,9.80795703125,0.19196943938732147,0.9280748963356018,0.5394951701164246
1772534917127974100,9.81797412109375,-0.018689798191189766,1.0100911855697632,0.6935292482376099
1772534917137990000,9.827989990234375,-0.18727189302444458,0.9326238036155701,0.7429159283638
1772534917148007200,9.838007080078125,-0.29213279485702515,0.7274277806282043,0.7038873434066772
1772534917158024200,9.848024169921874,-0.30330395698547363,0.48156318068504333,0.6037013530731201
1772534917168040000,9.8580400390625,-0.24166561663150787,0.3004208207130432,0.46510830521583557
1772534917178057200,9.86805712890625,-0.14381921291351318,0.242362841963768,0.26632437109947205
1772534917188074000,9.878073974609375,-0.07499808073043823,0.2502218186855316,0.01732412911951542
1772534917198090000,9.888090087890625,-0.07868282496929169,0.28769728541374207,-0.23960725963115692
1772534917208107300,9.898107177734374,-0.10821515321731567,0.450585275888443,-0.46750408411026
1772534917218123300,9.908123291015626,-0.1187940314412117,0.6867826581001282,-0.6290485262870789
1772534917228140000,9.91814013671875,-0.11727309972047806,0.9951716065406799,-0.6751132011413574
1772534917238157000,9.928156982421875,-0.07831531018018723,1.2603356838226318,-0.6297193765640259
1772534917248173000,9.938173095703124,-0.026881415396928787,1.3481451272964478,-0.6339870691299438
1772534917258190000,9.948190185546874,0.029461752623319626,1.2882131338119507,-0.6676600575447083
1772534917268207000,9.95820703125,0.05216839537024498,1.1706044673919678,-0.6719525456428528
1772534917278223000,9.96822314453125,-0.030059099197387695,1.0580472946166992,-0.6563272476196289
1772534917288240000,9.978240234375,-0.2285120040178299,0.879496157169342,-0.6721799969673157
1772534917298257200,9.988257080078125,-0.4698742926120758,0.5501227974891663,-0.7495405673980713
1772534917308273200,9.998273193359376,-0.6116183996200562,0.09668419510126114,-0.8611573576927185
1772534917318290200,10.008290283203126,-0.5397039651870728,-0.21584148705005646,-0.8813939094543457
1772534917328306200,10.01830615234375,-0.2955171465873718,-0.18863755464553833,-0.7768808603286743
1772534917338323200,10.0283232421875,-0.04029788821935654,0.05957331508398056,-0.6163300275802612
1772534917348340000,10.038340087890624,0.05904734134674072,0.3723940849304199,-0.5534115433692932
1772534917358356000,10.04835595703125,-0.05847129970788956,0.480729341506958,-0.5627514719963074
1772534917368373200,10.058373291015625,-0.34376776218414307,0.31179279088974,-0.5403894782066345
1772534917378390000,10.06839013671875,-0.6404492259025574,0.03806962072849274,-0.3518509864807129
1772534917388406000,10.078406005859375,-0.7772414088249207,-0.03633936494588852,0.09328866750001907
1772534917398423300,10.08842333984375,-0.8204535841941833,-0.05121897906064987,0.6857490539550781
1772534917408440000,10.098440185546876,-0.9576578140258789,-0.19787126779556274,1.294625997543335
1772534917418456000,10.1084560546875,-1.1881024837493896,-0.49064400792121887,1.8016077280044556
1772534917428473300,10.118473388671875,-1.355072259902954,-0.7313048243522644,2.1320993900299072
1772534917438489000,10.128489013671874,-1.3918092250823975,-0.755774199962616,2.2637226581573486
1772534917448506000,10.138506103515626,-1.3579010963439941,-0.6918727159500122,2.1685128211975098
1772534917458523100,10.148523193359376,-1.306952714920044,-0.6603672504425049,1.7963929176330566
1772534917468539000,10.158538818359375,-1.242095708847046,-0.7129489779472351,1.1793897151947021
1772534917478556200,10.16855615234375,-1.1309363842010498,-0.917071521282196,0.4272480010986328
1772534917488573200,10.1785732421875,-0.9725139737129211,-1.1055961847305298,-0.3493303060531616
1772534917498589000,10.1885888671875,-0.7209768295288086,-1.1935558319091797,-1.0442630052566528
1772534917508606200,10.198606201171875,-0.39847415685653687,-1.3264681100845337,-1.6480722427368164
1772534917518623200,10.208623291015625,-0.09543278068304062,-1.5860927104949951,-2.1351449489593506
1772534917528639000,10.218638916015625,0.12303058803081512,-1.8666449785232544,-2.445294141769409
1772534917538656000,10.228656005859374,0.21358364820480347,-2.125699520111084,-2.608823299407959
1772534917548672300,10.23867236328125,0.24422651529312134,-2.3667750358581543,-2.5187480449676514
1772534917558689000,10.24868896484375,0.1970992237329483,-2.021069049835205,-2.0838286876678467
1772534917568706000,10.2587060546875,0.17456887662410736,-1.2510452270507812,-1.3507694005966187
1772534917578722000,10.26872216796875,0.1551632136106491,-0.3539397120475769,-0.5613168478012085
1772534917588739000,10.278739013671874,0.16293512284755707,0.44413164258003235,0.0966128259897232
1772534917598756000,10.288756103515626,0.21620047092437744,0.9902370572090149,0.6047253012657166
1772534917608772000,10.298772216796875,0.3161907196044922,1.2967948913574219,0.9987735748291016
1772534917618789000,10.3087890625,0.4288962185382843,1.3889108896255493,1.2996807098388672
1772534917628806100,10.31880615234375,0.5281426310539246,1.3065236806869507,1.5016238689422607
1772534917638822100,10.328822265625,0.6110708117485046,1.121070146560669,1.6224086284637451
1772534917648839000,10.3388388671875,0.674395740032196,0.8734521269798279,1.6913000345230103
1772534917658855200,10.348855224609375,0.667591392993927,0.6503570079803467,1.7034251689910889
1772534917668872200,10.3588720703125,0.5439311861991882,0.5244467258453369,1.632563829421997
1772534917678889000,10.368888916015624,0.34976544976234436,0.46453118324279785,1.4914103746414185
1772534917688905000,10.378905029296876,0.16488029062747955,0.4540945291519165,1.284241795539856
1772534917698922200,10.388922119140625,0.04495096206665039,0.5036982893943787,1.032956838607788
1772534917708939000,10.39893896484375,0.03706321120262146,0.6144322752952576,0.7645717263221741
1772534917718955000,10.408955078125,0.1264261156320572,0.7689427733421326,0.5126736760139465
1772534917728972300,10.41897216796875,0.27826544642448425,0.956824779510498,0.2789227068424225
1772534917738988300,10.42898828125,0.474341481924057,1.166634440422058,0.05967451632022858
1772534917749005000,10.439005126953125,0.6895357966423035,1.36440110206604,-0.12793932855129242
1772534917759022000,10.44902197265625,0.8530603051185608,1.5321333408355713,-0.27617886662483215
1772534917769038000,10.4590380859375,0.9372052550315857,1.6324080228805542,-0.3807542622089386
1772534917779055000,10.46905517578125,0.9634493589401245,1.6491752862930298,-0.431305855512619
1772534917789072100,10.479072021484376,0.8681769371032715,1.6568670272827148,-0.46492907404899597
1772534917799088000,10.489088134765625,0.6941031217575073,1.698845624923706,-0.49927905201911926
1772534917809105200,10.499105224609375,0.5004849433898926,1.7088055610656738,-0.5092970728874207
1772534917819122200,10.5091220703125,0.3172972798347473,1.645346760749817,-0.4679810404777527
1772534917829138000,10.519137939453126,0.1566961407661438,1.466097116470337,-0.40707242488861084
1772534917839155200,10.5291552734375,0.02521134726703167,1.186458706855774,-0.31920701265335083
1772534917849171200,10.539171142578125,-0.02528085559606552,0.8087722063064575,-0.17037999629974365
1772534917859188000,10.54918798828125,0.02847425267100334,0.434222012758255,0.055924251675605774
1772534917869205000,10.559205078125,0.1289031207561493,0.1739174723625183,0.34549480676651
1772534917879221200,10.56922119140625,0.21364650130271912,-0.0768902525305748,0.6260052919387817
1772534917889238000,10.579238037109375,0.18881092965602875,-0.28401175141334534,0.8141965270042419
1772534917899255000,10.589255126953125,0.047988831996917725,-0.23035144805908203,0.8595868945121765
1772534917909271000,10.59927099609375,-0.09466791898012161,0.23945705592632294,0.8122705221176147
1772534917919288000,10.6092880859375,-0.15753422677516937,0.871656060218811,0.7030090093612671
1772534917929305000,10.61930517578125,-0.13244885206222534,0.7984886765480042,0.5665225386619568
1772534917939321000,10.629321044921875,-0.028873726725578308,-0.15172187983989716,0.37376001477241516
1772534917949338000,10.639338134765625,0.10166563838720322,-1.3009496927261353,0.1435374617576599
1772534917959353900,10.649353759765624,0.18904182314872742,-1.9378198385238647,-0.023601466789841652
1772534917969371000,10.659370849609376,0.17112646996974945,-1.9614202976226807,-0.07307314872741699
1772534917979388000,10.669387939453125,-0.016332367435097694,-1.6164476871490479,-0.09897345304489136
1772534917989404000,10.67940380859375,-0.3579064905643463,-1.0164992809295654,-0.18562445044517517
1772534917999421000,10.6894208984375,-0.7428027391433716,-0.33549463748931885,-0.37683171033859253
1772534918009438000,10.69943798828125,-1.0806591510772705,0.1855219304561615,-0.7596701383590698
1772534918019454000,10.709453857421876,-1.299574375152588,0.41287678480148315,-1.2635873556137085
1772534918029471000,10.719470947265625,-1.3839881420135498,0.22043730318546295,-1.718719244003296
1772534918039487700,10.72948779296875,-1.3542895317077637,-0.5160966515541077,-1.9843095541000366
1772534918049504000,10.73950390625,-1.1676301956176758,-1.1961041688919067,-1.9036672115325928
1772534918059521000,10.74952099609375,-0.7943799495697021,-1.4486171007156372,-1.5120762586593628
1772534918069537000,10.759537109375,-0.3903464376926422,-1.3660727739334106,-0.9686646461486816
1772534918079553800,10.7695537109375,-0.11174304038286209,-1.0822335481643677,-0.4136834442615509
1772534918089571000,10.779571044921875,0.01401461847126484,-0.6933742165565491,-0.01673264056444168
1772534918099587000,10.789587158203124,0.05753892660140991,-0.2944718301296234,0.1619177907705307
1772534918109603800,10.799603759765626,0.05945533886551857,0.07500527054071426,0.1545240581035614
1772534918119621000,10.80962109375,0.05868488550186157,0.4067549705505371,0.02640683948993683
1772534918129637000,10.81963720703125,0.03856949508190155,0.6286605000495911,-0.14091317355632782
1772534918139654000,10.82965380859375,-0.021036842837929726,0.6597115993499756,-0.3170786201953888
1772534918149670000,10.839669921875,-0.08956903219223022,0.5081897377967834,-0.489998996257782
1772534918159687200,10.849687255859376,-0.10881729423999786,0.26932254433631897,-0.6300938129425049
1772534918169704000,10.859703857421875,-0.0791478157043457,-0.012946425005793571,-0.6930977702140808
1772534918179720000,10.869719970703125,-0.03809358924627304,-0.2544509172439575,-0.6739462018013
1772534918189737000,10.879737060546875,-0.08112973719835281,-0.3084867298603058,-0.6337164640426636
1772534918199754000,10.88975390625,-0.038613174110651016,-0.2583388686180115,-0.5855018496513367
1772534918209770000,10.89977001953125,0.12114906311035156,-0.191853329539299,-0.5303000807762146
1772534918219787000,10.909787109375,0.3668957054615021,-0.08772905170917511,-0.47038403153419495
1772534918229804000,10.919803955078125,0.583243191242218,0.13338123261928558,-0.4184185564517975
1772534918239820000,10.929820068359374,0.6774408221244812,0.4533163607120514,-0.4023703336715698
1772534918249836800,10.9398369140625,0.7233997583389282,0.68374103307724,-0.3613118529319763
1772534918259852800,10.949852783203125,0.711459755897522,0.7767170667648315,-0.3072294592857361
1772534918269870000,10.9598701171875,0.6099722981452942,0.7240296006202698,-0.29047125577926636
1772534918279886800,10.969886962890625,0.42902886867523193,0.6271131634712219,-0.33413857221603394
1772534918289902800,10.97990283203125,0.17961902916431427,1.1169811487197876,0.08611038327217102
1772534918299920000,10.989919921875,-0.1293763667345047,1.6254420280456543,0.5023429989814758
1772534918309937000,10.99993701171875,-0.37055516242980957,1.3767163753509521,0.6179372668266296
1772534918319953000,11.009952880859375,-0.3299190402030945,0.7131125330924988,0.4913606643676758
1772534918329970000,11.019969970703125,-0.26221963763237,0.2040303647518158,0.2879074215888977
1772534918339987000,11.029987060546874,-0.30399423837661743,-0.11019201576709747,0.07516079396009445
1772534918350003000,11.0400029296875,-0.27827024459838867,-0.21307311952114105,-0.13835442066192627
1772534918360020000,11.05002001953125,-0.11947153508663177,-0.21872888505458832,-0.4091464877128601
1772534918370036000,11.060035888671875,0.07879334688186646,-0.2993033528327942,-0.8138308525085449
1772534918380053000,11.070052978515625,0.20517179369926453,-0.4306507110595703,-1.237030029296875
1772534918390070000,11.080070068359374,0.327077180147171,-0.2981123924255371,-1.31786048412323
