time,seconds_elapsed,z,y,x
1772535225594856200,0.054856201171875,0.002104278802871704,-0.010108155304659158,-0.006312233620416372
1772535225604872200,0.0648720703125,0.013327099084854126,-0.0021088453801348804,-0.002036556462058797
1772535225614888200,0.07488818359375,0.014824644166231155,0.0027700492352247235,-0.003227410214440897
1772535225624904200,0.084904296875,0.005547112733125686,0.004678933330159634,-0.0041673853451386095
1772535225634920400,0.09492041015625,0.001807341682910919,-0.0012500731263309717,0.0019181816462427376
1772535225644936400,0.1049365234375,0.0034556934118270873,0.008335610940493643,-0.007666990963928401
1772535225654952200,0.1149521484375,0.001959317374229431,0.0072513959003612394,-0.003500591999478638
1772535225664968200,0.12496826171875,0.0010609072297811507,0.004273750062752515,-0.009688706049881875
1772535225674984200,0.134984130859375,0.012583002719283103,0.0024988858773373067,0.0014251556986011563
1772535225685000200,0.145000244140625,-0.006271335354447364,-0.006577296031080186,-0.006135351816704496
1772535225695016200,0.15501611328125,-0.0005839373677968978,-0.01123732373137027,-0.004567289649229496
1772535225705032400,0.165032470703125,0.005550619864463806,0.003753507314622402,-0.005953291514376178
1772535225715048200,0.175048095703125,0.005550619864463806,0.003751772015262395,-0.0059518028101883825
1772535225725064200,0.185064208984375,0.0012087912678718567,0.004878383158706128,0.005519594538537785
1772535225735080200,0.195080078125,0.00120820674598217,0.004900850718840956,0.005484103100048378
1772535225745096200,0.20509619140625,0.011533201405405997,-0.0006293839447200298,0.0026587526141665873
1772535225755112200,0.2151123046875,0.003453355324268341,-0.009473565461859106,0.0017981811289209872
1772535225765128400,0.22512841796875,0.0034556934118270873,-0.00959631505869329,0.0017963362317066638
1772535225775144400,0.23514453125,0.003603577449917793,-0.003725322399754077,-0.014275431051943451
1772535225785160200,0.24516015625,-0.0035772739648818968,-0.008488061555847526,0.000043391617154702544
1772535225795176200,0.25517626953125,0.009441197562217712,-0.013186612901929766,-0.005577243009908125
1772535225805192200,0.265192138671875,-0.0028290859460830685,-0.008119867564272135,-0.004978820459032431
1772535225815208200,0.275208251953125,-0.0028267478585243225,-0.008227474390901624,-0.0049781902713701125
1772535225825224200,0.28522412109375,-0.012105448335409164,-0.0021909707056358457,-0.005447506549861282
1772535225835239200,0.2952392578125,-0.0035772739648818968,-0.00439874641560018,0.004842864320753142
1772535225845256400,0.30525634765625,-0.0008867197066545486,0.010260733784176409,-0.0068273526688572015
1772535225855271400,0.315271484375,0.006293547186255455,0.0020084537455812095,0.0010805435120128095
1772535225865287400,0.325287353515625,0.006292962664365768,0.00200980545245111,0.0010370331638492644
1772535225875303200,0.33530322265625,0.003448679149150848,-0.004687829022668301,-0.006318763825902715
1772535225885319200,0.345319091796875,-0.0007405892342329024,-0.005156926105450838,-0.0066199021969456226
1772535225895335200,0.355335205078125,0.009135492613911628,-0.0038136948029510675,-0.005701645707711577
1772535225905351200,0.36535107421875,-0.007622165441513061,0.0018172968213446437,0.008986174670560286
1772535225915367400,0.375367431640625,0.002103109759092331,0.008885700837615878,-0.0143669087276794
1772535225925383400,0.385383544921875,0.008539864808320998,-0.008868384376633912,-0.009992575234128161
1772535225935399200,0.395399169921875,0.0021048633247613907,-0.011108107861131429,0.004487749006459489
1772535225945415200,0.405415283203125,-0.006722586253285407,0.011626487445738166,-0.005342740134289488
1772535225955431200,0.41543115234375,0.0019569792866706848,-0.006193703540973365,-0.0098001031356398
1772535225965447200,0.425447265625,0.0019569792866706848,-0.006193703540973365,-0.009783745655883103
1772535225975463200,0.435463134765625,-0.005973229190707206,0.0013089819730259477,-0.008970173383830115
1772535225985479400,0.4454794921875,0.006747136172652244,0.0037816008979454636,-0.0039030353205278512
1772535225995495400,0.455495361328125,0.004353519034385681,-0.0012076952893286942,0.009108513275440782
1772535226005511200,0.46551123046875,0.007945406046509743,0.0025486615695059296,0.00047033005864359435
1772535226015527200,0.475527099609375,0.007945406046509743,0.002538724697381258,0.00046738918288610873
1772535226025543200,0.485543212890625,0.004653963285684585,0.007119385284837335,0.012863883753586559
1772535226035559200,0.49555908203125,0.004805938977003097,-0.0019682861319743096,0.00869592301971279
1772535226045575200,0.5055751953125,0.0015121581286191938,0.00005509118810296058,-0.0035905718378722667
1772535226055591400,0.51559130859375,0.002261515191197395,0.0030363902875222264,-0.0044301279345527285
1772535226065607400,0.525607421875,0.0022609306693077086,0.0030751879279501734,-0.004425396960508078
1772535226075623200,0.535623046875,0.015579846447706222,-0.0008817695369012653,-0.008592206916911527
1772535226085639200,0.54563916015625,-0.0038712884753942488,-0.007529664852470159,0.007463084155973046
1772535226095655200,0.5556552734375,0.0013666121780872343,-0.007561868355330079,-0.0004970902014058083
1772535226105671200,0.565671142578125,0.016480010157823563,0.005595755914133042,-0.005290598955098539
1772535226115687400,0.5756875,0.01648059467971325,0.005605911981966346,-0.005234457454225048
1772535226125703400,0.585703369140625,0.006005377894639968,-0.0013964227944612503,-0.006422982252202928
1772535226135719400,0.595719482421875,0.00436053329706192,-0.007087565374467522,-0.003650996788218617
1772535226145735200,0.605735107421875,-0.006713818424940109,-0.00001974588008597493,-0.004133684004936367
1772535226155751200,0.615751220703125,0.010346037447452544,0.00755545688085258,-0.0014455774321220814
1772535226165767200,0.62576708984375,0.010346621969342232,0.00753527260934934,-0.0014282701042946427
1772535226175783200,0.635783203125,0.003013210341334343,-0.004583893724158406,-0.005865156573196873
1772535226185799400,0.64579931640625,-0.0032721535384654995,0.0008306604041717947,-0.010640947007108478
1772535226195815400,0.6558154296875,0.007800444617867469,0.00921928017353639,-0.01561403184509836
1772535226205831200,0.6658310546875,0.00765139153599739,-0.005204692503623664,-0.014005573735153301
1772535226215847200,0.67584716796875,-0.004470423412322998,-0.003705594785977155,-0.0148435132634826
1772535226225863200,0.68586328125,0.0031616789013147353,-0.0013539353596046567,-0.006024201326118782
1772535226235879200,0.695879150390625,0.019472177711129187,0.004907061263918876,0.002950840029073879
1772535226245895200,0.705895263671875,0.009295651611685753,-0.001882653675135225,-0.00406072836657986
1772535226255911000,0.715910888671875,-0.0011795651733875275,-0.002175298212468624,-0.0124879722464364
1772535226265927000,0.725927001953125,-0.00551905568242073,-0.0006844751328229904,-0.0011113679085392504
1772535226275943000,0.73594287109375,0.0037573067069053647,0.004184062485303729,-0.001246355932438746
1772535226285958700,0.745958740234375,0.00046352585852146145,-0.001148110589198768,-0.004593428737483919
1772535226295974700,0.755974609375,-0.001931260323524475,-0.010262085491046308,-0.012845105987880379
1772535226305990700,0.76599072265625,0.012135843473672867,-0.0005806128995493054,-0.0015881368411239235
1772535226316006700,0.776006591796875,0.001661211210489273,0.007672324726171791,0.00891441547544673
1772535226326023000,0.78602294921875,-0.008812252008914946,0.0028752083764411506,0.005394926979253068
1772535226336039000,0.796038818359375,0.006451952618360519,-0.00019091946221888064,-0.0008822535940911621
1772535226346055000,0.806054931640625,0.004658639460802078,-0.0010342384185642003,0.00454419190143235
1772535226356070700,0.816070556640625,0.000020458266139030454,0.007340882548410445,-0.0011237889986950903
1772535226366086700,0.826086669921875,0.0009188684105873108,0.0008725267845205963,-0.006959838208416476
1772535226376102700,0.8361025390625,0.005856909334659576,-0.006778992615640163,-0.0011307849950622766
1772535226386118700,0.84611865234375,0.005857493856549263,-0.006798866359889507,-0.0011129936100449413
1772535226396135000,0.856135009765625,0.003163432466983795,-0.010797215281054377,-0.003194366461364552
1772535226406151000,0.86615087890625,0.0031646015107631683,-0.010773998802248387,-0.003104003030480817
1772535226416166700,0.876166748046875,0.006007715982198715,-0.0035804705689661204,-0.001138794771581888
1772535226426182700,0.8861826171875,0.0063064066678285595,-0.01451428130911663,-0.010461781914765015
1772535226436198700,0.89619873046875,-0.012998597782850264,0.0053606867829337716,-0.0033950127331539987
1772535226446214700,0.906214599609375,-0.004020341557264328,0.004660319961234927,0.0021717545485123993
1772535226456230700,0.916230712890625,-0.0028261633366346356,0.0020433971947990356,-0.011071830971352755
1772535226466247000,0.926246826171875,0.005253098222613334,-0.0007345796185545622,-0.005725181846925989
1772535226476263000,0.936262939453125,0.01348199738562107,-0.012542268850095569,0.0001980798553675413
1772535226486278700,0.946278564453125,-0.003277414235472679,-0.001911459644511342,0.004545287879975512
1772535226496294700,0.956294677734375,0.009740472769737243,-0.0023478417677804827,-0.00937155725895427
1772535226506310700,0.966310546875,-0.0025298107385635375,-0.002189071009494364,0.0030572869450785217
1772535226516326700,0.97632666015625,-0.007318798580765723,-0.008711659444961696,0.00564566860361956
1772535226526343000,0.986343017578125,-0.007318798580765723,-0.008688899623882026,0.005655395413190126
1772535226536359000,0.99635888671875,-0.0014835165560245513,-0.0029688597429543733,-0.00422821215428412
1772535226546375000,1.006375,0.006897358298301696,0.00121664578076452,-0.01206583784422837
1772535226556390700,1.016390625,-0.005073650002479553,-0.001787979395315051,0.007958539522718638
1772535226566406700,1.02640673828125,0.006749474260210991,0.003660148209054023,0.0008096906813792883
1772535226576422700,1.036422607421875,-0.008364508241415023,-0.013790698008611798,-0.006219513835664838
1772535226586438700,1.046438720703125,0.009440028518438339,0.0003870448225177824,-0.0018916224328801034
1772535226596455000,1.056454833984375,0.014079963278770445,0.005864964776951819,0.010069786922493948
1772535226606471000,1.066470947265625,0.011386486411094665,-0.0028150939533486963,-0.004591501641878858
1772535226616487000,1.07648681640625,0.0007622165441513061,0.002115804843883961,-0.014603009905340148
1772535226626502700,1.086502685546875,-0.011208207234740256,-0.010789853958506136,-0.010876125736162066
1772535226636518700,1.0965185546875,-0.011208791756629944,-0.010770400339365004,-0.010882217550231143
1772535226646534700,1.10653466796875,0.003455108889937401,-0.005031984551530331,-0.0029512144884094593
1772535226656550700,1.116550537109375,-0.005225625693798065,0.008461575407721102,0.0008530274996068328
1772535226666567000,1.12656689453125,-0.005227379259467125,-0.007651190606597811,-0.01026756538376212
1772535226676583000,1.1365830078125,0.01183072304725647,-0.008715239641536027,-0.004932195705175399
1772535226686598700,1.1465986328125,0.00599661006629467,-0.0020157237365841865,-0.004109243683423846
1772535226696614700,1.15661474609375,0.0049491468399763105,-0.001095649749599397,-0.008725852367095648
1772535226706629600,1.166629638671875,-0.006722001731395721,-0.00516591312950477,-0.007234380833478644
1772535226716646700,1.176646728515625,-0.0035801965743303297,-0.012079309247154741,-0.018220825943164525
1772535226726661600,1.18666162109375,0.01572422335445881,-0.004145136980712414,-0.010075750872399657
1772535226736677600,1.196677734375,0.015723054310679434,-0.00410042105615139,-0.010079477199446409
1772535226746694000,1.20669384765625,0.015422025537490844,-0.009282938260585068,-0.011324280495615676
1772535226756710000,1.2167099609375,0.0073415949344635,0.004046864238008856,0.0033255733592901376
1772535226766726000,1.226725830078125,-0.014056582403182983,-0.003878028743434697,-0.0018986458287108688
1772535226776741600,1.23674169921875,0.003002688947319984,-0.000023307810351252554,-0.008052337019704281
1772535226786757600,1.246757568359375,0.009137830701470374,-0.005708367709442973,-0.006972268431726843
1772535226796773600,1.256773681640625,0.007940145349502563,0.001397555305622518,-0.003923210458876565
1772535226806790000,1.266789794921875,0.00001052139401435852,-0.012832538767252117,0.002558571042167023
1772535226816806000,1.276805908203125,0.003751461488008499,-0.014444485742226242,-0.01521859365357086
1772535226826822000,1.28682177734375,0.01123334167599678,0.0005767769746482372,-0.01123148764562793
1772535226836838000,1.296837890625,0.0022556699723005292,-0.008272226848080754,-0.0064582453618291765
1772535226846853600,1.306853515625,-0.001336217039823532,-0.00960793243125081,0.008948244679812341
1772535226856869600,1.31686962890625,-0.008069909209012984,0.0025586715068668126,-0.00041557679725810884
1772535226866885600,1.3268857421875,0.00853811124265194,0.000734287357609719,-0.00023063955125398933
1772535226876902000,1.33690185546875,0.0047977556705474855,-0.004958407858666032,0.004881342300772667
1772535226886918000,1.34691796875,0.004797171148657798,-0.004886219405289739,0.004935556706041098
1772535226896934000,1.356933837890625,0.005692658683657646,0.013952117381710559,-0.007633609284134581
1772535226906949600,1.36694970703125,0.009734627550840378,-0.004968344730790704,-0.010136577681545168
1772535226916965600,1.376965576171875,0.012727964147925376,0.0004367839820683002,0.0012934921429492532
1772535226926981600,1.386981689453125,0.006592822393774986,0.008877718460559845,-0.010141993642179294
1772535226936997600,1.39699755859375,-0.006274842485785484,-0.005821637091878802,-0.011155107074324041
1772535226947014000,1.407013916015625,-0.010763970598578452,-0.004144534192513674,-0.0011089202231261879
1772535226957030000,1.41702978515625,0.0001607435196638107,-0.0071725402441807085,-0.008682515548868104
1772535226967046000,1.4270458984375,0.012580664631724357,-0.0016452829889953135,-0.007497406550683081
1772535226977061600,1.4370615234375,0.0021077859342098237,0.012811221984587609,-0.0028192678049672394
1772535226987077600,1.44707763671875,0.010337854140996932,0.002648048557061702,-0.0017330526039935647
1772535226997093600,1.45709375,0.0068956047326326365,-0.0043493543159216635,-0.005349215540848672
1772535227007109600,1.467109619140625,0.002707505393028259,-0.008466032387129962,-0.0038289928367827085
1772535227017126000,1.4771259765625,0.0012117138773202894,-0.0015750124980695545,0.004603018549736589
1772535227027142000,1.487141845703125,0.001211129355430603,-0.0015783004336990415,0.004594597781263292
1772535227037158000,1.497157958984375,0.01348199738562107,-0.0037165911040268835,-0.004997205499093979
1772535227047173600,1.507173583984375,-0.0035766894429922103,-0.012083035574201494,-0.00021609043609350918
1772535227057189600,1.517189697265625,0.0031587562918663024,-0.012532806902006267,0.006014794176956638
1772535227067205600,1.52720556640625,0.0007639701098203659,-0.01325178709262982,-0.007602182099409401
1772535227077222000,1.537221923828125,-0.007017769807577133,-0.004832808717619628,0.00857474432545714
1772535227087238000,1.54723779296875,-0.00941080242395401,-0.010206628976762295,0.0008777966146823018
1772535227097254000,1.55725390625,-0.007017769807577133,0.002860613595508039,-0.009330759457685052
1772535227107270000,1.567269775390625,0.0048036008894443505,-0.005212108625099063,-0.00990673271473497
1772535227117285600,1.57728564453125,0.00630114597082138,-0.0010171594195999205,-0.0005625931856688112
1772535227127301600,1.587301513671875,0.005104045140743255,-0.0002502667003311217,-0.008163012586254625
1772535227137317600,1.597317626953125,0.005104045140743255,-0.0002671813025139272,-0.008192074283957481
1772535227147334000,1.607333984375,0.004055412870645523,0.015727419958543033,0.004303359749726951
1772535227157350000,1.617349853515625,0.0021089549779891967,0.0047110455014742906,-0.012165526225883513
1772535227167366000,1.627365966796875,-0.009712415719032287,0.004457253403495997,0.0026815307015553114
1772535227177381600,1.637381591796875,0.0033066403299570083,0.002599752435926348,0.006826284089777619
1772535227187397600,1.647397705078125,0.007494739669561386,0.00489453057590872,0.004257255585677922
1772535227197413600,1.65741357421875,0.010039747977256774,-0.0020101342460140583,-0.0036128019359894094
1772535227207429600,1.6674296875,0.004504910203814506,-0.00544911398505792,-0.0009683701081201433
1772535227217446000,1.67744580078125,0.013334113347530364,-0.00654302843529731,-0.009802450356353075
1772535227227462000,1.6874619140625,0.006002455285191536,-0.011667477043252437,-0.002498219157056883
1772535227237478000,1.697477783203125,0.0004646949023008346,-0.0022462993557564913,-0.0073561440496239805
1772535227247493600,1.70749365234375,-0.006416881304979324,-0.002619607913866639,0.005544601115630939
1772535227257510000,1.717510009765625,-0.002673603123426437,-0.010487144684884696,-0.0005264624263625592
1772535227267526000,1.72752587890625,-0.002374327915906906,-0.012757793030608445,-0.004894009986100718
1772535227277542000,1.7375419921875,0.010044424152374267,-0.01072190328883007,-0.02285383777236566
1772535227287558000,1.747557861328125,-0.00027998598515987394,0.002907411879301071,-0.014715850029513238
1772535227297574000,1.757573974609375,-0.005218026909232139,0.008174081969540566,-0.007778059256123378
1772535227307590000,1.76758984375,-0.0037228199154138563,-0.007776479220390319,0.0034226861913688477
1772535227317606000,1.77760595703125,0.007648468926548958,-0.001451879308745265,-0.006021415713988244
1772535227327622000,1.787621826171875,-0.0020791443616151807,0.0005636252321302891,0.0020486944244243206
1772535227337638000,1.797637939453125,0.009293898046016692,0.006677377138379961,0.004616544751590118
1772535227347654000,1.80765380859375,0.004805354455113411,-0.0024421872540377077,-0.010430774855148046
1772535227357670000,1.817669921875,-0.014347089782357216,-0.011399966947175561,-0.0051041456054430456
1772535227367686100,1.82768603515625,-0.001028174003958702,-0.0011272869968786835,-0.001614312461996451
1772535227377702000,1.837701904296875,0.008249941951036453,0.0015557050094008446,-0.0031127708588261156
1772535227387718000,1.8477177734375,0.008250526472926139,0.0015648564302362502,-0.0030258323608897625
1772535227397734000,1.85773388671875,0.005855740290880203,-0.0009515468374826013,0.00878472468117252
1772535227407750000,1.86775,0.005856909334659576,-0.0010070398843847214,0.008788441875064746
1772535227417766000,1.877765869140625,0.009149521139264106,0.00937306422945112,-0.0013127996316179631
1772535227427780900,1.88778076171875,0.006757657566666603,0.0011935754324309527,-0.001571660630358383
1772535227437798100,1.897798095703125,0.0042120647370815275,-0.006699406307097524,0.007026510236458852
1772535227447814000,1.90781396484375,0.0036123452782630917,-0.005888692712411284,-0.00826024414934218
1772535227457829000,1.9178291015625,-0.02032908680140972,-0.005419431232847273,-0.005478751071495935
1772535227467844900,1.927844970703125,-0.0068611179411411285,0.0024191351720131934,-0.011229880210431292
1772535227477860900,1.93786083984375,0.014239537754654884,-0.005142294791899621,0.0028322734170127656
1772535227487876900,1.947876953125,0.0033183307677507397,-0.007923888334445656,0.0048440242313779885
1772535227497892900,1.957892822265625,-0.0008703530937433242,-0.0037936018629930912,0.005007160637527704
1772535227507908900,1.967908935546875,-0.0011702128231525421,-0.0029130196361802515,-0.001333833286492154
1772535227517925000,1.977925048828125,0.00870586902499199,0.00007438041046261786,-0.015567507555941119
1772535227527940900,1.98794091796875,0.008706453546881675,0.00006223331494256854,-0.015547314151283353
1772535227537956900,1.997956787109375,0.016039865174889565,0.0025787096478976307,-0.007698016289854422
1772535227547972900,2.007972900390625,0.01170388179719448,-0.009230459154676645,-0.007953087029466404
1772535227557988900,2.01798876953125,-0.006250877088308334,-0.007962101452983915,-0.002964841154962778
1772535227568004900,2.0280048828125,-0.0004132569760084152,-0.001719937394093722,-0.003665646368078887
1772535227578020900,2.038020751953125,-0.004452303233742714,-0.005120229090563953,-0.00041146687772125004
1772535227588037000,2.048037109375,0.003928571620583534,-0.00980255995420739,0.005430728944996371
1772535227598052900,2.058052978515625,0.00991407577097416,-0.006389774102345109,-0.010888318497454747
1772535227608068900,2.06806884765625,0.002284311544895172,-0.010518453138601034,0.0007889401542954147
1772535227618084900,2.0780849609375,0.006624386575818061,0.00021404460947960615,0.008865096441004425
1772535227628100900,2.088100830078125,0.006774608701467514,-0.01219663375020027,0.0003910816768184304
1772535227638116900,2.098116943359375,0.0067751932233572005,-0.012167590318806468,0.0004659552776254713
1772535227648133000,2.108133056640625,0.008868950632214545,0.005830459719151258,-0.004068254085909575
1772535227658149000,2.118149169921875,-0.0004085808008909225,0.006587433832604438,0.006744149631122126
1772535227668164900,2.128164794921875,0.009468085569143294,-0.009249894507508724,0.007988989459909498
1772535227678180900,2.138180908203125,0.006025836160778999,-0.0090222232314758,-0.008391825506603345
1772535227688196900,2.14819677734375,0.003183306211233139,-0.006475169097166508,0.015430756833218037
1772535227698212900,2.158212890625,0.0030348376512527465,-0.002321246021799743,0.010830122036812826
1772535227708228900,2.168228759765625,-0.0010047931283712387,0.005297065228503197,-0.0015481792900711297
1772535227718245000,2.1782451171875,0.006627893707156181,-0.0006757255707867443,-0.004588789094984531
1772535227728261000,2.18826123046875,0.016953472888469694,-0.0033369076040573415,0.004765479102451354
1772535227738276900,2.19827685546875,0.016952303844690323,-0.0032901093202643093,0.004716671524662524
1772535227748292900,2.20829296875,-0.00923427681326866,-0.006462309615593403,-0.007265908482903614
1772535227758308900,2.218308837890625,0.0135112234801054,0.00371251771710813,-0.011886554020876064
1772535227768324900,2.228324951171875,-0.003845569512248039,-0.00848837208310142,0.01233576822625473
1772535227778340900,2.2383408203125,0.006928922480344772,-0.005826989120431244,0.008596928757801651
1772535227788357000,2.248357177734375,0.003936170405149459,-0.0040473026294261215,0.007095511218905448
1772535227798372900,2.258372802734375,-0.010579846203327178,-0.0034084384703077374,-0.006273646042542532
1772535227808388900,2.268388916015625,0.0034849195063114164,-0.011152860318310557,-0.004659963768208399
1772535227818404900,2.27840478515625,0.01156535010933876,-0.011773129374813288,0.0011507866034749894
1772535227828420900,2.2884208984375,0.010667524486780166,-0.009372406642325222,-0.0160337094287388
1772535227838436900,2.298436767578125,-0.0035486323922872542,-0.003825147778727114,-0.0006771320765838027
1772535227848452900,2.308452880859375,-0.0029500819772481915,-0.005333378650899976,0.005302170661883428
1772535227858469000,2.31846923828125,0.0013894085317850112,-0.013525416402239351,0.0010355353265069425
1772535227868484900,2.32848486328125,0.00677694678902626,0.0006239223183132708,0.009078255134494975
1772535227878500900,2.3385009765625,0.0063280339777469635,-0.001890782182663679,0.004754583249101415
1772535227888516900,2.348516845703125,0.006329787543416023,-0.001965582718234509,0.004802514044055715
1772535227898532900,2.358532958984375,-0.0017494740158319473,-0.008427782735973596,0.0015452840800862758
1772535227908548900,2.368548828125,0.007977554750442505,-0.005439670303277671,-0.0014038754485547543
1772535227918565000,2.378565185546875,0.01381575938463211,0.0022439430018886923,0.008964410363323986
1772535227928581000,2.3885810546875,0.010073650246858596,-0.00952449193149805,0.0022144520459230987
1772535227938596900,2.398596923828125,-0.001449029764533043,-0.010545669939089565,-0.010651577998977153
1772535227948612900,2.40861279296875,-0.0012988076388835907,0.00843455953663215,0.004732143088430166
1772535227958628900,2.41862890625,-0.0018991116195917128,0.003248845728114247,-0.002188294691359624
1772535227968644900,2.428644775390625,-0.00653729281425476,-0.011437065820861608,-0.011609554577246307
1772535227978660900,2.438660888671875,-0.005489829587936401,-0.01530716698616743,-0.01023110583089292
1772535227988677000,2.448677001953125,0.006630231794714927,0.012534797929693012,-0.0012860668883193285
1772535227998692900,2.45869287109375,0.0013923311412334441,-0.0010740407059900462,0.009146899923915043
1772535228008708900,2.468708984375,0.009172317492961882,0.0028549875723198055,0.010922905753646045
1772535228018724900,2.478724853515625,0.011268997511267661,-0.0012376885687932371,0.0058921724442858245
1772535228028740900,2.488740966796875,0.011270166555047034,-0.0012977481929585337,0.005894227404054254
1772535228038756900,2.4987568359375,-0.002946574845910072,0.008473211046587676,-0.0042972770688124
1772535228048772900,2.50877294921875,-0.007436287480592727,-0.005551916772406548,0.00021418160679750143
1772535228058789000,2.5187890625,0.0048345805495977395,-0.017648743409942835,-0.002288193135568872
1772535228068804900,2.528804931640625,-0.010129179826378822,-0.006438344218116253,0.004594186789309606
1772535228078820900,2.53882080078125,0.004086977052688599,0.01026681646509096,0.009511742047779262
1772535228088836900,2.5488369140625,-0.0008493103057146072,0.00015729118725284934,-0.0011037782571278513
1772535228098852900,2.558852783203125,-0.006384148079156876,0.01402949346685782,-0.0023906305967364458
1772535228108868900,2.568868896484375,0.0010977321088314056,-0.003599157003127038,-0.0051805992419831455
1772535228118883800,2.5788837890625,0.006484685844182968,-0.014026424726936965,0.0017422588237561284
1772535228128899800,2.58889990234375,0.015014613780379294,-0.007770688800420611,0.004907289592782035
1772535228138916000,2.598916015625,0.015011691170930862,-0.007717533841077238,0.0047796994240488855
1772535228148932000,2.60893212890625,0.0045353053420782085,-0.002268218926619738,0.0027907723628450183
1772535228158947800,2.61894775390625,0.004235445612668991,-0.012580372370779514,-0.006387563878949731
1772535228168963800,2.6289638671875,-0.005489829587936401,-0.0013685118742287159,-0.0012365560576319693
1772535228178979800,2.638979736328125,-0.003992869028449059,0.006515154047682881,-0.00423041324452497
1772535228188995800,2.648995849609375,0.015460019460320471,0.001873831047862768,-0.009794011321570723
1772535228199012000,2.65901220703125,0.0004939209967851639,-0.004620298478100448,0.0036567963413428515
1772535228209028000,2.669028076171875,-0.0065413844674825665,0.009505001779738812,0.011049893134180457
1772535228219044000,2.679044189453125,0.00393266327381134,-0.0038805677603930234,0.0057038924637250596
1772535228229059800,2.689059814453125,0.01051613331735134,0.0015144231509417294,-0.002726529753906652
1772535228239075800,2.699075927734375,-0.0141734867811203,-0.002418039193470031,-0.010215022345772012
1772535228249091800,2.709091796875,-0.015370587611198425,-0.004765369504597038,-0.0037218335347250103
1772535228259108000,2.719108154296875,0.012611059769988059,-0.00010470248349010944,-0.008497897963272407
1772535228269124000,2.7291240234375,0.0009381576329469681,-0.005919142649602144,-0.00468808475099504
1772535228279140400,2.739140380859375,-0.0028016134172677994,-0.00026255992632359264,0.00555631895288825
1772535228289156000,2.749156005859375,0.010966215172410011,0.0020435250589624044,0.0026850469660479573
1772535228299172000,2.759172119140625,0.00154021517932415,0.0003666778879240155,-0.0046271026782225815
1772535228309188000,2.76918798828125,0.002738485053181648,0.005099880422279239,-0.00592974624200724
1772535228319204000,2.7792041015625,0.005582768568396568,-0.0037475707641802724,-0.004377082573063671
1772535228329220000,2.78922021484375,-0.0002530979782342911,-0.01138962821625173,0.004446357550146058
1772535228339236000,2.799236083984375,-0.0047428106129169464,-0.01290512907942757,-0.0013080960570368914
1772535228349252000,2.809252197265625,-0.004890694651007652,0.004110796319693326,-0.0023013357449322936
1772535228359268000,2.81926806640625,-0.005339022940397262,0.009475191163364797,-0.006191602915432304
1772535228369284000,2.8292841796875,0.00019756839871406555,-0.010724204843770712,0.0029547855518292634
1772535228379300000,2.839300048828125,0.00902560249865055,0.0027730814425274727,-0.0043889465407934035
1772535228389316000,2.849316162109375,0.009025017976760863,0.002798270682711154,-0.004375118944840505
1772535228399332000,2.85933203125,0.0025900164932012555,0.0066049512229859825,-0.009455664478987455
1772535228409348400,2.869348388671875,0.002588262927532196,0.006599745324905961,-0.009562540653254837
1772535228419364000,2.879364013671875,0.011266659423708915,-0.00591006429400295,-0.018973443541908636
1772535228429380000,2.889380126953125,0.002439209845662117,-0.0032084771851077676,-0.0051186125222127885
1772535228439396000,2.89939599609375,-0.010130933392047882,-0.004020907812844961,0.0031940376678016033
1772535228449412000,2.909412109375,-0.007288987964391708,-0.011323558976408094,-0.013757544657681137
1772535228459428000,2.919427978515625,0.004683773902058601,-0.0006369827292859554,0.0015081304074730723
1772535228469444000,2.929444091796875,0.0034890111595392223,-0.003161313575133681,-0.006135525346640497
1772535228479460400,2.93946044921875,-0.005488076022267341,-0.007869016342051326,0.0016473562150727957
1772535228489476000,2.94947607421875,0.00004968436062335968,0.011054733706079423,-0.004492516513122245
1772535228499492000,2.9594921875,0.0031926585614681243,0.0050389622815884645,0.004916705875098705
1772535228509508000,2.969508056640625,0.00184825821518898,-0.011399510289449244,0.012135816074209287
1772535228519524000,2.979524169921875,0.01352116035223007,-0.001722732139378786,0.00030535788843408224
1772535228529540000,2.9895400390625,0.005740589478611946,0.003517305672261864,-0.0011164459424559026
1772535228539556000,2.99955615234375,0.006488777497410773,-0.006818612239975482,0.006326636605104431
1772535228549572400,3.009572265625,0.006340308937430382,0.00012632979340851307,0.01738514230400324
1772535228559588000,3.019588134765625,0.015469956332445144,0.0036437085309065876,-0.0066747833224944765
1772535228569604000,3.02960400390625,0.009935118559002875,-0.004328457658365368,0.007298376847244799
1772535228579620000,3.0396201171875,0.007841945672035217,-0.008741159534081815,0.009727220562519505
1772535228589636000,3.049635986328125,0.016222820526361464,-0.008922562249284238,0.00648568135802634
1772535228599652000,3.059652099609375,-0.004129062628746033,0.002486008129455149,0.00333122678194195
1772535228609668000,3.069668212890625,0.011433832684159278,-0.008325546204205602,-0.0008820617978461086
1772535228619684000,3.07968408203125,0.00036240357160568235,0.0035773104975000023,0.0012356336090248077
1772535228629700000,3.0897001953125,0.007543839508295059,-0.007482574307732284,-0.010041227548290043
1772535228639716000,3.099716064453125,-0.0018844985723495483,0.002139167453162372,0.0019103088670410215
1772535228649732000,3.109732177734375,0.015921791753172872,-0.0033752851193770764,0.008756758962012827
1772535228659748000,3.119748046875,0.004249474138021469,-0.008814407433383166,-0.00882216148157604
1772535228669764000,3.12976416015625,0.00409866749048233,-0.006095997053850442,-0.0014082228301092981
1772535228679780400,3.1397802734375,-0.005027472773194313,-0.0025859248399734496,-0.005265857239486649
1772535228689796000,3.149796142578125,0.010386953979730605,-0.007849471391364932,-0.0060898961066268385
1772535228699812000,3.15981201171875,0.0006634323447942734,0.006984305929392576,-0.0019777754795271903
1772535228709828000,3.169828125,-0.004721767824888229,0.01107489971127361,-0.0034825357529800383
1772535228719844000,3.179843994140625,-0.0015799626678228377,0.005992408815212547,-0.0015705555186606942
1772535228729860000,3.189860107421875,0.0032090251743793485,0.0022427374254912137,0.004266489204904064
1772535228739876000,3.1998759765625,0.0032090251743793485,0.0022049992309883235,0.004242916533071547
1772535228749892400,3.209892333984375,-0.002776478976011276,0.0047329650723375374,0.008414694925537333
1772535228759908000,3.219908203125,-0.00008241758644580841,0.008243603541795165,-0.004354825075482949
1772535228769923300,3.22992333984375,0.01233867256939411,-0.0006434490026906132,-0.007044959208602085
1772535228779939000,3.23993896484375,-0.00367255103290081,-0.007681147353444248,-0.010963530024979263
1772535228789955000,3.249955078125,-0.004420154529809952,-0.005897424008138478,0.00014353665653616188
1772535228799971000,3.25997119140625,0.007551438292860984,-0.005763970354199409,-0.010299558824067934
1772535228809987000,3.269987060546875,0.003661445116996765,-0.0027555457858368755,0.008143896893830969
1772535228820003000,3.280003173828125,0.014137830945849418,0.005243983334396034,-0.0027619663934689014
1772535228830019300,3.290019287109375,-0.0065104048073291775,-0.005953903435729444,0.004724589969636872
1772535228840035300,3.300035400390625,0.0014209727138280869,0.002230535531044006,-0.006534552867896854
1772535228850051000,3.310051025390625,0.013093290328979492,-0.007793887012917548,0.00475434578708373
1772535228860067000,3.320067138671875,0.008902268379926682,-0.004551087433099747,0.003140142922941595
1772535228870083000,3.3300830078125,0.006956395009160041,-0.01037962918980047,-0.00813082734970376
1772535228880099000,3.34009912109375,-0.0012725041538476944,-0.013144545592181384,-0.0007919997610617429
1772535228890115000,3.350114990234375,-0.0012725041538476944,0.0052696474986150856,0.00623876652540639
1772535228900131300,3.36013134765625,0.0068073419272899624,-0.0011399455490522085,-0.0007892415483947843
1772535228910147000,3.37014697265625,0.0044137247890233995,-0.0032550014742650088,0.0046204446085728705
1772535228920163000,3.3801630859375,0.00022387188374996183,-0.0005788593338802456,0.0038287279753014443
1772535228930179000,3.390178955078125,0.013542203140258788,-0.010218502077646553,0.0012719287651125342
1772535228940195000,3.400195068359375,0.0009738134682178497,-0.005317687891423702,0.002656514991307631
1772535228950211000,3.410211181640625,0.016086042404174803,-0.002031834621168673,0.0009225673381704837
1772535228960227300,3.420227294921875,-0.0011216975063085555,0.0014032361277379094,0.00708005792144686
1772535228970243300,3.430243408203125,0.0017225860089063643,-0.0002984349573031068,-0.0066869669506326316
1772535228980259000,3.440259033203125,-0.003363338953256607,0.004081899018771947,-0.012074295145319774
1772535228990275000,3.450275146484375,0.00022796353697776794,-0.00474743198910728,-0.0014603092103730887
1772535229000291000,3.460291015625,0.0015747019708156585,-0.003691054803971201,0.007670278899557888
1772535229010307000,3.47030712890625,0.0033709377378225323,-0.006902418065909296,0.000754188501322642
1772535229020323000,3.480322998046875,0.0009767360776662827,0.0005480440705083311,-0.0027104462687857446
1772535229030339300,3.49033935546875,0.0038204350709915157,-0.01101825588690117,-0.005415494843246415
1772535229040355300,3.500355224609375,0.006214052209258079,-0.00784446642268449,-0.007370802762638777
1772535229050371000,3.51037109375,-0.004710077387094497,-0.0049553939176723355,0.0023425993370823563
1772535229060387000,3.520386962890625,0.011153846698999404,-0.008637662626989185,-0.005386780205415561
1772535229070403000,3.530403076171875,0.016539631390571595,0.002869253559689969,0.006652516691759229
1772535229080419000,3.540419189453125,0.013098551025986671,-0.011981566227413714,-0.008299480181187391
1772535229090435000,3.55043505859375,0.0035223289072513577,-0.0024549554040655492,-0.009827009408874437
1772535229100451300,3.560451416015625,-0.00021861118674278257,-0.00907731441957876,-0.011083959800563752
1772535229110467000,3.570467041015625,0.00696516283750534,-0.0049279944540932775,0.004966034042695537
1772535229120483000,3.580483154296875,-0.0011146832436323166,-0.0076679956109262995,-0.0013524009896442293
1772535229130499000,3.5904990234375,-0.0018628712624311446,-0.012905750133935362,0.002383415404660627
1772535229140515000,3.60051513671875,0.015943419063091276,0.002225914154853672,0.002087747793179005
1772535229150531000,3.610531005859375,0.017139350849390028,0.0036103177179582415,0.003072639777837321
1772535229160547000,3.620547119140625,-0.004709492865204811,-0.0048471477702260015,-0.008151924936659633
1772535229170563300,3.630563232421875,0.01579085884988308,-0.01576616280004382,-0.006793970989063381
1772535229180579000,3.6405791015625,0.010104629907011985,-0.011959774520713836,0.0003042710430454463
1772535229190595000,3.650594970703125,-0.0000713116705417633,-0.0028473887877538797,0.006235469456622377
1772535229200611000,3.660611083984375,-0.001419219148159027,0.0013739187017083167,-0.010418883487954736
1772535229210627000,3.670626953125,0.007408230429887771,-0.01083847887320444,-0.00039596791449002917
1772535229220643000,3.68064306640625,0.00426642527282238,0.0029517807439900933,0.0018972119234502314
1772535229230659300,3.690659423828125,-0.0015688567519187926,0.0026452903443947434,-0.007182705445168539
1772535229240675300,3.70067529296875,0.003970072674751282,-0.009391915060393512,-0.004546676119463518
1772535229250691000,3.710691162109375,-0.005904255607724189,-0.008383706132229418,0.00030859102513641117
1772535229260707000,3.72070703125,0.0038233576804399486,-0.01282006287816912,0.0068418743845541025
1772535229270723000,3.73072314453125,-0.001263151803612709,0.0010677022967487573,0.0019476908685173838
1772535229280739000,3.740739013671875,0.005021043032407761,-0.004736600067839027,0.005995084829488769
1772535229290755000,3.750755126953125,-0.001861117696762085,-0.010480404416844249,-0.006708475529542192
1772535229300771300,3.760771240234375,0.003975333371758461,-0.004639715564623475,0.000060077890474349254
1772535229310787300,3.770787353515625,-0.002162146469950676,0.00443290441352874,0.00359376844195649
1772535229320803000,3.780802978515625,0.012950082466006279,-0.011593224496953188,0.002177133976528421
1772535229330819000,3.790819091796875,0.007563713252544403,-0.0031139855683781203,-0.001450326672475785
1772535229340835000,3.8008349609375,-0.010992518657445906,-0.003052537704724818,-0.012519974819896742
1772535229350851000,3.81085107421875,0.00008241758644580841,-0.004484506736602634,-0.009820086477743462
1772535229360867000,3.8208671875,0.01654196947813034,-0.002680197260994464,-0.002350106790103018
1772535229370883300,3.83088330078125,0.013999299257993697,-0.010051255751959979,-0.0007053443909157067
1772535229380898300,3.840898193359375,0.005768062007427215,-0.016778956571780145,0.006889540318027138
1772535229390915000,3.8509150390625,0.014747487276792525,-0.011907277148496358,0.010453215015819296
1772535229400930000,3.860929931640625,0.0030740006178617474,-0.011403766339458525,-0.0008043843185994773
1772535229410946000,3.870946044921875,0.003075169661641121,-0.011424900459032505,-0.0007636047836393117
1772535229420962000,3.880962158203125,0.001429156020283699,-0.0036459187543019652,-0.011234282390912995
1772535229430978000,3.89097802734375,-0.003059387570619583,-0.015689097242150455,0.0030792247822508216
1772535229440994000,3.900994140625,0.00651683454811573,-0.008317655158694834,0.0023264701861888167
1772535229451010300,3.91101025390625,-0.003211363261938095,0.0016343780024908482,-0.014613823560299352
1772535229461026300,3.9210263671875,0.0011263736814260481,-0.005797160237748175,0.0014817355908919125
1772535229471042000,3.9310419921875,0.008906944555044174,0.011125899246148764,0.002980760243302211
1772535229481058000,3.94105810546875,-0.006057984864711761,-0.005001571146957576,-0.014442476448230445
1772535229491074000,3.951073974609375,0.009952654215693474,-0.005258377185929567,-0.009500270805694162
1772535229501090000,3.961090087890625,0.005464110624790191,-0.006037508332263678,-0.008003419844061136
1772535229511106000,3.97110595703125,0.0012748422414064406,-0.008915200926735997,-0.006048047992587089
1772535229521122300,3.981122314453125,-0.00037000235617160797,-0.00866975653199479,-0.002752285249670967
1772535229531138300,3.99113818359375,0.007111877831816673,0.0038319428456947205,0.000508470111945644
1772535229541154000,4.001154052734375,0.005018704944849014,-0.0139611774710007,-0.0077417549668811255
1772535229551170000,4.011170166015625,0.006815525233745574,-0.011331048163119703,-0.005173648911388591
1772535229561186000,4.02118603515625,0.004122048366069793,-0.012699340841639786,-0.0022063692041672765
1772535229571202000,4.0312021484375,0.015345453169941901,-0.010358348939754068,-0.013138508577039465
1772535229581218300,4.04121826171875,0.003075169661641121,-0.00511467613261193,-0.008646914512524381
1772535229591234300,4.051234375,0.002778232541680336,-0.005666683992184699,0.0012476619735360146
1772535229601250000,4.06125,-0.006498714369535446,-0.0037468218455091115,0.0002115329919848591
1772535229611266000,4.07126611328125,-0.0064963762819767,-0.006669997549522667,-0.005124275078019127
1772535229621282000,4.081281982421875,0.006223989081382751,-0.014647917626146227,0.001499892302090302
1772535229631298000,4.091298095703125,0.009516016364097594,0.007209182460140437,-0.007757372661121189
1772535229641314000,4.10131396484375,0.017146949633955955,-0.005060498259961604,-0.008696480142138897
1772535229651330300,4.111330322265625,0.008468553137779236,-0.0017756131040863692,-0.00717426641038619
1772535229661346300,4.12134619140625,-0.000360065484046936,0.0040763643271289765,-0.0034042280860710887
1772535229671362000,4.131362060546875,0.004129062628746033,-0.010356412710994481,-0.005589709765836596
1772535229681378000,4.1413779296875,-0.0130798463255167,-0.0001799962094053626,-0.0024965569229330868
1772535229691394000,4.15139404296875,0.015799626678228377,0.0019345299928449093,-0.005214848571456969
1772535229701410000,4.16141015625,-0.0003618190497159958,-0.013444368788972497,0.00020336795183829962
1772535229711426000,4.171426025390625,0.004577975440025329,-0.016819982701912522,0.0015553122837562113
1772535229721442300,4.1814423828125,0.00816810888648033,0.0016787833997979759,0.012210863204952328
1772535229731458300,4.191458251953125,0.0006862286984920501,-0.011169866252038627,0.009865131195867434
1772535229741474000,4.20147412109375,0.0006844751328229904,-0.011124072615243494,0.009785015164362266
1772535229751490000,4.211489990234375,0.008014964151382446,-0.0007068148287944496,-0.010448283112375065
1772535229761506000,4.221506103515625,0.009510755667090415,-0.00297234860798344,0.001904189653508365
1772535229771522000,4.23152197265625,0.013399579799175262,-0.00340865766601637,-0.0037417164121288805
1772535229781538300,4.241538330078125,0.0008300210833549499,-0.009903316914942116,-0.015635001567890865
1772535229791554300,4.25155419921875,-0.003959551280736923,-0.007982815447449684,-0.006315357159264385
1772535229801570300,4.2615703125,0.003970657196640968,-0.00469321758383885,-0.002154365022294223
1772535229811586000,4.2715859375,-0.00620703794658184,-0.012835589240863919,-0.0038546387346927074
1772535229821602000,4.28160205078125,0.0024719430714845655,-0.005650207781419158,-0.00042681057732552285
1772535229831618000,4.2916181640625,0.012049918755888938,-0.004054627419356256,-0.01011674046991393
1772535229841634000,4.301634033203125,0.020430793610215187,0.00458223149003461,-0.002009988115541637
1772535229851650300,4.311650390625,0.003220131090283394,0.0025680055907927454,0.008096998145338147
1772535229861666300,4.321666259765625,-0.00007306523621082306,0.005902867368236184,-0.007508165406715124
1772535229871682000,4.33168212890625,0.002173252385854721,-0.001049417721386999,0.0010807809740304947
1772535229881698000,4.341697998046875,0.00890752907693386,-0.012903101519122719,0.005865759361395612
1772535229891714000,4.351714111328125,-0.01189209784567356,0.00576451834347099,-0.00031917635123245415
1772535229901730000,4.36172998046875,-0.008749708166718483,-0.004389284467510879,0.0034362854584585874
1772535229911746000,4.37174609375,0.00516483541727066,-0.01364023842094466,0.006946805196907371
1772535229921762300,4.38176220703125,0.01938099229633808,-0.010220383507478982,-0.00456525295577012
1772535229931778300,4.3917783203125,0.005166004461050033,-0.002604574741516262,0.005762527315784245
1772535229941794000,4.4017939453125,0.003968319109082222,-0.0038149917108938097,-0.005208583227451891
1772535229951810000,4.41181005859375,0.009504325926303863,-0.007565466818213462,-0.0016672299593221396
1772535229961826000,4.421825927734375,-0.0035129765570163724,0.0042658407509326935,0.0008168419413734227
1772535229971842000,4.431842041015625,0.003819850549101829,0.0024702625710517167,-0.00017197729973122475
1772535229981858000,4.441858154296875,0.001727262184023857,0.005749357306957244,0.0030769232273101803
1772535229991874300,4.451874267578125,0.001726093140244484,-0.006452062216214836,-0.006646771937562152
1772535230001890300,4.461890380859375,-0.0018652093499898909,-0.009737239633034914,0.009519194701872765
1772535230011905300,4.4719052734375,-0.003062310180068016,-0.014056107479147612,-0.0027224015680607405
1772535230021921300,4.48192138671875,0.0023228899896144866,0.008298786061443388,0.0000677040745038539
1772535230031937000,4.49193701171875,-0.007402969732880592,0.004787745733186602,-0.020475673931557685
1772535230041953000,4.501953125,-0.0020160159975290298,-0.013529800316412,0.00563888266980648
1772535230051969000,4.511968994140625,-0.01533200916647911,-0.0038595067060552537,-0.0027036146692000326
1772535230061985000,4.521985107421875,0.00561842440366745,0.003429134198464453,-0.01239216545545496
1772535230072001300,4.532001220703125,0.012201309925317764,-0.0016261033644899725,-0.005386095218826085
1772535230082017300,4.542017333984375,0.006363105291128158,-0.001110865585040301,-0.01669908713544719
1772535230092033000,4.552032958984375,-0.005607903009653091,0.007448142315167933,-0.020542839149944484
1772535230102049000,4.562049072265625,-0.00336450799703598,0.0018145934076048433,-0.00829104114640504
1772535230112065000,4.57206494140625,-0.003363338953256607,-0.010622150975093244,-0.00031713965777307746
1772535230122081000,4.5820810546875,0.006364274334907531,0.010886628863867372,-0.006429923449642956
1772535230132097300,4.59209716796875,-0.0008183306455612182,-0.007846694912388921,-0.008264509332505986
1772535230142113300,4.60211328125,0.008161094623804092,-0.011059738674759864,-0.010363710101461037
1772535230152129300,4.61212939453125,0.01025602107644081,-0.010654537141043693,0.003083325568633154
1772535230162145000,4.62214501953125,0.008011457020044327,-0.009305058760847897,-0.002636924374848604
1772535230172161000,4.6321611328125,0.0023258125990629195,-0.00899096957668662,-0.013037587219523266
1772535230182177000,4.642177001953125,-0.000817161601781845,-0.004633212758600711,0.006254548616427928
1772535230192193000,4.652193115234375,0.007111877831816673,-0.006948449164722114,-0.021156367938406764
1772535230202209300,4.662209228515625,0.002921440404653549,0.001143891071807593,-0.002012581931427121
1772535230212225300,4.672225341796875,0.009505494970083236,-0.00164984956625849,0.0022414313843939454
1772535230222241300,4.6822412109375,0.001724339574575424,-0.00501766376523301,-0.0021599179802462456
1772535230232257000,4.692257080078125,0.0006757073044776916,-0.008294676141906529,0.009565947319893166
1772535230242273000,4.70227294921875,0.000827098473906517,-0.00570476924655959,-0.002692718815850094
1772535230252289000,4.7122890625,-0.0006686930418014526,-0.003806698806583881,-0.01094245070433244
1772535230262304800,4.7223046875,0.009953823259472847,-0.007781465922761708,-0.014269540167273952
1772535230272321000,4.732321044921875,0.01324760410785675,0.0062711526913568376,-0.0053402559162583196
1772535230282337000,4.7423369140625,0.002325228077173233,-0.006201740716956556,-0.008784487219154834
1772535230292353000,4.75235302734375,0.0011287117689847946,0.0030027254799380896,0.006731363214785233
1772535230302368800,4.76236865234375,-0.0029138416200876235,0.009825977362412959,0.003565227334061637
1772535230312384800,4.772384765625,0.005914777001738548,-0.012304624169319867,0.0038667675639037042
1772535230322400800,4.78240087890625,0.0042705169260501856,-0.0046572877539321775,0.003396318774251267
1772535230332416800,4.792416748046875,0.009658055183291435,-0.007749353751447051,0.0009384864265099168
1772535230342433000,4.80243310546875,-0.0023094459861516953,0.00022489479705691337,-0.008061324043758212
1772535230352449000,4.812448974609375,-0.001861117696762085,0.006434800554160029,0.0011218071041628717
1772535230362465000,4.822465087890625,-0.0011117606341838836,-0.007842128335125743,0.008617058230377733
1772535230372480800,4.832480712890625,-0.00395312153995037,-0.0026414726858027277,0.0036101350548677145
1772535230382496800,4.842496826171875,-0.00499883120059967,-0.010030961882602423,0.005295265997061506
1772535230392512800,4.8525126953125,-0.004549333867430686,-0.004760601997934282,0.00505637920727022
1772535230402529000,4.862529052734375,0.0068231240183115,-0.00855115338731557,-0.005930202899733558
1772535230412545000,4.872544921875,0.0068231240183115,-0.008547080000396817,-0.005887925527431071
1772535230422561000,4.88256103515625,0.0014361702829599379,-0.0053970915368758135,0.0006955079834908246
1772535230432576800,4.89257666015625,0.016549568262696265,-0.005079093362577259,0.0006917816564440726
1772535230442592800,4.9025927734375,-0.010087094250321388,-0.006738514474779367,-0.009431041494384408
1772535230452608800,4.91260888671875,0.0026315175473690033,0.00682157138204202,-0.0017372812545392662
1772535230462624800,4.922624755859375,0.012057517540454863,-0.0027430333641357716,-0.0047906318100169295
1772535230472641000,4.93264111328125,0.010561141502857207,-0.003928188028093427,-0.0028538550611585376
1772535230482657000,4.942656982421875,0.0027799861073493958,-0.005093194953165948,-0.008331619751965627
1772535230492673000,4.952673095703125,0.008617606219649314,-0.009310830914508551,-0.00047918921853415663
1772535230502688800,4.962688720703125,0.010562895068526267,-0.00629561127917841,-0.012562836714088916
1772535230512704800,4.972704833984375,0.011311667609214782,-0.017693039209395647,0.004971075543994083
1772535230522720800,4.982720703125,0.009962591087818145,-0.0035463308373466134,-0.0003359082903247326
1772535230532736800,4.99273681640625,0.009064180943369865,-0.011898765048477799,-0.003063607088010758
1772535230542753000,5.0027529296875,0.006668810239434242,0.0001222564064897597,0.00006208718447014688
1772535230552769000,5.01276904296875,-0.0029091654449701306,-0.0142099463339895,0.0028812819242011755
1772535230562785000,5.022784912109375,0.004872574472427368,-0.008158701737318188,-0.010357490423228592
1772535230572800800,5.03280078125,-0.010839958444237708,-0.011912428247649222,-0.011313302443875
1772535230582816000,5.04281591796875,-0.0011140987217426299,-0.01337093822658062,0.0030674521460663526
1772535230592831700,5.052831787109375,-0.004256488400697708,-0.0014159494788385926,0.0018325126567855477
1772535230602847700,5.06284765625,-0.004705401211977005,-0.008761124609876424,0.0003256060920190066
1772535230612863700,5.07286376953125,0.007563713252544403,-0.008875033313129096,-0.006760625841887667
1772535230622880000,5.0828798828125,0.002626256850361824,-0.010051767208613454,-0.012384648869279771
1772535230632896000,5.09289599609375,-0.007848959934711457,0.0006349734352901578,0.006958596099400892
1772535230642912000,5.102912109375,-0.00006955810487270355,-0.006928465822618454,0.004554156173020601
1772535230652928000,5.112927978515625,-0.005456511840224266,-0.012457458377163857,0.007521819472732022
1772535230662943700,5.12294384765625,-0.00036766426861286163,-0.004744692042749375,0.007377095506107434
1772535230672959700,5.132959716796875,0.001727262184023857,-0.006551723198406398,-0.011497171110799535
1772535230682975700,5.142975830078125,0.0027729718446731564,-0.009141155169717967,-0.010729200679296627
1772535230692992000,5.152991943359375,0.00980593922138214,0.006604074440151452,-0.003969040628289804
1772535230703008000,5.163008056640625,0.006365443378686905,-0.0029341537557542323,0.007368957865424454
1772535230713024000,5.17302392578125,0.013097966504096984,-0.016942787097673863,-0.007924865581979974
1772535230723039700,5.183039794921875,0.01593991193175316,-0.0001685797662474215,-0.00859037115285173
1772535230733055700,5.1930556640625,0.00785831228494644,-0.00976367098223418,0.0012174860309809446
1772535230743071700,5.20307177734375,0.007858896806836128,-0.00976812796164304,0.00124847482428886
1772535230753088000,5.213087890625,0.003970072674751282,-0.002491341891698539,-0.0017026939983479678
1772535230763104000,5.22310400390625,0.012349778485298156,-0.011604421744402498,-0.004825556992925703
1772535230773120000,5.2331201171875,-0.0008183306455612182,-0.0112172673240304,-0.0037151206661481407
1772535230783136000,5.243135986328125,-0.006205868902802467,-0.009256634775549173,0.005841757431300357
1772535230793151700,5.25315185546875,0.005612579184770584,0.0017488894939422606,0.0036651349114254113
1772535230803167700,5.263167724609375,0.012644377517700195,0.0011629428321495651,-0.012424122363142668
1772535230813183700,5.273183837890625,0.007854805153608322,-0.0018971023255959151,-0.004042151530273258
1772535230823200000,5.283199951171875,-0.01713409015238285,-0.011188552686199546,-0.008049925866909325
1772535230833216000,5.293216064453125,0.0012713351100683212,-0.012423026384599507,0.006880050970474258
1772535230843232000,5.30323193359375,-0.0038145898520946502,-0.008115045258682221,0.003672258771955967
1772535230853248000,5.313248046875,0.00007715688943862914,-0.01812662658737972,-0.0054971452447120095
1772535230872654000,5.332654052734375,-0.006356091028451919,-0.009613156595639884,-0.007843078183196484
1772535230882669800,5.342669921875,0.007409983995556831,0.00017331074029207228,0.0010101268906146288
1772535230892685800,5.352685791015625,0.006960486662387848,-0.015483802194707096,0.005387072466360405
1772535230902701800,5.362701904296875,0.00007715688943862914,-0.007143003622442483,-0.008732866629771888
1772535230912717800,5.3727177734375,-0.003963058412075043,-0.012684216337744145,-0.0105433592509944
1772535230922733800,5.38273388671875,-0.0021679916888475417,-0.006794957369752228,-0.009318785892101004
1772535230932750000,5.39275,0.019080548045039177,-0.003202741564065218,-0.010045474465144798
1772535230942765800,5.402765869140625,0.012046996146440505,-0.011378412702493368,-0.0019498645592946559
1772535230952781800,5.41278173828125,0.005762216788530349,-0.002252582966070622,0.0029880211011506616
1772535230962797800,5.4227978515625,0.021923662516474724,-0.007658734592236578,-0.0012053754680790005
1772535230972813800,5.432813720703125,0.0047141690403223035,-0.01866782079199329,0.010038852928113191
1772535230982829800,5.442829833984375,0.000824175864458084,-0.009075816582236438,-0.004405797210894524
1772535230992845800,5.452845703125,-0.0006704466074705124,0.00652399494126439,-0.011320709432195871
1772535231002862000,5.462862060546875,0.0011263736814260481,-0.009498645104188472,0.005039492004550993
1772535231012877800,5.4728779296875,0.012647884649038314,0.00236868362640962,-0.0007600245870649815
1772535231022893800,5.482893798828125,-0.00710720165669918,0.007987071497458965,0.005105469912849366
1772535231032909800,5.492909912109375,0.0009714753806591034,0.00039836993413046,-0.007966156573593616
1772535231042925800,5.50292578125,0.021621464699506758,-0.0019676650774665175,-0.006607727701961994
1772535231052941800,5.51294189453125,0.0062087915122509,-0.001769292961154133,-0.0039849323171656575
1772535231062957800,5.522957763671875,-0.0026198271095752715,-0.00874483106220141,0.005214921636693179
1772535231072974000,5.53297412109375,-0.0060620765179395675,-0.0055905134834349154,-0.011254311398789286
1772535231082989800,5.54298974609375,-0.006810264536738395,0.0084781064174138,-0.005123681422974914
1772535231093005800,5.553005859375,0.0029179332733154295,0.0033411088551394638,-0.0070286108619999135
1772535231103020800,5.563020751953125,-0.003215454915165901,-0.0011351780423894523,-0.004384745289711282
1772535231113036800,5.573036865234375,0.009952654215693474,-0.001725837411917746,-0.002728803909383714
1772535231123052800,5.583052734375,0.009353519278764724,-0.008125530120078474,0.00012055763974785805
1772535231133068800,5.59306884765625,0.001124035593867302,-0.012387443614564835,0.006380312154255807
1772535231143084800,5.603084716796875,0.0003758475750684738,-0.0077527330186218015,-0.006786774063296616
1772535231153101000,5.61310107421875,0.02192424703836441,-0.006394797337334603,-0.0026961802814155817
1772535231163117000,5.623116943359375,-0.0032160394370555874,-0.008599230312742293,0.018942016357183455
1772535231173132800,5.6331328125,-0.01054886654317379,-0.000034212796855717896,-0.006948650094121694
1772535231183148800,5.643148681640625,0.0015717793613672256,-0.007052749789413064,0.003712691247044131
1772535231193164800,5.653164794921875,0.0009726444244384765,-0.008334076570533215,-0.004754336653929204
1772535231203180800,5.663180908203125,0.007855974197387695,-0.010397621504217386,-0.007141140458919107
1772535231213822700,5.67382275390625,0.006958148574829101,-0.002787091701570898,-0.010739566809684038
1772535231223838700,5.683838623046875,-0.0018716390907764435,-0.0011356529664248228,-0.012014883975125849
1772535231233854700,5.693854736328125,0.004710661908984184,-0.002878295382671058,0.002425446181790903
1772535231243871000,5.70387109375,0.010693827971816063,-0.004488269596267492,-0.004258963485574349
1772535231253887000,5.713886962890625,0.008449263915419577,-0.014541333712823687,-0.003985799966845661
1772535231263902700,5.72390283203125,0.010244330638647079,-0.00018458105297759176,-0.00419966191323474
1772535231273918700,5.733918701171875,0.009795417827367783,-0.0038220425061881538,-0.0062016859180293975
1772535231283934700,5.743934814453125,0.0051566521108150475,-0.011558701172843576,-0.0012151753428857773
1772535231293950500,5.753950439453125,0.00710544809103012,-0.0033340032609179616,0.0060282838461920615
1772535231303966700,5.763966796875,0.0011216975063085555,-0.005347169714234769,0.008913027235958725
1772535231313982700,5.773982666015625,-0.0005219780474901199,-0.01406635487852618,0.004538255350990221
1772535231323998700,5.783998779296875,0.00995499230325222,-0.0025683526506647468,-0.016122712019598112
1772535231334014700,5.7940146484375,0.005318564674258232,-0.005972736000362783,0.0005178407284896821
1772535231344030700,5.80403076171875,0.0018774843096733091,-0.013571575365215539,0.006882261193869635
1772535231354046500,5.81404638671875,0.002326397120952606,-0.0012840849937871097,-0.0005955273408908396
1772535231364062700,5.824062744140625,-0.0033598318219184875,-0.019877342712227256,-0.0010628434585407377
1772535231374078700,5.83407861328125,0.006217559340596199,0.0007571385102346539,-0.0002923614095430821
1772535231384094700,5.8440947265625,0.00936287162899971,-0.009545169393345713,-0.002377615851536393
1772535231394110700,5.85411083984375,0.0011310498565435408,0.006342281698808074,-0.009626043476676567
1772535231404126700,5.864126708984375,-0.00919160671532154,-0.01334832453597337,-0.00045414610882289704
1772535231414142700,5.874142822265625,-0.00859422534406185,-0.011230948789510876,-0.003359402563655749
1772535231424158500,5.884158447265625,-0.001263151803612709,-0.0005566475020721554,-0.004722242748923599
1772535231434174700,5.8941748046875,0.00891103620827198,-0.004557498907577246,-0.004135063111269846
1772535231444190700,5.904190673828125,0.006517419070005416,-0.012420578699186443,-0.004635158120514825
1772535231454206700,5.914206787109375,0.004870236384868621,-0.006829663356952368,0.01138717139768414
1772535231464222700,5.92422265625,-0.009045476242899895,-0.004325973440334201,0.002982860868843272
1772535231474238700,5.93423876953125,-0.003211363261938095,-0.0023535408562049267,-0.008185032621817663
1772535231484254700,5.944254638671875,0.0017255086183547972,-0.004470971401594579,-0.0005146532575599848
1772535231494270500,5.9542705078125,0.0060632455617189406,-0.0017199921930208801,-0.001741135445749387
1772535231504286700,5.96428662109375,-0.00755377638041973,-0.003977927187643945,-0.0014898549652658402
1772535231514302700,5.974302734375,0.002622165197134018,0.0006600896102376282,-0.0047424270204268395
1772535231524318700,5.984318603515625,0.003218377524614334,0.008503587918542325,0.00297535341582261
1772535231534334700,5.994334716796875,0.012047580668330192,0.005060900118760764,0.0046474878791254014
1772535231544350700,6.004350830078125,0.011898527586460112,-0.008173625311814248,0.001620678270701319
1772535231554366500,6.014366455078125,0.002621580675244331,0.0027013313805684448,0.0007042758118361235
1772535231564382700,6.0243828125,0.001723170530796051,-0.005842643347289413,-0.010430336463730781
1772535231574398700,6.034398681640625,0.005165419939160347,0.004000741807650775,-0.01671553594674915
1772535231584414700,6.044414794921875,0.0009773205995559692,-0.005484678488783538,-0.008007000040635466
1772535231594430700,6.0544306640625,0.01190086567401886,-0.012844411868136375,-0.015074198480509221
1772535231604446700,6.06444677734375,0.007408230429887771,-0.010989851776324212,0.0013786040099803359
1772535231614461700,6.074461669921875,0.0008194996893405913,0.006224664934817701,-0.005511849623499438
1772535231624477700,6.084477783203125,0.00635433746278286,0.005867923919018358,0.00019674641480669377
1772535231634494700,6.09449462890625,-0.005915361523628235,-0.00939865532843396,-0.0017218918891623615
1772535231644509700,6.104509765625,0.009196867412328719,-0.01740897983731702,0.005164086498599499
1772535231654525700,6.114525634765625,0.0017138181805610656,-0.012135624277964234,0.00034881343767046927
1772535231664541700,6.124541748046875,-0.004271101447939872,-0.004212740590516477,-0.013839606051100416
1772535231674557700,6.1345576171875,0.0032119477838277815,-0.004990629627835005,-0.006025397769361734
1772535231684573700,6.14457373046875,0.005905424651503562,-0.004221654549334198,0.001036402976186946
1772535231694589700,6.154589599609375,-0.011901450195908546,-0.002365943680051714,-0.0005482723993714898
1772535231704605700,6.164605712890625,-0.0060644146054983136,-0.006379344039876013,0.002532121426658705
1772535231714621700,6.17462158203125,-0.0015758710145950317,-0.002465458531770855,0.00149694229317829
1772535231724637700,6.1846376953125,-0.002026537391543388,-0.005550236271973699,0.000542920370819047
1772535231734653700,6.19465380859375,-0.0027747254103422164,-0.003605184885114431,0.0005387739186640828
1772535231744669700,6.204669677734375,-0.002924363014101982,0.008610190098173915,-0.0062393510472960765
1772535231754685700,6.214685791015625,-0.008462123396992684,-0.0009175167037174105,0.0007868029961362481
1772535231764701700,6.22470166015625,-0.005021043032407761,-0.007722484010830521,0.002624402819992974
1772535231774717700,6.2347177734375,-0.013699439528584479,0.0006722367057576776,0.0028269031221512704
1772535231784733700,6.244733642578125,0.004406126004457473,-0.014711685311049221,-0.005242823423771187
1772535231794749700,6.254749755859375,-0.0005301613539457321,0.0046796274499036365,0.00047150823557749386
1772535231804765700,6.264765625,0.004106850796937942,-0.00990550887202844,0.004950133220665157
1772535231814781700,6.27478173828125,0.00485328525006771,-0.0032703817064873874,0.0002499927056953311
1772535231824797700,6.284797607421875,0.006498714369535446,0.0036139344471506772,-0.00233384977504611
1772535231834813700,6.294813720703125,0.003804652979969978,-0.009552877775765954,0.003290438113827258
1772535231844829400,6.304829345703125,0.00395312153995037,-0.0035214703907258805,-0.0028366664643399418
1772535231854845700,6.314845703125,0.013680150306224822,-0.008617916746903211,-0.0025341124543454495
1772535231864861700,6.32486181640625,0.0052998599737882615,0.004290792529098689,0.0024073077369015663
1772535231874877700,6.334877685546875,0.003953706061840057,-0.0008136179378256201,-0.0008394373656716197
1772535231884893700,6.344893798828125,-0.002031213566660881,-0.003042874827235937,-0.011410826267907395
1772535231894909700,6.35490966796875,-0.0006833060890436172,0.0023033633052371443,0.002379917406477034
1772535231904925700,6.36492578125,0.0011117606341838836,-0.0003700754214078188,-0.00362684872765094
1772535231914941700,6.374941650390625,0.0015589198797941208,-0.0039947139256633814,-0.007313154291268438
1772535231924957700,6.384957763671875,0.0008113163828849792,-0.00966410133158788,-0.005930011103488505
1772535231934973700,6.3949736328125,0.011287117689847945,-0.01518052666550502,-0.009863907353160901
1772535231944989700,6.40498974609375,-0.0027788170635700223,-0.0023208076303824782,-0.0019452431831043213
1772535231955005700,6.415005615234375,-0.00636953503191471,-0.004773644142597913,-0.009610827641235664
1772535231965021700,6.425021728515625,0.008743862947821616,-0.011781805871613323,0.000743009520182386
1772535231975037700,6.43503759765625,0.010839373922348022,-0.011224738244432955,-0.00614097783989273
1772535231985053700,6.4450537109375,0.0029079964011907576,-0.0035343116059899328,-0.00743647927683778
1772535231995069700,6.455069580078125,0.015926467928290368,-0.002025551010854542,-0.012360345545085145
1772535232005085700,6.465085693359375,0.0021603929042816163,-0.00965376260066405,0.0068371799431275575
1772535232015101700,6.475101806640625,-0.010109890604019164,-0.0007319858026690781,0.008421225131023675
1772535232025117700,6.48511767578125,-0.0006827215671539307,-0.011394596652314066,-0.0007263232468627393
1772535232035133700,6.4951337890625,0.007996843972802162,-0.0021107450762763618,-0.006969784213695675
1772535232045149400,6.5051494140625,0.008892916029691696,-0.009963796664215624,-0.0028055041410960254
1772535232055165700,6.515165771484375,0.0026069676280021667,-0.0010380926097743213,0.00035770913017913695
1772535232065181700,6.525181640625,0.006197685596346855,-0.014963449848722665,-0.006559303716663271
1772535232075197700,6.53519775390625,0.0014098667979240416,-0.003610463848430663,0.00020285649518482385
1772535232085213700,6.545213623046875,0.006498129847645759,-0.002113265826925635,-0.0014222330891527234
1772535232095229700,6.555229736328125,0.0003612345278263092,-0.004896320674195886,0.0046667131694033736
1772535232105245700,6.56524560546875,0.002456160980463028,-0.015407028897758572,-0.009896576646901667
1772535232115261700,6.57526171875,-0.002032382610440254,-0.004068729009944945,0.006414999875146895
1772535232125277700,6.585277587890625,0.005000000244379043,0.004038571333698928,0.006543841286050156
1772535232135293700,6.595293701171875,0.0011082535028457642,0.002552004304062575,-0.0020494250767864285
1772535232145308700,6.60530859375,0.003800561326742172,-0.0024970409801229835,-0.014182135878456755
1772535232155324700,6.61532470703125,0.008738017728924751,-0.008022179343458264,0.009283924641273915
1772535232165340700,6.625340576171875,0.008740940338373185,-0.010936331490799783,-0.002148958194814622
1772535232175356700,6.635356689453125,-0.0030810148805379867,-0.009135931005328893,-0.006355177712999284
1772535232185372700,6.64537255859375,0.0015577508360147476,-0.004120313066709787,0.00045419177459552883
1772535232195388700,6.655388671875,-0.0009855039060115813,-0.005216474272962659,0.003985653836373239
1772535232205404700,6.66540478515625,-0.001135141509771347,0.005254121135920286,0.004138944701943546
1772535232215420700,6.675420654296875,0.008293781092762947,0.008613715495821088,0.0019229491529054938
1772535232225436700,6.685436767578125,-0.005621347013115882,-0.0007171900923363864,0.0034521497478708623
1772535232235452700,6.69545263671875,0.0018605331748723982,-0.006854121944773942,-0.00657776182196103
1772535232245468700,6.70546875,-0.0005342530071735382,0.0013766403817571699,-0.005879367761639878
1772535232255484700,6.715484619140625,0.007695230677723884,-0.003835943167377263,-0.00844971143999137
1772535232265501400,6.72550146484375,0.004551087433099747,-0.009324220119044184,0.009763323922362179
1772535232275517400,6.735517333984375,0.009938041168451308,-0.002867299064621329,-0.00905199731523171
1772535232285533400,6.745533447265625,-0.00682137045264244,0.006168952692206949,-0.006133123327000067
1772535232295549400,6.755549560546875,0.004850362640619278,-0.004457509131822735,-0.0027277992623858153
1772535232305565400,6.7655654296875,0.00589724134504795,-0.005211359706427902,-0.0051366779018659145
1772535232315581400,6.77558154296875,0.01068564466536045,-0.0036720213099382813,-0.010056425117421894
1772535232325597400,6.785597412109375,0.00500233833193779,-0.011669047945830971,0.00024463154398836193
1772535232335613400,6.795613525390625,-0.00038344635963439937,0.006004555910732597,0.0012659100162796676
1772535232345629400,6.80562939453125,0.003957797715067863,0.0008877243536524474,-0.00031502989907748996
1772535232355645400,6.8156455078125,0.0023117840737104413,-0.00431861211778596,-0.0042999530830886215
1772535232365661400,6.825661376953125,0.005754033482074737,-0.008432751172035933,-0.005692211159085855
1772535232375677400,6.835677490234375,0.006052724167704582,-0.0013707403639331458,0.0035585509981028735
1772535232385693200,6.845693115234375,0.0011158522874116898,0.0025917152599431574,-0.0028557090915273873
1772535232395709400,6.85570947265625,0.00246259072124958,0.0004991999601013958,0.0002736567090731114
1772535232405725400,6.865725341796875,-0.005466448712348937,0.00898388224877417,-0.006699424573406576
1772535232415741400,6.875741455078125,-0.0012748422414064406,-0.003071936524938792,-0.0029427297878544777
1772535232425757400,6.88575732421875,0.0005213935256004333,-0.010303422148432582,0.006168459501862526
1772535232435773400,6.8957734375,-0.01668693090677261,-0.009361958313547074,-0.0012595442075747996
1772535232445789400,6.90578955078125,0.0032137013494968414,0.007641619060654193,-0.006770023857895284
1772535232455805400,6.915805419921875,0.0017179098337888716,-0.010506707901880144,0.0035690632589627054
1772535232465821400,6.925821533203125,0.004560439783334732,-0.009159987734351307,-0.0036594906219281254
1772535232475837400,6.93583740234375,-0.005913607957959175,-0.011709672217164189,-0.01875431176535785
1772535232485853400,6.945853515625,-0.0032189620465040204,0.005652070944942533,-0.002783922496950254
1772535232495869400,6.955869384765625,0.007106617134809493,-0.008098550781607627,-0.004537195905065163
1772535232505885400,6.965885498046875,0.005460018971562385,0.0034303397748619317,0.0014413761810399591
1772535232515901400,6.9759013671875,0.0032137013494968414,0.0075374097675085065,-0.006682372973905876
1772535232525917400,6.98591748046875,0.012042319971323013,-0.007578709892276674,-0.0028211857674177734
1772535232535933400,6.995933349609375,0.019373393511772155,-0.0014268361990340053,-0.00539953008913435
1772535232545949400,7.005949462890625,0.009196867412328719,-0.009284509163163602,-0.003914186902204528
1772535232555965400,7.01596533203125,-0.006666472151875495,-0.008316047723498195,0.002642532131727785
1772535232565981400,7.0259814453125,0.00036649522483348846,0.0034911848503164943,0.008004470156831667
1772535232575997400,7.03599755859375,0.010542436802387237,0.012773483790084719,-0.0007897621382027864
1772535232586013400,7.046013427734375,-0.0026256723284721374,-0.004819200317375361,-0.0022044055759441105
1772535232596029400,7.056029541015625,0.011439677903056144,0.004355765790399164,-0.005591563796205446
1772535232606045400,7.06604541015625,0.006802081230282783,-0.00602300488287583,0.0017498393420130012
1772535232616061400,7.0760615234375,0.01293780750632286,-0.00651022214423865,0.005633567173872142
1772535232626076400,7.086076416015625,0.005458265405893325,-0.010749229687172918,0.00032502157012932
1772535232636092400,7.096092529296875,0.006055646777153015,-0.004570979443658143,-0.008834664770122617
1772535232646108400,7.1061083984375,0.007700491374731063,-0.0058875054023228585,-0.013642823103675619
1772535232656124400,7.11612451171875,0.00006955810487270355,-0.0013614428126253186,-0.007722438345057889
1772535232666140400,7.126140380859375,0.008449263915419577,0.00655038975784555,-0.0014496782185044138
1772535232676156400,7.136156494140625,0.009048398852348326,-0.004525934725534171,-0.004886155473208055
1772535232686172400,7.14617236328125,-0.01175005902647972,-0.002757354150433093,-0.012309565205918624
1772535232696188400,7.1561884765625,0.007701660418510436,-0.005253664478193968,-0.003205125317396596
1772535232706204400,7.166204345703125,0.01413549285829067,-0.0066261036088690155,0.003001729966094717
1772535232716220400,7.176220458984375,-0.0009773205995559692,0.0019289222359657287,-0.006174496517004445
1772535232726236400,7.186236328125,0.007550853770971298,0.007413874719385058,-0.0025767094870563596
1772535232736252400,7.19625244140625,0.0006663549542427063,-0.014996128275617956,-0.002575485644349828
1772535232746268400,7.206268310546875,0.0029120880544185636,-0.010691873476747422,-0.010924403590988367
1772535232756284400,7.216284423828125,-0.002474281159043312,-0.014260123884957282,-0.004878200495615602
1772535232766300400,7.226300537109375,0.0033598318219184875,-0.007545410410873592,0.0011594083013478666
1772535232776316400,7.23631640625,-0.0033750293910503387,0.002555602766945958,-0.002583321890933439
1772535232786332400,7.24633251953125,0.006948796224594116,-0.0066755322411656375,-0.00815102988751605
1772535232796348400,7.256348388671875,0.004554010042548179,0.0005100136150605976,-0.0018823248815722762
1772535232806364400,7.266364501953125,-0.0006838906109333038,-0.0013373678172938525,0.0010098346296697855
1772535232816380400,7.27638037109375,-0.013105565288662909,0.0028949177239090203,0.0020013846839778125
1772535232826396400,7.286396484375,0.002006079125404358,0.0022695706334896386,-0.0021407566220499573
1772535232836412400,7.296412353515625,0.013078677281737327,-0.008889938621316104,0.005800201578205451
1772535232846428400,7.306428466796875,-0.00009060089290142059,-0.007204469752404839,0.011464063425641506
1772535232856444400,7.3164443359375,-0.0036830724269151685,-0.008380856588017195,-0.0011462108930572867
1772535232866460400,7.32646044921875,0.005894903257489204,-0.012601396892499178,0.009973203813377768
1772535232876476400,7.336476318359375,0.009935703080892562,-0.003948755892086774,-0.003344131929287687
1772535232886492400,7.346492431640625,0.00739127929508686,-0.0012477898376993834,-0.00007487360080704093
1772535232896508400,7.35650830078125,0.0018535189121961593,0.004200118570961058,0.010670346631528809
1772535232906524400,7.3665244140625,0.003497778987884521,-0.002014810421131551,0.001216773644927889
1772535232916540400,7.37654052734375,-0.002189034476876259,0.0002780497564002871,0.003940800914494321
1772535232926556400,7.386556396484375,-0.010717208847403526,-0.0011850267997942864,0.0047816173864994194
1772535232936572400,7.396572509765625,-0.0006909048736095428,-0.013519808645360171,0.004600936190504581
1772535232946588400,7.40658837890625,0.0003577273964881897,-0.0008764175083488226,0.0012984423127025365
1772535232956604400,7.4166044921875,0.003200841867923736,-0.002976148000266403,-0.007996807440184056
1772535232966620400,7.426620361328125,0.0029009821385145187,-0.0023604272547177968,-0.004878812416968867
1772535232976636400,7.436636474609375,0.009334230056405067,0.004515303733665496,0.005223205407848581
1772535232986652400,7.44665234375,0.002449146717786789,-0.01039122829604894,0.005469325656024739
1772535232996668400,7.45666845703125,0.0011018237620592116,-0.012391279539465904,0.006883293240331113
1772535233006684400,7.466684326171875,0.01142681842148304,0.0073632039780728515,0.004633221891755238
1772535233016700400,7.476700439453125,0.011425649377703666,0.0030842480172403154,0.008226378412358463
1772535233026716400,7.48671630859375,-0.0017418752312660217,-0.01054731390690431,0.0033226964156143363
1772535233036732400,7.496732421875,0.008284428742527961,-0.0051732013868168,0.009777964369067922
1772535233046748400,7.50674853515625,0.0015507365733385084,-0.004565590882487595,0.0063479990535415705
1772535233056764400,7.516764404296875,0.004991816937923431,-0.005778930461313575,-0.0005809964920394122
1772535233066779400,7.526779296875,0.004991816937923431,-0.011031480694655328,-0.01168760651582852
1772535233076795400,7.53679541015625,0.010677461358904837,-0.007441876971162855,-0.002302303859312087
1772535233086811600,7.546811767578125,-0.00024608371555805207,-0.005924494678154588,-0.00300387625740841
1772535233096827400,7.556827392578125,0.002599368843436241,-0.010949556298553943,-0.004933794007217511
1772535233106843400,7.566843505859375,-0.003982932156324386,-0.009850874341651796,-0.005064233720162883
1772535233116859400,7.576859375,0.01397474933862686,-0.001960614282172173,-0.0022064240030944347
1772535233126875400,7.58687548828125,0.011580547678470611,-0.00012892360929399728,0.0010064005635678768
1772535233136891400,7.596891357421875,0.008589549168944359,0.004475209185294806,-0.006393792690336704
1772535233146907400,7.606907470703125,-0.007122399225831032,0.002212104825209826,0.0004649871632456779
1772535233156923600,7.616923583984375,0.006794482445716858,-0.006300707579404115,-0.0005323715773411095
1772535233166939400,7.626939453125,0.015325579425692558,0.005190956239216029,0.0007619516826700419
1772535233176955400,7.636955322265625,0.009639350482821465,-0.003786514535080641,-0.008360654050204903
1772535233186971400,7.646971435546875,-0.0036772272080183026,-0.009813885065820068,0.000947190322773531
1772535233196987400,7.6569873046875,-0.012803951993584632,0.004395915137697011,0.003993882808601483
1772535233207003400,7.66700341796875,0.0029079964011907576,-0.0019173596623353658,0.0021909250398632137
1772535233217019400,7.677019287109375,-0.000083002108335495,0.0027032858756370843,-0.006713891490176319
1772535233227035600,7.68703564453125,-0.006518003591895103,-0.00923555545490235,0.00047559075565077364
1772535233237051400,7.697051513671875,0.015777999368309974,-0.000012494155392050743,-0.0015104593618772923
1772535233247067400,7.7070673828125,0.02131634427309036,0.007879665600229055,0.007097575311828404
1772535233257083400,7.71708349609375,-0.004719429737329483,-0.0021483736729249357,0.0066967302928213025
1772535233267099000,7.727098876953125,-0.0005289923101663589,-0.011166614849027246,-0.000037601197184994815
1772535233277115100,7.737115234375,-0.006363105291128158,0.006686309363506734,-0.00289879931458272
1772535233287131100,7.747131103515625,0.011741875720024109,-0.0010218173284083604,0.005811618021363392
1772535233297147100,7.757147216796875,-0.00935761093199253,-0.012674626525491475,-0.005424463600991293
1772535233307163000,7.767162841796875,-0.0045674540460109705,-0.010195413463003932,-0.0017839516741689294
1772535233317179000,7.777178955078125,0.00935059666931629,-0.005650500042364001,-0.005672173018055037
1772535233327195000,7.78719482421875,0.0014209727138280869,-0.00525739080524072,-0.0016364238291047513
1772535233337211000,7.7972109375,0.00980243209004402,-0.0017700601461343465,0.00181895905546844
1772535233347227100,7.80722705078125,-0.0036637832045555113,0.007611096058227121,-0.0017528989487793295
1772535233357243100,7.8172431640625,0.003369184172153473,-0.0074985390618443485,0.0009553005639929324
1772535233367259100,7.827259033203125,0.011151508611440658,-0.003210376881249249,0.01158783593578264
1772535233377275000,7.83727490234375,0.0014279869765043258,-0.0013703202388249337,-0.003615277020866051
1772535233387291000,7.847290771484375,0.003972995284199714,0.0007029789038933813,-0.013559693131176755
1772535233397307000,7.857306884765625,0.0020300445228815076,-0.000711691933311522,-0.007199035525461658
1772535233407323100,7.8673232421875,0.009961422044038772,-0.0087802129028365,-0.0008699786344077438
1772535233417339100,7.877339111328125,-0.005598550659418106,-0.005094564926344901,0.008207947706524282
1772535233427355100,7.887355224609375,0.004577390918135643,0.0011846980062313378,-0.001196169248316437
1772535233437371100,7.89737109375,0.00906651903092861,-0.005666939720511436,-0.005630690230196342
1772535233447387000,7.907386962890625,0.0075707275152206415,-0.002914992397557944,0.0023739077907986936
1772535233457403000,7.91740283203125,-0.004849193596839905,-0.0008950856762006878,0.007367816221108659
1772535233467419000,7.9274189453125,0.0035310967355966566,-0.0016689926581457256,-0.006977428664034232
1772535233477435100,7.93743505859375,0.01340834762752056,-0.006800619925558566,-0.008888532115519047
1772535233487451100,7.947451171875,-0.006195347508788108,-0.0007792224778793752,0.001408916949853301
1772535233497466000,7.957466064453125,-0.004251227703690528,0.000006448007095605135,-0.008215436893235891
1772535233507482000,7.967482177734375,0.010264204382896422,0.004413249864988028,-0.006473242001561448
1772535233517498000,7.977498046875,0.0008382043898105621,-0.002229055960010737,-0.011277975402167066
1772535233527513900,7.987513916015625,-0.006344400590658187,-0.00013069544127210974,-0.00199475401379168
1772535233537529900,7.99752978515625,-0.0012555530190467834,-0.0008902816369198263,-0.004619165966939181
1772535233547545900,8.0075458984375,0.027476035946607587,0.0023496318660676477,-0.000693133363313973
1772535233557562000,8.01756201171875,0.009670330142974854,-0.005185147552937269,0.007224544426053762
1772535233567578000,8.027578125,0.006977437797188758,0.0017895685642026363,0.0006239862503949552
1772535233577594000,8.037593994140625,0.009374562066793442,-0.013135613367054612,0.0017469897978007792
1772535233587610000,8.047610107421875,-0.012021861705183982,0.012122563866991549,0.006025470834597945
1772535233597625900,8.0576259765625,-0.0007978723794221877,-0.013351922998856753,0.002318469542823732
1772535233607641900,8.067641845703125,0.0009960253000259398,-0.0028139614421874284,0.0022632048247847704
1772535233617657900,8.077657958984375,0.0009954407781362533,-0.005198445425927639,0.00718648657114245
1772535233627674000,8.087674072265624,0.0066822542428970335,-0.009430475238803774,0.012704373209783806
1772535233637690000,8.097690185546876,-0.005438976183533668,-0.00999631069432944,-0.0013595522496383636
1772535233647706000,8.1077060546875,-0.001696282523870468,-0.00123683005226776,0.0024189890415407716
1772535233657722000,8.11772216796875,-0.002295417460799217,0.0013024974333122371,0.0052323568286839865
1772535233667737900,8.12773779296875,-0.0024450550645589825,0.00351673941668123,0.00845487167229876
1772535233677753900,8.13775390625,-0.007684124761819839,-0.014391823973227292,0.005861302381986752
1772535233687769900,8.147769775390625,-0.0060381111204624175,-0.017383041678462177,-0.009719265584927052
1772535233697786000,8.1577861328125,-0.0016997896552085876,-0.00925586759056896,0.0021098226276692004
1772535233707802000,8.167802001953126,0.013114917638897895,-0.00882671892568469,0.015724698278494178
1772535233717818000,8.177818115234375,0.009074702337384223,0.0013394867091439664,0.0037524296023882923
1772535233727834000,8.187834228515625,0.005182371073961258,-0.005166680314484983,-0.016191639936808496
1772535233737849900,8.197849853515624,-0.002301262679696083,-0.0008782441392540931,-0.007515316666709258
1772535233747865900,8.207865966796875,0.019995909324288366,-0.010806823359616101,0.006142612674552947
1772535233757882000,8.217882080078125,0.006978022319078445,-0.0031982297857291995,0.010355727724405005
1772535233767898000,8.227898193359374,0.007576572734117507,-0.009474497043620795,-0.0022220599636435506
1772535233777914000,8.2379140625,0.013561492362618445,-0.012037223671097308,-0.0037718192894477397
1772535233787930000,8.24793017578125,-0.0015536591827869414,-0.004931355454958975,-0.013088458890235051
1772535233797945900,8.25794580078125,0.0027846622824668882,-0.009103745768778026,-0.011659028875315561
1772535233807961900,8.2679619140625,0.0003916296660900116,0.001459386761765927,-0.000721345677645877
1772535233817977900,8.277977783203125,0.000391045144200325,-0.005109360636677593,-0.005245800832146779
1772535233827994000,8.287994140625,0.003981178590655327,-0.009467007856909185,0.00018798771961592138
1772535233838010000,8.298010009765624,0.0035328503012657165,-0.004596990667749196,0.010615438106516375
1772535233848026000,8.308026123046876,0.002484218031167984,-0.00933046719674021,-0.002409399229288101
1772535233858042000,8.3180419921875,0.01595160236954689,-0.005432199382875114,0.00269390612593852
1772535233868057900,8.328057861328125,0.003083352968096733,-0.0016828202540986239,0.007498876988561823
1772535233878073900,8.338073974609374,0.004580313527584075,-0.006178432906605303,-0.0005292937042657285
1772535233888089900,8.34808984375,0.017896891218423843,-0.008569291832204907,0.005665268353233114
1772535233898106000,8.358106201171875,0.008470306703448295,-0.001853171852324158,0.008850538192689418
1772535233908121000,8.36812109375,-0.004250643181800842,-0.010875596013199538,-0.0070117601918987926
1772535233918137000,8.37813720703125,0.0018850830942392348,0.0015134185039438306,-0.0017915595918893813
1772535233928153000,8.388153076171875,0.012211831319332123,-0.0003419087728485465,0.01022800055835396
1772535233938169000,8.398169189453125,-0.003204348999261856,-0.0011465214203111827,0.0008541600107681006
1772535233948185000,8.40818505859375,-0.00021159692406654356,-0.003233721224218607,-0.0018396547836251557
1772535233958200800,8.418200927734375,-0.0009592004209756851,-0.006079539109393954,0.008814051240356639
1772535233968216800,8.428216796875,-0.0038028994143009184,0.0008622611188329756,-0.010612588562304154
1772535233978233000,8.438233154296874,-0.009039046502113342,0.006376275299955159,0.002316259319428354
1772535233988249000,8.4482490234375,0.010563479590415955,-0.007907667852006852,0.010517567222611978
1772535233998265000,8.45826513671875,0.005026888251304626,-0.00011726970411837101,0.000053109293570742005
1772535234008281000,8.468281005859374,0.01205985562801361,-0.0027618659287691116,-0.009005865751719102
1772535234018296800,8.478296875,-0.007692892590165138,-0.001997548759076744,0.004134204594744369
1772535234028312800,8.488312744140625,0.01579904215633869,-0.008377331190370024,0.005168004621891304
1772535234038329000,8.4983291015625,0.006520926201343536,-0.0001580949048511684,-0.0043136802143417296
1772535234048345000,8.508344970703124,0.0017301847934722899,-0.00219181095585227,-0.005158844067901373
1772535234058361000,8.518361083984376,0.012803367471694945,-0.008280939877498894,-0.00497088374774903
1772535234068377000,8.528377197265625,-0.0051519759356975555,-0.0005150003174319863,0.007354207820864394
1772535234078393000,8.53839306640625,0.007716857987642288,-0.011175254813209176,0.01437021492961794
1772535234088408800,8.548408935546876,0.012355623704195021,-0.00356116308029741,0.0037180158761329946
1772535234098424800,8.5584248046875,0.011904957327246665,-0.010243490388430655,0.003932297947630286
1772535234108441000,8.568441162109375,0.005468786799907684,0.0005582732035778463,-0.0009332439958117902
1772535234118457000,8.57845703125,-0.006353168419003487,-0.004516180516500026,-0.0033560506959445773
1772535234128473000,8.58847314453125,0.0021779285609722135,-0.007017331416159868,0.01100570693258196
1772535234138489000,8.598489013671875,0.006218143862485885,0.004070628706086427,-0.005570018684677779
1772535234148505000,8.608505126953125,-0.002162146469950676,0.004066080395132303,0.0024669381028041243
1772535234158520800,8.618520751953126,0.010407996767759322,-0.011073237477149814,-0.015351070059975607
1772535234168536800,8.628536865234375,0.011902619239687919,-0.0018654833446256815,-0.005940066706622019
1772535234178553000,8.638552978515625,0.011155015742778777,-0.004399696263670921,-0.00844930958119221
1772535234188569000,8.648569091796874,0.006816109755635261,0.003368051660992205,0.0007004216206260025
1772535234198585000,8.658585205078126,-0.01113923365175724,0.012298523222096264,-0.004640007825568318
1772535234208601000,8.66860107421875,0.005320902761816978,0.00017069865809753537,-0.005681041311100125
1772535234218617000,8.6786171875,0.004573883786797523,-0.004207388561964035,0.00302308328137733
1772535234228632800,8.6886328125,-0.004854454293847084,-0.010071348691917956,-0.0026147582088131456
1772535234238648800,8.69864892578125,-0.011436755293607711,-0.017789686250593514,-0.00632696539866738
1772535234248665000,8.7086650390625,0.0026315175473690033,-0.005463672233372926,0.009860975610557944
1772535234258681000,8.71868115234375,-0.006048632514476775,-0.017280896478239445,0.010571169706527142
1772535234268696800,8.72869677734375,0.012955927684903144,-0.01039225120935589,0.0013062511598225682
1772535234278712800,8.738712890625,0.009513678276538848,0.006807140997890383,0.004407906969590113
1772535234288728800,8.748728759765624,0.003230652484297752,0.011355908609740435,0.003684926457284018
1772535234298743800,8.758743896484376,0.012358546313643455,-0.010331442666519433,-0.0005152103799860924
1772535234308759800,8.768759765625,0.003680734339356422,0.0031449469622224567,0.0012300075858365743
1772535234318775800,8.77877587890625,0.0012877017229795456,-0.01093839558372274,-0.0062000876159872854
1772535234328791800,8.788791748046876,-0.0020049100816249845,0.008749123644828796,0.010292142702592537
1772535234338807800,8.798807861328125,0.003232406049966812,-0.0032479689452797173,-0.007070385910803452
1772535234348823800,8.80882373046875,0.004279869276285171,0.010361454212293028,-0.006653877531783655
1772535234358839800,8.81883984375,-0.002454407414793968,0.006199110368452966,0.014464195089694112
1772535234368855800,8.828855712890626,0.004279869276285171,-0.0007874788495711982,0.0015134185039438306
1772535234378871800,8.838871826171875,-0.0012567220628261564,-0.006807488057762384,-0.0019722864536568523
1772535234388887800,8.8488876953125,-0.007242226213216781,0.0004848426411859691,-0.009333864730224012
1772535234398903800,8.85890380859375,-0.007090835043787956,0.001498622793611139,-0.006124620360136032
1772535234408919800,8.868919921875,0.0029342998862266537,-0.005916256572771817,0.0027548973318655043
1772535234418935800,8.878935791015625,0.0035328503012657165,0.00547578279627487,-0.0024616591394878923
1772535234428951800,8.888951904296874,0.00876899738907814,-0.008581986916996538,0.008261486258357762
1772535234438967800,8.8989677734375,-0.0012573065847158432,0.006382175317779183,0.0013125073706731199
1772535234448983800,8.90898388671875,-0.004849193596839905,0.001477013750001788,0.0017728731577284632
1772535234458999800,8.918999755859375,0.0008370353460311889,-0.014174765422753989,-0.003702617377601564
1772535234469015800,8.929015869140626,-0.004998246678709984,0.006004464579187333,0.0018557200024370104
1772535234479031800,8.93903173828125,0.0012865326792001724,-0.0037431503173895177,0.010965594117902218
1772535234489047800,8.9490478515625,0.005475801062583923,-0.01080499672871083,-0.0024276016062591225
1772535234499063800,8.959063720703124,-0.0027525135785341263,0.01052943119034171,-0.0008919804036617279
1772535234509079800,8.969079833984376,0.0012877017229795456,-0.00672543579749763,0.0008404602789785713
1772535234519095800,8.979095703125,0.001287117201089859,-0.0011444025284610688,-0.00003966529010795057
1772535234529111800,8.98911181640625,-0.005896072301268577,-0.011803268784750253,0.008694005057262257
1772535234539127800,8.9991279296875,0.008467968615889549,-0.010417129922285676,-0.010190371961705386
1772535234549143800,9.009143798828125,0.012658990564942359,-0.00973101082164794,-0.00704462128188461
1772535234559159800,9.019159912109375,-0.004402034351229668,-0.0039264892613515255,0.006848294992186129
1772535234569175800,9.02917578125,0.01160802020728588,0.0010390972567722201,-0.0003588051087222993
1772535234579191800,9.03919189453125,0.00861468361020088,0.0008013612444512546,0.010139089299039915
1772535234589207800,9.049207763671875,0.004724690434336662,-0.006393792690336704,0.004639450703142211
1772535234599223800,9.059223876953125,-0.00021218144595623015,-0.005391081921197474,0.0010602222431916743
1772535234609239800,9.06923974609375,0.012955927684903144,-0.01358637107554823,-0.009658128248527645
1772535234619255800,9.079255859375,-0.008742109382152558,-0.0038075207904912528,0.0008415288580581545
1772535234629271800,9.089271728515625,0.004576806396245956,-0.014942425327003002,0.012340261738281696
1772535234639287800,9.099287841796874,0.018044775256514548,-0.00656476534307003,-0.002564945984026417
1772535234649303800,9.1093037109375,0.00981470704972744,-0.00946629547085613,0.0035073688001371916
1772535234659318800,9.11931884765625,0.008317746490240096,0.0005536518273875118,0.003293333323812112
1772535234669334800,9.129334716796874,0.0006844751328229904,-0.005997724311146885,0.005011699815327301
1772535234679350800,9.139350830078126,0.0057709846168756485,-0.003961578841041773,-0.0048256117918528615
1772535234689366800,9.14936669921875,0.015048516049981116,-0.005137107160128653,0.0014680175927933305
1772535234699382800,9.1593828125,0.01609364118874073,0.0022997465760447085,-0.003185543834092095
1772535234709398800,9.169398681640626,0.013847908088564872,-0.012846220232732594,0.005975064954767004
1772535234719414800,9.179414794921875,-0.003961304846405982,-0.003580689764674753,0.0044921329206321385
1772535234729431000,9.18943115234375,-0.0006692775636911391,-0.011980433716252445,0.007603168480098247
1772535234739446800,9.19944677734375,0.0065127428948879235,-0.00826862838519737,-0.008748831383883953
1772535234749462800,9.209462890625,0.010850479838252066,0.0012388941451907157,0.002286512635136023
1772535234759478800,9.219478759765625,0.009801263046264648,0.006432462466601282,0.014277686941111459
1772535234769494800,9.229494873046875,-0.0008224222987890243,0.00881334798745811,-0.002477148969564587
1772535234779510800,9.2395107421875,0.005161912807822227,0.008493906774744391,-0.0028345110398717223
1772535234789526800,9.24952685546875,-0.0008235913425683975,-0.006733180712535977,0.005270843941858038
1772535234799542800,9.259542724609375,-0.010551204630732535,-0.009570614361856132,-0.00556117779109627
1772535234809558800,9.269558837890624,0.0021668226450681687,-0.0008432276248000562,-0.0012613617053255438
1772535234819574800,9.27957470703125,0.008901099336147307,0.009673216219805181,-0.00683807499227114
1772535234829590800,9.2895908203125,0.010400397983193397,-0.0005107077348046004,-0.008469420787459239
1772535234839606800,9.299606689453125,0.004564531436562538,0.003066876757331192,0.011390322335995733
1772535234849622800,9.309622802734374,-0.00621054507791996,-0.0031382432268001136,-0.0027914847488980737
1772535234859638800,9.319638671875,-0.004713584518432617,-0.004905947019066661,-0.0024290537778288127
1772535234871532800,9.33153271484375,0.01234393326640129,-0.009784037916827946,-0.0004915281102992594
1772535234881548800,9.341548828125,0.0063601826816797255,-0.003397971875220537,-0.011197101318836212
1772535234891564800,9.351564697265625,0.0005249006569385528,-0.006381444665417075,0.000984617990022525
1772535234901580800,9.361580810546876,0.009205050718784332,-0.0161589249772951,0.00952469286089763
1772535234911596800,9.3715966796875,0.002920271360874176,0.0006465542752295732,0.0028688060351181773
1772535234921612800,9.38161279296875,0.01144903025329113,-0.003217866067960858,-0.0005992445347830652
1772535234931628800,9.39162890625,0.0036678748577833173,-0.005007726893108338,-0.004322164914896711
1772535234941644800,9.401644775390626,0.008306056052446364,-0.009303652255050837,-0.00043221740480512376
1772535234951660800,9.411660888671875,0.012494155392050742,-0.0059290977880358696,-0.002681987359281629
1772535234961676800,9.4216767578125,0.009202712631225586,-0.006862834974192083,-0.005970142184477299
1772535234971692800,9.43169287109375,0.0017196633994579313,-0.001483717485424131,0.0029194311106577513
1772535234981708800,9.441708740234375,-0.0027700492352247235,0.006046696285717189,0.0056364532507024705
1772535234991724800,9.451724853515625,-0.0014221417576074599,0.00269205209556967,0.011447167089767753
1772535235001740800,9.46174072265625,-0.0021709142982959746,-0.01015212231054902,0.008743050097068772
1772535235011755800,9.471755859375,-0.007708090159296989,-0.015198500713612883,0.005465663261059671
1772535235021772000,9.48177197265625,-0.0009749825119972228,-0.005262505371775478,-0.006178222844051197
1772535235031787800,9.491787841796874,0.012493570870161055,-0.005438208998553454,0.006439157068869099
1772535235041803800,9.5018037109375,0.00022211831808090208,0.005112831235397607,-0.003094796810718253
1772535235051819800,9.51181982421875,-0.0014238953232765196,-0.00394285587426275,0.006715489792218431
1772535235061835800,9.521835693359375,0.005908931782841682,-0.0043717305445112285,0.0028997400294989346
1772535235071851800,9.531851806640624,-0.000824175864458084,-0.003128087158966809,-0.008230260003032163
1772535235081867800,9.54186767578125,-0.00022504092752933502,-0.002362235619314015,-0.009947046458814293
1772535235091883800,9.5518837890625,0.004713584518432617,-0.004322283645905554,0.006518880374729633
1772535235101899800,9.561899658203124,0.008454524612426757,-0.006311758696381002,0.009768520687287672
1772535235111915800,9.571915771484376,0.004711246430873871,-0.006104911012668162,-0.006184908313164487
1772535235121931800,9.581931884765625,0.011593991681933402,-0.011147837083321064,0.000678045392036438
1772535235131947800,9.59194775390625,0.0002209492743015289,-0.007719762330781668,0.002737316009402275
1772535235141963800,9.6019638671875,-0.014294482812285422,0.012672105774842202,0.0044042902403976765
1772535235151979800,9.611979736328125,0.009497311663627625,-0.00036552711045369506,0.007651044476125389
1772535235161995800,9.621995849609375,-0.003669628423452377,0.00020677461847662924,0.0008196366866584867
1772535235172011800,9.63201171875,-0.0006757073044776916,-0.005808795876614749,0.006701242071157321
1772535235182027800,9.64202783203125,0.004264087185263633,-0.010033099040761589,0.000044030937971547245
1772535235192043800,9.652043701171875,-0.0033668460845947264,0.0006042129708454013,-0.005720286476099863
1772535235202686000,9.66268603515625,0.005462357059121132,-0.006917323374096304,0.00879373910469003
1772535235212701700,9.67270166015625,0.005462941581010818,-0.0069399370647035535,0.008792478729365392
1772535235222717700,9.6827177734375,0.0023211364239454266,-0.0002620119370520115,-0.003635050300415605
1772535235232733700,9.692733642578125,0.0012742577195167541,0.00809844118375331,0.0030871066946070638
1772535235242749700,9.702749755859376,-0.0003705868780612945,-0.012742357999458909,0.0022491762994322926
1772535235252766000,9.712765869140625,-0.005310381367802619,-0.0021744579622521997,0.007033844159543514
1772535235262782000,9.722781982421875,-0.004563362392783165,0.011860277935303747,-0.002790763229690492
1772535235272798000,9.7327978515625,-0.005311550411581992,-0.011751502064894883,0.0012810527864843607
1772535235282814000,9.74281396484375,0.008006196323037148,-0.0007562434610910713,-0.001776617751084268
1772535235292830200,9.752830322265625,0.005161912807822227,-0.006627418783120811,-0.010094135912461206
1772535235302846200,9.76284619140625,0.009350012147426605,0.0007710026388056576,0.0013879106944426893
1772535235312862200,9.7728623046875,0.005906593695282936,-0.012164539845194666,-0.0014722827759571372
1772535235322878200,9.782878173828125,0.0015659341424703597,-0.010433587866742164,0.009332239028718322
1772535235332894200,9.792894287109375,0.003510638469457626,0.0018911109762266276,0.007860148049006237
1772535235342910000,9.802909912109374,0.005905424651503562,0.002341631222702563,-0.003294319704500958
1772535235352926000,9.812926025390626,0.012192542096972465,-0.01521495865806937,-0.004566376333776861
1772535235362941000,9.82294091796875,0.00845218652486801,-0.001292633626423776,0.0035818131426814943
1772535235372957200,9.832957275390624,-0.0009738134682178497,0.00181585378292948,-0.0013179233313072472
1772535235382973200,9.84297314453125,-0.007408230429887771,-0.006701214671693742,-0.0010155793838668614
1772535235392989200,9.8529892578125,0.01997486653625965,0.0014619075124152005,0.002062074495805427
1772535235403005200,9.863005126953125,0.004412555745244026,-0.013898816291894763,0.0030209369900636375
1772535235413021200,9.873021240234374,0.0026157354563474656,0.013964374075084924,0.006884106091083958
1772535235423037000,9.883036865234375,0.0009703063368797302,0.009002970541734249,0.021110117643885314
1772535235433053000,9.893052978515625,-0.0009755670338869094,0.003705211193487048,0.003794067653873935
1772535235443069200,9.903069091796874,-0.012949497944116591,0.0034230880501680072,0.0017365506021771579
1772535235453085200,9.913085205078126,-0.004869651862978935,-0.003855871710553765,0.011784235290717333
1772535235463101200,9.92310107421875,0.008447510349750519,0.011914401009026914,0.00463424480506219
1772535235473117200,9.9331171875,-0.003673720076680183,0.001142776826955378,-0.007967590478854253
1772535235483133200,9.94313330078125,0.002760696884989738,-0.0006277947758324444,-0.0006160495391115546
1772535235493149000,9.95314892578125,0.003658522507548332,0.013284629916306584,0.0007084679297637194
1772535235503165200,9.963165283203125,0.0005143792629241943,-0.001653210567124188,0.0030209187237545845
1772535235513181200,9.97318115234375,-0.002627425894141197,0.003104140027798712,-0.001327367013087496
1772535235523197200,9.983197265625,-0.0006809680014848708,0.0012786416336894035,-0.011149563249526545
1772535235533213200,9.993213134765625,0.004255903878808021,0.004666895832493901,-0.00929723164741881
1772535235543229200,10.003229248046875,0.0072486559540033335,0.008267514140345156,0.004013646954996511
1772535235553245200,10.0132451171875,0.0026093057155609127,-0.0017325046147219835,-0.0006207987794652581
1772535235563261000,10.023260986328125,-0.01220364801287651,-0.00689238986223936,0.00863897780124098
1772535235573277200,10.033277099609375,0.006351414853334426,-0.003752502667624503,0.010583736927155404
1772535235583293200,10.043293212890624,0.003059387570619583,-0.004029492978099733,-0.004806815759837627
1772535235593309200,10.05330908203125,-0.009210895937681197,0.006270074979122728,0.004597365127084777
1772535235603325200,10.0633251953125,0.003806406545639038,0.007390968767832964,0.009532227713381872
1772535235613341200,10.073341064453125,0.00874503199160099,0.005431176469568163,0.012261479147337377
1772535235623357200,10.083357177734374,-0.001132218900322914,-0.006055171853117644,0.004456230490189045
1772535235633373000,10.093373046875,0.00350654681622982,-0.0027724969206377862,0.004133254746673629
1772535235643389200,10.10338916015625,-0.00876373669207096,0.003704407475888729,-0.0025696495586074886
1772535235653405200,10.1134052734375,0.0035071313381195065,0.009177468592114746,0.006367425273219123
1772535235663421200,10.123421142578126,-0.008016133195161819,0.005920220361836254,0.001393207924067974
1772535235673437200,10.133437255859375,-0.002779401585459709,-0.004478624985087663,-0.0012380447618197648
1772535235683453200,10.143453125,-0.0056242696225643155,-0.00934539077123627,-0.001568683221982792
1772535235693469000,10.153468994140624,-0.005174772289395332,0.0030471126109361648,0.0024664814450778066
1772535235703485200,10.163485107421875,-0.0035293431699275966,-0.00998571623507887,-0.009103216045815496
1772535235713500000,10.1735,-0.012656067955493927,0.0025775406041182577,-0.004518235476268455
1772535235723516200,10.18351611328125,-0.0023299042522907255,-0.00210972216296941,0.01179643718516454
1772535235733532200,10.1935322265625,0.0023088614642620083,-0.0039036198424175377,0.007010043158847838
1772535235743548200,10.203548095703125,0.008592471778392792,-0.001443750801216811,-0.012147369514685124
1772535235753564200,10.213564208984375,0.006945873615145683,0.004252159285452217,0.008047514714114367
1772535235763580200,10.223580078125,-0.006970423534512519,-0.006640862786583602,0.009256826571794226
1772535235773596200,10.23359619140625,0.007843699237704277,-0.004864884356316179,0.003989160967711359
1772535235783612200,10.243612060546875,0.015325579425692558,0.004443042215052992,0.0039032271167729047
1772535235793628200,10.253628173828124,0.021012977412343023,0.0017521226306445896,0.007560461849533021
1772535235803644200,10.26364404296875,-0.005174187767505645,-0.01290750369960442,0.0070815374924801285
1772535235813660200,10.27366015625,0.015175941821932791,0.0009145940942689776,-0.0021614706165157256
1772535235823676200,10.28367626953125,0.003654430854320526,-0.004789444499928504,0.009518610179983079
1772535235833692200,10.293692138671876,-0.01055880341529846,-0.010297759592626243,0.004143849205924198
1772535235843708200,10.303708251953125,0.003957213193178177,-0.005409713556431234,-0.00017035159822553395
1772535235853724200,10.31372412109375,-0.0005313303977251052,-0.003247238292917609,0.000813225212180987
1772535235863740200,10.323740234375,0.0005167173504829406,0.00043616292756050825,0.00003718107207678258
1772535235873756200,10.333756103515626,0.007847790890932082,0.005559844350535422,0.01273318831231445
1772535235883772200,10.343772216796875,0.009044891721010207,-0.002503580318763852,0.0016612751425709575
1772535235893788200,10.3537880859375,0.0006651859104633331,0.005736936216801405,-0.003417754287924617
1772535235903804200,10.36380419921875,0.004257657444477081,-0.0016232903528958559,0.003363083224929869
1772535235913820000,10.37381982421875,0.00440846409201622,-0.004074848223477602,0.0037034667609725145
1772535235923836200,10.383836181640625,0.0069517188340425485,-0.015085413994267582,0.002848685695696622
1772535235933852200,10.39385205078125,0.006803250274062156,-0.00015847849734127521,-0.004037594086164609
1772535235943868200,10.4038681640625,-0.011001871007680892,-0.001569021148700267,0.0021686036102008073
1772535235953884200,10.41388427734375,0.008301379877328872,-0.009972875019814819,0.004828379137674347
1772535235963900200,10.423900146484375,0.01129471647441387,-0.0026810923101380467,0.001978469599271193
1772535235973916200,10.433916259765626,-0.000526069700717926,0.0028418175634928045,0.0009428886069916188
1772535235983932000,10.443931884765625,0.0008212532550096512,0.0017364318711683153,-0.002083519142633304
1772535235993948200,10.4539482421875,-0.0048655602097511285,0.00023795520802959798,-0.007341987660108133
1772535236003964200,10.463964111328124,-0.00232055190205574,0.003904295695852488,-0.0005038852683734149
1772535236013980200,10.473980224609376,0.008602408650517463,-0.001343231302499771,0.006482895745895802
1772535236023996200,10.48399609375,0.013539865052700042,0.01224719489365816,0.016455478504765777
1772535236034012200,10.49401220703125,-0.003218377524614334,0.004585592490900308,0.006330088937515393
1772535236044027100,10.504027099609376,0.00994973160624504,-0.007423281868547201,0.0013294402391649783
1772535236054043100,10.514043212890625,-0.0047141690403223035,0.004676576976291835,0.008816498925769701
1772535236064059100,10.52405908203125,-0.00890402194559574,-0.0030666210290044545,0.008408018589578568
1772535236074075100,10.5340751953125,0.008602408650517463,-0.0024350268608890474,0.003448706548614427
1772535236084091100,10.544091064453125,0.00905307502746582,-0.009367748733516782,0.005141956865182146
1772535236094107100,10.554107177734375,0.0018710545688867567,-0.008966675385646522,0.013370052310591563
1772535236104123100,10.564123046875,0.009203881675004959,-0.005019545195065439,0.0008515661948826163
1772535236114139100,10.57413916015625,0.012945990812778472,0.003480334662739187,-0.0032705735027324405
1772535236124155100,10.584155029296875,0.017435703447461127,0.0013314677994698285,0.009558595130499451
1772535236134171100,10.594171142578125,-0.0017167407900094986,-0.007867865564581007,0.003699493838753551
1772535236144187100,10.604187255859374,-0.0033639234751462934,-0.007224507893435657,0.007725032160943374
1772535236154203100,10.614203125,-0.008001520147919654,-0.006505253708176314,0.01257427142355591
1772535236164219100,10.62421923828125,0.012349193963408469,-0.0015717610950581728,-0.00899201988945715
1772535236174235100,10.634235107421874,0.005465864190459251,-0.00276287057576701,0.006116418787371367
1772535236184251100,10.644251220703126,0.000976151555776596,-0.007108790825586766,0.003858173265494406
1772535236194267100,10.65426708984375,0.011451952862739562,-0.015930523048900067,-0.0023476134389173236
1772535236204283100,10.664283203125,0.01265022273659706,-0.010332611710298806,-0.00476413652873598
1772535236214299100,10.674299072265624,0.006066168171167373,0.007160100887715816,-0.0014920286560431123
1772535236224315100,10.684315185546875,0.007113631397485732,0.006710329559911042,0.0013586754668038338
1772535236234331100,10.6943310546875,0.006664134064316749,-0.009874565744493156,-0.003748173552379012
1772535236244347100,10.70434716796875,0.004718845215439796,-0.01028787751942873,-0.005795077878516167
1772535236254363100,10.714363037109376,-0.000820084211230278,-0.0030206081965006887,0.004601657709712163
1772535236264379100,10.724379150390625,0.0033680151283740994,-0.005678557093068957,0.015014522448834031
1772535236274395600,10.734395751953125,-0.002167407166957855,-0.004487356280814856,0.0012917568435892462
1772535236284411600,10.74441162109375,0.000976151555776596,-0.004838252077717334,-0.014254534394387154
1772535236294427600,10.754427734375,0.013994038560986518,-0.00964499477231875,-0.0026492906660772857
1772535236304443600,10.764443603515625,0.021176059019565582,-0.002341960016265511,0.007319848893536254
1772535236314459600,10.774459716796875,0.01638648665547371,-0.0004015482719056308,-0.0013077672634739428
1772535236324475600,10.7844755859375,0.0042658407509326935,-0.005308353807497769,-0.002470089041115716
1772535236334491600,10.79449169921875,0.008756137907505035,-0.012689623165223747,-0.0006511939177289604
1772535236344507600,10.804507568359375,-0.0066571198016405105,0.001411218504793942,-0.0014071725173387675
1772535236354523600,10.814523681640624,0.003069324442744255,-0.011450710753723978,0.01075122984801419
1772535236364539600,10.82453955078125,-0.0009685527712106704,0.0019409597336314617,0.004827246626513079
1772535236374555600,10.8345556640625,0.011004209095239638,-0.002479925448540598,0.0018587065439671278
1772535236384570600,10.844570556640624,0.01235270109474659,-0.0008552103235386311,0.017512138817692174
1772535236394586600,10.854586669921876,0.005470540365576744,0.00296991918887943,0.001203137845220044
