time,seconds_elapsed,z,y,x
1772535225584840200,0.044840087890625,-0.99969482421875,-0.01837158203125,0.01373291015625
1772535225594856200,0.054856201171875,-0.9992828369140625,-0.0178375244140625,0.0140380859375
1772535225604872200,0.0648720703125,-0.9991912841796875,-0.0182952880859375,0.0137481689453125
1772535225614888200,0.07488818359375,-0.9984588623046875,-0.017974853515625,0.01409912109375
1772535225624904200,0.084904296875,-0.99822998046875,-0.017333984375,0.0130157470703125
1772535225634920400,0.09492041015625,-1.0004119873046875,-0.0178375244140625,0.0140838623046875
1772535225644936400,0.1049365234375,-0.999267578125,-0.0180511474609375,0.0137176513671875
1772535225654952200,0.1149521484375,-1.0002593994140625,-0.017547607421875,0.0128326416015625
1772535225664968200,0.12496826171875,-0.999908447265625,-0.0171661376953125,0.013885498046875
1772535225674984200,0.134984130859375,-0.9989013671875,-0.017059326171875,0.0137481689453125
1772535225685000200,0.145000244140625,-0.9995880126953125,-0.0178680419921875,0.0133056640625
1772535225695016200,0.15501611328125,-1.0000762939453125,-0.0186614990234375,0.013946533203125
1772535225705032400,0.165032470703125,-1.0001220703125,-0.017425537109375,0.0128631591796875
1772535225715048200,0.175048095703125,-0.999114990234375,-0.0174560546875,0.0141143798828125
1772535225725064200,0.185064208984375,-0.999725341796875,-0.0177154541015625,0.0143890380859375
1772535225735080200,0.195080078125,-0.9996795654296875,-0.0171661376953125,0.0145416259765625
1772535225745096200,0.20509619140625,-0.9995269775390625,-0.0181427001953125,0.0144500732421875
1772535225755112200,0.2151123046875,-0.998870849609375,-0.018310546875,0.01373291015625
1772535225765128400,0.22512841796875,-0.9993896484375,-0.019134521484375,0.01397705078125
1772535225775144400,0.23514453125,-0.999420166015625,-0.0187225341796875,0.0137939453125
1772535225785160200,0.24516015625,-1.0000152587890625,-0.0176544189453125,0.0137176513671875
1772535225795176200,0.25517626953125,-0.999359130859375,-0.0191497802734375,0.0140533447265625
1772535225805192200,0.265192138671875,-0.9999542236328125,-0.018829345703125,0.012969970703125
1772535225815208200,0.275208251953125,-0.9993438720703125,-0.017974853515625,0.0149993896484375
1772535225825224200,0.28522412109375,-1.0008087158203125,-0.018524169921875,0.0140838623046875
1772535225835239200,0.2952392578125,-1.000457763671875,-0.0177154541015625,0.0146636962890625
1772535225845256400,0.30525634765625,-0.9996185302734375,-0.0176849365234375,0.0141448974609375
1772535225855271400,0.315271484375,-0.998992919921875,-0.01678466796875,0.01361083984375
1772535225865287400,0.325287353515625,-0.9995574951171875,-0.0175628662109375,0.0145416259765625
1772535225875303200,0.33530322265625,-1.0005950927734375,-0.018402099609375,0.0136260986328125
1772535225885319200,0.345319091796875,-0.9992218017578125,-0.0180206298828125,0.0133056640625
1772535225895335200,0.355335205078125,-0.998138427734375,-0.0182037353515625,0.01336669921875
1772535225905351200,0.36535107421875,-0.999908447265625,-0.0178985595703125,0.01446533203125
1772535225915367400,0.375367431640625,-1.0006561279296875,-0.017120361328125,0.01361083984375
1772535225925383400,0.385383544921875,-0.999114990234375,-0.017547607421875,0.0120849609375
1772535225935399200,0.395399169921875,-0.9982452392578125,-0.0192413330078125,0.014404296875
1772535225945415200,0.405415283203125,-1.00018310546875,-0.017913818359375,0.0137176513671875
1772535225955431200,0.41543115234375,-0.99957275390625,-0.0170440673828125,0.0132293701171875
1772535225965447200,0.425447265625,-0.9988250732421875,-0.0181121826171875,0.014434814453125
1772535225975463200,0.435463134765625,-0.999359130859375,-0.01885986328125,0.013153076171875
1772535225985479400,0.4454794921875,-0.9995880126953125,-0.0172119140625,0.0130767822265625
1772535225995495400,0.455495361328125,-0.99847412109375,-0.017852783203125,0.0143280029296875
1772535226005511200,0.46551123046875,-0.99896240234375,-0.0176849365234375,0.015106201171875
1772535226015527200,0.475527099609375,-0.9989776611328125,-0.0168914794921875,0.0146942138671875
1772535226025543200,0.485543212890625,-0.99908447265625,-0.0180206298828125,0.0138702392578125
1772535226035559200,0.49555908203125,-0.9994659423828125,-0.0167694091796875,0.013671875
1772535226045575200,0.5055751953125,-0.999267578125,-0.0186309814453125,0.01361083984375
1772535226055591400,0.51559130859375,-0.9990386962890625,-0.0174102783203125,0.0131988525390625
1772535226065607400,0.525607421875,-0.9995269775390625,-0.0180511474609375,0.0140838623046875
1772535226075623200,0.535623046875,-0.9991302490234375,-0.0189208984375,0.012725830078125
1772535226085639200,0.54563916015625,-0.9991455078125,-0.01885986328125,0.014190673828125
1772535226095655200,0.5556552734375,-1.0001678466796875,-0.0186614990234375,0.0145263671875
1772535226105671200,0.565671142578125,-0.9989013671875,-0.0177764892578125,0.0133819580078125
1772535226115687400,0.5756875,-0.9993133544921875,-0.017974853515625,0.0136566162109375
1772535226125703400,0.585703369140625,-0.999969482421875,-0.017333984375,0.01416015625
1772535226135719400,0.595719482421875,-0.9995574951171875,-0.01812744140625,0.013336181640625
1772535226145735200,0.605735107421875,-0.9998626708984375,-0.0182342529296875,0.014068603515625
1772535226155751200,0.615751220703125,-0.9993133544921875,-0.0167236328125,0.013214111328125
1772535226165767200,0.62576708984375,-0.998687744140625,-0.017059326171875,0.0145263671875
1772535226175783200,0.635783203125,-0.9986419677734375,-0.018463134765625,0.0139617919921875
1772535226185799400,0.64579931640625,-1.000091552734375,-0.017486572265625,0.0136566162109375
1772535226195815400,0.6558154296875,-1.00048828125,-0.017669677734375,0.0133514404296875
1772535226205831200,0.6658310546875,-0.9990081787109375,-0.0177764892578125,0.0132598876953125
1772535226215847200,0.67584716796875,-0.9995880126953125,-0.0178070068359375,0.0125274658203125
1772535226225863200,0.68586328125,-0.998748779296875,-0.01812744140625,0.0135040283203125
1772535226235879200,0.695879150390625,-0.998291015625,-0.01702880859375,0.0146484375
1772535226245895200,0.705895263671875,-0.9977569580078125,-0.017547607421875,0.0139617919921875
1772535226255911000,0.715910888671875,-0.99951171875,-0.017974853515625,0.0126800537109375
1772535226265927000,0.725927001953125,-1.000274658203125,-0.017974853515625,0.013702392578125
1772535226275943000,0.73594287109375,-0.9996795654296875,-0.0175018310546875,0.0142364501953125
1772535226285958700,0.745958740234375,-0.99932861328125,-0.0178375244140625,0.01318359375
1772535226295974700,0.755974609375,-1.000274658203125,-0.017791748046875,0.013885498046875
1772535226305990700,0.76599072265625,-0.9984283447265625,-0.018646240234375,0.013275146484375
1772535226316006700,0.776006591796875,-0.9992828369140625,-0.017578125,0.0151214599609375
1772535226326023000,0.78602294921875,-0.99969482421875,-0.0171661376953125,0.0144805908203125
1772535226336039000,0.796038818359375,-0.999664306640625,-0.016876220703125,0.0132904052734375
1772535226346055000,0.806054931640625,-0.99920654296875,-0.018463134765625,0.014556884765625
1772535226356070700,0.816070556640625,-0.9990081787109375,-0.0170135498046875,0.0134735107421875
1772535226366086700,0.826086669921875,-0.9994659423828125,-0.01739501953125,0.013824462890625
1772535226376102700,0.8361025390625,-0.9992828369140625,-0.0180816650390625,0.0134735107421875
1772535226386118700,0.84611865234375,-0.99932861328125,-0.0191650390625,0.0140228271484375
1772535226396135000,0.856135009765625,-0.999298095703125,-0.0192718505859375,0.01416015625
1772535226406151000,0.86615087890625,-0.9998931884765625,-0.018646240234375,0.0132598876953125
1772535226416166700,0.876166748046875,-0.9989776611328125,-0.0183563232421875,0.0137481689453125
1772535226426182700,0.8861826171875,-0.999176025390625,-0.0184478759765625,0.013275146484375
1772535226436198700,0.89619873046875,-0.9998016357421875,-0.0186767578125,0.0135345458984375
1772535226446214700,0.906214599609375,-1.0012664794921875,-0.0176239013671875,0.01483154296875
1772535226456230700,0.916230712890625,-1.00030517578125,-0.0173492431640625,0.0135498046875
1772535226466247000,0.926246826171875,-1.0009918212890625,-0.017852783203125,0.0135345458984375
1772535226476263000,0.936262939453125,-0.998046875,-0.019378662109375,0.01397705078125
1772535226486278700,0.946278564453125,-0.9989776611328125,-0.018524169921875,0.0139007568359375
1772535226496294700,0.956294677734375,-0.99908447265625,-0.0181884765625,0.01422119140625
1772535226506310700,0.966310546875,-0.99981689453125,-0.018096923828125,0.0140380859375
1772535226516326700,0.97632666015625,-0.999542236328125,-0.018310546875,0.0139312744140625
1772535226526343000,0.986343017578125,-1.000030517578125,-0.0179443359375,0.01470947265625
1772535226536359000,0.99635888671875,-1.00006103515625,-0.0179290771484375,0.01385498046875
1772535226546375000,1.006375,-0.9993438720703125,-0.017578125,0.0125732421875
1772535226556390700,1.016390625,-0.9991607666015625,-0.0177764892578125,0.01434326171875
1772535226566406700,1.02640673828125,-0.9991607666015625,-0.016876220703125,0.014434814453125
1772535226576422700,1.036422607421875,-0.9995574951171875,-0.0181884765625,0.01336669921875
1772535226586438700,1.046438720703125,-0.9995880126953125,-0.0186920166015625,0.0137939453125
1772535226596455000,1.056454833984375,-0.998321533203125,-0.017333984375,0.0142364501953125
1772535226606471000,1.066470947265625,-0.997955322265625,-0.01824951171875,0.0144195556640625
1772535226616487000,1.07648681640625,-0.99920654296875,-0.0170135498046875,0.0127716064453125
1772535226626502700,1.086502685546875,-1.000274658203125,-0.018280029296875,0.012908935546875
1772535226636518700,1.0965185546875,-1.0003814697265625,-0.0189208984375,0.0133056640625
1772535226646534700,1.10653466796875,-0.9990386962890625,-0.018341064453125,0.01422119140625
1772535226656550700,1.116550537109375,-0.9997406005859375,-0.0170440673828125,0.013824462890625
1772535226666567000,1.12656689453125,-1.000701904296875,-0.01861572265625,0.0143585205078125
1772535226676583000,1.1365830078125,-0.998870849609375,-0.0184478759765625,0.0130462646484375
1772535226686598700,1.1465986328125,-0.999053955078125,-0.0178070068359375,0.01361083984375
1772535226696614700,1.15661474609375,-0.9987335205078125,-0.0175628662109375,0.01397705078125
1772535226706629600,1.166629638671875,-0.999603271484375,-0.0179290771484375,0.012725830078125
1772535226716646700,1.176646728515625,-1.0002899169921875,-0.01947021484375,0.0130157470703125
1772535226726661600,1.18666162109375,-0.99835205078125,-0.0186920166015625,0.012054443359375
1772535226736677600,1.196677734375,-0.99920654296875,-0.01824951171875,0.013641357421875
1772535226746694000,1.20669384765625,-0.999908447265625,-0.0190277099609375,0.0136566162109375
1772535226756710000,1.2167099609375,-0.99853515625,-0.0183563232421875,0.013458251953125
1772535226766726000,1.226725830078125,-0.999847412109375,-0.0174102783203125,0.013641357421875
1772535226776741600,1.23674169921875,-1.0007781982421875,-0.0183868408203125,0.0143585205078125
1772535226786757600,1.246757568359375,-0.99847412109375,-0.0176239013671875,0.01324462890625
1772535226796773600,1.256773681640625,-0.998992919921875,-0.017852783203125,0.0138397216796875
1772535226806790000,1.266789794921875,-0.9992523193359375,-0.018890380859375,0.0146026611328125
1772535226816806000,1.276805908203125,-1.000244140625,-0.0191650390625,0.0133056640625
1772535226826822000,1.28682177734375,-0.998321533203125,-0.0184326171875,0.013031005859375
1772535226836838000,1.296837890625,-0.9991455078125,-0.0183258056640625,0.01324462890625
1772535226846853600,1.306853515625,-0.99920654296875,-0.018890380859375,0.0144195556640625
1772535226856869600,1.31686962890625,-1.0006103515625,-0.0189361572265625,0.0143890380859375
1772535226866885600,1.3268857421875,-0.999420166015625,-0.017822265625,0.0144500732421875
1772535226876902000,1.33690185546875,-0.9989166259765625,-0.018035888671875,0.0139007568359375
1772535226886918000,1.34691796875,-0.9986419677734375,-0.01824951171875,0.0141754150390625
1772535226896934000,1.356933837890625,-0.9987335205078125,-0.0169677734375,0.013336181640625
1772535226906949600,1.36694970703125,-0.9993438720703125,-0.01751708984375,0.013763427734375
1772535226916965600,1.376965576171875,-0.998443603515625,-0.018829345703125,0.01336669921875
1772535226926981600,1.386981689453125,-0.9990234375,-0.0174407958984375,0.013641357421875
1772535226936997600,1.39699755859375,-0.99981689453125,-0.0170745849609375,0.012847900390625
1772535226947014000,1.407013916015625,-1.0007476806640625,-0.018798828125,0.0133514404296875
1772535226957030000,1.41702978515625,-1.00048828125,-0.0184173583984375,0.0132904052734375
1772535226967046000,1.4270458984375,-0.9988861083984375,-0.0189208984375,0.0126495361328125
1772535226977061600,1.4370615234375,-0.9993133544921875,-0.017120361328125,0.014068603515625
1772535226987077600,1.44707763671875,-0.999725341796875,-0.0170135498046875,0.0138092041015625
1772535226997093600,1.45709375,-0.9986114501953125,-0.0174713134765625,0.0133209228515625
1772535227007109600,1.467109619140625,-0.999359130859375,-0.0179443359375,0.0130462646484375
1772535227017126000,1.4771259765625,-0.9987335205078125,-0.0182037353515625,0.013397216796875
1772535227027142000,1.487141845703125,-1.0001983642578125,-0.016845703125,0.01513671875
1772535227037158000,1.497157958984375,-0.999542236328125,-0.0173187255859375,0.0142059326171875
1772535227047173600,1.507173583984375,-0.999176025390625,-0.0189971923828125,0.013336181640625
1772535227057189600,1.517189697265625,-0.999542236328125,-0.01898193359375,0.0144195556640625
1772535227067205600,1.52720556640625,-0.999237060546875,-0.0189666748046875,0.0141448974609375
1772535227077222000,1.537221923828125,-0.999908447265625,-0.01898193359375,0.013641357421875
1772535227087238000,1.54723779296875,-1.00018310546875,-0.0181884765625,0.0152435302734375
1772535227097254000,1.55725390625,-1.00042724609375,-0.018402099609375,0.01324462890625
1772535227107270000,1.567269775390625,-1.000335693359375,-0.0178680419921875,0.0125732421875
1772535227117285600,1.57728564453125,-0.999267578125,-0.0180206298828125,0.0131683349609375
1772535227127301600,1.587301513671875,-0.999267578125,-0.01708984375,0.01336669921875
1772535227137317600,1.597317626953125,-0.9988250732421875,-0.0179595947265625,0.0135345458984375
1772535227147334000,1.607333984375,-0.9994964599609375,-0.0169830322265625,0.0135955810546875
1772535227157350000,1.617349853515625,-0.9993133544921875,-0.016876220703125,0.0139617919921875
1772535227167366000,1.627365966796875,-1.000244140625,-0.0180206298828125,0.0135650634765625
1772535227177381600,1.637381591796875,-1.0003662109375,-0.0179290771484375,0.0148162841796875
1772535227187397600,1.647397705078125,-0.99871826171875,-0.018280029296875,0.01409912109375
1772535227197413600,1.65741357421875,-0.9993438720703125,-0.016632080078125,0.013885498046875
1772535227207429600,1.6674296875,-0.99908447265625,-0.0183563232421875,0.0139923095703125
1772535227217446000,1.67744580078125,-0.9994354248046875,-0.0181732177734375,0.0130615234375
1772535227227462000,1.6874619140625,-0.998992919921875,-0.01861572265625,0.0133056640625
1772535227237478000,1.697477783203125,-1.0005950927734375,-0.01849365234375,0.0136566162109375
1772535227247493600,1.70749365234375,-0.9997100830078125,-0.0181884765625,0.0137939453125
1772535227257510000,1.717510009765625,-0.999603271484375,-0.0186614990234375,0.0146026611328125
1772535227267526000,1.72752587890625,-1.000457763671875,-0.0184326171875,0.013946533203125
1772535227277542000,1.7375419921875,-0.99847412109375,-0.019012451171875,0.0125885009765625
1772535227287558000,1.747557861328125,-1.000030517578125,-0.0179290771484375,0.011932373046875
1772535227297574000,1.757573974609375,-1.00030517578125,-0.0179443359375,0.0129547119140625
1772535227307590000,1.76758984375,-1.0008697509765625,-0.0174713134765625,0.014404296875
1772535227317606000,1.77760595703125,-0.9993896484375,-0.018585205078125,0.01416015625
1772535227327622000,1.787621826171875,-1.0001373291015625,-0.018096923828125,0.0138702392578125
1772535227337638000,1.797637939453125,-0.9993743896484375,-0.0179901123046875,0.0152435302734375
1772535227347654000,1.80765380859375,-0.9985504150390625,-0.0169677734375,0.0131378173828125
1772535227357670000,1.817669921875,-1.000030517578125,-0.0191802978515625,0.0129241943359375
1772535227367686100,1.82768603515625,-1.000579833984375,-0.018157958984375,0.01336669921875
1772535227377702000,1.837701904296875,-0.9989013671875,-0.018280029296875,0.013427734375
1772535227387718000,1.8477177734375,-0.9994659423828125,-0.01812744140625,0.01434326171875
1772535227397734000,1.85773388671875,-0.998931884765625,-0.0180816650390625,0.0148468017578125
1772535227407750000,1.86775,-0.998992919921875,-0.018218994140625,0.0142974853515625
1772535227417766000,1.877765869140625,-0.9984588623046875,-0.0177154541015625,0.0134735107421875
1772535227427780900,1.88778076171875,-0.9990234375,-0.017303466796875,0.0137939453125
1772535227437798100,1.897798095703125,-0.9992218017578125,-0.0183563232421875,0.014190673828125
1772535227447814000,1.90781396484375,-0.9992218017578125,-0.0185394287109375,0.013336181640625
1772535227457829000,1.9178291015625,-1.0007476806640625,-0.0181732177734375,0.013427734375
1772535227467844900,1.927844970703125,-1.00091552734375,-0.0182342529296875,0.012603759765625
1772535227477860900,1.93786083984375,-0.999298095703125,-0.0173797607421875,0.013671875
1772535227487876900,1.947876953125,-0.9979248046875,-0.0183868408203125,0.01397705078125
1772535227497892900,1.957892822265625,-1.0001220703125,-0.01812744140625,0.0146026611328125
1772535227507908900,1.967908935546875,-0.999725341796875,-0.017547607421875,0.0146484375
1772535227517925000,1.977925048828125,-0.9996337890625,-0.018463134765625,0.0120391845703125
1772535227527940900,1.98794091796875,-0.99981689453125,-0.01800537109375,0.0135650634765625
1772535227537956900,1.997956787109375,-0.998870849609375,-0.0172271728515625,0.014068603515625
1772535227547972900,2.007972900390625,-0.997772216796875,-0.0185699462890625,0.0132293701171875
1772535227557988900,2.01798876953125,-0.9998321533203125,-0.018524169921875,0.013885498046875
1772535227568004900,2.0280048828125,-1.0010528564453125,-0.01824951171875,0.013427734375
1772535227578020900,2.038020751953125,-0.9989013671875,-0.0177764892578125,0.0135650634765625
1772535227588037000,2.048037109375,-1.0008544921875,-0.018829345703125,0.014251708984375
1772535227598052900,2.058052978515625,-0.9985198974609375,-0.0183563232421875,0.013153076171875
1772535227608068900,2.06806884765625,-0.999664306640625,-0.0193023681640625,0.0128021240234375
1772535227618084900,2.0780849609375,-0.9995574951171875,-0.0179595947265625,0.0142822265625
1772535227628100900,2.088100830078125,-0.999969482421875,-0.0185699462890625,0.0145263671875
1772535227638116900,2.098116943359375,-0.998809814453125,-0.0189971923828125,0.014129638671875
1772535227648133000,2.108133056640625,-0.9985809326171875,-0.017242431640625,0.0135040283203125
1772535227658149000,2.118149169921875,-0.9998931884765625,-0.016632080078125,0.014190673828125
1772535227668164900,2.128164794921875,-0.9986724853515625,-0.0189208984375,0.0146942138671875
1772535227678180900,2.138180908203125,-0.9997406005859375,-0.0188140869140625,0.013397216796875
1772535227688196900,2.14819677734375,-0.9995880126953125,-0.018890380859375,0.0140838623046875
1772535227698212900,2.158212890625,-0.9998779296875,-0.0182037353515625,0.0151824951171875
1772535227708228900,2.168228759765625,-0.99896240234375,-0.0172119140625,0.0142364501953125
1772535227718245000,2.1782451171875,-0.999969482421875,-0.0172576904296875,0.0132293701171875
1772535227728261000,2.18826123046875,-0.9984130859375,-0.0178070068359375,0.0146484375
1772535227738276900,2.19827685546875,-0.9985504150390625,-0.018951416015625,0.0142364501953125
1772535227748292900,2.20829296875,-1.000213623046875,-0.018280029296875,0.0142669677734375
1772535227758308900,2.218308837890625,-1.000030517578125,-0.018096923828125,0.0125885009765625
1772535227768324900,2.228324951171875,-0.9987945556640625,-0.0176239013671875,0.01385498046875
1772535227778340900,2.2383408203125,-0.999481201171875,-0.0188446044921875,0.0145416259765625
1772535227788357000,2.248357177734375,-0.9986419677734375,-0.0177154541015625,0.0146484375
1772535227798372900,2.258372802734375,-1.0002899169921875,-0.0182342529296875,0.013946533203125
1772535227808388900,2.268388916015625,-1.0002899169921875,-0.0188751220703125,0.0135040283203125
1772535227818404900,2.27840478515625,-0.998504638671875,-0.0193328857421875,0.013702392578125
1772535227828420900,2.2884208984375,-0.9991607666015625,-0.019073486328125,0.0139007568359375
1772535227838436900,2.298436767578125,-0.9989776611328125,-0.01788330078125,0.01239013671875
1772535227848452900,2.308452880859375,-0.9999237060546875,-0.0176544189453125,0.0140533447265625
1772535227858469000,2.31846923828125,-1.000030517578125,-0.019073486328125,0.0136566162109375
1772535227868484900,2.32848486328125,-0.9993438720703125,-0.018310546875,0.0138092041015625
1772535227878500900,2.3385009765625,-0.998992919921875,-0.0178985595703125,0.0143280029296875
1772535227888516900,2.348516845703125,-0.998291015625,-0.0181884765625,0.0137939453125
1772535227898532900,2.358532958984375,-0.9999237060546875,-0.0188446044921875,0.0138092041015625
1772535227908548900,2.368548828125,-1.00018310546875,-0.018096923828125,0.0138092041015625
1772535227918565000,2.378565185546875,-0.9991455078125,-0.0182037353515625,0.0139312744140625
1772535227928581000,2.3885810546875,-0.9982452392578125,-0.0182952880859375,0.014251708984375
1772535227938596900,2.398596923828125,-0.999603271484375,-0.0189208984375,0.0127716064453125
1772535227948612900,2.40861279296875,-1.000030517578125,-0.0178375244140625,0.01336669921875
1772535227958628900,2.41862890625,-0.999755859375,-0.017608642578125,0.013824462890625
1772535227968644900,2.428644775390625,-1.0002288818359375,-0.0177001953125,0.0130767822265625
1772535227978660900,2.438660888671875,-0.9994659423828125,-0.02001953125,0.0129852294921875
1772535227988677000,2.448677001953125,-1.00018310546875,-0.017333984375,0.012969970703125
1772535227998692900,2.45869287109375,-0.9997406005859375,-0.017578125,0.0149688720703125
1772535228008708900,2.468708984375,-0.998931884765625,-0.0179290771484375,0.0145263671875
1772535228018724900,2.478724853515625,-0.99871826171875,-0.01776123046875,0.014862060546875
1772535228028740900,2.488740966796875,-0.9989013671875,-0.01739501953125,0.0145416259765625
1772535228038756900,2.4987568359375,-0.999908447265625,-0.017822265625,0.0142059326171875
1772535228048772900,2.50877294921875,-1.0011138916015625,-0.0178375244140625,0.0139617919921875
1772535228058789000,2.5187890625,-0.9996490478515625,-0.01910400390625,0.014434814453125
1772535228068804900,2.528804931640625,-1.0002899169921875,-0.018707275390625,0.013458251953125
1772535228078820900,2.53882080078125,-1.0005340576171875,-0.0174713134765625,0.01531982421875
1772535228088836900,2.5488369140625,-0.998779296875,-0.0175018310546875,0.0147247314453125
1772535228098852900,2.558852783203125,-0.999786376953125,-0.0174560546875,0.0131683349609375
1772535228108868900,2.568868896484375,-1.00042724609375,-0.01654052734375,0.0137786865234375
1772535228118883800,2.5788837890625,-0.9987640380859375,-0.018402099609375,0.01318359375
1772535228128899800,2.58889990234375,-0.9987640380859375,-0.0189666748046875,0.0139312744140625
1772535228138916000,2.598916015625,-0.99884033203125,-0.0174102783203125,0.0144195556640625
1772535228148932000,2.60893212890625,-0.9988861083984375,-0.01739501953125,0.014495849609375
1772535228158947800,2.61894775390625,-0.9990081787109375,-0.0185394287109375,0.013336181640625
1772535228168963800,2.6289638671875,-1.000457763671875,-0.0185699462890625,0.01373291015625
1772535228178979800,2.638979736328125,-1.000701904296875,-0.0180511474609375,0.0142669677734375
1772535228188995800,2.648995849609375,-0.9984893798828125,-0.0177459716796875,0.0135345458984375
1772535228199012000,2.65901220703125,-0.99908447265625,-0.0180206298828125,0.012603759765625
1772535228209028000,2.669028076171875,-1.000091552734375,-0.0171051025390625,0.0150146484375
1772535228219044000,2.679044189453125,-0.998748779296875,-0.0172119140625,0.0142059326171875
1772535228229059800,2.689059814453125,-0.9991455078125,-0.017608642578125,0.0139617919921875
1772535228239075800,2.699075927734375,-0.9994354248046875,-0.018341064453125,0.0128631591796875
1772535228249091800,2.709091796875,-1.0023345947265625,-0.0173187255859375,0.0128631591796875
1772535228259108000,2.719108154296875,-0.999603271484375,-0.0180206298828125,0.014190673828125
1772535228269124000,2.7291240234375,-0.9986724853515625,-0.017303466796875,0.0133819580078125
1772535228279140400,2.739140380859375,-0.9998931884765625,-0.0181121826171875,0.0147552490234375
1772535228289156000,2.749156005859375,-0.99969482421875,-0.0185394287109375,0.0141754150390625
1772535228299172000,2.759172119140625,-0.9983978271484375,-0.0175323486328125,0.0145263671875
1772535228309188000,2.76918798828125,-0.999481201171875,-0.0172271728515625,0.014129638671875
1772535228319204000,2.7792041015625,-0.999298095703125,-0.018157958984375,0.013275146484375
1772535228329220000,2.78922021484375,-0.999420166015625,-0.01861572265625,0.013671875
1772535228339236000,2.799236083984375,-0.9993438720703125,-0.01849365234375,0.0142364501953125
1772535228349252000,2.809252197265625,-1.0001373291015625,-0.0186004638671875,0.01422119140625
1772535228359268000,2.81926806640625,-1.0001678466796875,-0.016571044921875,0.01385498046875
1772535228369284000,2.8292841796875,-0.999908447265625,-0.0185394287109375,0.014373779296875
1772535228379300000,2.839300048828125,-0.9995574951171875,-0.017913818359375,0.0136260986328125
1772535228389316000,2.849316162109375,-1.000091552734375,-0.0184326171875,0.0135040283203125
1772535228399332000,2.85933203125,-0.9997406005859375,-0.017822265625,0.012115478515625
1772535228409348400,2.869348388671875,-0.99945068359375,-0.0179595947265625,0.01373291015625
1772535228419364000,2.879364013671875,-0.998199462890625,-0.018218994140625,0.01202392578125
1772535228429380000,2.889380126953125,-0.999053955078125,-0.0174560546875,0.0130767822265625
1772535228439396000,2.89939599609375,-1.0003662109375,-0.0182037353515625,0.0139923095703125
1772535228449412000,2.909412109375,-1.000732421875,-0.018768310546875,0.0140838623046875
1772535228459428000,2.919427978515625,-0.9999237060546875,-0.017791748046875,0.0128631591796875
1772535228469444000,2.929444091796875,-0.9999237060546875,-0.0180816650390625,0.01470947265625
1772535228479460400,2.93946044921875,-0.9992828369140625,-0.018768310546875,0.0129852294921875
1772535228489476000,2.94947607421875,-1.0008087158203125,-0.0178680419921875,0.013275146484375
1772535228499492000,2.9594921875,-0.99871826171875,-0.0163726806640625,0.014129638671875
1772535228509508000,2.969508056640625,-0.9999237060546875,-0.0181427001953125,0.014434814453125
1772535228519524000,2.979524169921875,-0.9981842041015625,-0.01776123046875,0.0149383544921875
1772535228529540000,2.9895400390625,-0.9992523193359375,-0.017303466796875,0.013702392578125
1772535228539556000,2.99955615234375,-0.9993743896484375,-0.018585205078125,0.014251708984375
1772535228549572400,3.009572265625,-0.999420166015625,-0.018768310546875,0.0142364501953125
1772535228559588000,3.019588134765625,-0.998687744140625,-0.0172882080078125,0.014068603515625
1772535228569604000,3.02960400390625,-0.99908447265625,-0.01806640625,0.013336181640625
1772535228579620000,3.0396201171875,-0.998443603515625,-0.0185089111328125,0.0151824951171875
1772535228589636000,3.049635986328125,-0.9982452392578125,-0.0184326171875,0.014129638671875
1772535228599652000,3.059652099609375,-0.9997406005859375,-0.0177459716796875,0.0147857666015625
1772535228609668000,3.069668212890625,-0.9995269775390625,-0.0176849365234375,0.013671875
1772535228619684000,3.07968408203125,-0.9987030029296875,-0.0183868408203125,0.0135498046875
1772535228629700000,3.0897001953125,-0.9991455078125,-0.0176544189453125,0.013763427734375
1772535228639716000,3.099716064453125,-0.999420166015625,-0.0182952880859375,0.0128631591796875
1772535228649732000,3.109732177734375,-0.99993896484375,-0.0167999267578125,0.014862060546875
1772535228659748000,3.119748046875,-0.9981536865234375,-0.0183868408203125,0.0140838623046875
1772535228669764000,3.12976416015625,-0.999237060546875,-0.01824951171875,0.0141754150390625
1772535228679780400,3.1397802734375,-1.0008697509765625,-0.0183868408203125,0.013397216796875
1772535228689796000,3.149796142578125,-0.99945068359375,-0.0179443359375,0.0140380859375
1772535228699812000,3.15981201171875,-0.99957275390625,-0.0180206298828125,0.0137939453125
1772535228709828000,3.169828125,-1.0000152587890625,-0.0162506103515625,0.013519287109375
1772535228719844000,3.179843994140625,-1.000396728515625,-0.0167999267578125,0.0138397216796875
1772535228729860000,3.189860107421875,-0.9998626708984375,-0.0174560546875,0.0139923095703125
1772535228739876000,3.1998759765625,-1.0000762939453125,-0.018463134765625,0.0140380859375
1772535228749892400,3.209892333984375,-0.998931884765625,-0.01849365234375,0.0152740478515625
1772535228759908000,3.219908203125,-0.9998016357421875,-0.017333984375,0.014251708984375
1772535228769923300,3.22992333984375,-0.9987945556640625,-0.0171966552734375,0.01312255859375
1772535228779939000,3.23993896484375,-0.9989166259765625,-0.018707275390625,0.01348876953125
1772535228789955000,3.249955078125,-1.0006103515625,-0.0186309814453125,0.0129547119140625
1772535228799971000,3.25997119140625,-0.99945068359375,-0.01837158203125,0.013916015625
1772535228809987000,3.269987060546875,-1.000091552734375,-0.0178070068359375,0.0136566162109375
1772535228820003000,3.280003173828125,-0.9987030029296875,-0.017181396484375,0.014556884765625
1772535228830019300,3.290019287109375,-0.9989166259765625,-0.01800537109375,0.01416015625
1772535228840035300,3.300035400390625,-1.000152587890625,-0.0185089111328125,0.014129638671875
1772535228850051000,3.310051025390625,-0.999298095703125,-0.017791748046875,0.0140228271484375
1772535228860067000,3.320067138671875,-0.9985504150390625,-0.0185394287109375,0.015472412109375
1772535228870083000,3.3300830078125,-0.9989471435546875,-0.0185699462890625,0.0130462646484375
1772535228880099000,3.34009912109375,-0.998809814453125,-0.018463134765625,0.0135345458984375
1772535228890115000,3.350114990234375,-1.000030517578125,-0.0184326171875,0.014556884765625
1772535228900131300,3.36013134765625,-0.99853515625,-0.0171966552734375,0.0135040283203125
1772535228910147000,3.37014697265625,-0.9989013671875,-0.0184326171875,0.014068603515625
1772535228920163000,3.3801630859375,-0.9989471435546875,-0.017486572265625,0.0146942138671875
1772535228930179000,3.390178955078125,-0.998931884765625,-0.01849365234375,0.014801025390625
1772535228940195000,3.400195068359375,-0.99884033203125,-0.018585205078125,0.014495849609375
1772535228950211000,3.410211181640625,-0.999969482421875,-0.0170135498046875,0.01397705078125
1772535228960227300,3.420227294921875,-0.998321533203125,-0.0179901123046875,0.01434326171875
1772535228970243300,3.430243408203125,-0.9998931884765625,-0.0177764892578125,0.0142822265625
1772535228980259000,3.440259033203125,-1.0004425048828125,-0.0184478759765625,0.01275634765625
1772535228990275000,3.450275146484375,-0.9999542236328125,-0.0169830322265625,0.0131988525390625
1772535229000291000,3.460291015625,-0.99957275390625,-0.018646240234375,0.013824462890625
1772535229010307000,3.47030712890625,-0.9994049072265625,-0.01763916015625,0.014678955078125
1772535229020323000,3.480322998046875,-0.9988250732421875,-0.0178680419921875,0.0137939453125
1772535229030339300,3.49033935546875,-0.9999542236328125,-0.0181427001953125,0.0131072998046875
1772535229040355300,3.500355224609375,-0.998779296875,-0.0184326171875,0.0133209228515625
1772535229050371000,3.51037109375,-1.00018310546875,-0.0173797607421875,0.0145263671875
1772535229060387000,3.520386962890625,-0.999176025390625,-0.0177764892578125,0.013763427734375
1772535229070403000,3.530403076171875,-0.99884033203125,-0.0180816650390625,0.0142822265625
1772535229080419000,3.540419189453125,-0.9990692138671875,-0.0176849365234375,0.01397705078125
1772535229090435000,3.55043505859375,-0.99847412109375,-0.0181121826171875,0.0133209228515625
1772535229100451300,3.560451416015625,-0.999725341796875,-0.018402099609375,0.012359619140625
1772535229110467000,3.570467041015625,-0.9997406005859375,-0.01739501953125,0.0139617919921875
1772535229120483000,3.580483154296875,-0.9998626708984375,-0.01849365234375,0.014251708984375
1772535229130499000,3.5904990234375,-0.999786376953125,-0.0190887451171875,0.014129638671875
1772535229140515000,3.60051513671875,-0.99871826171875,-0.0186309814453125,0.0139617919921875
1772535229150531000,3.610531005859375,-0.9979095458984375,-0.0169525146484375,0.0145263671875
1772535229160547000,3.620547119140625,-0.9997100830078125,-0.017669677734375,0.013519287109375
1772535229170563300,3.630563232421875,-0.99932861328125,-0.01849365234375,0.013641357421875
1772535229180579000,3.6405791015625,-0.998046875,-0.018768310546875,0.013427734375
1772535229190595000,3.650594970703125,-0.99957275390625,-0.0182647705078125,0.013641357421875
1772535229200611000,3.660611083984375,-1.0001678466796875,-0.0177154541015625,0.0138397216796875
1772535229210627000,3.670626953125,-0.99932861328125,-0.018707275390625,0.0138092041015625
1772535229220643000,3.68064306640625,-0.9985198974609375,-0.017486572265625,0.014312744140625
1772535229230659300,3.690659423828125,-0.9994049072265625,-0.0168914794921875,0.014129638671875
1772535229240675300,3.70067529296875,-0.998504638671875,-0.0177459716796875,0.012847900390625
1772535229250691000,3.710691162109375,-0.999908447265625,-0.0189056396484375,0.014556884765625
1772535229260707000,3.72070703125,-0.9994659423828125,-0.018280029296875,0.0136260986328125
1772535229270723000,3.73072314453125,-1.0003204345703125,-0.017822265625,0.0146484375
1772535229280739000,3.740739013671875,-0.99993896484375,-0.017578125,0.014678955078125
1772535229290755000,3.750755126953125,-0.9992523193359375,-0.0184478759765625,0.01397705078125
1772535229300771300,3.760771240234375,-0.999542236328125,-0.01800537109375,0.01312255859375
1772535229310787300,3.770787353515625,-1.00030517578125,-0.0175323486328125,0.0143890380859375
1772535229320803000,3.780802978515625,-0.9996337890625,-0.0186309814453125,0.0139923095703125
1772535229330819000,3.790819091796875,-0.998382568359375,-0.0182952880859375,0.0146026611328125
1772535229340835000,3.8008349609375,-1.000335693359375,-0.01824951171875,0.013275146484375
1772535229350851000,3.81085107421875,-1.0000762939453125,-0.0179595947265625,0.0124359130859375
1772535229360867000,3.8208671875,-0.9992218017578125,-0.018341064453125,0.0140228271484375
1772535229370883300,3.83088330078125,-0.9973297119140625,-0.0179595947265625,0.013427734375
1772535229380898300,3.840898193359375,-0.998809814453125,-0.0189971923828125,0.013153076171875
1772535229390915000,3.8509150390625,-0.99859619140625,-0.018463134765625,0.014892578125
1772535229400930000,3.860929931640625,-0.9990081787109375,-0.01861572265625,0.0142822265625
1772535229410946000,3.870946044921875,-0.9990386962890625,-0.01885986328125,0.013641357421875
1772535229420962000,3.880962158203125,-1.0004425048828125,-0.0180816650390625,0.0131988525390625
1772535229430978000,3.89097802734375,-0.9999237060546875,-0.018524169921875,0.013275146484375
1772535229440994000,3.900994140625,-0.99945068359375,-0.0187225341796875,0.0142822265625
1772535229451010300,3.91101025390625,-0.9993896484375,-0.0185089111328125,0.0140533447265625
1772535229461026300,3.9210263671875,-0.999664306640625,-0.0178070068359375,0.012786865234375
1772535229471042000,3.9310419921875,-0.9994964599609375,-0.0171661376953125,0.0146026611328125
1772535229481058000,3.94105810546875,-0.999114990234375,-0.01708984375,0.013427734375
1772535229491074000,3.951073974609375,-0.9995880126953125,-0.018402099609375,0.012939453125
1772535229501090000,3.961090087890625,-0.99761962890625,-0.018524169921875,0.013580322265625
1772535229511106000,3.97110595703125,-0.99957275390625,-0.01812744140625,0.0133209228515625
1772535229521122300,3.981122314453125,-0.9992523193359375,-0.0185546875,0.01300048828125
1772535229531138300,3.99113818359375,-0.9991607666015625,-0.017913818359375,0.013702392578125
1772535229541154000,4.001154052734375,-0.9994964599609375,-0.0182037353515625,0.013458251953125
1772535229551170000,4.011170166015625,-0.9990997314453125,-0.018585205078125,0.0125732421875
1772535229561186000,4.02118603515625,-0.9991912841796875,-0.019073486328125,0.012939453125
1772535229571202000,4.0312021484375,-0.999114990234375,-0.018463134765625,0.01318359375
1772535229581218300,4.04121826171875,-0.99871826171875,-0.017974853515625,0.0133819580078125
1772535229591234300,4.051234375,-0.9990692138671875,-0.01812744140625,0.0135955810546875
1772535229601250000,4.06125,-1.00042724609375,-0.0181427001953125,0.014404296875
1772535229611266000,4.07126611328125,-1.00048828125,-0.0182342529296875,0.0139617919921875
1772535229621282000,4.081281982421875,-0.999053955078125,-0.0187225341796875,0.0133209228515625
1772535229631298000,4.091298095703125,-0.999053955078125,-0.017822265625,0.012969970703125
1772535229641314000,4.10131396484375,-0.998138427734375,-0.0174560546875,0.0127716064453125
1772535229651330300,4.111330322265625,-0.9982147216796875,-0.01776123046875,0.0130462646484375
1772535229661346300,4.12134619140625,-0.9994659423828125,-0.017578125,0.0137939453125
1772535229671362000,4.131362060546875,-0.998809814453125,-0.01812744140625,0.013671875
1772535229681378000,4.1413779296875,-1.000213623046875,-0.0174102783203125,0.0137481689453125
1772535229691394000,4.15139404296875,-0.999908447265625,-0.017822265625,0.01336669921875
1772535229701410000,4.16141015625,-0.9987335205078125,-0.0178375244140625,0.0126800537109375
1772535229711426000,4.171426025390625,-0.9997711181640625,-0.0194549560546875,0.014617919921875
1772535229721442300,4.1814423828125,-0.9999542236328125,-0.017608642578125,0.014068603515625
1772535229731458300,4.191458251953125,-0.998565673828125,-0.017578125,0.0148468017578125
1772535229741474000,4.20147412109375,-0.9993133544921875,-0.0179901123046875,0.0148773193359375
1772535229751490000,4.211489990234375,-0.9986572265625,-0.0177459716796875,0.0131072998046875
1772535229761506000,4.221506103515625,-0.9991912841796875,-0.0182952880859375,0.01324462890625
1772535229771522000,4.23152197265625,-0.9984283447265625,-0.017974853515625,0.0142822265625
1772535229781538300,4.241538330078125,-0.9991607666015625,-0.0180206298828125,0.012298583984375
1772535229791554300,4.25155419921875,-1.000213623046875,-0.0179443359375,0.013763427734375
1772535229801570300,4.2615703125,-0.9993896484375,-0.0183258056640625,0.013671875
1772535229811586000,4.2715859375,-0.99951171875,-0.018646240234375,0.0133514404296875
1772535229821602000,4.28160205078125,-0.9990386962890625,-0.0185394287109375,0.0141143798828125
1772535229831618000,4.2916181640625,-0.99896240234375,-0.017974853515625,0.0139007568359375
1772535229841634000,4.301634033203125,-0.997100830078125,-0.01690673828125,0.0137481689453125
1772535229851650300,4.311650390625,-0.9991455078125,-0.0173187255859375,0.0149383544921875
1772535229861666300,4.321666259765625,-0.9993133544921875,-0.0167999267578125,0.0135498046875
1772535229871682000,4.33168212890625,-0.999237060546875,-0.0162506103515625,0.01361083984375
1772535229881698000,4.341697998046875,-0.999542236328125,-0.0186767578125,0.0142364501953125
1772535229891714000,4.351714111328125,-1.000091552734375,-0.0179290771484375,0.01422119140625
1772535229901730000,4.36172998046875,-1.0017547607421875,-0.017242431640625,0.014312744140625
1772535229911746000,4.37174609375,-1.0000762939453125,-0.01824951171875,0.0148162841796875
1772535229921762300,4.38176220703125,-0.9992828369140625,-0.0188446044921875,0.0134735107421875
1772535229931778300,4.3917783203125,-0.9979705810546875,-0.0182342529296875,0.01446533203125
1772535229941794000,4.4017939453125,-0.9998321533203125,-0.0170745849609375,0.01385498046875
1772535229951810000,4.41181005859375,-0.99920654296875,-0.0188751220703125,0.013763427734375
1772535229961826000,4.421825927734375,-1.00018310546875,-0.0185394287109375,0.0139007568359375
1772535229971842000,4.431842041015625,-0.99981689453125,-0.0174102783203125,0.0133819580078125
1772535229981858000,4.441858154296875,-0.99932861328125,-0.0176849365234375,0.0137176513671875
1772535229991874300,4.451874267578125,-0.999359130859375,-0.0177154541015625,0.0132598876953125
1772535230001890300,4.461890380859375,-1.0002288818359375,-0.01824951171875,0.01458740234375
1772535230011905300,4.4719052734375,-1.0002899169921875,-0.018890380859375,0.01397705078125
1772535230021921300,4.48192138671875,-0.999237060546875,-0.0185546875,0.0136260986328125
1772535230031937000,4.49193701171875,-0.9992218017578125,-0.016754150390625,0.0125274658203125
1772535230041953000,4.501953125,-0.999359130859375,-0.0182647705078125,0.013671875
1772535230051969000,4.511968994140625,-1.0004730224609375,-0.0192108154296875,0.014617919921875
1772535230061985000,4.521985107421875,-1.0003662109375,-0.0168609619140625,0.013214111328125
1772535230072001300,4.532001220703125,-0.999298095703125,-0.0169830322265625,0.013275146484375
1772535230082017300,4.542017333984375,-0.99945068359375,-0.017730712890625,0.0136871337890625
1772535230092033000,4.552032958984375,-0.9990081787109375,-0.017730712890625,0.0113983154296875
1772535230102049000,4.562049072265625,-1.00030517578125,-0.015838623046875,0.012603759765625
1772535230112065000,4.57206494140625,-1.0003509521484375,-0.0186309814453125,0.0133514404296875
1772535230122081000,4.5820810546875,-0.9995880126953125,-0.01751708984375,0.014007568359375
1772535230132097300,4.59209716796875,-0.999603271484375,-0.0168304443359375,0.0132598876953125
1772535230142113300,4.60211328125,-0.999298095703125,-0.0182037353515625,0.0131988525390625
1772535230152129300,4.61212939453125,-0.99853515625,-0.0183258056640625,0.0135955810546875
1772535230162145000,4.62214501953125,-0.9985198974609375,-0.01861572265625,0.0142822265625
1772535230172161000,4.6321611328125,-0.999603271484375,-0.018218994140625,0.0123443603515625
1772535230182177000,4.642177001953125,-0.9993438720703125,-0.018585205078125,0.013946533203125
1772535230192193000,4.652193115234375,-1.000244140625,-0.0175323486328125,0.012939453125
1772535230202209300,4.662209228515625,-0.9995269775390625,-0.0176544189453125,0.012939453125
1772535230212225300,4.672225341796875,-0.999603271484375,-0.0171966552734375,0.013824462890625
1772535230222241300,4.6822412109375,-0.998291015625,-0.0181427001953125,0.0140838623046875
1772535230232257000,4.692257080078125,-0.99993896484375,-0.0183563232421875,0.0149078369140625
1772535230242273000,4.70227294921875,-0.9999542236328125,-0.018310546875,0.0146331787109375
1772535230252289000,4.7122890625,-1.000091552734375,-0.0182037353515625,0.0135498046875
1772535230262304800,4.7223046875,-0.9984130859375,-0.0179595947265625,0.01202392578125
1772535230272321000,4.732321044921875,-0.9992828369140625,-0.0172882080078125,0.0128631591796875
1772535230282337000,4.7423369140625,-0.9983367919921875,-0.017425537109375,0.013092041015625
1772535230292353000,4.75235302734375,-0.9995880126953125,-0.018096923828125,0.0142364501953125
1772535230302368800,4.76236865234375,-0.9995574951171875,-0.0171966552734375,0.0143890380859375
1772535230312384800,4.772384765625,-1.000244140625,-0.01800537109375,0.014434814453125
1772535230322400800,4.78240087890625,-0.999481201171875,-0.01806640625,0.014373779296875
1772535230332416800,4.792416748046875,-0.9990386962890625,-0.018646240234375,0.01416015625
1772535230342433000,4.80243310546875,-1,-0.018463134765625,0.013214111328125
1772535230352449000,4.812448974609375,-0.9998931884765625,-0.01715087890625,0.013336181640625
1772535230362465000,4.822465087890625,-0.99884033203125,-0.0169830322265625,0.0146636962890625
1772535230372480800,4.832480712890625,-0.999786376953125,-0.018157958984375,0.01446533203125
1772535230382496800,4.842496826171875,-1.000274658203125,-0.0180206298828125,0.0147705078125
1772535230392512800,4.8525126953125,-1.000213623046875,-0.0175933837890625,0.0154266357421875
1772535230402529000,4.862529052734375,-0.9996337890625,-0.0185394287109375,0.013763427734375
1772535230412545000,4.872544921875,-0.999267578125,-0.0178985595703125,0.0138092041015625
1772535230422561000,4.88256103515625,-0.999481201171875,-0.0185394287109375,0.0138092041015625
1772535230432576800,4.89257666015625,-0.9987640380859375,-0.0182342529296875,0.0138702392578125
1772535230442592800,4.9025927734375,-0.998779296875,-0.018310546875,0.013580322265625
1772535230452608800,4.91260888671875,-1.000518798828125,-0.0170745849609375,0.0135498046875
1772535230462624800,4.922624755859375,-0.9996795654296875,-0.01776123046875,0.0134429931640625
1772535230472641000,4.93264111328125,-0.9976043701171875,-0.018035888671875,0.013214111328125
1772535230482657000,4.942656982421875,-0.9997406005859375,-0.0178985595703125,0.012939453125
1772535230492673000,4.952673095703125,-0.999664306640625,-0.0184173583984375,0.013214111328125
1772535230502688800,4.962688720703125,-0.9981536865234375,-0.0180816650390625,0.0137176513671875
1772535230512704800,4.972704833984375,-0.9992523193359375,-0.01885986328125,0.013092041015625
1772535230522720800,4.982720703125,-0.99884033203125,-0.0186614990234375,0.0143585205078125
1772535230532736800,4.99273681640625,-0.9984283447265625,-0.01824951171875,0.0135650634765625
1772535230542753000,5.0027529296875,-0.9992218017578125,-0.0180816650390625,0.013336181640625
1772535230552769000,5.01276904296875,-0.9991455078125,-0.017822265625,0.01470947265625
1772535230562785000,5.022784912109375,-0.99945068359375,-0.018890380859375,0.0133514404296875
1772535230572800800,5.03280078125,-0.9999542236328125,-0.0174407958984375,0.0130462646484375
1772535230582816000,5.04281591796875,-1.001007080078125,-0.0186309814453125,0.01348876953125
1772535230592831700,5.052831787109375,-0.9992523193359375,-0.01788330078125,0.0142974853515625
1772535230602847700,5.06284765625,-1.000885009765625,-0.0178070068359375,0.0135345458984375
1772535230612863700,5.07286376953125,-0.9987945556640625,-0.01837158203125,0.0139007568359375
1772535230622880000,5.0828798828125,-0.999298095703125,-0.0184783935546875,0.0133209228515625
1772535230632896000,5.09289599609375,-0.9998321533203125,-0.0177459716796875,0.0137939453125
1772535230642912000,5.102912109375,-1.0004425048828125,-0.0179443359375,0.0144805908203125
1772535230652928000,5.112927978515625,-0.999420166015625,-0.017974853515625,0.0142059326171875
1772535230662943700,5.12294384765625,-0.9998931884765625,-0.0182037353515625,0.0147705078125
1772535230672959700,5.132959716796875,-0.9990997314453125,-0.01812744140625,0.0142364501953125
1772535230682975700,5.142975830078125,-1.0004730224609375,-0.0186614990234375,0.0127716064453125
1772535230692992000,5.152991943359375,-0.9984588623046875,-0.017791748046875,0.01348876953125
1772535230703008000,5.163008056640625,-0.999420166015625,-0.016632080078125,0.0142364501953125
1772535230713024000,5.17302392578125,-0.9992523193359375,-0.0184326171875,0.0137176513671875
1772535230723039700,5.183039794921875,-0.998199462890625,-0.01861572265625,0.0124664306640625
1772535230733055700,5.1930556640625,-0.9990234375,-0.0177459716796875,0.0139923095703125
1772535230743071700,5.20307177734375,-0.9993896484375,-0.0181884765625,0.0137939453125
1772535230753088000,5.213087890625,-0.9997100830078125,-0.0177764892578125,0.013763427734375
1772535230763104000,5.22310400390625,-0.998748779296875,-0.0180816650390625,0.013153076171875
1772535230773120000,5.2331201171875,-0.9983978271484375,-0.017913818359375,0.0131072998046875
1772535230783136000,5.243135986328125,-1.000457763671875,-0.0180206298828125,0.0142364501953125
1772535230793151700,5.25315185546875,-0.99969482421875,-0.0173797607421875,0.0145721435546875
1772535230803167700,5.263167724609375,-0.998748779296875,-0.0172119140625,0.0138702392578125
1772535230813183700,5.273183837890625,-0.998748779296875,-0.01715087890625,0.0126953125
1772535230823200000,5.283199951171875,-1.000579833984375,-0.0182342529296875,0.0137939453125
1772535230833216000,5.293216064453125,-1.00042724609375,-0.0186614990234375,0.0142364501953125
1772535230843232000,5.30323193359375,-0.9990386962890625,-0.0189361572265625,0.014617919921875
1772535230853248000,5.313248046875,-0.999664306640625,-0.0186309814453125,0.013671875
1772535230864096800,5.3240966796875,-0.9990692138671875,-0.0186920166015625,0.013641357421875
1772535230873906000,5.333906005859375,-0.99951171875,-0.0180511474609375,0.013519287109375
1772535230883922000,5.343921875,-0.9987640380859375,-0.0181884765625,0.01434326171875
1772535230893938000,5.35393798828125,-0.9990692138671875,-0.0191650390625,0.01495361328125
1772535230903953700,5.36395361328125,-1.0006866455078125,-0.0185546875,0.0135345458984375
1772535230913970000,5.373969970703125,-0.999420166015625,-0.0191650390625,0.0127105712890625
1772535230923986000,5.38398583984375,-0.9998016357421875,-0.0184173583984375,0.0129241943359375
1772535230934002000,5.394001953125,-0.997528076171875,-0.0182952880859375,0.0133819580078125
1772535230944018000,5.404017822265625,-0.9987030029296875,-0.01806640625,0.0142822265625
1772535230954034000,5.414033935546875,-0.9988250732421875,-0.018218994140625,0.0145721435546875
1772535230964050000,5.4240498046875,-0.99761962890625,-0.0179595947265625,0.014129638671875
1772535230974065700,5.434065673828125,-0.999664306640625,-0.0193023681640625,0.0147552490234375
1772535230984082000,5.44408203125,-0.999603271484375,-0.0181732177734375,0.0130615234375
1772535230994098000,5.454097900390625,-0.999237060546875,-0.0169219970703125,0.013031005859375
1772535231004114000,5.464114013671875,-0.998504638671875,-0.018402099609375,0.0145111083984375
1772535231014130000,5.4741298828125,-0.998779296875,-0.017120361328125,0.0143585205078125
1772535231024146000,5.48414599609375,-1.0001983642578125,-0.0172882080078125,0.0139312744140625
1772535231034162000,5.494161865234375,-0.9996185302734375,-0.017059326171875,0.01263427734375
1772535231044177700,5.504177734375,-0.9978179931640625,-0.0169830322265625,0.0137939453125
1772535231054194000,5.51419384765625,-0.9993438720703125,-0.0172576904296875,0.0138397216796875
1772535231064210000,5.5242099609375,-1.0001373291015625,-0.018768310546875,0.0141143798828125
1772535231074226000,5.534225830078125,-0.99993896484375,-0.0176544189453125,0.01324462890625
1772535231084242000,5.544241943359375,-1.0010528564453125,-0.0173797607421875,0.012969970703125
1772535231094258000,5.5542578125,-0.9991607666015625,-0.0169830322265625,0.0138092041015625
1772535231104274000,5.56427392578125,-0.9997100830078125,-0.0173187255859375,0.013885498046875
1772535231114289000,5.574288818359375,-0.99853515625,-0.0177459716796875,0.013397216796875
1772535231124305000,5.584304931640625,-0.9992523193359375,-0.0183868408203125,0.0142059326171875
1772535231134321000,5.59432080078125,-1,-0.0185394287109375,0.01416015625
1772535231144337000,5.6043369140625,-0.998687744140625,-0.0178375244140625,0.0129852294921875
1772535231154353000,5.614352783203125,-0.9979095458984375,-0.01763916015625,0.01385498046875
1772535231164369000,5.624368896484375,-1.00048828125,-0.018707275390625,0.015228271484375
1772535231174385000,5.634385009765625,-1.0006561279296875,-0.0181427001953125,0.0135345458984375
1772535231184401000,5.64440087890625,-0.99951171875,-0.0185699462890625,0.0142669677734375
1772535231194417000,5.6544169921875,-0.9999542236328125,-0.01898193359375,0.014007568359375
1772535231204433000,5.664432861328125,-0.9983062744140625,-0.0185699462890625,0.01287841796875
1772535231215074800,5.67507470703125,-0.999359130859375,-0.0176239013671875,0.012847900390625
1772535231225091000,5.685091064453125,-1.000213623046875,-0.01788330078125,0.013153076171875
1772535231235107000,5.695107177734375,-0.998626708984375,-0.018218994140625,0.0147705078125
1772535231245122800,5.705122802734375,-0.9987030029296875,-0.018798828125,0.01397705078125
1772535231255138800,5.715138916015625,-0.998321533203125,-0.0189361572265625,0.0135650634765625
1772535231265154600,5.725154541015625,-0.999267578125,-0.0179595947265625,0.0138092041015625
1772535231275170600,5.735170654296875,-0.9992523193359375,-0.0179595947265625,0.0132904052734375
1772535231285186800,5.745186767578125,-0.999542236328125,-0.0189208984375,0.0143585205078125
1772535231295202800,5.755202880859375,-0.998748779296875,-0.01806640625,0.0144500732421875
1772535231305218800,5.76521875,-0.999755859375,-0.0178985595703125,0.014739990234375
1772535231315234600,5.775234619140625,-0.9993133544921875,-0.019287109375,0.0139007568359375
1772535231325250600,5.78525048828125,-0.99847412109375,-0.0173797607421875,0.0126190185546875
1772535231335266600,5.7952666015625,-0.9987335205078125,-0.018280029296875,0.0138702392578125
1772535231345282800,5.80528271484375,-0.9992218017578125,-0.0180206298828125,0.0148162841796875
1772535231355298800,5.815298828125,-0.9999237060546875,-0.0182952880859375,0.014312744140625
1772535231365314800,5.825314697265625,-0.999725341796875,-0.01983642578125,0.0140838623046875
1772535231375330600,5.83533056640625,-0.9990386962890625,-0.01763916015625,0.01348876953125
1772535231385346600,5.8453466796875,-0.9985198974609375,-0.0179595947265625,0.014251708984375
1772535231395362600,5.855362548828125,-0.9999237060546875,-0.01776123046875,0.013427734375
1772535231405378600,5.865378662109375,-1.000640869140625,-0.0187835693359375,0.0141448974609375
1772535231415394800,5.875394775390625,-1.0000152587890625,-0.0184478759765625,0.013763427734375
1772535231425410800,5.885410888671875,-1.0001373291015625,-0.016632080078125,0.013885498046875
1772535231435426800,5.8954267578125,-0.9983978271484375,-0.018524169921875,0.0141448974609375
1772535231445442600,5.905442626953125,-0.9989471435546875,-0.01837158203125,0.014129638671875
1772535231455458600,5.91545849609375,-0.99957275390625,-0.01849365234375,0.015045166015625
1772535231465474600,5.925474609375,-1.0015869140625,-0.0175933837890625,0.013671875
1772535231475490600,5.935490478515625,-1.0002593994140625,-0.017364501953125,0.013092041015625
1772535231485506800,5.9455068359375,-1.0000457763671875,-0.0183563232421875,0.0141448974609375
1772535231495522800,5.955522705078125,-0.99957275390625,-0.0172882080078125,0.0138397216796875
1772535231505538800,5.965538818359375,-1.000274658203125,-0.0186309814453125,0.0137939453125
1772535231515554600,5.975554443359375,-0.9990997314453125,-0.0177459716796875,0.013519287109375
1772535231525570600,5.985570556640625,-1.0001678466796875,-0.0164947509765625,0.01361083984375
1772535231535586600,5.995586669921875,-0.998443603515625,-0.0176849365234375,0.014617919921875
1772535231545602600,6.0056025390625,-0.998931884765625,-0.017822265625,0.01422119140625
1772535231555618800,6.015618896484375,-0.999603271484375,-0.017242431640625,0.0131378173828125
1772535231565634800,6.025634765625,-0.9993438720703125,-0.0175018310546875,0.0133056640625
1772535231575650800,6.03565087890625,-1.000030517578125,-0.017242431640625,0.01239013671875
1772535231585666600,6.04566650390625,-1.0002288818359375,-0.0182037353515625,0.01275634765625
1772535231595682600,6.0556826171875,-0.99755859375,-0.0188751220703125,0.01263427734375
1772535231605698600,6.065698486328125,-1.000091552734375,-0.018463134765625,0.014404296875
1772535231615713500,6.075713623046875,-1,-0.0164947509765625,0.0131072998046875
1772535231625729500,6.0857294921875,-0.9991607666015625,-0.0175628662109375,0.0142059326171875
1772535231635746800,6.095746826171875,-1.000762939453125,-0.0184326171875,0.014190673828125
1772535231645761800,6.10576171875,-0.998931884765625,-0.0194244384765625,0.0141754150390625
1772535231655777800,6.11577783203125,-0.999786376953125,-0.018280029296875,0.0141143798828125
1772535231665793500,6.12579345703125,-0.99993896484375,-0.017822265625,0.011932373046875
1772535231675809500,6.1358095703125,-0.998809814453125,-0.01861572265625,0.01336669921875
1772535231685825500,6.145825439453125,-0.998809814453125,-0.0178985595703125,0.0141448974609375
1772535231695841800,6.155841796875,-1.0008544921875,-0.0173797607421875,0.013671875
1772535231705857800,6.16585791015625,-0.99981689453125,-0.0181884765625,0.0141754150390625
1772535231715873800,6.175873779296875,-1.000274658203125,-0.0177001953125,0.0137176513671875
1772535231725889800,6.185889892578125,-1.000335693359375,-0.0182342529296875,0.0142669677734375
1772535231735905500,6.195905517578125,-0.9996337890625,-0.0177001953125,0.0136871337890625
1772535231745921500,6.205921630859375,-0.9993438720703125,-0.0168914794921875,0.0131378173828125
1772535231755937500,6.2159375,-0.99993896484375,-0.0181427001953125,0.01348876953125
1772535231765953800,6.225953857421875,-1.0005950927734375,-0.018402099609375,0.0138702392578125
1772535231775969800,6.2359697265625,-1.0011138916015625,-0.018341064453125,0.0146484375
1772535231785985800,6.24598583984375,-0.9991455078125,-0.018951416015625,0.0135040283203125
1772535231796001800,6.256001708984375,-0.9997711181640625,-0.016876220703125,0.014373779296875
1772535231806017500,6.266017578125,-0.9987945556640625,-0.018829345703125,0.014251708984375
1772535231816033500,6.276033447265625,-0.9983367919921875,-0.01849365234375,0.0132598876953125
1772535231826049500,6.286049560546875,-0.9990386962890625,-0.016998291015625,0.0135345458984375
1772535231836065800,6.296065673828125,-0.9993133544921875,-0.018524169921875,0.01397705078125
1772535231846081800,6.306081787109375,-0.9989166259765625,-0.017974853515625,0.014312744140625
1772535231856097800,6.316097900390625,-0.99896240234375,-0.01824951171875,0.013519287109375
1772535231866113500,6.326113525390625,-0.9990997314453125,-0.0174560546875,0.0142822265625
1772535231876129500,6.336129638671875,-0.9996185302734375,-0.0173797607421875,0.0140228271484375
1772535231886145500,6.3461455078125,-1.0005645751953125,-0.0171356201171875,0.01275634765625
1772535231896161500,6.35616162109375,-0.9991607666015625,-0.01763916015625,0.014404296875
1772535231906177800,6.366177734375,-0.999114990234375,-0.01776123046875,0.012908935546875
1772535231916193800,6.37619384765625,-0.999359130859375,-0.0185394287109375,0.013275146484375
1772535231926209800,6.386209716796875,-0.99981689453125,-0.0186920166015625,0.013946533203125
1772535231936225500,6.3962255859375,-0.9979248046875,-0.0186767578125,0.0124359130859375
1772535231946241500,6.406241455078125,-1,-0.0172882080078125,0.0134124755859375
1772535231956257500,6.416257568359375,-1.000030517578125,-0.01861572265625,0.012664794921875
1772535231966273800,6.426273681640625,-0.999298095703125,-0.018096923828125,0.0139007568359375
1772535231976289800,6.436289794921875,-0.99871826171875,-0.0181732177734375,0.013427734375
1772535231986305800,6.446305908203125,-0.99884033203125,-0.018218994140625,0.0136260986328125
1772535231996321800,6.45632177734375,-0.998504638671875,-0.017578125,0.0124359130859375
1772535232006337500,6.466337646484375,-1.0001983642578125,-0.0187225341796875,0.0148468017578125
1772535232016353500,6.476353515625,-1.000274658203125,-0.0176544189453125,0.0142669677734375
1772535232026369500,6.48636962890625,-0.9992828369140625,-0.018646240234375,0.0130462646484375
1772535232036385800,6.4963857421875,-0.998748779296875,-0.0183258056640625,0.013427734375
1772535232046401800,6.50640185546875,-0.9986114501953125,-0.0187530517578125,0.014007568359375
1772535232056417800,6.516417724609375,-0.9990081787109375,-0.018218994140625,0.0135498046875
1772535232066433800,6.526433837890625,-0.999237060546875,-0.018585205078125,0.0129241943359375
1772535232076449500,6.536449462890625,-0.9996337890625,-0.0183258056640625,0.0135498046875
1772535232086465500,6.546465576171875,-0.9987030029296875,-0.01763916015625,0.013458251953125
1772535232096481500,6.5564814453125,-1.000213623046875,-0.017852783203125,0.0137786865234375
1772535232106497800,6.566497802734375,-0.9989471435546875,-0.0183868408203125,0.0131988525390625
1772535232116513800,6.576513671875,-1.00006103515625,-0.0188140869140625,0.0147552490234375
1772535232126529800,6.58652978515625,-0.9990692138671875,-0.0175018310546875,0.0148162841796875
1772535232136545500,6.596545654296875,-1.0003204345703125,-0.017425537109375,0.01422119140625
1772535232146560800,6.606560791015625,-0.9996490478515625,-0.01812744140625,0.012725830078125
1772535232156576500,6.616576416015625,-0.998931884765625,-0.0181732177734375,0.0142364501953125
1772535232166592500,6.626592529296875,-0.9992218017578125,-0.018707275390625,0.0133056640625
1772535232176608500,6.6366083984375,-0.999725341796875,-0.0188140869140625,0.0131988525390625
1772535232186624800,6.646624755859375,-0.99945068359375,-0.0187530517578125,0.0144500732421875
1772535232196640800,6.656640869140625,-1.000457763671875,-0.017791748046875,0.01409912109375
1772535232206656800,6.66665673828125,-0.9996795654296875,-0.0170745849609375,0.014556884765625
1772535232216672800,6.6766728515625,-0.9991912841796875,-0.01654052734375,0.0144195556640625
1772535232226688500,6.6866884765625,-0.999969482421875,-0.0181427001953125,0.01409912109375
1772535232236704500,6.69670458984375,-0.999664306640625,-0.0182952880859375,0.0133514404296875
1772535232246720800,6.706720703125,-1.0001220703125,-0.0174102783203125,0.012603759765625
1772535232256736800,6.71673681640625,-0.999053955078125,-0.01873779296875,0.0132904052734375
1772535232266753500,6.72675341796875,-0.99896240234375,-0.0182342529296875,0.0145721435546875
1772535232276769300,6.736769287109375,-0.9981689453125,-0.0181427001953125,0.0128326416015625
1772535232286785300,6.746785400390625,-1.0001678466796875,-0.017181396484375,0.01312255859375
1772535232296801300,6.75680126953125,-0.999237060546875,-0.018310546875,0.013519287109375
1772535232306817500,6.766817626953125,-0.998504638671875,-0.0184478759765625,0.014007568359375
1772535232316833500,6.77683349609375,-0.999176025390625,-0.0181121826171875,0.0134429931640625
1772535232326849500,6.786849609375,-0.9993438720703125,-0.017913818359375,0.01470947265625
1772535232336865500,6.796865478515625,-0.999298095703125,-0.017120361328125,0.014434814453125
1772535232346881300,6.80688134765625,-0.9994354248046875,-0.017669677734375,0.014007568359375
1772535232356897300,6.816897216796875,-0.999267578125,-0.0174407958984375,0.0140533447265625
1772535232366913300,6.826913330078125,-0.9993133544921875,-0.018585205078125,0.013427734375
1772535232376929500,6.836929443359375,-0.9993896484375,-0.0178985595703125,0.0142822265625
1772535232386945500,6.846945556640625,-0.9990692138671875,-0.018035888671875,0.01348876953125
1772535232396961500,6.85696142578125,-0.9999542236328125,-0.0175628662109375,0.0140533447265625
1772535232406977500,6.8669775390625,-1.000213623046875,-0.0170440673828125,0.0131683349609375
1772535232416993300,6.8769931640625,-0.9997711181640625,-0.0181427001953125,0.0133819580078125
1772535232427009300,6.88700927734375,-0.9994049072265625,-0.0182342529296875,0.0141448974609375
1772535232437025300,6.897025390625,-1.001678466796875,-0.01837158203125,0.0140533447265625
1772535232447041500,6.90704150390625,-0.998931884765625,-0.017120361328125,0.0137481689453125
1772535232457057500,6.9170576171875,-0.9996337890625,-0.0190277099609375,0.0143585205078125
1772535232467073500,6.927073486328125,-0.998931884765625,-0.0184326171875,0.0135955810546875
1772535232477089300,6.93708935546875,-1.0003662109375,-0.0186767578125,0.0125885009765625
1772535232487105300,6.947105224609375,-0.99981689453125,-0.017303466796875,0.0138702392578125
1772535232497121300,6.957121337890625,-0.9990234375,-0.01812744140625,0.0134735107421875
1772535232507137500,6.967137451171875,-0.999481201171875,-0.016998291015625,0.0147857666015625
1772535232517153500,6.977153564453125,-0.9993133544921875,-0.016387939453125,0.0133819580078125
1772535232527169500,6.98716943359375,-0.9989013671875,-0.0184478759765625,0.013427734375
1772535232537185500,6.997185546875,-0.998046875,-0.0182952880859375,0.0138702392578125
1772535232547201300,7.007201171875,-0.9986572265625,-0.018707275390625,0.0141448974609375
1772535232557217300,7.01721728515625,-1.0000762939453125,-0.01800537109375,0.014434814453125
1772535232567233300,7.0272333984375,-0.998870849609375,-0.01654052734375,0.0145263671875
1772535232577249500,7.03724951171875,-0.9982452392578125,-0.016265869140625,0.013519287109375
1772535232587265500,7.047265625,-0.999725341796875,-0.0181427001953125,0.0129852294921875
1772535232597281500,7.057281494140625,-0.9982452392578125,-0.0170135498046875,0.0134124755859375
1772535232607297500,7.067297607421875,-0.99969482421875,-0.0182647705078125,0.01361083984375
1772535232617313300,7.077313232421875,-0.998687744140625,-0.0188140869140625,0.014251708984375
1772535232627328500,7.08732861328125,-0.99932861328125,-0.0188140869140625,0.0145416259765625
1772535232637344300,7.09734423828125,-0.99871826171875,-0.01776123046875,0.0130157470703125
1772535232647360300,7.1073603515625,-0.9995574951171875,-0.018798828125,0.0123748779296875
1772535232657376500,7.11737646484375,-0.998931884765625,-0.01788330078125,0.013671875
1772535232667392500,7.127392578125,-0.999420166015625,-0.0174102783203125,0.013519287109375
1772535232677408500,7.137408447265625,-0.9991455078125,-0.018096923828125,0.0135650634765625
1772535232687424500,7.147424560546875,-1.0010223388671875,-0.0181884765625,0.0136566162109375
1772535232697440500,7.1574404296875,-0.9990997314453125,-0.0175323486328125,0.0133514404296875
1772535232707456300,7.167456298828125,-0.9982147216796875,-0.01837158203125,0.0137786865234375
1772535232717472300,7.17747216796875,-0.9992218017578125,-0.017974853515625,0.0134429931640625
1772535232727488500,7.187488525390625,-0.99853515625,-0.0169677734375,0.0135955810546875
1772535232737504500,7.19750439453125,-0.9999542236328125,-0.01959228515625,0.013671875
1772535232747520500,7.2075205078125,-0.9998016357421875,-0.0183258056640625,0.0133209228515625
1772535232757536500,7.21753662109375,-0.9999542236328125,-0.01904296875,0.01275634765625
1772535232767552300,7.22755224609375,-0.9993743896484375,-0.0181427001953125,0.01397705078125
1772535232777568300,7.237568359375,-1.0007171630859375,-0.0171661376953125,0.013519287109375
1772535232787584300,7.247584228515625,-0.998809814453125,-0.01806640625,0.01300048828125
1772535232797600500,7.2576005859375,-0.999725341796875,-0.018157958984375,0.0132293701171875
1772535232807616500,7.267616455078125,-0.9999847412109375,-0.0172576904296875,0.01458740234375
1772535232817632500,7.277632568359375,-1.0004425048828125,-0.017669677734375,0.0134429931640625
1772535232827648500,7.2876484375,-0.9999237060546875,-0.017425537109375,0.0134735107421875
1772535232837664300,7.297664306640625,-0.998504638671875,-0.0188751220703125,0.013580322265625
1772535232847680300,7.30768017578125,-1.0003814697265625,-0.0185546875,0.0143890380859375
1772535232857696500,7.317696533203125,-0.9996185302734375,-0.018310546875,0.013580322265625
1772535232867712500,7.32771240234375,-0.9995880126953125,-0.01910400390625,0.0145416259765625
1772535232877728500,7.337728515625,-0.9990692138671875,-0.0184173583984375,0.012939453125
1772535232887744500,7.34774462890625,-0.9990234375,-0.018463134765625,0.0141754150390625
1772535232897760500,7.357760498046875,-0.9998779296875,-0.0171051025390625,0.0145416259765625
1772535232907776300,7.3677763671875,-0.9998016357421875,-0.0179290771484375,0.0139923095703125
1772535232917792300,7.377792236328125,-1.000335693359375,-0.0178375244140625,0.0140380859375
1772535232927808500,7.38780859375,-1.00042724609375,-0.017791748046875,0.0144500732421875
1772535232937824500,7.397824462890625,-0.999176025390625,-0.018951416015625,0.0145263671875
1772535232947840500,7.407840576171875,-1.000213623046875,-0.01849365234375,0.0134735107421875
1772535232957856500,7.4178564453125,-0.99945068359375,-0.01800537109375,0.012969970703125
1772535232967872300,7.427872314453125,-0.9992828369140625,-0.0183563232421875,0.0130157470703125
1772535232977888300,7.43788818359375,-0.9984283447265625,-0.0171051025390625,0.0142974853515625
1772535232987904300,7.447904296875,-0.9993133544921875,-0.018829345703125,0.0137939453125
1772535232997920500,7.45792041015625,-0.9996337890625,-0.019073486328125,0.0147705078125
1772535233007936500,7.4679365234375,-0.998626708984375,-0.0171356201171875,0.0149688720703125
1772535233017952500,7.477952392578125,-0.998931884765625,-0.0181427001953125,0.0143280029296875
1772535233027968500,7.487968505859375,-0.999786376953125,-0.0184478759765625,0.013824462890625
1772535233037984300,7.497984375,-0.9990386962890625,-0.0183868408203125,0.01544189453125
1772535233048000300,7.508000244140625,-0.99993896484375,-0.0177764892578125,0.014434814453125
1772535233058016500,7.5180166015625,-0.999969482421875,-0.018035888671875,0.01385498046875
1772535233068031200,7.52803125,-0.998992919921875,-0.018096923828125,0.012237548828125
1772535233078047500,7.538047607421875,-0.9990997314453125,-0.0175933837890625,0.01287841796875
1772535233088063500,7.5480634765625,-0.9994964599609375,-0.0180206298828125,0.0133819580078125
1772535233098079500,7.55807958984375,-0.9994659423828125,-0.018890380859375,0.0133819580078125
1772535233108095500,7.568095458984375,-1.000030517578125,-0.0188140869140625,0.013153076171875
1772535233118111500,7.578111572265625,-0.998291015625,-0.0170135498046875,0.01318359375
1772535233128127200,7.588127197265625,-0.99786376953125,-0.0177154541015625,0.013641357421875
1772535233138143500,7.5981435546875,-0.999114990234375,-0.01702880859375,0.0139312744140625
1772535233148159500,7.608159423828125,-1,-0.0176849365234375,0.0141448974609375
1772535233158175500,7.618175537109375,-0.999176025390625,-0.01788330078125,0.014434814453125
1772535233168191500,7.62819140625,-0.99774169921875,-0.0165252685546875,0.0138702392578125
1772535233178207500,7.63820751953125,-0.9988250732421875,-0.017974853515625,0.0139617919921875
1772535233188223500,7.648223388671875,-0.9998931884765625,-0.0181884765625,0.013641357421875
1772535233198239200,7.6582392578125,-1.0006866455078125,-0.01776123046875,0.0137176513671875
1772535233208255500,7.66825537109375,-0.9991912841796875,-0.018310546875,0.013519287109375
1772535233218271500,7.678271484375,-1.0002899169921875,-0.0181732177734375,0.0139007568359375
1772535233228287500,7.68828759765625,-0.9997100830078125,-0.0178680419921875,0.0138702392578125
1772535233238303500,7.698303466796875,-0.99859619140625,-0.017547607421875,0.014068603515625
1772535233248319500,7.708319580078125,-0.9979095458984375,-0.01617431640625,0.0144805908203125
1772535233258335200,7.718335205078125,-0.99969482421875,-0.018524169921875,0.0148468017578125
1772535233268351000,7.72835107421875,-1.0002288818359375,-0.0182037353515625,0.0134735107421875
1772535233278367000,7.738366943359375,-1.0001373291015625,-0.0167388916015625,0.0138397216796875
1772535233288383000,7.748383056640625,-0.99853515625,-0.018585205078125,0.0147705078125
1772535233298399000,7.75839892578125,-1.00103759765625,-0.018768310546875,0.0132293701171875
1772535233308415000,7.7684150390625,-0.9994659423828125,-0.01959228515625,0.0140838623046875
1772535233318431000,7.778430908203125,-0.9994354248046875,-0.0173797607421875,0.013519287109375
1772535233328447000,7.788447021484375,-0.9997711181640625,-0.0183563232421875,0.0134735107421875
1772535233338463000,7.798462890625,-0.999114990234375,-0.017425537109375,0.0139007568359375
1772535233348479000,7.80847900390625,-0.999755859375,-0.0175933837890625,0.0130462646484375
1772535233358495000,7.818494873046875,-0.9993438720703125,-0.0182037353515625,0.0135498046875
1772535233368511000,7.828510986328125,-0.9986572265625,-0.017822265625,0.014739990234375
1772535233378527000,7.83852685546875,-0.9995269775390625,-0.01739501953125,0.012542724609375
1772535233388543000,7.84854296875,-0.9994354248046875,-0.017242431640625,0.0128326416015625
1772535233398559000,7.85855908203125,-0.9993896484375,-0.017242431640625,0.012664794921875
1772535233408575000,7.868574951171875,-0.9997100830078125,-0.0189361572265625,0.0135345458984375
1772535233418591000,7.878591064453125,-0.9998321533203125,-0.0174560546875,0.0151824951171875
1772535233428607000,7.88860693359375,-0.9998626708984375,-0.0180816650390625,0.01361083984375
1772535233438623000,7.898623046875,-0.99932861328125,-0.0184783935546875,0.0127716064453125
1772535233448639000,7.908638916015625,-0.9985504150390625,-0.0177154541015625,0.0142669677734375
1772535233458655200,7.9186552734375,-1.0005950927734375,-0.017852783203125,0.014678955078125
1772535233468671000,7.9286708984375,-0.9990081787109375,-0.0177154541015625,0.013031005859375
1772535233478687000,7.93868701171875,-0.9983978271484375,-0.01739501953125,0.0130615234375
1772535233488703000,7.948702880859375,-1.0008392333984375,-0.0179443359375,0.0136871337890625
1772535233498718000,7.958718017578125,-0.9997711181640625,-0.0172882080078125,0.01318359375
1772535233508734000,7.96873388671875,-0.99822998046875,-0.0170745849609375,0.0131378173828125
1772535233518750000,7.97875,-1.0000457763671875,-0.0182952880859375,0.012786865234375
1772535233528766000,7.988765869140625,-1.000579833984375,-0.0175933837890625,0.0135650634765625
1772535233538782200,7.9987822265625,-0.9998931884765625,-0.0172576904296875,0.0133819580078125
1772535233548798200,8.008798095703124,-0.99737548828125,-0.0172271728515625,0.01324462890625
1772535233558814000,8.01881396484375,-0.999298095703125,-0.01837158203125,0.014129638671875
1772535233568830000,8.028829833984375,-0.998779296875,-0.017059326171875,0.0138092041015625
1772535233578846000,8.038845947265624,-0.99945068359375,-0.0185394287109375,0.01416015625
1772535233588862000,8.048862060546876,-1.000762939453125,-0.0162811279296875,0.01361083984375
1772535233598878000,8.0588779296875,-0.9996185302734375,-0.0193023681640625,0.013671875
1772535233608894200,8.068894287109375,-0.9998779296875,-0.016876220703125,0.014434814453125
1772535233618910000,8.078909912109374,-0.9993133544921875,-0.0177154541015625,0.014434814453125
1772535233628926000,8.088926025390625,-0.999298095703125,-0.017578125,0.0146942138671875
1772535233638942000,8.09894189453125,-1.0003204345703125,-0.0185699462890625,0.0130462646484375
1772535233648958000,8.1089580078125,-0.999420166015625,-0.017913818359375,0.0139312744140625
1772535233658974000,8.118973876953126,-0.9993438720703125,-0.0172576904296875,0.0141754150390625
1772535233668990000,8.128989990234375,-0.9998321533203125,-0.0172271728515625,0.0143280029296875
1772535233679006200,8.139006103515625,-1.000274658203125,-0.0191497802734375,0.0137176513671875
1772535233689022000,8.14902197265625,-1.0002593994140625,-0.0198516845703125,0.0131683349609375
1772535233699038000,8.159037841796875,-1.00018310546875,-0.0182037353515625,0.0135040283203125
1772535233709054000,8.169053955078125,-0.9977874755859375,-0.017730712890625,0.0146331787109375
1772535233719070000,8.179070068359374,-0.999237060546875,-0.017669677734375,0.0140533447265625
1772535233729086000,8.1890859375,-0.998992919921875,-0.0184478759765625,0.0129241943359375
1772535233739102200,8.199102294921875,-0.999725341796875,-0.017730712890625,0.01373291015625
1772535233749118200,8.2091181640625,-0.9980316162109375,-0.0189056396484375,0.0144805908203125
1772535233759134000,8.219134033203124,-0.99896240234375,-0.0181732177734375,0.0145416259765625
1772535233769150000,8.22914990234375,-0.9993133544921875,-0.0185546875,0.01336669921875
1772535233779166000,8.239166015625,-0.998779296875,-0.0185394287109375,0.01409912109375
1772535233789182000,8.249181884765624,-0.9996337890625,-0.01806640625,0.0130157470703125
1772535233799198000,8.259197998046876,-1.0001373291015625,-0.0191802978515625,0.013031005859375
1772535233809214200,8.269214111328125,-0.99969482421875,-0.01708984375,0.01422119140625
1772535233819230000,8.27922998046875,-0.9993133544921875,-0.0173797607421875,0.0136871337890625
1772535233829246000,8.289245849609374,-0.9990386962890625,-0.0188446044921875,0.0146026611328125
1772535233839262000,8.299261962890625,-0.99951171875,-0.0179595947265625,0.014007568359375
1772535233849278000,8.30927783203125,-0.999176025390625,-0.018035888671875,0.0131378173828125
1772535233859294000,8.3192939453125,-0.9976959228515625,-0.0181121826171875,0.0140838623046875
1772535233869310000,8.32931005859375,-0.9992218017578125,-0.0186920166015625,0.0150299072265625
1772535233879326200,8.339326171875,-0.9992828369140625,-0.0182037353515625,0.0137939453125
1772535233889342000,8.349342041015625,-0.9984283447265625,-0.018524169921875,0.0147552490234375
1772535233899358000,8.35935791015625,-0.9990234375,-0.0184326171875,0.0149993896484375
1772535233909373000,8.369373046875,-1.000701904296875,-0.0186004638671875,0.0130462646484375
1772535233919389000,8.379388916015625,-0.9997406005859375,-0.0180816650390625,0.0145111083984375
1772535233929405000,8.389405029296874,-0.9989471435546875,-0.0177154541015625,0.015289306640625
1772535233939421000,8.3994208984375,-0.9991607666015625,-0.0172271728515625,0.013336181640625
1772535233949437000,8.40943701171875,-0.9998931884765625,-0.0180511474609375,0.013946533203125
1772535233959453200,8.419453125,-0.99957275390625,-0.01776123046875,0.0152587890625
1772535233969469200,8.42946923828125,-1.000152587890625,-0.0171966552734375,0.012908935546875
1772535233979485000,8.43948486328125,-1.000823974609375,-0.0173187255859375,0.0139312744140625
1772535233989501000,8.4495009765625,-0.9989013671875,-0.018707275390625,0.0148162841796875
1772535233999517000,8.459516845703124,-0.999176025390625,-0.0172271728515625,0.0140838623046875
1772535234009533000,8.469532958984376,-0.9989013671875,-0.0177764892578125,0.013336181640625
1772535234019549000,8.479548828125,-1.0003662109375,-0.0182037353515625,0.014617919921875
1772535234029565200,8.489565185546875,-0.9979095458984375,-0.018157958984375,0.01409912109375
1772535234039581200,8.499581298828126,-1.000213623046875,-0.0175018310546875,0.013702392578125
1772535234049597000,8.509596923828125,-0.9999237060546875,-0.0182342529296875,0.013275146484375
1772535234059613000,8.519613037109375,-0.9990234375,-0.0184326171875,0.0133209228515625
1772535234069629000,8.52962890625,-0.999755859375,-0.01751708984375,0.0142822265625
1772535234079645000,8.53964501953125,-0.9994354248046875,-0.018035888671875,0.0146026611328125
1772535234089661200,8.5496611328125,-0.998199462890625,-0.01806640625,0.014190673828125
1772535234099677200,8.55967724609375,-0.9983978271484375,-0.0179290771484375,0.014373779296875
1772535234109693000,8.56969287109375,-1.0001220703125,-0.01806640625,0.014251708984375
1772535234119709000,8.579708984375,-1.0009765625,-0.0179443359375,0.014007568359375
1772535234129725000,8.589724853515625,-0.99945068359375,-0.017913818359375,0.01385498046875
1772535234139741000,8.599740966796874,-0.99932861328125,-0.0171966552734375,0.01336669921875
1772535234149757000,8.6097568359375,-0.9993743896484375,-0.0180206298828125,0.01416015625
1772535234159773200,8.619773193359375,-0.9991607666015625,-0.0182647705078125,0.012603759765625
1772535234169789200,8.6297890625,-0.9983673095703125,-0.0174102783203125,0.0126190185546875
1772535234179805000,8.639804931640626,-0.999237060546875,-0.0175628662109375,0.01239013671875
1772535234189821000,8.649821044921875,-0.9990234375,-0.0175628662109375,0.013519287109375
1772535234199837000,8.6598369140625,-1.000640869140625,-0.0171966552734375,0.0133056640625
1772535234209853000,8.66985302734375,-0.999298095703125,-0.01739501953125,0.0139312744140625
1772535234219869000,8.679868896484376,-0.999603271484375,-0.0184173583984375,0.0139923095703125
1772535234229885200,8.68988525390625,-1.0007171630859375,-0.0188140869140625,0.0134735107421875
1772535234239901200,8.699901123046875,-1.0003814697265625,-0.0187835693359375,0.013427734375
1772535234249917000,8.7099169921875,-0.999725341796875,-0.018341064453125,0.014923095703125
1772535234259933000,8.719932861328125,-1.00018310546875,-0.0186309814453125,0.0150299072265625
1772535234269948700,8.72994873046875,-0.998504638671875,-0.01861572265625,0.0146026611328125
1772535234279964700,8.739964599609374,-0.9984130859375,-0.0175018310546875,0.0147552490234375
1772535234289981000,8.74998095703125,-0.9999237060546875,-0.0164337158203125,0.0132293701171875
1772535234299996000,8.759995849609375,-0.9986114501953125,-0.01788330078125,0.0139923095703125
1772535234310012000,8.770011962890624,-0.9990997314453125,-0.017242431640625,0.0141754150390625
1772535234320028000,8.78002783203125,-0.9992828369140625,-0.0183258056640625,0.0130157470703125
1772535234330044000,8.7900439453125,-0.9998321533203125,-0.017333984375,0.01422119140625
1772535234340059600,8.8000595703125,-0.998748779296875,-0.01849365234375,0.012603759765625
1772535234350075600,8.81007568359375,-0.9986572265625,-0.0160064697265625,0.0139923095703125
1772535234360091600,8.820091552734375,-0.9996795654296875,-0.0177459716796875,0.014801025390625
1772535234370108000,8.83010791015625,-0.99908447265625,-0.0174560546875,0.0135040283203125
1772535234380124000,8.8401240234375,-1.00006103515625,-0.017822265625,0.0134429931640625
1772535234390140000,8.850139892578126,-1.0006256103515625,-0.0168609619140625,0.012908935546875
1772535234400156000,8.860156005859375,-1.00018310546875,-0.0173797607421875,0.013092041015625
1772535234410171600,8.870171630859375,-0.99908447265625,-0.0184783935546875,0.0145111083984375
1772535234420187600,8.880187744140626,-0.9991912841796875,-0.01708984375,0.013946533203125
1772535234430204000,8.890203857421875,-0.998931884765625,-0.0186767578125,0.0146331787109375
1772535234440220000,8.900219970703125,-0.9996337890625,-0.0171051025390625,0.013641357421875
1772535234450236000,8.91023583984375,-1.000274658203125,-0.0183258056640625,0.013580322265625
1772535234460252000,8.920251953125,-0.9996795654296875,-0.018890380859375,0.0131378173828125
1772535234470267600,8.930267578125,-1.000762939453125,-0.017364501953125,0.0146636962890625
1772535234480283600,8.94028369140625,-0.9995269775390625,-0.01885986328125,0.014892578125
1772535234490299600,8.950299560546876,-0.999725341796875,-0.0178680419921875,0.0132293701171875
1772535234500316000,8.96031591796875,-1.0000457763671875,-0.0175628662109375,0.0140838623046875
1772535234510332000,8.970331787109375,-0.9994354248046875,-0.0182647705078125,0.0140533447265625
1772535234520348000,8.980347900390624,-0.9999237060546875,-0.018310546875,0.0137939453125
1772535234530364000,8.990364013671876,-0.99981689453125,-0.01861572265625,0.0146636962890625
1772535234540379600,9.000379638671875,-0.9992828369140625,-0.018707275390625,0.01324462890625
1772535234550395600,9.010395751953125,-0.9992218017578125,-0.01873779296875,0.013214111328125
1772535234560411600,9.02041162109375,-0.999664306640625,-0.0182952880859375,0.0145111083984375
1772535234570428000,9.030427978515625,-0.99847412109375,-0.01788330078125,0.014190673828125
1772535234580444000,9.04044384765625,-0.998779296875,-0.01837158203125,0.01507568359375
1772535234590460000,9.0504599609375,-0.9995269775390625,-0.018096923828125,0.0141143798828125
1772535234600476000,9.060475830078126,-0.99896240234375,-0.018707275390625,0.0138702392578125
1772535234610491600,9.07049169921875,-0.9986572265625,-0.018707275390625,0.0121307373046875
1772535234620507600,9.080507568359375,-1.0005035400390625,-0.01849365234375,0.0133056640625
1772535234630523600,9.090523681640626,-0.9993743896484375,-0.018798828125,0.0151214599609375
1772535234640540000,9.100539794921875,-0.9979248046875,-0.0183258056640625,0.0139617919921875
1772535234650556000,9.110555908203125,-0.9994354248046875,-0.018035888671875,0.0141754150390625
1772535234660571000,9.12057080078125,-0.9988555908203125,-0.017791748046875,0.0137176513671875
1772535234670587000,9.1305869140625,-1.0002288818359375,-0.0180511474609375,0.013702392578125
1772535234680603000,9.140602783203125,-0.9993743896484375,-0.0179901123046875,0.01300048828125
1772535234690619000,9.150618896484374,-0.998260498046875,-0.0181732177734375,0.0134124755859375
1772535234700634600,9.160634521484376,-0.998626708984375,-0.0181884765625,0.01416015625
1772535234710650600,9.170650634765625,-0.9991455078125,-0.0187530517578125,0.0142364501953125
1772535234720667000,9.1806669921875,-1.000244140625,-0.0178070068359375,0.0148773193359375
1772535234730683000,9.190682861328124,-0.9990234375,-0.01849365234375,0.0137786865234375
1772535234740699000,9.200698974609375,-0.999725341796875,-0.018829345703125,0.0129852294921875
1772535234750715000,9.21071484375,-0.9994964599609375,-0.0167388916015625,0.01446533203125
1772535234760730600,9.220730712890624,-0.99871826171875,-0.0171051025390625,0.014862060546875
1772535234770746600,9.23074658203125,-0.999755859375,-0.0167388916015625,0.0131072998046875
1772535234780763000,9.240762939453125,-0.9988861083984375,-0.0170135498046875,0.0136871337890625
1772535234790779000,9.25077880859375,-1.0005340576171875,-0.0177001953125,0.0138702392578125
1772535234800795000,9.260794921875,-0.9998779296875,-0.0186920166015625,0.0139007568359375
1772535234810811000,9.270810791015625,-0.999114990234375,-0.0172576904296875,0.0141754150390625
1772535234820827000,9.280826904296875,-0.998443603515625,-0.0169525146484375,0.012542724609375
1772535234830842600,9.290842529296874,-0.9990692138671875,-0.017669677734375,0.0127716064453125
1772535234840858600,9.300858642578126,-1.0001068115234375,-0.0169219970703125,0.015045166015625
1772535234850875000,9.310875,-1.0003814697265625,-0.018310546875,0.013336181640625
1772535234860891000,9.320890869140625,-0.9998016357421875,-0.01849365234375,0.014190673828125
1772535234871532800,9.33153271484375,-0.9984893798828125,-0.0186767578125,0.0137786865234375
1772535234881548800,9.341548828125,-0.9990997314453125,-0.0180206298828125,0.0126800537109375
1772535234891564800,9.351564697265625,-0.99969482421875,-0.0183258056640625,0.013916015625
1772535234901580800,9.361580810546876,-0.998809814453125,-0.019317626953125,0.0147857666015625
1772535234911596800,9.3715966796875,-0.99945068359375,-0.017608642578125,0.01409912109375
1772535234921612800,9.38161279296875,-0.9985809326171875,-0.01800537109375,0.0137481689453125
1772535234931628800,9.39162890625,-0.9993743896484375,-0.0181884765625,0.01336669921875
1772535234941644800,9.401644775390626,-0.9989013671875,-0.0186309814453125,0.013763427734375
1772535234951660800,9.411660888671875,-0.99847412109375,-0.0182952880859375,0.0135345458984375
1772535234961676800,9.4216767578125,-0.998809814453125,-0.0183868408203125,0.0131988525390625
1772535234971692800,9.43169287109375,-0.99957275390625,-0.0178375244140625,0.0141143798828125
1772535234981708800,9.441708740234375,-1.000030517578125,-0.0170745849609375,0.0143890380859375
1772535234991724800,9.451724853515625,-0.9998931884765625,-0.0174102783203125,0.014984130859375
1772535235001740800,9.46174072265625,-0.999969482421875,-0.0187225341796875,0.01470947265625
1772535235011755800,9.471755859375,-1.0005340576171875,-0.0192413330078125,0.014373779296875
1772535235021772000,9.48177197265625,-0.999847412109375,-0.0182342529296875,0.01318359375
1772535235031787800,9.491787841796874,-0.99847412109375,-0.01824951171875,0.01446533203125
1772535235041803800,9.5018037109375,-0.999725341796875,-0.017181396484375,0.01348876953125
1772535235051819800,9.51181982421875,-0.9998931884765625,-0.0181121826171875,0.0144805908203125
1772535235061835800,9.521835693359375,-0.9991455078125,-0.018157958984375,0.0140838623046875
1772535235071851800,9.531851806640624,-0.9998321533203125,-0.018035888671875,0.012939453125
1772535235081867800,9.54186767578125,-0.9997711181640625,-0.0179595947265625,0.01275634765625
1772535235091883800,9.5518837890625,-0.999267578125,-0.018157958984375,0.014434814453125
1772535235101899800,9.561899658203124,-0.9988861083984375,-0.0183563232421875,0.0147705078125
1772535235111915800,9.571915771484376,-0.999267578125,-0.018341064453125,0.013153076171875
1772535235121931800,9.581931884765625,-0.998565673828125,-0.01885986328125,0.01385498046875
1772535235131947800,9.59194775390625,-0.999725341796875,-0.0185089111328125,0.014068603515625
1772535235141963800,9.6019638671875,-1.0012054443359375,-0.0164337158203125,0.0142364501953125
1772535235151979800,9.611979736328125,-0.998779296875,-0.0177764892578125,0.014556884765625
1772535235161995800,9.621995849609375,-1.0001220703125,-0.0177154541015625,0.01385498046875
1772535235172011800,9.63201171875,-0.99981689453125,-0.0183258056640625,0.0144500732421875
1772535235182027800,9.64202783203125,-0.9993133544921875,-0.0187530517578125,0.013763427734375
1772535235192043800,9.652043701171875,-1.000091552734375,-0.017669677734375,0.0131683349609375
1772535235202686000,9.66268603515625,-0.9988555908203125,-0.0184326171875,0.01348876953125
1772535235212701700,9.67270166015625,-0.9991912841796875,-0.0184326171875,0.0146484375
1772535235222717700,9.6827177734375,-0.99951171875,-0.0177459716796875,0.0133819580078125
1772535235232733700,9.692733642578125,-0.9996185302734375,-0.0168914794921875,0.014068603515625
1772535235242749700,9.702749755859376,-0.999786376953125,-0.019012451171875,0.01397705078125
1772535235252766000,9.712765869140625,-1.0002899169921875,-0.0179443359375,0.01446533203125
1772535235262782000,9.722781982421875,-1.000213623046875,-0.0165252685546875,0.013458251953125
1772535235272798000,9.7327978515625,-1.0002899169921875,-0.0189361572265625,0.0138702392578125
1772535235282814000,9.74281396484375,-0.998931884765625,-0.017822265625,0.0135498046875
1772535235292830200,9.752830322265625,-0.9992218017578125,-0.0184326171875,0.0126953125
1772535235302846200,9.76284619140625,-0.9987945556640625,-0.0176849365234375,0.0138702392578125
1772535235312862200,9.7728623046875,-0.9991455078125,-0.019012451171875,0.013580322265625
1772535235322878200,9.782878173828125,-0.9995880126953125,-0.0188446044921875,0.014678955078125
1772535235332894200,9.792894287109375,-0.9993896484375,-0.0175933837890625,0.0145263671875
1772535235342910000,9.802909912109374,-0.9991455078125,-0.017547607421875,0.0133819580078125
1772535235352926000,9.812926025390626,-0.998504638671875,-0.0193328857421875,0.01324462890625
1772535235362941000,9.82294091796875,-0.9988861083984375,-0.017913818359375,0.014068603515625
1772535235372957200,9.832957275390624,-0.999847412109375,-0.0175933837890625,0.0135650634765625
1772535235382973200,9.84297314453125,-1.0005035400390625,-0.018463134765625,0.0135955810546875
1772535235392989200,9.8529892578125,-0.997711181640625,-0.01763916015625,0.0139007568359375
1772535235403005200,9.863005126953125,-0.999298095703125,-0.0192108154296875,0.0139923095703125
1772535235413021200,9.873021240234374,-0.999481201171875,-0.0163726806640625,0.0143890380859375
1772535235423037000,9.883036865234375,-0.9996490478515625,-0.016876220703125,0.015838623046875
1772535235433053000,9.893052978515625,-0.999847412109375,-0.017425537109375,0.014068603515625
1772535235443069200,9.903069091796874,-1.001068115234375,-0.0174713134765625,0.01385498046875
1772535235453085200,9.913085205078126,-1.000244140625,-0.018218994140625,0.0148773193359375
1772535235463101200,9.92310107421875,-0.9988861083984375,-0.0166168212890625,0.0141448974609375
1772535235473117200,9.9331171875,-1.0001220703125,-0.0177154541015625,0.0128631591796875
1772535235483133200,9.94313330078125,-0.9994659423828125,-0.0178985595703125,0.01361083984375
1772535235493149000,9.95314892578125,-0.9993743896484375,-0.0164794921875,0.0137481689453125
1772535235503165200,9.963165283203125,-0.99969482421875,-0.01800537109375,0.0139923095703125
1772535235513181200,9.97318115234375,-1.0000152587890625,-0.01751708984375,0.0135498046875
1772535235523197200,9.983197265625,-0.99981689453125,-0.0177001953125,0.012542724609375
1772535235533213200,9.993213134765625,-0.9993133544921875,-0.017364501953125,0.012725830078125
1772535235543229200,10.003229248046875,-0.9990081787109375,-0.016998291015625,0.0140838623046875
1772535235553245200,10.0132451171875,-0.999481201171875,-0.0180206298828125,0.01361083984375
1772535235563261000,10.023260986328125,-1.0009918212890625,-0.0185394287109375,0.014556884765625
1772535235573277200,10.033277099609375,-0.9990997314453125,-0.018218994140625,0.0147552490234375
1772535235583293200,10.043293212890624,-0.9994354248046875,-0.01824951171875,0.01318359375
1772535235593309200,10.05330908203125,-1.0006866455078125,-0.0171966552734375,0.0141448974609375
1772535235603325200,10.0633251953125,-0.999359130859375,-0.01708984375,0.0146484375
1772535235613341200,10.073341064453125,-0.9988555908203125,-0.0172882080078125,0.014923095703125
1772535235623357200,10.083357177734374,-0.9998626708984375,-0.018463134765625,0.014129638671875
1772535235633373000,10.093373046875,-0.9993896484375,-0.01812744140625,0.01409912109375
1772535235643389200,10.10338916015625,-1.000640869140625,-0.0174713134765625,0.0134124755859375
1772535235653405200,10.1134052734375,-0.9993896484375,-0.01690673828125,0.0143280029296875
1772535235663421200,10.123421142578126,-1.0005645751953125,-0.017242431640625,0.013824462890625
1772535235673437200,10.133437255859375,-1.000030517578125,-0.018310546875,0.0135498046875
1772535235683453200,10.143453125,-1.0003204345703125,-0.0188140869140625,0.013519287109375
1772535235693469000,10.153468994140624,-1.000274658203125,-0.017547607421875,0.0139312744140625
1772535235703485200,10.163485107421875,-1.0001068115234375,-0.0188751220703125,0.01275634765625
1772535235713500000,10.1735,-1.00103759765625,-0.0175933837890625,0.013214111328125
1772535235723516200,10.18351611328125,-0.9999847412109375,-0.01806640625,0.0148773193359375
1772535235733532200,10.1935322265625,-0.99951171875,-0.01824951171875,0.0143890380859375
1772535235743548200,10.203548095703125,-0.998870849609375,-0.01800537109375,0.0124359130859375
1772535235753564200,10.213564208984375,-0.9990386962890625,-0.017425537109375,0.014495849609375
1772535235763580200,10.223580078125,-1.000457763671875,-0.0185394287109375,0.014617919921875
1772535235773596200,10.23359619140625,-0.9989471435546875,-0.0183563232421875,0.0140838623046875
1772535235783612200,10.243612060546875,-0.9981842041015625,-0.0174102783203125,0.014068603515625
1772535235793628200,10.253628173828124,-0.9976043701171875,-0.0176849365234375,0.014434814453125
1772535235803644200,10.26364404296875,-1.000274658203125,-0.0191802978515625,0.0143890380859375
1772535235813660200,10.27366015625,-0.998199462890625,-0.0177764892578125,0.0134429931640625
1772535235823676200,10.28367626953125,-0.9993743896484375,-0.0183563232421875,0.0146331787109375
1772535235833692200,10.293692138671876,-1.000823974609375,-0.0189056396484375,0.0140838623046875
1772535235843708200,10.303708251953125,-0.9993438720703125,-0.018402099609375,0.013641357421875
1772535235853724200,10.31372412109375,-0.9998016357421875,-0.0181732177734375,0.0137481689453125
1772535235863740200,10.323740234375,-0.99969482421875,-0.017791748046875,0.013671875
1772535235873756200,10.333756103515626,-0.9989471435546875,-0.01727294921875,0.0149688720703125
1772535235883772200,10.343772216796875,-0.9988250732421875,-0.018096923828125,0.0138397216796875
1772535235893788200,10.3537880859375,-0.9996795654296875,-0.0172576904296875,0.0133209228515625
1772535235903804200,10.36380419921875,-0.9993133544921875,-0.01800537109375,0.014007568359375
1772535235913820000,10.37381982421875,-0.999298095703125,-0.01824951171875,0.0140380859375
1772535235923836200,10.383836181640625,-0.9990386962890625,-0.019378662109375,0.013946533203125
1772535235933852200,10.39385205078125,-0.999053955078125,-0.017852783203125,0.01324462890625
1772535235943868200,10.4038681640625,-1.0008697509765625,-0.0179901123046875,0.0138702392578125
1772535235953884200,10.41388427734375,-0.9989013671875,-0.0188446044921875,0.0141448974609375
1772535235963900200,10.423900146484375,-0.99859619140625,-0.018096923828125,0.01385498046875
1772535235973916200,10.433916259765626,-0.9998016357421875,-0.0175323486328125,0.0137481689453125
1772535235983932000,10.443931884765625,-0.999664306640625,-0.01763916015625,0.0134429931640625
1772535235993948200,10.4539482421875,-1.000244140625,-0.017791748046875,0.012908935546875
1772535236003964200,10.463964111328124,-0.9999847412109375,-0.0174102783203125,0.01361083984375
1772535236013980200,10.473980224609376,-0.998870849609375,-0.0179443359375,0.0143280029296875
1772535236023996200,10.48399609375,-0.9983673095703125,-0.0165557861328125,0.015350341796875
1772535236034012200,10.49401220703125,-1.0000762939453125,-0.017333984375,0.014312744140625
1772535236044027100,10.504027099609376,-0.9987335205078125,-0.0185546875,0.0138092041015625
1772535236054043100,10.514043212890625,-1.0002288818359375,-0.0173187255859375,0.0145721435546875
1772535236064059100,10.52405908203125,-1.0006561279296875,-0.0181121826171875,0.0145263671875
1772535236074075100,10.5340751953125,-0.998870849609375,-0.0180511474609375,0.0140228271484375
1772535236084091100,10.544091064453125,-0.9988250732421875,-0.0187530517578125,0.014190673828125
1772535236094107100,10.554107177734375,-0.9995574951171875,-0.018707275390625,0.0150299072265625
1772535236104123100,10.564123046875,-0.998809814453125,-0.0182952880859375,0.013763427734375
1772535236114139100,10.57413916015625,-0.9984283447265625,-0.017425537109375,0.013336181640625
1772535236124155100,10.584155029296875,-0.9979705810546875,-0.01763916015625,0.0146484375
1772535236134171100,10.594171142578125,-0.9999237060546875,-0.0185699462890625,0.0140533447265625
1772535236144187100,10.604187255859374,-1.000091552734375,-0.0185089111328125,0.01446533203125
1772535236154203100,10.614203125,-1.0005645751953125,-0.0184326171875,0.01495361328125
1772535236164219100,10.62421923828125,-0.9984893798828125,-0.0179290771484375,0.01275634765625
1772535236174235100,10.634235107421874,-0.9991912841796875,-0.0180511474609375,0.0142974853515625
1772535236184251100,10.644251220703126,-0.9996490478515625,-0.01849365234375,0.014068603515625
1772535236194267100,10.65426708984375,-0.9985809326171875,-0.0193939208984375,0.013427734375
1772535236204283100,10.664283203125,-0.9984588623046875,-0.0188140869140625,0.01318359375
1772535236214299100,10.674299072265624,-0.9991302490234375,-0.01702880859375,0.013519287109375
1772535236224315100,10.684315185546875,-0.9990234375,-0.0170745849609375,0.0138092041015625
1772535236234331100,10.6943310546875,-0.9990692138671875,-0.018768310546875,0.0132904052734375
1772535236244347100,10.70434716796875,-0.999267578125,-0.0188140869140625,0.0130767822265625
1772535236254363100,10.714363037109376,-0.9998321533203125,-0.0180816650390625,0.0141448974609375
1772535236264379100,10.724379150390625,-0.9994049072265625,-0.0183563232421875,0.0152130126953125
1772535236274395600,10.734395751953125,-0.999969482421875,-0.0182342529296875,0.0138092041015625
1772535236284411600,10.74441162109375,-0.9996490478515625,-0.0182647705078125,0.0122222900390625
1772535236294427600,10.754427734375,-0.998321533203125,-0.0187530517578125,0.0134124755859375
1772535236304443600,10.764443603515625,-0.997589111328125,-0.01800537109375,0.014434814453125
1772535236314459600,10.774459716796875,-0.998077392578125,-0.0178070068359375,0.0135650634765625
1772535236324475600,10.7844755859375,-0.9993133544921875,-0.018310546875,0.0134429931640625
1772535236334491600,10.79449169921875,-0.9988555908203125,-0.0190582275390625,0.0136260986328125
1772535236344507600,10.804507568359375,-1.00042724609375,-0.0176239013671875,0.0135498046875
1772535236354523600,10.814523681640624,-0.9994354248046875,-0.0189361572265625,0.0147857666015625
1772535236364539600,10.82453955078125,-0.999847412109375,-0.0175628662109375,0.0141754150390625
1772535236374555600,10.8345556640625,-0.998626708984375,-0.01800537109375,0.0138702392578125
1772535236384570600,10.844570556640624,-0.9984893798828125,-0.0178375244140625,0.0154571533203125
1772535236394586600,10.854586669921876,-0.9991912841796875,-0.0174407958984375,0.0137939453125
