time,seconds_elapsed,z,y,x
1772535225594856200,0.054856201171875,0.00007701769936829805,-0.001023047138005495,0.0000616312026977539
1772535225604872200,0.0648720703125,-0.0006084798951633275,0.001306419726461172,-0.0003668712452054024
1772535225614888200,0.07488818359375,0.0004302094457671046,-0.00038560456596314907,-0.000034269411116838455
1772535225624904200,0.084904296875,-0.0018531848909333348,0.00104584451764822,-0.0002981889992952347
1772535225634920400,0.09492041015625,-0.0007536873454228044,0.001244827639311552,-0.0011045103892683983
1772535225644936400,0.1049365234375,-0.0005659344606101513,-0.0003980766050517559,-0.0009199534542858601
1772535225654952200,0.1149521484375,-0.00031668972223997116,0.00046355533413589,-0.00037280749529600143
1772535225664968200,0.12496826171875,0.0007291336078196764,0.000737328315153718,0.000973154092207551
1772535225674984200,0.134984130859375,-0.0006311493925750256,-0.0015211034333333373,0.00036392873153090477
1772535225685000200,0.145000244140625,-0.0004218248650431633,0.00016920501366257668,0.0008792502339929342
1772535225695016200,0.15501611328125,-0.00014276639558374882,0.0003609436098486185,0.00018567964434623718
1772535225705032400,0.165032470703125,-0.0006871165242046118,0.0011316624004393816,-0.0006652004085481167
1772535225715048200,0.175048095703125,-0.0005410263547673821,0.0006830436177551746,0.0006697052158415318
1772535225725064200,0.185064208984375,0.0007918857736513019,0.00031632627360522747,0.0010263025760650635
1772535225735080200,0.195080078125,0.00005478831008076668,-0.0008581415750086308,0.001025061821565032
1772535225745096200,0.20509619140625,0.0015086079947650433,0.0006545339711010456,-0.00021597091108560562
1772535225755112200,0.2151123046875,-0.0002702741767279804,-0.0008032616460695863,-0.0009031891822814941
1772535225765128400,0.22512841796875,-0.0021089205984026194,0.0009869153145700693,-0.0005002529360353947
1772535225775144400,0.23514453125,0.000676736410241574,0.0007352675311267376,-0.0003836783580482006
1772535225785160200,0.24516015625,-0.0007954589673317969,0.00004710652865469456,-0.0005408050492405891
1772535225795176200,0.25517626953125,0.0004372172988951206,-0.0004925162065774202,-0.000059110578149557114
1772535225805192200,0.265192138671875,-0.00032657734118402004,-0.00022566760890185833,-0.00019013788551092148
1772535225815208200,0.275208251953125,-0.0003139860928058624,0.00039776810444891453,-0.0002937917597591877
1772535225825224200,0.28522412109375,-0.00002849521115422249,0.00024144048802554607,0.0013485800009220839
1772535225835239200,0.2952392578125,-0.00013444514479488134,0.000718751922249794,0.0009520126041024923
1772535225845256400,0.30525634765625,0.000016822421457618475,-0.0005965833552181721,0.0011139328125864267
1772535225855271400,0.315271484375,0.000499220855999738,0.000513328704982996,-0.00015318207442760468
1772535225865287400,0.325287353515625,0.0010907088872045279,-0.000005188630893826485,0.0007791907992213964
1772535225875303200,0.33530322265625,-0.0003711538156494498,0.0009016485419124365,-0.0011658328585326672
1772535225885319200,0.345319091796875,0.0002980985154863447,-0.00008931360207498074,-0.00041615311056375504
1772535225895335200,0.355335205078125,-0.000307070673443377,-0.00037943385541439056,-0.0006432295776903629
1772535225905351200,0.36535107421875,-0.000023444066755473614,-0.0002931472845375538,-0.000012326519936323166
1772535225915367400,0.375367431640625,-0.001005067490041256,-0.0010368452640250325,0.00010579545050859451
1772535225925383400,0.385383544921875,-0.0013366308994591236,-0.0010685368906706572,-0.0008609318174421787
1772535225935399200,0.395399169921875,-0.00011241529136896133,0.00026959460228681564,0.0007764047477394342
1772535225945415200,0.405415283203125,0.0009547133231535554,0.00004136166535317898,-0.0012995293363928795
1772535225955431200,0.41543115234375,0.0002972421934828162,0.001148106763139367,0.00007351534441113472
1772535225965447200,0.425447265625,0.00016355147818103433,-0.0012186444364488125,0.00022984296083450317
1772535225975463200,0.435463134765625,-0.0009120250470004976,0.0004677183460444212,-0.001300858799368143
1772535225985479400,0.4454794921875,0.000574285164475441,0.0005947512108832598,-0.0009048469364643097
1772535225995495400,0.455495361328125,-0.0002557134139351547,-0.0001528412103652954,0.0008603034075349569
1772535226005511200,0.46551123046875,0.0007078182534314692,-0.0005520491395145655,-0.0005043004639446735
1772535226015527200,0.475527099609375,0.0000016347039490938187,0.0008230376988649368,0.0005705710500478745
1772535226025543200,0.485543212890625,0.00013159692753106356,-0.00027897837571799755,-0.0009996290318667889
1772535226035559200,0.49555908203125,0.00031330983620136976,-0.001008522231131792,-0.00033411476761102676
1772535226045575200,0.5055751953125,0.0005007963627576828,0.00020294985733926296,0.00008133845403790474
1772535226055591400,0.51559130859375,-0.0002914892975240946,-0.0008916577789932489,-0.0002664695493876934
1772535226065607400,0.525607421875,0.0009487448260188103,-0.0000026945490390062332,-0.0004518255591392517
1772535226075623200,0.535623046875,0.0006908613722771406,-0.0013624989660456777,0.001290314830839634
1772535226085639200,0.54563916015625,-0.00024923449382185936,-0.00029457127675414085,-0.0018191919662058353
1772535226095655200,0.5556552734375,-0.00010481727076694369,-0.0007514104945585132,0.00024663563817739487
1772535226105671200,0.565671142578125,0.0004680287092924118,-0.00024327938444912434,0.00017552915960550308
1772535226115687400,0.5756875,0.0011824376415461302,0.00021209963597357273,-0.0007074112072587013
1772535226125703400,0.585703369140625,-0.00021332508185878396,-0.0005066876765340567,0.0020923700649291277
1772535226135719400,0.595719482421875,0.0006891536177136004,-0.00025871978141367435,-0.0007515242323279381
1772535226145735200,0.605735107421875,-0.0013625456485897303,0.0011809852439910173,0.0007547594141215086
1772535226155751200,0.615751220703125,0.00029949055169709027,-0.0004650906194001436,-0.0003040372394025326
1772535226165767200,0.62576708984375,-0.0011854880722239614,0.0008806046098470688,-0.0005253460258245468
1772535226175783200,0.635783203125,0.0014799044001847506,-0.0000786494929343462,0.000969006447121501
1772535226185799400,0.64579931640625,-0.0004205274162814021,-0.00012365705333650112,0.0006342469714581966
1772535226195815400,0.6558154296875,0.0010440287878736854,-0.00013838568702340126,-0.0011093690991401672
1772535226205831200,0.6658310546875,-0.0004894193261861801,0.0011284798383712769,-0.0005413168109953403
1772535226215847200,0.67584716796875,0.00014553189976140857,0.00009123492054641247,-0.0004169382154941559
1772535226225863200,0.68586328125,0.0015207882970571518,-0.00020277826115489006,-0.0006907111965119839
1772535226235879200,0.695879150390625,0.0013338917633518577,0.0008078317623585463,-0.00015471689403057098
1772535226245895200,0.705895263671875,-0.00017798476619645953,0.00012979097664356232,0.00042611872777342796
1772535226255911000,0.715910888671875,-0.00023395009338855743,-0.00003087567165493965,-0.0007889368571341038
1772535226265927000,0.725927001953125,0.0009969630045816302,0.0006466326303780079,0.00010774936527013779
1772535226275943000,0.73594287109375,-0.0015271218726411462,0.0006499220617115498,0.000998211558908224
1772535226285958700,0.745958740234375,0.00022124327369965613,0.0007796180434525013,-0.00047265226021409035
1772535226295974700,0.755974609375,0.0002660326426848769,0.0001948180142790079,0.00033096643164753914
1772535226305990700,0.76599072265625,0.0001397987944073975,-0.0006728399312123656,0.0003440156579017639
1772535226316006700,0.776006591796875,-0.0009687093552201986,-0.0007611078908666968,0.0010790713131427765
1772535226326023000,0.78602294921875,-0.0011087916791439056,-0.0000037048012018203735,-0.00012973742559552193
1772535226336039000,0.796038818359375,0.0009581188205629587,0.00029687024652957916,-0.0013628746382892132
1772535226346055000,0.806054931640625,0.00022282006102614105,-0.00103364500682801,0.00020865676924586296
1772535226356070700,0.816070556640625,0.00012965453788638115,-0.0005478106904774904,-0.0014667408540844917
1772535226366086700,0.826086669921875,-0.00016276055248454213,0.000046872999519109726,0.000007318798452615738
1772535226376102700,0.8361025390625,0.0016017217421904206,-0.00017771590501070023,0.0004347022622823715
1772535226386118700,0.84611865234375,-0.0007370663224719465,0.0004233596846461296,-0.0003019282594323158
1772535226396135000,0.856135009765625,-0.0003550619585439563,-0.00028049829415977,0.0001382492482662201
1772535226406151000,0.86615087890625,-0.0013902327045798302,-0.0008533442160114646,0.00030389800667762756
1772535226416166700,0.876166748046875,-0.000394446833524853,0.000739918788895011,-0.0008330396376550198
1772535226426182700,0.8861826171875,-0.000510560639668256,-0.0005178921855986118,0.00026285089552402496
1772535226436198700,0.89619873046875,-0.0015197121538221836,-0.00004242314025759697,0.0015509251970797777
1772535226446214700,0.906214599609375,-0.00022301904391497374,0.00005451589822769165,0.00018525635823607445
1772535226456230700,0.916230712890625,0.00039590650703758,-0.00006790482439100742,0.0016324492171406746
1772535226466247000,0.926246826171875,-0.0011806848924607038,0.0010727271437644958,0.00003055809065699577
1772535226476263000,0.936262939453125,-0.0009271553717553616,0.00014218990691006184,0.0005556729156523943
1772535226486278700,0.946278564453125,0.000428393657784909,-0.0006306595169007778,-0.0002307584509253502
1772535226496294700,0.956294677734375,-0.00007538567297160625,-0.00007248553447425365,0.0013092414010316133
1772535226506310700,0.966310546875,-0.000030111928936094046,0.0007131469901651144,0.0004591606557369232
1772535226516326700,0.97632666015625,0.0000409006024710834,-0.00047045759856700897,0.0003676800988614559
1772535226526343000,0.986343017578125,-0.0021005473099648952,0.000892281997948885,-0.0010390016250312328
1772535226536359000,0.99635888671875,-0.00029101717518642545,-0.0008413731120526791,0.0018416289240121841
1772535226546375000,1.006375,0.00003495370037853718,-0.0005777201149612665,0.0006386791355907917
1772535226556390700,1.016390625,0.0005277229938656092,0.00023088417947292328,0.0004798518493771553
1772535226566406700,1.02640673828125,0.00015514675760641694,-0.0003994859289377928,-0.0008482662960886955
1772535226576422700,1.036422607421875,-0.0009975582361221313,0.0001262074802070856,0.0014462745748460293
1772535226586438700,1.046438720703125,0.0003694423648994416,-0.00014436966739594936,0.000603650463744998
1772535226596455000,1.056454833984375,-0.00017442740499973297,-0.00008259550668299198,-0.00011448375880718231
1772535226606471000,1.066470947265625,-0.00048681622138246894,-0.00034411787055432796,0.00013665249571204185
1772535226616487000,1.07648681640625,-0.0014003741089254618,0.0002982534933835268,0.0000036456622183322906
1772535226626502700,1.086502685546875,0.001169842667877674,0.00006522703915834427,-0.0011265999637544155
1772535226636518700,1.0965185546875,-0.0004851218545809388,-0.0005966890603303909,0.0003577270545065403
1772535226646534700,1.10653466796875,-0.0011559721315279603,0.00024007633328437805,0.002060019876807928
1772535226656550700,1.116550537109375,0.00024274445604532957,0.0006565623916685581,-0.0007414608262479305
1772535226666567000,1.12656689453125,0.0007221134728752077,0.0009250091388821602,0.0008100969716906548
1772535226676583000,1.1365830078125,0.0004891026765108109,-0.0003563910722732544,-0.0007886923849582672
1772535226686598700,1.1465986328125,0.00048936897655949,-0.0003835551906377077,0.00039934366941452026
1772535226696614700,1.15661474609375,0.000066694978158921,-0.00014030328020453453,-0.0004368070513010025
1772535226706629600,1.166629638671875,-0.0002057463862001896,-0.00004469580017030239,-0.0005846121348440647
1772535226716646700,1.176646728515625,-0.0001284765894524753,-0.00019046501256525517,-0.0003746403381228447
1772535226726661600,1.18666162109375,-0.00032981159165501595,-0.0008051226614043117,0.0005031377077102661
1772535226736677600,1.196677734375,-0.0014555981615558267,-0.0003397457767277956,0.001263211015611887
1772535226746694000,1.20669384765625,-0.0008326848037540913,0.0010168685112148523,0.000842964043840766
1772535226756710000,1.2167099609375,0.0008408582070842385,-0.0004497924819588661,0.0005405640695244074
1772535226766726000,1.226725830078125,0.0005644221091642976,0.0004498234484344721,0.000619127182289958
1772535226776741600,1.23674169921875,0.0012743457918986678,-0.00003497232683002949,-0.0004605390131473541
1772535226786757600,1.246757568359375,-0.00042395206401124597,-0.0004458981566131115,0.0011269710958003998
1772535226796773600,1.256773681640625,0.0006697482895106077,-0.00036729592829942703,0.0002222806215286255
1772535226806790000,1.266789794921875,0.0002740025520324707,0.0001400364562869072,-0.0007119565270841122
1772535226816806000,1.276805908203125,0.0004892254946753383,-0.0006349880713969469,0.0006453406531363726
1772535226826822000,1.28682177734375,-0.0005944147706031799,-0.00011380738578736782,0.00014466652646660805
1772535226836838000,1.296837890625,-0.0007079219212755561,-0.00011567422188818455,0.0002882392145693302
1772535226846853600,1.306853515625,0.00007850956171751022,-0.0006126202642917633,0.0006640111096203327
1772535226856869600,1.31686962890625,-0.0004638404934667051,-0.0003446894697844982,0.0001498982310295105
1772535226866885600,1.3268857421875,0.000033638032618910074,0.0007157812360674143,0.000893985154107213
1772535226876902000,1.33690185546875,-0.00010025297524407506,-0.0011850966839119792,0.00013375096023082733
1772535226886918000,1.34691796875,0.00020494527416303754,-0.0005387475248426199,0.0018650719430297613
1772535226896934000,1.356933837890625,0.0008399189100600779,0.0005272482521831989,0.000223423819988966
1772535226906949600,1.36694970703125,-0.0005225542699918151,-0.00007009878754615784,-0.0017166887409985065
1772535226916965600,1.376965576171875,0.00013787619536742568,-0.0012217778712511063,0.0007741029839962721
1772535226926981600,1.386981689453125,-0.00039209291571751237,-0.0001418660394847393,-0.00091567263007164
1772535226936997600,1.39699755859375,0.0011780309723690152,-0.0005107668694108725,-0.00007540220394730568
1772535226947014000,1.407013916015625,-0.0012062971945852041,-0.00042021949775516987,0.00023219315335154533
1772535226957030000,1.41702978515625,-0.0007863588980399072,0.00019699218682944775,0.0014492108020931482
1772535226967046000,1.4270458984375,-0.0009576001320965588,-0.00017212191596627235,-0.0016131578013300896
1772535226977061600,1.4370615234375,0.0003760624385904521,-0.0014689138624817133,0.00032245973125100136
1772535226987077600,1.44707763671875,-0.0002561720320954919,0.0006357822567224503,-0.00012575043365359306
1772535226997093600,1.45709375,0.0007399808964692056,-0.0001796032302081585,-0.00033331988379359245
1772535227007109600,1.467109619140625,-0.0004746868507936597,-0.00022248015739023685,-0.0005785971879959106
1772535227017126000,1.4771259765625,0.00004254281520843506,-0.0006542475894093513,0.0007561540696769953
1772535227027142000,1.487141845703125,0.0016886426601558924,-0.0002816712949424982,-0.0005626431666314602
1772535227037158000,1.497157958984375,-0.0004950836300849915,0.00026487349532544613,0.000028415117412805557
1772535227047173600,1.507173583984375,-0.0011805812828242779,-0.0009471310768276453,-0.0006994269788265228
1772535227057189600,1.517189697265625,-0.0001198318786919117,0.0009552291594445705,-0.0020178374834358692
1772535227067205600,1.52720556640625,-0.001203738385811448,0.0003440338186919689,0.0001795371063053608
1772535227077222000,1.537221923828125,0.00021907698828727007,-0.0009257636265829206,0.0006363901775330305
1772535227087238000,1.54723779296875,0.001908586360514164,-0.00046343891881406307,0.0003967056982219219
1772535227097254000,1.55725390625,0.0006738344090990722,0.00023926072753965855,0.0008963821455836296
1772535227107270000,1.567269775390625,-0.0004422964411787689,0.00041343155317008495,0.0003565591759979725
1772535227117285600,1.57728564453125,0.0017182028386741877,-0.0005230766255408525,-0.0010147648863494396
1772535227127301600,1.587301513671875,-0.000547614530660212,0.0003001063596457243,0.0004928507842123508
1772535227137317600,1.597317626953125,-0.0008087012683972716,0.0011252111289650202,0.00012267287820577621
1772535227147334000,1.607333984375,0.00012340513058006763,0.0006690113805234432,-0.00012446846812963486
1772535227157350000,1.617349853515625,-0.0004696075338870287,-0.0008579923305660486,0.0006879335269331932
1772535227167366000,1.627365966796875,0.0002824690891429782,-0.00007395772263407707,-0.0015437952242791653
1772535227177381600,1.637381591796875,-0.00020021386444568634,0.0000372505746781826,0.001027905149385333
1772535227187397600,1.647397705078125,0.0007180441170930862,-0.000919623184017837,-0.0009132730774581432
1772535227197413600,1.65741357421875,0.00046417408157140017,-0.0009203724330291152,0.00038011884316802025
1772535227207429600,1.6674296875,0.0007185059366747737,-0.0011334252776578069,-0.0006518559530377388
1772535227217446000,1.67744580078125,0.002803176175802946,0.001122187590226531,-0.00017849449068307877
1772535227227462000,1.6874619140625,-0.0004056665929965675,0.0009307062719017267,-0.0007026041857898235
1772535227237478000,1.697477783203125,-0.0006021476583555341,-0.0002255996223539114,-0.0009223418310284615
1772535227247493600,1.70749365234375,0.0009563341736793518,-0.0008165552280843258,-0.00040808506309986115
1772535227257510000,1.717510009765625,0.0007045309757813811,0.00043941172771155834,-0.000513649545609951
1772535227267526000,1.72752587890625,0.0008904196438379586,0.0003768273163586855,0.0017827942501753569
1772535227277542000,1.7375419921875,0.00012894731480628252,0.00028141262009739876,0.00020129280164837837
1772535227287558000,1.747557861328125,0.0005244267522357404,-0.0008240655297413468,0.0006572259590029716
1772535227297574000,1.757573974609375,-0.0008814369793981314,-0.0006397578399628401,0.0013961822260171175
1772535227307590000,1.76758984375,0.0007580049568787217,0.0013128716964274645,0.0007032277062535286
1772535227317606000,1.77760595703125,0.000851786753628403,-0.0012931987876072526,0.0010749239008873701
1772535227327622000,1.787621826171875,0.00046749261673539877,0.00045197061263024807,-0.0008124583400785923
1772535227337638000,1.797637939453125,0.00017131591448560357,-0.000495637534186244,-0.00035354169085621834
1772535227347654000,1.80765380859375,-0.0011506772134453058,-0.0014184227911755443,0.0009495429694652557
1772535227357670000,1.817669921875,0.0010093352757394314,-0.0003330318722873926,-0.000055274926126003265
1772535227367686100,1.82768603515625,-0.0011382377706468105,0.0004467414692044258,-0.0006118752062320709
1772535227377702000,1.837701904296875,0.0005327153485268354,-0.0016366878990083933,0.0009773662313818932
1772535227387718000,1.8477177734375,-0.0005700996844097972,-0.0008635722333565354,0.00002075871452689171
1772535227397734000,1.85773388671875,-0.0008136717951856554,-0.00020668958313763142,-0.00048689451068639755
1772535227407750000,1.86775,0.0012319022789597511,0.00038160267286002636,-0.0009556110017001629
1772535227417766000,1.877765869140625,-0.0015377183444797993,0.0005117515102028847,-0.0005716467276215553
1772535227427780900,1.88778076171875,-0.0013528948184102774,0.0008584950119256973,-0.0013863076455891132
1772535227437798100,1.897798095703125,0.001414234284311533,0.000703620258718729,0.0012377474922686815
1772535227447814000,1.90781396484375,0.00007652846397832036,-0.0002974621020257473,-0.0003729322925209999
1772535227457829000,1.9178291015625,0.0011962003773078322,-0.0008504178840667009,0.0005899793468415737
1772535227467844900,1.927844970703125,0.0004838047898374498,0.0002135150134563446,-0.0014910148456692696
1772535227477860900,1.93786083984375,-0.0007544952095486224,0.000037493882700800896,-0.00071758683770895
1772535227487876900,1.947876953125,-0.00021094403928145766,-0.001063456991687417,-0.0008949530310928822
1772535227497892900,1.957892822265625,-0.0004522048984654248,0.0007859258912503719,-0.0007127751596271992
1772535227507908900,1.967908935546875,0.00014594104140996933,0.0004221382550895214,0.0001413007266819477
1772535227517925000,1.977925048828125,-0.00004385743523016572,-0.000283379340544343,-0.0011320607736706734
1772535227527940900,1.98794091796875,-0.0006715645431540906,-0.00046074576675891876,-0.0006558876484632492
1772535227537956900,1.997956787109375,-0.0005838626530021429,0.000325092114508152,-0.00003236159682273865
1772535227547972900,2.007972900390625,0.00023426045663654804,-0.0007132743485271931,-0.0011807163245975971
1772535227557988900,2.01798876953125,-0.0004124350962229073,-0.0009677506750449538,-0.0007295734249055386
1772535227568004900,2.0280048828125,0.0002661383186932653,-0.000456690089777112,-0.002431865781545639
1772535227578020900,2.038020751953125,0.0010403753258287907,0.0005811227019876242,0.0006133283022791147
1772535227588037000,2.048037109375,-0.0001892060972750187,-0.000024213921278715134,0.0006681894883513451
1772535227598052900,2.058052978515625,0.00032905180705711246,-0.00029430980794131756,-0.0005599996075034142
1772535227608068900,2.06806884765625,-0.001201466890051961,-0.00030948990024626255,-0.0004950184375047684
1772535227618084900,2.0780849609375,0.0005984442541375756,0.0003948903176933527,-0.0006705084815621376
1772535227628100900,2.088100830078125,-0.0008042427361942828,-0.0005715708248317242,-0.0008811643347144127
1772535227638116900,2.098116943359375,0.0001424741349183023,-0.00036917952820658684,0.0004864898510277271
1772535227648133000,2.108133056640625,0.0003075901186093688,0.000047605251893401146,0.0010359000880271196
1772535227658149000,2.118149169921875,0.0001547913416288793,-0.0013841018080711365,-0.0011655711568892002
1772535227668164900,2.128164794921875,0.0007223109714686871,-0.00069860415533185,0.00031541287899017334
1772535227678180900,2.138180908203125,0.0011508208699524403,-0.0008604662725701928,0.000528011005371809
1772535227688196900,2.14819677734375,-0.0015903706662356853,-0.0010021463967859745,-0.000012610573321580887
1772535227698212900,2.158212890625,-0.00009399448754265904,-0.001411142642609775,-0.00038109859451651573
1772535227708228900,2.168228759765625,-0.00035844638478010893,-0.0009821074781939387,0.0009544766508042812
1772535227718245000,2.1782451171875,-0.000016051169950515032,-0.001507469336502254,0.0006766968872398138
1772535227728261000,2.18826123046875,-0.0008781164069660008,0.00032611703500151634,0.0001200963743031025
1772535227738276900,2.19827685546875,-0.00112604396417737,0.00007599894888699055,0.00030471011996269226
1772535227748292900,2.20829296875,0.0012745293788611889,-0.0010646330192685127,-0.0006055580452084541
1772535227758308900,2.218308837890625,0.000969214248470962,0.0008775736205279827,-0.00038912007585167885
1772535227768324900,2.228324951171875,0.00009889318607747555,-0.0006305745337158442,-0.0007569026201963425
1772535227778340900,2.2383408203125,-0.000785422686021775,-0.000568997347727418,0.00023090513423085213
1772535227788357000,2.248357177734375,-0.0013271095231175423,-0.00035567814484238625,-0.00022396259009838104
1772535227798372900,2.258372802734375,0.0014700645115226507,0.0004949453286826611,0.00047149299643933773
1772535227808388900,2.268388916015625,0.000282294669887051,-0.00008535734377801418,0.0006792196072638035
1772535227818404900,2.27840478515625,0.001249444903805852,-0.0007632316555827856,-0.0011242520995438099
1772535227828420900,2.2884208984375,-0.0007114406325854361,-0.00008465815335512161,0.0023250740487128496
1772535227838436900,2.298436767578125,0.0008158638956956565,0.0008083910215646029,-0.0005287760868668556
1772535227848452900,2.308452880859375,0.00001052400330081582,-0.002082736697047949,-0.0002536717802286148
1772535227858469000,2.31846923828125,0.00008215784328058362,-0.00012826966121792793,-0.0008257608860731125
1772535227868484900,2.32848486328125,-0.0007335683330893517,0.00044936989434063435,0.0009894496761262417
1772535227878500900,2.3385009765625,-0.00040549016557633877,-0.0004295052494853735,-0.0010012895800173283
1772535227888516900,2.348516845703125,-0.0004201375413686037,-0.0004811706021428108,-0.0010556182824075222
1772535227898532900,2.358532958984375,-0.000015942088793963194,0.0003363455180078745,0.00042120087891817093
1772535227908548900,2.368548828125,0.0012216288596391678,-0.00003276858478784561,-0.0013042609207332134
1772535227918565000,2.378565185546875,0.00024168947129510343,-0.0003851854708045721,0.000656438060104847
1772535227928581000,2.3885810546875,0.00038363595376722515,0.0001224130392074585,-0.00006075110286474228
1772535227938596900,2.398596923828125,0.0005027208244428039,0.00018834369257092476,0.0005866596475243568
1772535227948612900,2.40861279296875,0.0005341460928320885,0.00022935634478926659,0.00024550873786211014
1772535227958628900,2.41862890625,-0.0002995103131979704,-0.00013183127157390118,0.0007296295370906591
1772535227968644900,2.428644775390625,0.000225132389459759,0.00010066269896924496,0.0005011302419006824
1772535227978660900,2.438660888671875,-0.0006260827649384737,-0.00008414755575358868,-0.0010453187860548496
1772535227988677000,2.448677001953125,-0.00010144006228074431,0.00041812448762357235,0.0006820072885602713
1772535227998692900,2.45869287109375,-0.0015749507583677769,-0.00022266735322773457,-0.0012541436590254307
1772535228008708900,2.468708984375,0.00033693245495669544,0.0005051745101809502,0.0007946263067424297
1772535228018724900,2.478724853515625,-0.00040613231249153614,-0.00039210845716297626,-0.0009936406277120113
1772535228028740900,2.488740966796875,-0.0008807076374068856,-0.00042300112545490265,-0.002117760945111513
1772535228038756900,2.4987568359375,-0.0003034131368622184,0.0007810471579432487,0.0012180092744529247
1772535228048772900,2.50877294921875,-0.000804619980044663,-0.0003689057193696499,-0.0006981352344155312
1772535228058789000,2.5187890625,0.0004327410424593836,-0.00032833265140652657,0.000523766502737999
1772535228068804900,2.528804931640625,0.0012615167070180178,0.000188054284080863,-0.0008935676887631416
1772535228078820900,2.53882080078125,-0.00007022923091426492,-0.0001091912854462862,-0.0009512091055512428
1772535228088836900,2.5488369140625,-0.0011067315936088562,-0.00011558295227587223,-0.0006739739328622818
1772535228098852900,2.558852783203125,-0.0007159420056268573,-0.0008543418953195214,-0.00028362730517983437
1772535228108868900,2.568868896484375,-0.00014549295883625746,-0.0006367617752403021,0.0004540686495602131
1772535228118883800,2.5788837890625,-0.0009365766891278327,0.00029428000561892986,-0.00016307178884744644
1772535228128899800,2.58889990234375,-0.000643096340354532,0.00131799909286201,-0.0008538961410522461
1772535228138916000,2.598916015625,0.0006311608594842255,0.0004320747684687376,0.0003109932877123356
1772535228148932000,2.60893212890625,-0.00006898416904732585,0.0008701649494469166,0.0009152647107839584
1772535228158947800,2.61894775390625,0.00019141234224662185,-0.0004941034130752087,-0.0005757096223533154
1772535228168963800,2.6289638671875,0.0007083319360390306,-0.00032818829640746117,0.0009215197060257196
1772535228178979800,2.638979736328125,-0.0009125277283601463,-0.0001648350153118372,-0.002162087243050337
1772535228188995800,2.648995849609375,-0.0011146615725010633,-0.0013422186020761728,0.0018390459008514881
1772535228199012000,2.65901220703125,-0.0002162197488360107,0.000990097876638174,-0.000416699331253767
1772535228209028000,2.669028076171875,-0.00038692832458764315,-0.00006478023715317249,0.0007502979133278131
1772535228219044000,2.679044189453125,0.0004195210640318692,-0.0011654212139546871,-0.00008471868932247162
1772535228229059800,2.689059814453125,-0.0013762485468760133,0.0007757570128887892,-0.0002594222314655781
1772535228239075800,2.699075927734375,-0.0009469766519032419,0.00015345332212746143,0.00022860243916511536
1772535228249091800,2.709091796875,-0.000051621871534734964,-0.0007893057772889733,0.00023898901417851448
1772535228259108000,2.719108154296875,0.0003396710380911827,-0.00035594822838902473,0.000521854730322957
1772535228269124000,2.7291240234375,0.00025311828358098865,0.0012046643532812595,0.000816400395706296
1772535228279140400,2.739140380859375,0.0012009699130430818,-0.00039607705548405647,-0.0016243625432252884
1772535228289156000,2.749156005859375,0.0019533128943294287,-0.0002775664906948805,-0.0008163596503436565
1772535228299172000,2.759172119140625,0.00006348994793370366,-0.00008080503903329372,-0.0005896585062146187
1772535228309188000,2.76918798828125,0.0007401991751976311,-0.0012201052159070969,-0.002054130658507347
1772535228319204000,2.7792041015625,0.0007670624181628227,-0.0005821443628519773,0.000048368703573942184
1772535228329220000,2.78922021484375,0.00002324156230315566,0.0002841819077730179,-0.0005726800300180912
1772535228339236000,2.799236083984375,-0.00041271932423114777,-0.00009015505202114582,-0.0013365261256694794
1772535228349252000,2.809252197265625,0.00016225717263296247,0.0006680469959974289,0.00024326099082827568
1772535228359268000,2.81926806640625,-0.00033147010253742337,-0.0010924972593784332,-0.0009402921423316002
1772535228369284000,2.8292841796875,-0.0011109772603958845,0.0004121887031942606,-0.00039594201371073723
1772535228379300000,2.839300048828125,0.0007621434051543474,-0.0002604380715638399,0.00017469748854637146
1772535228389316000,2.849316162109375,0.0006335126818157732,-0.0009272935567423701,0.00045725866220891476
1772535228399332000,2.85933203125,-0.0002429372980259359,-0.0002778198104351759,-0.00007128529250621796
1772535228409348400,2.869348388671875,-0.00034067523665726185,0.0004436303861439228,0.0011644214391708374
1772535228419364000,2.879364013671875,-0.00016861624317243695,0.0006330313626676798,-0.00046162959188222885
1772535228429380000,2.889380126953125,-0.00024185318034142256,-0.0017089523607864976,0.0005852589383721352
1772535228439396000,2.89939599609375,0.00036478848778642714,-0.0004410594701766968,-0.0005347998812794685
1772535228449412000,2.909412109375,-0.00013428792590275407,0.00031261518597602844,0.001680151093751192
1772535228459428000,2.919427978515625,-0.0006375805824063718,0.0008573494851589203,-0.0035455571487545967
1772535228469444000,2.929444091796875,-0.00048498151591047645,0.00022032135166227818,-0.0012709512375295162
1772535228479460400,2.93946044921875,-0.0007446565432474017,-0.0002708961255848408,-0.0005539082922041416
1772535228489476000,2.94947607421875,0.00037759949918836355,-0.0001819466706365347,-0.0009515183046460152
1772535228499492000,2.9594921875,-0.00036473997170105577,-0.0006840121932327747,-0.0018025138415396214
1772535228509508000,2.969508056640625,-0.0008164120954461396,-0.0000701535027474165,-0.00025495095178484917
1772535228519524000,2.979524169921875,-0.00029570970218628645,-0.0005789652932435274,-0.0008758925832808018
1772535228529540000,2.9895400390625,0.0001346571370959282,0.0005334371235221624,-0.0009019915014505386
1772535228539556000,2.99955615234375,-0.0009059011354111135,0.0009639142081141472,-0.00045024091377854347
1772535228549572400,3.009572265625,-0.0010483802761882544,0.0003708282019942999,0.0002552303485572338
1772535228559588000,3.019588134765625,-0.00027567241340875626,0.000202870462089777,-0.0007644006982445717
1772535228569604000,3.02960400390625,-0.00035210506757721305,-0.0009880951838567853,-0.000417124480009079
1772535228579620000,3.0396201171875,-0.00032803346402943134,-0.0009051188826560974,-0.0009094499982893467
1772535228589636000,3.049635986328125,0.000869057490490377,-0.0005911323241889477,-0.00027641700580716133
1772535228599652000,3.059652099609375,-0.0013284811284393072,0.00045446446165442467,-0.00006805034354329109
1772535228609668000,3.069668212890625,-0.0010344679467380047,-0.0014116124948486686,-0.0008728574030101299
1772535228619684000,3.07968408203125,-0.00041690259240567684,-0.00024227425456047058,-0.0014373306185007095
1772535228629700000,3.0897001953125,-0.0005979975685477257,0.0011745274532586336,0.001210916554555297
1772535228639716000,3.099716064453125,-0.0007502700900658965,0.0005811094306409359,0.00008306745439767838
1772535228649732000,3.109732177734375,0.00016852046246640384,0.0000846961047500372,-0.0000612759031355381
1772535228659748000,3.119748046875,0.0014797106850892305,0.0008638373110443354,-0.0006867195479571819
1772535228669764000,3.12976416015625,-0.000087027030531317,0.0006225549150258303,0.00009065726771950722
1772535228679780400,3.1397802734375,0.000010462943464517593,-0.0010026710806414485,-0.00046504009515047073
1772535228689796000,3.149796142578125,-0.00017436046618968248,-0.0010775058763101697,-0.0017042090184986591
1772535228699812000,3.15981201171875,-0.00019417202565819025,-0.0009915288537740707,-0.0016616233624517918
1772535228709828000,3.169828125,-0.0009864624589681625,-0.00003864988684654236,-0.00021259766072034836
1772535228719844000,3.179843994140625,0.001056854729540646,0.0002635736018419266,0.0005215902347117662
1772535228729860000,3.189860107421875,0.0011106505990028381,0.00008887029252946377,0.0006883039604872465
1772535228739876000,3.1998759765625,0.00020913543994538486,0.0010655566584318876,-0.00019941618666052818
1772535228749892400,3.209892333984375,-0.0009815639350563288,0.0005267991218715906,-0.0011957045644521713
1772535228759908000,3.219908203125,0.0005869566812179983,0.000022548483684659004,-0.0013528577983379364
1772535228769923300,3.22992333984375,-0.0006104005733504891,-0.00006693368777632713,-0.00035443855449557304
1772535228779939000,3.23993896484375,-0.0002813471364788711,0.0008481426630169153,0.0004565154667943716
1772535228789955000,3.249955078125,0.0011136166285723448,-0.000941235339269042,0.000019224360585212708
1772535228799971000,3.25997119140625,-0.00016834191046655178,0.00013039936311542988,0.0002119992859661579
1772535228809987000,3.269987060546875,0.0010428638197481632,-0.0011093022767454386,-0.00043434975668787956
1772535228820003000,3.280003173828125,0.0004131507012061775,0.0009490975644439459,-0.0010669617913663387
1772535228830019300,3.290019287109375,-0.00034212181344628334,-0.0006892792880535126,-0.000676808413118124
1772535228840035300,3.300035400390625,-0.0016301198629662395,-0.00031247083097696304,-0.0010984032414853573
1772535228850051000,3.310051025390625,0.0000801622518338263,-0.0010179422097280622,0.00010667741298675537
1772535228860067000,3.320067138671875,0.0009373209904879332,0.001489131012931466,0.0006910539232194424
1772535228870083000,3.3300830078125,-0.00009545282227918506,0.00035382574424147606,0.000790922436863184
1772535228880099000,3.34009912109375,-0.0006281881360337138,0.000872406642884016,-0.00008967891335487366
1772535228890115000,3.350114990234375,-0.0004438974428921938,-0.00006689038127660751,0.0007092694286257029
1772535228900131300,3.36013134765625,0.00046252948231995106,-0.00031636632047593594,-0.0009111166000366211
1772535228910147000,3.37014697265625,-0.001536971889436245,0.0006130768451839685,-0.0002075093798339367
1772535228920163000,3.3801630859375,0.0001761699968483299,-0.00009135180152952671,0.0007832583505660295
1772535228930179000,3.390178955078125,0.0005301040946505964,-0.00043596490286290646,-0.0011888123117387295
1772535228940195000,3.400195068359375,0.0002786925761029124,-0.0003656072076410055,-0.00015141721814870834
1772535228950211000,3.410211181640625,-0.0010206636507064104,0.0018133909907191992,-0.0001490204595029354
1772535228960227300,3.420227294921875,-0.0002327963593415916,-0.00016276189126074314,-0.00013404013589024544
1772535228970243300,3.430243408203125,-0.0005270756664685905,0.00035602180287241936,-0.0005867774598300457
1772535228980259000,3.440259033203125,-0.00010592991020530462,0.0001646825112402439,-0.0004406087100505829
1772535228990275000,3.450275146484375,0.0006967468070797622,-0.0001407819800078869,-0.0007700417190790176
1772535229000291000,3.460291015625,-0.0004982360987924039,0.00046431622467935085,-0.00032919691875576973
1772535229010307000,3.47030712890625,-0.0006353888311423361,0.0002081200946122408,-0.00005648890510201454
1772535229020323000,3.480322998046875,-0.0010139386868104339,0.0007348458748310804,-0.0006529586389660835
1772535229030339300,3.49033935546875,-0.0005028779851272702,-0.0009727730648592114,-0.00031606899574398994
1772535229040355300,3.500355224609375,0.00047984326374717057,0.0013160808011889458,0.0019223210401833057
1772535229050371000,3.51037109375,-0.00026264606276527047,-0.0002788861747831106,-0.00037252483889460564
1772535229060387000,3.520386962890625,0.0007068822742439806,0.00007842248305678368,-0.00042192917317152023
1772535229070403000,3.530403076171875,0.0005990242352709174,-0.0006017489358782768,-0.0005532228387892246
1772535229080419000,3.540419189453125,0.0012952452525496483,0.0005420099478214979,-0.0010491600260138512
1772535229090435000,3.55043505859375,-0.0006469981162808836,0.00007036421447992325,0.0018925676122307777
1772535229100451300,3.560451416015625,0.0007601615507155657,7.436610758304596e-7,-0.0016256580129265785
1772535229110467000,3.570467041015625,-0.0001985764247365296,0.0005632031243294477,0.00017543788999319077
1772535229120483000,3.580483154296875,-0.00008133734809234738,-0.0001320128794759512,-0.0008694147691130638
1772535229130499000,3.5904990234375,-0.0003026460763067007,-0.0010201771510764956,-0.0002267938107252121
1772535229140515000,3.60051513671875,-0.0016834269044920802,0.001107992371544242,0.0014671061653643847
1772535229150531000,3.610531005859375,-0.000739336246624589,0.0006949359085410833,0.000837534898892045
1772535229160547000,3.620547119140625,0.0007585607236251235,-0.0003955503925681114,0.00066564348526299
1772535229170563300,3.630563232421875,-0.0005796776968054473,-0.0007580065866932273,0.0003122419584542513
1772535229180579000,3.6405791015625,-0.00003354041837155819,-0.0000776925589889288,0.0013807949144393206
1772535229190595000,3.650594970703125,0.00012811346095986664,0.0004472164437174797,0.0002249828539788723
1772535229200611000,3.660611083984375,0.0007755242986604571,-0.0005243164487183094,0.0001310170628130436
1772535229210627000,3.670626953125,0.0009680708171799779,-0.0005317733157426119,0.0004652435891330242
1772535229220643000,3.68064306640625,0.00015474934480153024,0.00020757829770445824,0.0004803480114787817
1772535229230659300,3.690659423828125,0.000899369188118726,-0.0007453006692230701,-0.0003377753309905529
1772535229240675300,3.70067529296875,-0.0004585671704262495,-0.0011995239183306694,-0.001635721419006586
1772535229250691000,3.710691162109375,0.0006756731308996677,0.000830870121717453,-0.000567261129617691
1772535229260707000,3.72070703125,0.00044442026410251856,-0.0003175041638314724,-0.001577166374772787
1772535229270723000,3.73072314453125,-0.0003816922544501722,0.0007264551240950823,-0.00020989961922168732
1772535229280739000,3.740739013671875,-0.0005080457194708288,0.0001337546855211258,-0.0006545339711010456
1772535229290755000,3.750755126953125,-0.0002670296817086637,0.00020113284699618816,-0.0017538871616125107
1772535229300771300,3.760771240234375,-0.0007173492340371013,0.00012740585952997208,0.00048407725989818573
1772535229310787300,3.770787353515625,0.0006360691622830927,0.000049907946959137917,0.0004111065063625574
1772535229320803000,3.780802978515625,-0.0006739587988704443,0.0015841894783079624,-0.0018952284008264542
1772535229330819000,3.790819091796875,0.0000315125216729939,0.00025660358369350433,-0.0005479352548718452
1772535229340835000,3.8008349609375,-0.0003435315447859466,0.0003907596692442894,0.000014944002032279968
1772535229350851000,3.81085107421875,-0.0009688417776487768,-0.0008289680117741227,-0.0011547165922820568
1772535229360867000,3.8208671875,0.00025194347836077213,0.0007293578237295151,0.0011595806572586298
1772535229370883300,3.83088330078125,-0.0008447463042102754,0.0014524059370160103,-0.00040848879143595695
1772535229380898300,3.840898193359375,-0.0002799839130602777,0.0007125551346689463,-0.00020269351080060005
1772535229390915000,3.8509150390625,0.00009685341501608491,-0.0004347346257418394,0.0002111620269715786
1772535229400930000,3.860929931640625,0.0008472928311675787,0.00008084764704108238,0.0006025428883731365
1772535229410946000,3.870946044921875,-0.0009024040191434324,0.00023717526346445084,-0.00020466092973947525
1772535229420962000,3.880962158203125,0.0006688034627586603,0.00007712701335549355,-0.0006734523922204971
1772535229430978000,3.89097802734375,0.00007039116462692618,0.00027047237381339073,-0.0003695855848491192
1772535229440994000,3.900994140625,-0.0008738223696127534,-0.00010529696010053158,0.0015912095550447702
1772535229451010300,3.91101025390625,0.0005118203116580844,0.0011479866225272417,0.0009408656042069197
1772535229461026300,3.9210263671875,0.0019445553189143538,-0.00038490118458867073,-0.00034378934651613235
1772535229471042000,3.9310419921875,-0.0010664146393537521,-0.00011592195369303226,0.0006527653895318508
1772535229481058000,3.94105810546875,-0.00023750687250867486,-0.0009444772731512785,0.0008930163457989693
1772535229491074000,3.951073974609375,0.0006144383805803955,0.00103265349753201,-0.0009280531667172909
1772535229501090000,3.961090087890625,0.0011417230125516653,-0.0007255311356857419,0.0008327092509716749
1772535229511106000,3.97110595703125,-0.0006934613338671625,-0.00014815782196819782,-0.0007886230014264584
1772535229521122300,3.981122314453125,-0.00007336691487580538,-0.000573830446228385,-0.0016383230686187744
1772535229531138300,3.99113818359375,-0.0013325094478204846,-0.0020601407159119844,0.0010048644617199898
1772535229541154000,4.001154052734375,-0.00041523075196892023,-0.0005157163832336664,-0.000875452533364296
1772535229551170000,4.011170166015625,0.0006542947376146913,0.0004267762415111065,-0.0019367220811545849
1772535229561186000,4.02118603515625,0.0003039538278244436,0.00011426559649407864,-0.0003810776397585869
1772535229571202000,4.0312021484375,-0.001700341235846281,0.0006636758334934711,-0.001706533133983612
1772535229581218300,4.04121826171875,0.0013611636823043227,-0.00022864737547934055,0.0000739116221666336
1772535229591234300,4.051234375,0.0003797888639383018,0.000548995565623045,-0.0011769752018153667
1772535229601250000,4.06125,-0.0006430076318792999,0.00002241530455648899,-0.00041467277333140373
1772535229611266000,4.07126611328125,-0.000022224790882319212,-0.0008596236584708095,-0.0008351858705282211
1772535229621282000,4.081281982421875,-0.00044655444798991084,0.0006741383112967014,-0.0008833897300064564
1772535229631298000,4.091298095703125,0.0006647827103734016,0.0002813220489770174,0.0005637721624225378
1772535229641314000,4.10131396484375,0.000001018925104290247,-0.0004543643444776535,-0.0007633701898157597
1772535229651330300,4.111330322265625,-0.0025071462150663137,-0.0007624920690432191,0.000016137026250362396
1772535229661346300,4.12134619140625,0.00048313953448086977,0.0008417000062763691,0.0006906401831656694
1772535229671362000,4.131362060546875,-0.00015575281577184796,-0.00018281815573573112,-0.0013658525422215462
1772535229681378000,4.1413779296875,-0.0001754398108460009,-0.00031433766707777977,0.0003658123314380646
1772535229691394000,4.15139404296875,0.00020059855887666345,-0.0014051685575395823,-0.00010183872655034065
1772535229701410000,4.16141015625,0.0010674966033548117,0.00018095225095748901,-0.0005202312022447586
1772535229711426000,4.171426025390625,-0.0008691541734151542,-0.000017187092453241348,0.0009887160267680883
1772535229721442300,4.1814423828125,-0.00034365442115813494,-0.0000851810909807682,0.0006995047442615032
1772535229731458300,4.191458251953125,-0.0007085073739290237,0.00032175006344914436,-0.00010290602222084999
1772535229741474000,4.20147412109375,0.0005539074772968888,0.000858622370287776,0.00018017366528511047
1772535229751490000,4.211489990234375,-0.0002884503919631243,0.0007957718335092068,0.00019641872495412827
1772535229761506000,4.221506103515625,0.00046699136146344244,0.001981884939596057,0.0001461021602153778
1772535229771522000,4.23152197265625,-0.000006518675945699215,0.0010894595179706812,0.0007029692642390728
1772535229781538300,4.241538330078125,-0.0005300615448504686,0.000027518486604094505,-0.0009603896178305149
1772535229791554300,4.25155419921875,-0.0004765319172292948,0.000003816559910774231,-0.0010163160040974617
1772535229801570300,4.2615703125,0.0003701350069604814,0.0008229035884141922,0.00047377124428749084
1772535229811586000,4.2715859375,-0.0014125850284472108,0.0007451390847563744,-0.0007310430519282818
1772535229821602000,4.28160205078125,0.0012584342621266842,0.0007539249490946531,0.0006168459076434374
1772535229831618000,4.2916181640625,-0.00021003274014219642,-0.0007552884053438902,0.00015292316675186157
1772535229841634000,4.301634033203125,0.0012992111733183265,-0.00018107588402926922,0.00042037409730255604
1772535229851650300,4.311650390625,0.0011870920425280929,0.0014562355354428291,0.0013354362454265356
1772535229861666300,4.321666259765625,-0.0005128899356350303,0.00013104872778058052,-0.0021093101240694523
1772535229871682000,4.33168212890625,0.0006647598347626626,-0.0002830729354172945,-0.00043471483513712883
1772535229881698000,4.341697998046875,-0.0015079312724992633,0.0009542733896523714,0.0003070589154958725
1772535229891714000,4.351714111328125,0.0000771821360103786,-0.000043080421164631844,-0.0005621970631182194
1772535229901730000,4.36172998046875,0.000036968442145735025,0.001592825399711728,0.00020048581063747406
1772535229911746000,4.37174609375,0.0005568175110965967,0.0010849607642740011,0.00020021945238113403
1772535229921762300,4.38176220703125,0.0003380881389603019,0.00008071144111454487,-0.0009324187412858009
1772535229931778300,4.3917783203125,0.00020200060680508614,0.0005587488412857056,-0.0002975212410092354
1772535229941794000,4.4017939453125,-0.0006511936080642045,0.0017151408828794956,-0.0006611454300582409
1772535229951810000,4.41181005859375,-0.0001896677422337234,-0.00010406458750367165,0.0008976026438176632
1772535229961826000,4.421825927734375,-0.0004103422979824245,-0.0012390488991513848,0.0009047156199812889
1772535229971842000,4.431842041015625,0.001030694111250341,-0.00003876234404742718,-0.0011150259524583817
1772535229981858000,4.441858154296875,0.0012224441161379218,-0.0006291388999670744,-0.0009060255251824856
1772535229991874300,4.451874267578125,0.00009273114847019315,0.0002891190815716982,0.00009399140253663063
1772535230001890300,4.461890380859375,-0.00013730715727433562,-0.0008067394373938441,-0.00030677299946546555
1772535230011905300,4.4719052734375,0.0004613714700099081,0.00025985646061599255,0.0012274738401174545
1772535230021921300,4.48192138671875,-0.0006363785360008478,0.00046088965609669685,-0.000015756115317344666
1772535230031937000,4.49193701171875,0.0009237012709490955,0.0003245358821004629,-0.0003763479180634022
1772535230041953000,4.501953125,0.0007012459682300687,0.00049054273404181,-0.0016726027242839336
1772535230051969000,4.511968994140625,0.0009827420581132174,-0.0008234608685597777,-0.00017883582040667534
1772535230061985000,4.521985107421875,0.0008257978479377925,0.0016150521114468575,-0.0008541326969861984
1772535230072001300,4.532001220703125,0.0022402028553187847,0.0006323459092527628,-0.0006306935101747513
1772535230082017300,4.542017333984375,-0.001086004776880145,0.0000716005451977253,0.00018086330965161324
1772535230092033000,4.552032958984375,0.001693003810942173,0.00029663764871656895,0.00001388275995850563
1772535230102049000,4.562049072265625,0.00006475596455857158,-0.0004501689691096544,-0.0002324376255273819
1772535230112065000,4.57206494140625,-0.00006041256710886955,0.0004915248136967421,-0.0003647967241704464
1772535230122081000,4.5820810546875,0.0018748356960713863,-0.00005174800753593445,-0.001025801058858633
1772535230132097300,4.59209716796875,0.0007890649139881134,0.00045638298615813255,-0.0008159438148140907
1772535230142113300,4.60211328125,0.00019639759557321668,-0.0006334302015602589,-0.0005439105443656445
1772535230152129300,4.61212939453125,0.0014163916930556297,0.00019641080871224403,-0.001219022087752819
1772535230162145000,4.62214501953125,-0.0005177585408091545,5.592592060565948e-7,0.00045428425073623657
1772535230172161000,4.6321611328125,-0.0011129751801490784,0.0008421181701123714,0.0005493592470884323
1772535230182177000,4.642177001953125,0.000025039713364094496,-0.0010061864741146564,0.0010410149116069078
1772535230192193000,4.652193115234375,0.0014612824888899922,0.0011416529305279255,0.001237289747223258
1772535230202209300,4.662209228515625,0.00025951321003958583,-0.000020257430151104927,0.000012399163097143173
1772535230212225300,4.672225341796875,-0.0015469089848920703,0.00034725875593721867,0.0006944346241652966
1772535230222241300,4.6822412109375,0.000034076860174536705,0.0015465256292372942,0.0005406406708061695
1772535230232257000,4.692257080078125,-0.000025311601348221302,-0.000004233093932271004,0.00013504130765795708
1772535230242273000,4.70227294921875,0.0007366290083155036,-0.0006098633166402578,-0.0015632761642336845
1772535230252289000,4.7122890625,-0.0009542119223624468,0.00023462506942451,-0.001442368607968092
1772535230262304800,4.7223046875,-0.0013103570090606809,-0.0007186124566942453,0.00020519550889730453
1772535230272321000,4.732321044921875,-0.0007934374734759331,-0.0007969094440340996,-0.0007543414831161499
1772535230282337000,4.7423369140625,-0.00044676754623651505,0.0006119394674897194,-0.0009180326014757156
1772535230292353000,4.75235302734375,0.0021103997714817524,0.0006415005773305893,0.0013810743112117052
1772535230302368800,4.76236865234375,0.0009550075046718121,0.000022730790078639984,0.0010639054235070944
1772535230312384800,4.772384765625,0.0006207808037288487,0.0006624222733080387,-0.00042054057121276855
1772535230322400800,4.78240087890625,0.00003871216904371977,0.000024166656658053398,-0.00123979477211833
1772535230332416800,4.792416748046875,0.0006381897255778313,-0.0021415159571915865,-0.00042486749589443207
1772535230342433000,4.80243310546875,0.0005245121428743005,-0.001035246648825705,-0.0005227788351476192
1772535230352449000,4.812448974609375,0.000826514617074281,-0.00020673731341958046,0.0011749863624572754
1772535230362465000,4.822465087890625,-0.001189613714814186,-0.0011587890330702066,0.00015202583745121956
1772535230372480800,4.832480712890625,-0.0004987897118553519,-0.000026679132133722305,-0.000756644643843174
1772535230382496800,4.842496826171875,0.0005796389887109399,-0.00014843628741800785,0.0008313171565532684
1772535230392512800,4.8525126953125,-0.0010672598145902157,-0.0009074372937902808,0.00030827242881059647
1772535230402529000,4.862529052734375,0.00014545995509251952,0.0014207055792212486,-0.0010123751126229763
1772535230412545000,4.872544921875,-0.00003510242095217109,-0.000550832599401474,0.00043984665535390377
1772535230422561000,4.88256103515625,0.0013021861668676138,-0.00020675850100815296,0.0007211519405245781
1772535230432576800,4.89257666015625,-0.000538857071660459,0.0000036312267184257507,0.00127402413636446
1772535230442592800,4.9025927734375,0.0003058237489312887,0.0017098458483815193,-0.0012061609886586666
1772535230452608800,4.91260888671875,0.00027626269729807973,0.0011420601513236761,-0.000339302234351635
1772535230462624800,4.922624755859375,-0.0006692327442578971,0.0009960161987692118,-0.0006170221604406834
1772535230472641000,4.93264111328125,0.00008337653707712889,-0.00046579306945204735,0.0008296070154756308
1772535230482657000,4.942656982421875,0.0009566961089149117,-0.000686087179929018,0.0008846370037645102
1772535230492673000,4.952673095703125,-0.0005988562479615211,-0.00034227315336465836,-0.0006818342953920364
1772535230502688800,4.962688720703125,-0.0006608817493543029,-0.0003818690311163664,0.00034691859036684036
1772535230512704800,4.972704833984375,0.0006003913003951311,-0.00004710955545306206,-0.0004999670200049877
1772535230522720800,4.982720703125,0.00068238953826949,0.0005769580602645874,0.00048566795885562897
1772535230532736800,4.99273681640625,0.0006054241675883532,0.0006720328237861395,-0.0007031671702861786
1772535230542753000,5.0027529296875,0.0006585941882804036,-0.00023408816196024418,0.0009496656712144613
1772535230552769000,5.01276904296875,-0.0004282417939975858,0.0008495519869029522,-0.0004309169016778469
1772535230562785000,5.022784912109375,-0.001054744585417211,0.00011556223034858704,-0.0011656777933239937
1772535230572800800,5.03280078125,0.0010307768825441599,0.0008591166697442532,0.0003419378772377968
1772535230582816000,5.04281591796875,0.0001831392291933298,-0.0004295774269849062,-0.0002946113236248493
1772535230592831700,5.052831787109375,-0.0009921137243509293,0.0006476712878793478,-0.0007236464880406857
1772535230602847700,5.06284765625,0.00004147482104599476,0.0003139772452414036,-0.00021603750064969063
1772535230612863700,5.07286376953125,0.0011317729949951172,-0.0010221307165920734,-0.0002780891954898834
1772535230622880000,5.0828798828125,0.0003901622840203345,-0.00015655229799449444,-0.0004814891144633293
1772535230632896000,5.09289599609375,-0.00005804776446893811,-0.00021860376000404358,0.0008016219362616539
1772535230642912000,5.102912109375,0.001245581777766347,0.0011832993477582932,0.0003218073397874832
1772535230652928000,5.112927978515625,0.00041334403795190156,-0.0013570900773629546,0.0004009031690657139
1772535230662943700,5.12294384765625,-0.00011213048128411174,0.0005576610565185547,-0.00006097275763750076
1772535230672959700,5.132959716796875,-0.0001613989588804543,0.0007589960005134344,-0.0004250267520546913
1772535230682975700,5.142975830078125,0.0019804411567747593,-0.00033916509710252285,0.0014588935300707817
1772535230692992000,5.152991943359375,0.00029359490144997835,0.0016366341151297092,-0.0004473971202969551
1772535230703008000,5.163008056640625,-0.000864679052028805,0.00017632031813263893,-0.00043822498992085457
1772535230713024000,5.17302392578125,0.00009033048991113901,0.00037019839510321617,0.0015138720627874136
1772535230723039700,5.183039794921875,0.0002523711009416729,0.0010559181682765484,-0.00193686131387949
1772535230733055700,5.1930556640625,-0.0009327355655841529,0.000078537967056036,0.0001912708394229412
1772535230743071700,5.20307177734375,-0.00043539342004805803,-0.00026276404969394207,-0.0008215750567615032
1772535230753088000,5.213087890625,0.0005252087721601129,-0.00031549460254609585,-0.0020322478376328945
1772535230763104000,5.22310400390625,-0.0005898906383663416,-0.000013085315003991127,0.00016301777213811874
1772535230773120000,5.2331201171875,-0.0004886905662715435,0.00011874106712639332,-0.0007224832661449909
1772535230783136000,5.243135986328125,-0.0010260886047035456,0.0002572413068264723,-0.000150222796946764
1772535230793151700,5.25315185546875,-0.0009371389751322567,0.0006274208426475525,0.00005057966336607933
1772535230803167700,5.263167724609375,-0.0008645664784125984,0.0008773040026426315,-0.0007111183367669582
1772535230813183700,5.273183837890625,0.000036380894016474485,-0.0003866320475935936,0.0000111311674118042
1772535230823200000,5.283199951171875,-0.00009421410504728556,-0.00008439342491328716,-0.00026088161394000053
1772535230833216000,5.293216064453125,0.0012363011483103037,0.00020349444821476936,-0.0007860567420721054
1772535230843232000,5.30323193359375,0.0007335219997912645,-0.00018735905177891254,0.0006493409164249897
1772535230853248000,5.313248046875,0.0008541631978005171,-0.0011655382113531232,-0.00032857153564691544
1772535230872654000,5.332654052734375,-0.00027428462635725737,-0.0012219649506732821,-0.00022753234952688217
1772535230882669800,5.342669921875,0.0010075266472995281,0.000057792989537119865,0.000731341540813446
1772535230892685800,5.352685791015625,-0.00021939160069450736,0.0011406342964619398,0.0003214809112250805
1772535230902701800,5.362701904296875,-0.0005976292304694653,0.0003378964029252529,-0.0009936671704053879
1772535230912717800,5.3727177734375,0.0017637957353144884,-0.00014014099724590778,0.0006500356830656528
1772535230922733800,5.38273388671875,-0.0006294088088907301,-0.0011668875813484192,0.0007747365161776543
1772535230932750000,5.39275,0.0003583576763048768,-0.00014796224422752857,0.0008128196932375431
1772535230942765800,5.402765869140625,-0.00008249335223808885,-0.000028431182727217674,0.00016869930550456047
1772535230952781800,5.41278173828125,-0.00012004392920061946,0.0009609332773834467,-0.0008915052749216557
1772535230962797800,5.4227978515625,-0.0005461444379761815,-0.000041153980419039726,-0.000810978002846241
1772535230972813800,5.432813720703125,-0.00032270525116473436,0.00016284408047795296,-0.00038380688056349754
1772535230982829800,5.442829833984375,0.0005580553552135825,-0.0007428252138197422,-0.0010907864198088646
1772535230992845800,5.452845703125,-0.0005772502045147121,0.00024014757946133614,-0.001198377925902605
1772535231002862000,5.462862060546875,0.0005030832253396511,-0.0013866611989215016,0.0014142799191176891
1772535231012877800,5.4728779296875,-0.0009009353234432638,-0.00017545558512210846,0.0011474313214421272
1772535231022893800,5.482893798828125,-0.0009516127756796777,0.0008066075388342142,0.000678246608003974
1772535231032909800,5.492909912109375,-0.0005438828957267106,-0.00005545769818127155,0.00001591816544532776
1772535231042925800,5.50292578125,-0.0009544630302116275,-0.00031667063012719154,0.0004146764986217022
1772535231052941800,5.51294189453125,0.0005978936096653342,-0.0008130838396027684,0.0004200027324259281
1772535231062957800,5.522957763671875,-0.0003618720220401883,-0.0008474034257233143,-0.00030614063143730164
1772535231072974000,5.53297412109375,0.00002801476512104273,0.0005443645641207695,-0.0002038753591477871
1772535231082989800,5.54298974609375,0.00024091152590699494,-0.000168216647580266,-0.00023033609613776207
1772535231093005800,5.553005859375,-0.0002536374959163368,0.0004451093263924122,-0.0008386019617319107
1772535231103020800,5.563020751953125,0.00020032268366776407,0.00034229340963065624,-0.0005383240059018135
1772535231113036800,5.573036865234375,-0.0005469602765515447,-0.0006444077007472515,0.0010835409630089998
1772535231123052800,5.583052734375,-0.00019147945567965508,0.0006158738397061825,0.00043365219607949257
1772535231133068800,5.59306884765625,-0.0005350271821953356,0.00004222895950078964,-0.0006923326291143894
1772535231143084800,5.603084716796875,-0.0008776311296969652,0.00039997114799916744,-0.000564823392778635
1772535231153101000,5.61310107421875,-0.00016390398377552629,-0.00012333993799984455,0.0009830058552324772
1772535231163117000,5.623116943359375,0.0006119581521488726,0.0002810761798173189,0.0014909887686371803
1772535231173132800,5.6331328125,-0.0010551806772127748,0.00030531082302331924,0.000004944857209920883
1772535231183148800,5.643148681640625,-0.00010399852180853486,0.00003451202064752579,0.0005649349186569452
1772535231193164800,5.653164794921875,-0.0012888386845588684,0.00008378061465919018,0.001313815824687481
1772535231203180800,5.663180908203125,0.0008948766044341028,0.00022439355961978436,-0.00010842643678188324
1772535231213822700,5.67382275390625,-0.0007126074051484466,-0.000010497402399778366,-0.00033586006611585617
1772535231223838700,5.683838623046875,-0.00010141194798052311,0.001428675139322877,-0.00017766840755939484
1772535231233854700,5.693854736328125,-0.0008016788633540273,0.0010790335945785046,0.00012243445962667465
1772535231243871000,5.70387109375,0.0005994102102704346,0.0013101960066705942,-0.0009199269115924835
1772535231253887000,5.713886962890625,0.00046574068255722523,-0.000006149522960186005,-0.0005323723889887333
1772535231263902700,5.72390283203125,0.0004915733588859439,0.0011254274286329746,-0.0012434362433850765
1772535231273918700,5.733918701171875,-0.00019889487884938717,0.001553225563839078,-0.00033350149169564247
1772535231283934700,5.743934814453125,-0.0004902447108179331,-0.0007536046905443072,0.00011577410623431206
1772535231293950500,5.753950439453125,0.0009123196359723806,-0.00007927208207547665,-0.001251786481589079
1772535231303966700,5.763966796875,0.0005972677026875317,-0.0010422711493447423,0.0003306642174720764
1772535231313982700,5.773982666015625,-0.00079001160338521,-0.000721141928806901,0.00014197686687111855
1772535231323998700,5.783998779296875,0.0006507586222141981,-0.0008612241363152862,-0.0010236883535981178
1772535231334014700,5.7940146484375,-0.00029747013468295336,-0.0009476213017478585,-0.0001936708576977253
1772535231344030700,5.80403076171875,-0.00015925202751532197,-0.0007002137135714293,-0.0006671808660030365
1772535231354046500,5.81404638671875,-0.0003928506630472839,0.00041734473779797554,0.0008413637988269329
1772535231364062700,5.824062744140625,0.00033259435440413654,-0.00032541085965931416,-0.0014188610948622227
1772535231374078700,5.83407861328125,-0.00034417788265272975,-0.00040153833106160164,-0.0002137678675353527
1772535231384094700,5.8440947265625,0.0003535703581292182,0.0002991391811519861,-0.0002728900872170925
1772535231394110700,5.85411083984375,-0.0011512702330946922,-0.0004314277321100235,0.0012928340584039688
1772535231404126700,5.864126708984375,0.0004407675005495548,0.0016258640680462122,-0.0012238533236086369
1772535231414142700,5.874142822265625,0.0009669543942436576,-0.0006639058701694012,-0.00015032384544610977
1772535231424158500,5.884158447265625,-0.0008184288162738085,0.0000378370750695467,-0.0004936056211590767
1772535231434174700,5.8941748046875,-0.0002515405067242682,0.00009866990149021149,0.0004743519239127636
1772535231444190700,5.904190673828125,0.0006600595661439002,-0.001467801397666335,0.0012029928620904684
1772535231454206700,5.914206787109375,0.001118724700063467,0.0005770493298768997,-0.0008787238039076328
1772535231464222700,5.92422265625,-0.001112737925723195,0.000905150780454278,0.00026270700618624687
1772535231474238700,5.93423876953125,-0.00024598429445177317,0.0014929273165762424,-0.0011967387981712818
1772535231484254700,5.944254638671875,-0.0004126981948502362,-0.0007734228856861591,-0.0014585275202989578
1772535231494270500,5.9542705078125,-0.0011269805254414678,0.00007217680104076862,0.00046460586600005627
1772535231504286700,5.96428662109375,0.0009015492396429181,-0.00029374146834015846,-0.0018707201816141605
1772535231514302700,5.974302734375,-0.000020227569621056318,0.00022594677284359932,0.0007083991076797247
1772535231524318700,5.984318603515625,-0.0003347468446008861,-0.0013466498348861933,0.000994156114757061
1772535231534334700,5.994334716796875,0.00047891424037516117,0.00021001510322093964,-0.0006485986523330212
1772535231544350700,6.004350830078125,0.0009798548417165875,0.00020335731096565723,-0.0008299602195620537
1772535231554366500,6.014366455078125,-0.0007043299847282469,0.0011318810284137726,0.0005527900066226721
1772535231564382700,6.0243828125,0.0006235220935195684,-0.000016740523278713226,-0.0012379195541143417
1772535231574398700,6.034398681640625,-0.00004213256761431694,-0.0009361368138343096,-0.0016737999394536018
1772535231584414700,6.044414794921875,0.0009951686952263117,-0.0005451848264783621,-0.0004647248424589634
1772535231594430700,6.0544306640625,0.0009731844183988869,0.0010285589378327131,0.0000608605332672596
1772535231604446700,6.06444677734375,-0.00009234633762389421,0.002248020377010107,0.001049692276865244
1772535231614461700,6.074461669921875,0.0012000069255009294,-0.00020335777662694454,0.002417175564914942
1772535231624477700,6.084477783203125,0.0006796251982450485,-0.00002812175080180168,-0.0004973881877958775
1772535231634494700,6.09449462890625,0.00029154637013562024,-0.00023860204964876175,0.0009307719301432371
1772535231644509700,6.104509765625,-0.0005015429924242198,0.00006846035830676556,-0.0008740522898733616
1772535231654525700,6.114525634765625,0.0000728379818610847,0.0003927836660295725,0.002154436195269227
1772535231664541700,6.124541748046875,-0.0012190614361315966,-0.000558497617021203,-0.0009457496926188469
1772535231674557700,6.1345576171875,0.0015806459123268723,0.000008499948307871819,-0.00009784800931811333
1772535231684573700,6.14457373046875,0.0004970056470483541,-0.0010218770476058125,-0.0001383279450237751
1772535231694589700,6.154589599609375,0.0016834144480526447,0.0011461449321359396,-0.0005759219639003277
1772535231704605700,6.164605712890625,-0.0008519148686900735,0.0006662432570010424,-0.00031386688351631165
1772535231714621700,6.17462158203125,-0.0007249823538586497,0.0004697255790233612,-0.0005647945217788219
1772535231724637700,6.1846376953125,-0.001347629353404045,0.0009144735522568226,0.0005263024941086769
1772535231734653700,6.19465380859375,0.000007784634362906218,-0.0008893219055607915,-0.00002429727464914322
1772535231744669700,6.204669677734375,-0.00009448075434193015,-0.0010917221661657095,0.001501693855971098
1772535231754685700,6.214685791015625,0.0015976259019225836,0.0006552780978381634,0.0008964575827121735
1772535231764701700,6.22470166015625,0.0007587301661260426,-0.000901339459232986,0.0005294738803058863
1772535231774717700,6.2347177734375,-0.0006127507076598704,0.0007228357717394829,0.0008404732216149569
1772535231784733700,6.244733642578125,5.752081051468849e-7,-0.0005147350020706654,-0.0012897895649075508
1772535231794749700,6.254749755859375,0.0009632129804231226,0.00022152764722704887,-0.00006499746814370155
1772535231804765700,6.264765625,-0.0005545224994421005,0.00039862794801592827,-0.00033770548179745674
1772535231814781700,6.27478173828125,0.00010189850581809878,0.00032963347621262074,0.00048785191029310226
1772535231824797700,6.284797607421875,-0.0003162178327329457,0.00001431535929441452,0.0002742665819823742
1772535231834813700,6.294813720703125,-0.0002830326557159424,0.0002144386526197195,-0.0005500726401805878
1772535231844829400,6.304829345703125,-0.000927251297980547,-0.0005211264360696077,0.0009415638633072376
1772535231854845700,6.314845703125,-0.001445086905732751,0.00023044203408062458,0.0007029352709650993
1772535231864861700,6.32486181640625,-0.000612582836765796,-0.0008561277063563466,-0.0003154575824737549
1772535231874877700,6.334877685546875,0.0008600542205385864,-0.00016153906472027302,-0.00018299883231520653
1772535231884893700,6.344893798828125,0.0011396860936656594,-0.0006891111843287945,0.0009970481041818857
1772535231894909700,6.35490966796875,0.00030171475373208523,0.0002669552341103554,-0.00032620830461382866
1772535231904925700,6.36492578125,-0.00022292800713330507,0.00030157645232975483,-0.000023140572011470795
1772535231914941700,6.374941650390625,0.0009100858587771654,-0.0009525349596515298,0.0011419898364692926
1772535231924957700,6.384957763671875,0.0001984891714528203,-0.0007551948074251413,0.0002266610972583294
1772535231934973700,6.3949736328125,0.000609594164416194,0.000245098490267992,-0.0009015263058245182
1772535231944989700,6.40498974609375,0.00015765568241477013,-0.0010838188463822007,0.001190120354294777
1772535231955005700,6.415005615234375,0.0006465876940637827,-0.000253492034971714,-0.0017140936106443405
1772535231965021700,6.425021728515625,0.0006468539941124618,-0.0012881300644949079,-0.0005417703650891781
1772535231975037700,6.43503759765625,0.0006052288226783276,0.0012192358262836933,0.0007686743047088385
1772535231985053700,6.4450537109375,0.0006923142354935408,-0.0003227344714105129,0.0004895748570561409
1772535231995069700,6.455069580078125,0.0012157633900642395,-0.00033846800215542316,0.0001029670238494873
1772535232005085700,6.465085693359375,0.0003435782273299992,-0.0011371499858796597,0.00019990606233477592
1772535232015101700,6.475101806640625,-0.0012920165900141,0.0008341919165104628,-0.0005690623074769974
1772535232025117700,6.48511767578125,0.00004941778024658561,0.0008222076576203108,0.00009486358612775803
1772535232035133700,6.4951337890625,0.0007399085443466902,0.0007166755385696888,0.0008017823565751314
1772535232045149400,6.5051494140625,0.0011465732241049409,0.00033957185223698616,0.00022547412663698196
1772535232055165700,6.515165771484375,0.00008060876280069351,0.0010880839545279741,0.0008283101487904787
1772535232065181700,6.525181640625,0.000026812893338501453,0.0006039212457835674,-0.000018308870494365692
1772535232075197700,6.53519775390625,-0.0010785876074805856,-0.00013852748088538647,0.00023592961952090263
1772535232085213700,6.545213623046875,0.0001249146880581975,0.00004331325180828571,-0.00018764333799481392
1772535232095229700,6.555229736328125,0.00009988097008317709,0.0008553110528737307,0.0010616453364491463
1772535232105245700,6.56524560546875,0.0002556758699938655,0.00042707473039627075,-0.0009873905219137669
1772535232115261700,6.57526171875,0.0009162692003883421,0.0002178354188799858,-0.0008255206048488617
1772535232125277700,6.585277587890625,-0.0003311554901301861,0.0007917466573417187,-0.001780263613909483
1772535232135293700,6.595293701171875,0.00031875958666205406,0.00008222181349992752,0.0007003115024417639
1772535232145308700,6.60530859375,0.0008916055667214096,0.0007722468581050634,0.000042510684579610825
1772535232155324700,6.61532470703125,0.0004923354717902839,-0.001246729283593595,0.00022452464327216148
1772535232165340700,6.625340576171875,-0.0008661429747007787,-0.0011500564869493246,0.00041653867810964584
1772535232175356700,6.635356689453125,-0.0004198246751911938,0.0007207968737930059,-0.00017801253125071526
1772535232185372700,6.64537255859375,0.0009224085370078683,0.000038495054468512535,-0.00021023675799369812
1772535232195388700,6.655388671875,-0.00009600759949535131,0.0005548829212784767,-0.0009402553550899029
1772535232205404700,6.66540478515625,-0.00024035089882090688,-0.000452857231721282,0.00030930014327168465
1772535232215420700,6.675420654296875,-0.000179081573151052,-0.0000416517723351717,0.00015765009447932243
1772535232225436700,6.685436767578125,-0.00015218358021229506,-0.0002898585516959429,-0.0009307838045060635
1772535232235452700,6.69545263671875,-0.002128918655216694,0.0010980123188346624,-0.0005106222815811634
1772535232245468700,6.70546875,0.0006594110745936632,0.00021410919725894928,-0.00047147413715720177
1772535232255484700,6.715484619140625,0.001936726737767458,0.00028990721330046654,0.00008314428851008415
1772535232265501400,6.72550146484375,0.0011606815969571471,-0.0007236918900161982,0.000808589393272996
1772535232275517400,6.735517333984375,-0.00029662117594853044,-0.00030482071451842785,0.00009659258648753166
1772535232285533400,6.745533447265625,0.0008072590571828187,-0.0008078919490799308,0.0006065878551453352
1772535232295549400,6.755549560546875,0.00014441163511946797,0.0004853256978094578,0.00031708041206002235
1772535232305565400,6.7655654296875,-0.0006606618990190327,0.0004975763149559498,0.00018392270430922508
1772535232315581400,6.77558154296875,0.0007054313318803906,-0.00030251266434788704,-0.00033513084053993225
1772535232325597400,6.785597412109375,-0.0009723601397126913,-0.001542746787890792,-0.00004378100857138634
1772535232335613400,6.795613525390625,-0.0009418943664059043,-0.0007605610881000757,-0.00019206572324037552
1772535232345629400,6.80562939453125,0.0014434990007430315,-0.0008931864285841584,0.0004276519175618887
1772535232355645400,6.8156455078125,-0.0016808629734441638,-0.0010431580012664199,-0.0005177082493901253
1772535232365661400,6.825661376953125,-0.0005021478282287717,0.0010375697165727615,0.0005685950163751841
1772535232375677400,6.835677490234375,-0.00013536959886550903,0.0003665939439088106,-0.00033017154783010483
1772535232385693200,6.845693115234375,-0.00006373052019625902,0.00020893476903438568,-0.00024148821830749512
1772535232395709400,6.85570947265625,0.0009549679234623909,-0.0003028332721441984,0.0001609092578291893
1772535232405725400,6.865725341796875,0.000547770585399121,0.00012646825052797794,-0.0013970397412776947
1772535232415741400,6.875741455078125,-0.0005285601364448667,-0.0009320081444457173,-0.000302943866699934
1772535232425757400,6.88575732421875,-0.0009778353851288557,-0.000589525792747736,0.0001135747879743576
1772535232435773400,6.8957734375,0.00028818732243962586,0.00005798111669719219,0.0004882700741291046
1772535232445789400,6.90578955078125,-0.0006614958983846009,-0.00046586268581449986,0.000650456640869379
1772535232455805400,6.915805419921875,-0.0002371785813011229,-0.000392634654417634,0.00043172831647098064
1772535232465821400,6.925821533203125,0.0008406026754528284,0.001341349445283413,-0.0004356633871793747
1772535232475837400,6.93583740234375,0.0001012053107842803,-0.0007194937206804752,-0.00020491983741521835
1772535232485853400,6.945853515625,-0.0003659131471067667,-0.0000648887362331152,0.0008768560364842415
1772535232495869400,6.955869384765625,0.00007284723687916994,0.00021534296683967113,-0.00038129277527332306
1772535232505885400,6.965885498046875,0.0011815212201327085,0.00025795353576540947,0.0005489492323249578
1772535232515901400,6.9759013671875,-0.0005653813132084906,0.00034432578831911087,0.0005752691067755222
1772535232525917400,6.98591748046875,-0.00010864925570785999,-0.0005795247852802277,-0.0003443202003836632
1772535232535933400,6.995933349609375,-0.000037103251088410616,0.000057584140449762344,0.0016773284878581762
1772535232545949400,7.005949462890625,0.000065961095970124,-0.00013096770271658897,0.0003590635024011135
1772535232555965400,7.01596533203125,0.0023885294795036316,-0.00040157465264201164,-0.0006844066083431244
1772535232565981400,7.0259814453125,-0.00030898634577170014,0.0004522348754107952,0.00016301125288009644
1772535232575997400,7.03599755859375,0.0009817320387810469,0.00023133191280066967,0.001278892159461975
1772535232586013400,7.046013427734375,-0.00039778539212420583,-0.00040463078767061234,0.0005001837853342295
1772535232596029400,7.056029541015625,0.00032809688127599657,0.0009807220194488764,0.0006162056233733892
1772535232606045400,7.06604541015625,-0.002010424854233861,-0.00012395717203617096,-0.0005071158520877361
1772535232616061400,7.0760615234375,-0.00038554472848773,-0.00004909047856926918,-0.0009750975295901299
1772535232626076400,7.086076416015625,-0.0003495920682325959,0.00008273590356111526,-0.0002211565151810646
1772535232636092400,7.096092529296875,0.0011894050985574722,0.0012425209861248732,0.0009845723398029804
1772535232646108400,7.1061083984375,-0.0008164896280504763,-0.0015495889820158482,0.0006347831804305315
1772535232656124400,7.11612451171875,-0.000026596069801598787,-0.001102976966649294,0.0004702000878751278
1772535232666140400,7.126140380859375,-0.0007533727330155671,-0.00006514298729598522,-0.000398256815969944
1772535232676156400,7.136156494140625,-0.00001225154846906662,-0.00019943295046687126,-0.0009167171083390713
1772535232686172400,7.14617236328125,-0.0005981469294056296,-0.00001620757393538952,-0.000168635044246912
1772535232696188400,7.1561884765625,0.00007191364420577884,0.00010901712812483311,0.00015547731891274452
1772535232706204400,7.166204345703125,-0.0005299607291817665,0.000266409944742918,0.00024416064843535423
1772535232716220400,7.176220458984375,-0.0008883259142749012,-0.000753791187889874,0.0010228462051600218
1772535232726236400,7.186236328125,-0.00024064508033916354,-0.001223839120939374,-0.00009940983727574348
1772535232736252400,7.19625244140625,0.0001542290556244552,-0.00026520853862166405,0.0007382838521152735
1772535232746268400,7.206268310546875,0.001272490480914712,-0.00037359935231506824,-0.0005584093742072582
1772535232756284400,7.216284423828125,-0.0007179855019785464,-0.0015467474004253745,0.0006845761090517044
1772535232766300400,7.226300537109375,0.0004338316502980888,-0.0010351540986448526,0.000285102054476738
1772535232776316400,7.23631640625,0.00006132508860900998,-0.0005759729538112879,0.0008469161111861467
1772535232786332400,7.24633251953125,-0.00033149117371067405,-0.0004446792881935835,-0.00027773668989539146
1772535232796348400,7.256348388671875,0.001507758628576994,0.0007104713004082441,-0.0005779401399195194
1772535232806364400,7.266364501953125,0.0007871072157286108,-0.0016006198711693287,-0.00005036778748035431
1772535232816380400,7.27638037109375,-0.00042857014341279864,0.0006326343864202499,0.0011675385758280754
1772535232826396400,7.286396484375,-0.0005417544743977487,-0.0004488751292228699,0.0006341072730720043
1772535232836412400,7.296412353515625,0.00026460844674147666,-0.0012151949340477586,-0.0010472889989614487
1772535232846428400,7.306428466796875,0.00035089487209916115,0.0008567443583160639,0.0007431539706885815
1772535232856444400,7.3164443359375,-0.0003558926982805133,-0.0007867548847571015,0.0003502769395709038
1772535232866460400,7.32646044921875,-0.0003937096334993839,-0.0006669126451015472,0.00015559978783130646
1772535232876476400,7.336476318359375,-0.001383644761517644,0.0008163284510374069,-0.0000021406449377536774
1772535232886492400,7.346492431640625,0.0004422184429131448,-0.00032004225067794323,-0.00023303646594285965
1772535232896508400,7.35650830078125,0.0015016444958746433,0.0010823525954037905,0.0010753232054412365
1772535232906524400,7.3665244140625,0.0022068493999540806,-0.0004308554343879223,-0.0009457496926188469
1772535232916540400,7.37654052734375,-0.0003189952694810927,-0.0019636673387140036,-0.00007003825157880783
1772535232926556400,7.386556396484375,-0.00009928445797413588,-0.000777761684730649,-0.0006197146140038967
1772535232936572400,7.396572509765625,-0.0008230315870605409,0.00040689134038984776,-0.0017779693007469177
1772535232946588400,7.40658837890625,0.0006057543214410543,-0.00023386511020362377,-0.00021229730919003487
1772535232956604400,7.4166044921875,-0.002150027547031641,-0.00011172867380082607,-0.00023434916511178017
1772535232966620400,7.426620361328125,0.000716066628228873,0.0002914739307016134,0.0006828433834016323
1772535232976636400,7.436636474609375,-0.0005697543965652585,0.0015324363484978676,0.0001820712350308895
1772535232986652400,7.44665234375,-0.00156790716573596,0.0002671685069799423,0.0016856919974088669
1772535232996668400,7.45666845703125,-0.0006811087368987501,-0.0012946220813319087,0.00004890887066721916
1772535233006684400,7.466684326171875,0.0011447544675320387,-0.00046850950457155704,0.0006707571446895599
1772535233016700400,7.476700439453125,-0.0005281003541313112,-0.000867264810949564,-0.00024044094607234
1772535233026716400,7.48671630859375,-0.0007739101420156658,-0.0009588776156306267,-0.00014856178313493729
1772535233036732400,7.496732421875,-0.0004565396811813116,-0.000956463860347867,-0.0004862640053033829
1772535233046748400,7.50674853515625,-0.00023789412807673216,0.0008712636772543192,-0.0007970547303557396
1772535233056764400,7.516764404296875,0.00035985378781333566,-0.00007188762538135052,-0.00024686427786946297
1772535233066779400,7.526779296875,0.0010754452086985111,0.0007787260692566633,-0.0009102579206228256
1772535233076795400,7.53679541015625,-0.0012133665150031447,-0.0008268392411991954,0.00042271148413419724
1772535233086811600,7.546811767578125,0.00010297866538167,0.000162970507517457,0.00009192107245326042
1772535233096827400,7.556827392578125,-0.0001787837827578187,0.00013101263903081417,-0.0012116963043808937
1772535233106843400,7.566843505859375,-0.00024669442791491747,-0.0008074853103607893,-0.0017025168053805828
1772535233116859400,7.576859375,-0.0005596537375822663,-0.00012168544344604015,0.00034473417326807976
1772535233126875400,7.58687548828125,0.00270271860063076,-0.00036989222280681133,0.0017721883486956358
1772535233136891400,7.596891357421875,-0.000007966998964548111,-0.0005111228674650192,-0.0010251067578792572
1772535233146907400,7.606907470703125,-0.0005253939889371395,-0.0002702220808714628,0.0011951655615121126
1772535233156923600,7.616923583984375,-0.0015730815939605236,-0.00004784809425473213,0.000011923257261514664
1772535233166939400,7.626939453125,0.000043989799451082945,-0.0009693017927929759,0.0004124627448618412
1772535233176955400,7.636955322265625,-0.0002084230654872954,0.0007428801618516445,-0.000949162058532238
1772535233186971400,7.646971435546875,0.0005894600180909038,-0.0013455707812681794,-0.0013824580237269402
1772535233196987400,7.6569873046875,-0.0005753244622610509,-0.00016400357708334923,0.00041702110320329666
1772535233207003400,7.66700341796875,0.0004193662025500089,-0.00025721429847180843,-0.001871167216449976
1772535233217019400,7.677019287109375,0.0001238544937223196,-0.00008156988769769669,0.0011428410653024912
1772535233227035600,7.68703564453125,-0.00028360914438962936,-0.0001265774480998516,0.00042485306039452553
1772535233237051400,7.697051513671875,0.0001841742778196931,-0.00006107287481427193,-0.0011243931949138641
1772535233247067400,7.7070673828125,0.00022758380509912968,-0.0019766846671700478,-0.0012937705032527447
1772535233257083400,7.71708349609375,0.0001909397542476654,-0.0008323738584294915,0.000377485528588295
1772535233267099000,7.727098876953125,-0.0009310499881394207,0.00006431248039007187,-0.0008321222849190235
1772535233277115100,7.737115234375,0.00010075897444039583,-0.0017263832269236445,-0.001399052795022726
1772535233287131100,7.747131103515625,0.00036893930518999696,0.0001442211214452982,0.00031975097954273224
1772535233297147100,7.757147216796875,-0.0008577887783758342,0.0007267484907060862,-0.0001797778531908989
1772535233307163000,7.767162841796875,0.0005009560263715684,-0.0002738011535257101,-0.00023011164739727974
1772535233317179000,7.777178955078125,-0.00012488348875194788,0.00019040401093661785,0.00005612894892692566
1772535233327195000,7.78719482421875,0.0006759290699847043,-0.00044662412256002426,-0.0014970265328884125
1772535233337211000,7.7972109375,0.0009608083055354655,-0.0005984865128993988,-0.0014254292473196983
1772535233347227100,7.80722705078125,0.00041033289744518697,-0.0003156587481498718,-0.0001758737489581108
1772535233357243100,7.8172431640625,0.00037068649544380605,-0.0001780819147825241,0.0007653292268514633
1772535233367259100,7.827259033203125,-0.00032146903686225414,-0.0002886031288653612,-0.001538837794214487
1772535233377275000,7.83727490234375,0.0008224982884712517,-0.0004343935288488865,-0.00026360945776104927
1772535233387291000,7.847290771484375,-0.0008776637841947377,-0.0012165638618171215,-0.0012836004607379436
1772535233397307000,7.857306884765625,0.001177359139546752,-0.0011201396118849516,-0.0012330892495810986
1772535233407323100,7.8673232421875,-0.00022319721756502986,-0.0014884547563269734,0.000018596649169921875
1772535233417339100,7.877339111328125,-0.0003804740263149142,0.00029967655427753925,-0.0011439896188676357
1772535233427355100,7.887355224609375,0.0006696103955619037,-0.0010556060587987304,0.000542324036359787
1772535233437371100,7.89737109375,-0.00003139820182695985,0.00036307075060904026,-0.001041713636368513
1772535233447387000,7.907386962890625,-0.000829014927148819,0.00018197577446699142,-0.0019844728522002697
1772535233457403000,7.91740283203125,0.0007791078533045948,0.0010308322962373495,0.0008213217370212078
1772535233467419000,7.9274189453125,-0.00013994902838021517,-0.00010447343811392784,-0.0008647255599498749
1772535233477435100,7.93743505859375,-0.00034769298508763313,-0.0007044975645840168,0.001795037416741252
1772535233487451100,7.947451171875,0.00038973629125393927,0.0003221509978175163,-0.00036292197182774544
1772535233497466000,7.957466064453125,-0.00036627805093303323,0.0009346511214971542,-0.00024121301248669624
1772535233507482000,7.967482177734375,0.0023229820653796196,0.00042731873691082,-0.0008127270266413689
1772535233517498000,7.977498046875,-0.0008657878497615457,0.00012510432861745358,-0.0006852135993540287
1772535233527513900,7.987513916015625,0.00206022709608078,-0.0005361584480851889,0.0007797912694513798
1772535233537529900,7.99752978515625,0.000475723238196224,-0.00031141401268541813,0.00019292160868644714
1772535233547545900,8.0075458984375,0.00016999233048409224,-0.000636053504422307,-0.0012515769340097904
1772535233557562000,8.01756201171875,0.0011941847624257207,0.000788454432040453,-0.001035299152135849
1772535233567578000,8.027578125,0.0011467804433777928,0.0002707359381020069,-0.00043821847066283226
1772535233577594000,8.037593994140625,-0.0016562871169298887,-0.000753667438402772,-0.00005320599302649498
1772535233587610000,8.047610107421875,-0.0003808992332778871,-0.0009046687046065927,-0.0016503040678799152
1772535233597625900,8.0576259765625,-0.00036986725172027946,0.00030878488905727863,-0.00031636981293559074
1772535233607641900,8.067641845703125,0.0007302845478989184,-0.0007964270189404488,0.0014096249360591173
1772535233617657900,8.077657958984375,-0.00011323968647047877,-0.0000823168084025383,-0.0005014254711568356
1772535233627674000,8.087674072265624,0.0004249851917847991,0.00036429520696401596,-0.00008757039904594421
1772535233637690000,8.097690185546876,0.00040601013461127877,0.00021910923533141613,0.00016102660447359085
1772535233647706000,8.1077060546875,-0.0004355298588052392,0.00006486894562840462,-0.000657516997307539
1772535233657722000,8.11772216796875,-0.0001969106961041689,0.00045528821647167206,-0.0013901526108384132
1772535233667737900,8.12773779296875,-0.002306933281943202,0.0007112179882824421,-0.00035977596417069435
1772535233677753900,8.13775390625,-0.00041913206223398447,0.0008259208407253027,0.001479422440752387
1772535233687769900,8.147769775390625,0.0003499888116493821,-0.0004726364277303219,0.0010170978493988514
1772535233697786000,8.1577861328125,-0.001178592094220221,-0.00026018405333161354,-0.00036043766885995865
1772535233707802000,8.167802001953126,0.0013127950951457024,0.0001107943244278431,-0.0007673688232898712
1772535233717818000,8.177818115234375,0.0015669655986130238,0.0005369123537093401,0.00003219069913029671
1772535233727834000,8.187834228515625,-0.00032920512603595853,0.00110736140049994,0.0005717470776289701
1772535233737849900,8.197849853515624,-0.0004835527506656945,0.001256098272278905,-0.0006522554904222488
1772535233747865900,8.207865966796875,0.0015604234067723155,-0.0005894722416996956,-0.0006637070327997208
1772535233757882000,8.217882080078125,-0.001107184449210763,0.0006723178084939718,-0.00011887401342391968
1772535233767898000,8.227898193359374,-0.00035484140971675515,-0.0003498033620417118,-0.000030457042157649994
1772535233777914000,8.2379140625,-0.0014163926243782043,0.0006970723625272512,-0.0010373336263000965
1772535233787930000,8.24793017578125,0.00037431687815114856,0.0012004098389297724,0.0006263430695980787
1772535233797945900,8.25794580078125,-0.0011723500210791826,0.0004707295447587967,0.0003345366567373276
1772535233807961900,8.2679619140625,0.00038240343565121293,-0.0007434055441990495,-0.0008311290293931961
1772535233817977900,8.277977783203125,0.0003284834383521229,0.0009417228866368532,-0.00007505156099796295
1772535233827994000,8.287994140625,0.0011031969916075468,0.0010077692568302155,-0.0008404441177845001
1772535233838010000,8.298010009765624,0.00042777066119015217,0.0001132613979279995,-0.000045625027269124985
1772535233848026000,8.308026123046876,-0.0020114185754209757,-0.0010377569124102592,0.0019850353710353374
1772535233858042000,8.3180419921875,-0.0010385499335825443,0.0008285962976515293,-0.0008563068695366383
1772535233868057900,8.328057861328125,0.000589440343901515,-0.001243076752871275,0.00013625342398881912
1772535233878073900,8.338073974609374,0.0007052294677123427,0.0008274386636912823,-0.00002100970596075058
1772535233888089900,8.34808984375,-0.0009640398784540594,0.0005675139836966991,-0.0004561701789498329
1772535233898106000,8.358106201171875,-0.00018908496713265777,-0.000263802008703351,0.0009407170582562685
1772535233908121000,8.36812109375,0.0006844318704679608,0.00011037196964025497,0.0008227392099797726
1772535233918137000,8.37813720703125,0.0012129072565585375,-0.0007325743790715933,-0.0013671810738742352
1772535233928153000,8.388153076171875,-0.0006230760482139885,-0.0002454821951687336,0.0007196718361228704
1772535233938169000,8.398169189453125,0.000015546975191682577,0.000724452780559659,0.0010574576444923878
1772535233948185000,8.40818505859375,0.0006464498001150787,-0.0004571918398141861,-0.0006030234508216381
1772535233958200800,8.418200927734375,-0.0014404486864805222,0.0001311225350946188,-0.0005553727969527245
1772535233968216800,8.428216796875,-0.0014417802449315786,-0.000454240245744586,0.0005346592515707016
1772535233978233000,8.438233154296874,0.0003928518563043326,-0.002457633148878813,0.0002241041511297226
1772535233988249000,8.4482490234375,0.0010248200269415975,0.0007370947860181332,0.0005495422519743443
1772535233998265000,8.45826513671875,-0.0011096035595983267,-0.0008882485562935472,-0.00006789201870560646
1772535234008281000,8.468281005859374,0.0012976278085261583,-0.0006911746459081769,0.0004583485424518585
1772535234018296800,8.478296875,0.0011047371663153172,0.0002871248871088028,0.0014914895873516798
1772535234028312800,8.488312744140625,-0.00037784455344080925,-0.00000901869498193264,0.0009735047351568937
1772535234038329000,8.4983291015625,-0.001196569763123989,0.00027987780049443245,-0.0008964482694864273
1772535234048345000,8.508344970703124,-0.0006671332521364093,0.00004658498801290989,0.0013824186753481627
1772535234058361000,8.518361083984376,-0.0004485890967771411,-0.0014090304030105472,0.001068903598934412
1772535234068377000,8.528377197265625,0.00043850988731719553,0.0001832735724747181,-0.0003228643909096718
1772535234078393000,8.53839306640625,-0.00023185304598882794,-0.0008234094129875302,0.00045559555292129517
1772535234088408800,8.548408935546876,0.0012176542077213526,0.00101524218916893,-0.001043560914695263
1772535234098424800,8.5584248046875,0.0007808957598172128,-0.00010008970275521278,0.0005426178686320782
1772535234108441000,8.568441162109375,0.0011249762028455734,-0.000543239526450634,0.0011900323443114758
1772535234118457000,8.57845703125,-0.00018594518769532442,0.0006923209875822067,0.00006660213693976402
1772535234128473000,8.58847314453125,-0.001981182023882866,0.00013252440840005875,-0.0007563149556517601
1772535234138489000,8.598489013671875,-0.0012559646274894476,-0.0008674365235492587,-0.00007899757474660873
1772535234148505000,8.608505126953125,-0.00021786440629512072,0.00024203630164265633,-0.0004726126790046692
1772535234158520800,8.618520751953126,-0.0007422302733175457,0.0008645965717732906,0.0006359298713505268
1772535234168536800,8.628536865234375,-0.0005105352611280978,0.00010000308975577354,0.0015991951804608107
1772535234178553000,8.638552978515625,-0.00023129669716581702,-0.0008608272764831781,0.00008159969002008438
1772535234188569000,8.648569091796874,0.0002792312589008361,-0.00007572746835649014,-0.0002473006024956703
1772535234198585000,8.658585205078126,0.0008440586971119046,-0.0005654213018715382,-0.0006394265219569206
1772535234208601000,8.66860107421875,-0.0009386613382957876,0.0010436605662107468,-0.0007315720431506634
1772535234218617000,8.6786171875,-0.000170927494764328,0.001129441661760211,0.0012064299080520868
1772535234228632800,8.6886328125,0.000638407189399004,-0.000792295322753489,0.0007835200522094965
1772535234238648800,8.69864892578125,0.0006746662547811866,0.00023482018150389194,-0.0007912721484899521
1772535234248665000,8.7086650390625,0.0006357841193675995,0.0003472056705504656,-0.0012759673409163952
1772535234258681000,8.71868115234375,0.0004050150455441326,0.0000642901286482811,-0.0013027484528720379
1772535234268696800,8.72869677734375,0.0016031712293624878,-0.000011077383533120155,0.00047357985749840736
1772535234278712800,8.738712890625,-0.0003165857051499188,0.00006661028601229191,-0.001022043637931347
1772535234288728800,8.748728759765624,-0.0006867651245556772,-0.00033925543539226055,-0.00032110000029206276
1772535234298743800,8.758743896484376,-4.468020051717758e-7,0.00001691165380179882,-0.00040418747812509537
1772535234308759800,8.768759765625,-0.00017807964468374848,-0.0019402452744543552,0.00028317421674728394
1772535234318775800,8.77877587890625,0.001103898510336876,0.0004244397860020399,0.0002851649187505245
1772535234328791800,8.788791748046876,-0.00040291796904057264,0.00022070808336138725,0.0009139373432844877
1772535234338807800,8.798807861328125,0.0005297394818626344,0.0006521276663988829,0.000029639340937137604
1772535234348823800,8.80882373046875,-0.0008575011161155999,0.0003272220492362976,0.0011092848144471645
1772535234358839800,8.81883984375,0.00042365308036096394,0.0001251869834959507,0.0016687384340912104
1772535234368855800,8.828855712890626,0.0010047547984868288,-0.00042688637040555477,0.00048496341332793236
1772535234378871800,8.838871826171875,0.0012031304650008678,-0.0002864070702344179,-0.0016799988225102425
1772535234388887800,8.8488876953125,-0.00022432388504967093,0.000406813807785511,0.00004253396764397621
1772535234398903800,8.85890380859375,-0.00043637369526550174,-0.0005226812791079283,-0.00017010746523737907
1772535234408919800,8.868919921875,-0.0008398425416089594,0.0002965070307254791,0.0009822424035519361
1772535234418935800,8.878935791015625,0.00028480321634560823,0.0006003209855407476,-0.0005433713085949421
1772535234428951800,8.888951904296874,0.0006627057446166873,-0.0004388445522636175,-0.00019183428958058357
1772535234438967800,8.8989677734375,0.0004055458994116634,0.0003055927809327841,0.000713081331923604
1772535234448983800,8.90898388671875,0.00016133405733853579,-0.00146833888720721,0.000010539311915636063
1772535234458999800,8.918999755859375,0.00040734754293225706,0.000943751772865653,0.00020750472322106361
1772535234469015800,8.929015869140626,-0.0007543233805336058,0.00011257920414209366,-0.0003608139231801033
1772535234479031800,8.93903173828125,0.0001437850296497345,0.001017178874462843,0.0005581530276685953
1772535234489047800,8.9490478515625,0.0006934615084901452,0.00007415353320538998,-0.00033080996945500374
1772535234499063800,8.959063720703124,0.00045895844232290983,0.0005933726206421852,-0.0005243751220405102
1772535234509079800,8.969079833984376,0.00008425168925896287,0.00040988088585436344,0.0010724563617259264
1772535234519095800,8.979095703125,0.0004331386007834226,-0.00013992260210216045,-0.00015244446694850922
1772535234529111800,8.98911181640625,0.00015350669855251908,0.0011828695423901081,-0.0009314189665019512
1772535234539127800,8.9991279296875,0.00017488619778305292,-0.0008663216140121222,0.0006648530252277851
1772535234549143800,9.009143798828125,-0.0000682604149915278,-0.00006151432171463966,0.000005987007170915604
1772535234559159800,9.019159912109375,-0.00010288337944075465,0.0010072868317365646,0.0020604042802006006
1772535234569175800,9.02917578125,-0.001366020762361586,0.00037957984022796154,-0.000002746470272541046
1772535234579191800,9.03919189453125,0.001257344731129706,-0.0016931102145463228,-0.00004424760118126869
1772535234589207800,9.049207763671875,0.00044428170076571405,0.00032023945823311806,-0.00027407845482230186
1772535234599223800,9.059223876953125,0.0009261280065402389,-0.0008662939071655273,0.0004965984262526035
1772535234609239800,9.06923974609375,0.0002102703438140452,-0.001067895209416747,0.0006555893924087286
1772535234619255800,9.079255859375,0.00014706188812851906,0.0004063930828124285,0.0009803981520235538
1772535234629271800,9.089271728515625,0.001411264413036406,-0.00127299630548805,0.000029383227229118347
1772535234639287800,9.099287841796874,-0.000036664423532783985,-0.00018858141265809536,0.0002846270799636841
1772535234649303800,9.1093037109375,-4.454050213098526e-7,0.001174157951027155,-0.0003742389380931854
1772535234659318800,9.11931884765625,0.0012305330019444227,0.0005909695755690336,-0.0004433724097907543
1772535234669334800,9.129334716796874,-0.0008115789969451725,0.00015873857773840427,-0.0011626924388110638
1772535234679350800,9.139350830078126,-0.000045771070290356874,0.0007324619218707085,0.0003419937565922737
1772535234689366800,9.14936669921875,0.00017127650789916515,-0.0005208216607570648,0.0009550533723086119
1772535234699382800,9.1593828125,0.0003779298858717084,-0.00046969554387032986,0.000011926982551813126
1772535234709398800,9.169398681640626,-0.0006183586665429175,-0.000601522158831358,0.0005376352928578854
1772535234719414800,9.179414794921875,-0.0007492044242098927,0.0004400317557156086,0.00020780134946107864
1772535234729431000,9.18943115234375,-0.0006266989512369037,0.00007544504478573799,-0.0013810405507683754
1772535234739446800,9.19944677734375,0.0002898016828112304,-0.000602412736043334,-0.0009406893514096737
1772535234749462800,9.209462890625,0.00014492572518065572,-0.0009422320872545242,0.00043962709605693817
1772535234759478800,9.219478759765625,0.000009889481589198112,-0.00003633461892604828,0.0005010026507079601
1772535234769494800,9.229494873046875,0.0008682262850925326,-0.0017258439911529422,0.0004109879955649376
1772535234779510800,9.2395107421875,0.00047177920350804925,-0.0015205822419375181,0.0009095296263694763
1772535234789526800,9.24952685546875,0.0005631256499327719,0.0005329812411218882,0.00008927611634135246
1772535234799542800,9.259542724609375,0.0013622984988614917,0.00002462160773575306,0.00005322089418768883
1772535234809558800,9.269558837890624,0.0003473678370937705,0.00024113664403557777,0.0002116789110004902
1772535234819574800,9.27957470703125,0.0011867578141391277,-0.0013781896559521556,-0.0006601526401937008
1772535234829590800,9.2895908203125,-0.0005562811275012791,0.0012570081744343042,-0.00019729509949684143
1772535234839606800,9.299606689453125,0.0004084317770320922,-0.000774058629758656,-0.001029148232191801
1772535234849622800,9.309622802734374,-0.0006147546810097992,-0.000458740396425128,0.001770633039996028
1772535234859638800,9.319638671875,-0.0007873735157772899,-0.0001605595462024212,0.0005300315096974373
1772535234871532800,9.33153271484375,0.0015668608248233795,-0.00003512459807097912,-0.000729377381503582
1772535234881548800,9.341548828125,-0.00029468873981386423,-0.000612764386460185,0.0005151177756488323
1772535234891564800,9.351564697265625,-0.00033811444882303476,-0.00014535733498632908,0.0001562284305691719
1772535234901580800,9.361580810546876,0.0010198313975706697,-0.0007802548352628946,0.000021472573280334473
1772535234911596800,9.3715966796875,0.0009620522032491863,-0.0007253827061504126,0.0010499523486942053
1772535234921612800,9.38161279296875,0.0017559404950588942,-0.0002462801057845354,0.0005767084658145905
1772535234931628800,9.39162890625,0.0012912488309666514,-0.0011807202827185392,-0.00090782530605793
1772535234941644800,9.401644775390626,-0.00019985507242381573,0.00022809184156358242,0.0009827527683228254
1772535234951660800,9.411660888671875,0.000666723819449544,-0.0003993383143097162,0.0012110325042158365
1772535234961676800,9.4216767578125,-0.0014949638862162828,0.0010038812179118395,0.00013271858915686607
1772535234971692800,9.43169287109375,-0.0009004620369523764,-0.0007390989921987057,0.0010476040188223124
1772535234981708800,9.441708740234375,-0.0007377429865300655,-0.0003193847369402647,-0.0009558917954564095
1772535234991724800,9.451724853515625,-0.0007435461739078164,0.00048984051682055,-0.0011130073107779026
1772535235001740800,9.46174072265625,0.0006974902935326099,-0.00016263406723737717,0.00041191838681697845
1772535235011755800,9.471755859375,0.00007830694084987044,-0.00011815410107374191,-0.0001121428795158863
1772535235021772000,9.48177197265625,0.0006551476544700563,-0.0005131009966135025,0.0005525825545191765
1772535235031787800,9.491787841796874,0.00031578881316818297,0.0001733738463371992,0.0002751867286860943
1772535235041803800,9.5018037109375,0.000894493714440614,-0.0006101280450820923,0.00019848765805363655
1772535235051819800,9.51181982421875,0.0005313867004588246,-0.0003358493559062481,0.0003823605366051197
1772535235061835800,9.521835693359375,-0.0009123129420913756,-0.0014636979904025793,0.00018102535977959633
1772535235071851800,9.531851806640624,-0.0005541295977309346,-0.00014003459364175797,0.0015526579227298498
1772535235081867800,9.54186767578125,-0.00021777237998321652,-0.0005570854991674423,0.0001020338386297226
1772535235091883800,9.5518837890625,0.0007609598687849939,-0.000018676044419407845,-0.0011283690109848976
1772535235101899800,9.561899658203124,0.0006456450209952891,0.0009935915004462004,-0.0005488651804625988
1772535235111915800,9.571915771484376,-0.000508979894220829,0.0011495484504848719,0.0008692382834851742
1772535235121931800,9.581931884765625,0.0007552227471023798,0.00044887070544064045,0.0007041222415864468
1772535235131947800,9.59194775390625,0.00035173367359675467,0.0003927401266992092,0.00036837533116340637
1772535235141963800,9.6019638671875,-0.00005067000165581703,-0.0009819836122915149,0.001137496205046773
1772535235151979800,9.611979736328125,-0.00012191460700705647,-0.0010524142999202013,-0.0009963558986783028
1772535235161995800,9.621995849609375,-0.00046732655027881265,-0.0008657266153022647,-0.0004783710464835167
1772535235172011800,9.63201171875,-0.00029857089975848794,-0.00007162499241530895,-0.00030041253194212914
1772535235182027800,9.64202783203125,-0.0009654263849370182,-0.00023833895102143288,0.00003807526081800461
1772535235192043800,9.652043701171875,0.0007868914981372654,0.00014625955373048782,-0.0008102678693830967
1772535235202686000,9.66268603515625,-0.00003176421159878373,0.000653591938316822,-0.00002703210338950157
1772535235212701700,9.67270166015625,-0.0005335037712939084,-0.00016426481306552887,-0.00010399753227829933
1772535235222717700,9.6827177734375,-0.0004218157264403999,-0.00023969868198037148,-0.00028605852276086807
1772535235232733700,9.692733642578125,0.0016293509397655725,-0.00018430501222610474,-0.00042427657172083855
1772535235242749700,9.702749755859376,0.0006044519250281155,0.00036126142367720604,0.0017565099988132715
1772535235252766000,9.712765869140625,0.0004710275388788432,-0.0012044109171256423,0.0010694144293665886
1772535235262782000,9.722781982421875,-0.00010331516386941075,-0.0012789050815626979,0.0014760303311049938
1772535235272798000,9.7327978515625,0.00008523667929694057,-0.0005308231338858604,-0.00046354997903108597
1772535235282814000,9.74281396484375,-0.0002632729592733085,-0.00016322708688676357,0.0019301238935440779
1772535235292830200,9.752830322265625,-0.0003226614207960665,-0.0012189041590318084,0.001517334021627903
1772535235302846200,9.76284619140625,-0.0004183541750535369,0.0013134221080690622,0.0011766625102609396
1772535235312862200,9.7728623046875,-0.0008156977128237486,-0.0007723653689026833,0.0009321842808276415
1772535235322878200,9.782878173828125,-0.0006751769687980413,-0.0014409479917958379,0.00019168946892023087
1772535235332894200,9.792894287109375,-0.001016327878460288,-0.000031603267416357994,0.00014588283374905586
1772535235342910000,9.802909912109374,-0.000611139286775142,0.00006962427869439125,0.0005881236866116524
1772535235352926000,9.812926025390626,0.0011590637732297182,-0.0006672723684459925,-0.0006707524880766869
1772535235362941000,9.82294091796875,-0.0011523859575390816,-0.00042290776036679745,-0.00012940727174282074
1772535235372957200,9.832957275390624,0.00017546614981256425,0.00015419907867908478,0.00006287312135100365
1772535235382973200,9.84297314453125,-0.00012062484165653586,-0.0017399042844772339,0.0005698143504559994
1772535235392989200,9.8529892578125,0.001804041676223278,-0.000018703285604715347,0.0015669018030166626
1772535235403005200,9.863005126953125,-0.00035754754208028316,-0.0013470350531861186,0.00008671730756759644
1772535235413021200,9.873021240234374,0.0007730830693617463,-0.0002423529513180256,-0.0004385705105960369
1772535235423037000,9.883036865234375,-0.00006980745820328593,-0.0001320980954915285,0.00016357004642486572
1772535235433053000,9.893052978515625,0.0003472435928415507,0.00007616099901497364,0.0010765017941594124
1772535235443069200,9.903069091796874,-0.0008637436549179256,-0.000259551452472806,0.00183881726115942
1772535235453085200,9.913085205078126,0.00006436801049858332,-0.0010108292335644364,0.00008059805259108543
1772535235463101200,9.92310107421875,-0.0007969304569996893,0.0006705450359731913,-0.0004246355965733528
1772535235473117200,9.9331171875,0.0009730063611641526,-0.00015503494068980217,0.00007976684719324112
1772535235483133200,9.94313330078125,0.0009493466932326555,-0.0008928538300096989,-0.000376120675355196
1772535235493149000,9.95314892578125,0.0001157773076556623,0.0012342131230980158,0.001230830792337656
1772535235503165200,9.963165283203125,0.0003826269821729511,0.00015638931654393673,0.00031859520822763443
1772535235513181200,9.97318115234375,0.00041192176286131144,-0.0005791757721453905,-0.00036051077768206596
1772535235523197200,9.983197265625,-0.00032254663528874516,-0.0005239197053015232,-0.00017755990847945213
1772535235533213200,9.993213134765625,0.00031341626890935004,-0.000019783154129981995,0.0012022240553051233
1772535235543229200,10.003229248046875,0.0001694465463515371,0.00017929146997630596,-0.0004394063726067543
1772535235553245200,10.0132451171875,-0.00039913837099447846,-0.000025505665689706802,-0.0013206461444497108
1772535235563261000,10.023260986328125,0.00010937650222331285,0.0004777077119797468,-0.00030835624784231186
1772535235573277200,10.033277099609375,0.00010937650222331285,-0.0010235161753371358,0.0006104344502091408
1772535235583293200,10.043293212890624,-0.0005108808982186019,0.0002818168140947819,0.0001632324419915676
1772535235593309200,10.05330908203125,0.0007876764284446836,0.00010897754691541195,0.0010463364887982607
1772535235603325200,10.0633251953125,0.00004316162085160613,-0.00008476478978991508,0.00027115875855088234
1772535235613341200,10.073341064453125,-0.0008255615248344839,-0.0010384427150711417,0.0003766198642551899
1772535235623357200,10.083357177734374,-0.00019560987129807472,0.0015318160876631737,0.0002532857470214367
1772535235633373000,10.093373046875,0.00011864316184073687,-0.001042927848175168,0.0009923127945512533
1772535235643389200,10.10338916015625,0.0005561208236031234,0.001175133977085352,-0.001199535559862852
1772535235653405200,10.1134052734375,0.000075952906627208,-0.0009764337446540594,0.0013869265094399452
1772535235663421200,10.123421142578126,0.0008407696150243282,-0.0003111588302999735,0.000965590588748455
1772535235673437200,10.133437255859375,0.0008772548753768206,0.00005049840547144413,0.0006763713899999857
1772535235683453200,10.143453125,0.00036622994230128825,-0.00018947874195873737,0.00031011318787932396
1772535235693469000,10.153468994140624,-0.0005214015836827457,-0.00033328961580991745,0.001208663685247302
1772535235703485200,10.163485107421875,0.0002719250041991472,-0.00012167985551059246,-0.001214668620377779
1772535235713500000,10.1735,0.0015140234027057886,-0.0010346113704144955,-0.0007403595373034477
1772535235723516200,10.18351611328125,-0.0005078933900222182,-0.000027954578399658203,-0.0015276442281901836
1772535235733532200,10.1935322265625,-0.00008125504245981574,-0.00012542633339762688,0.00006066495552659035
1772535235743548200,10.203548095703125,0.00040054682176560163,0.0003103618510067463,-0.0005679675377905369
1772535235753564200,10.213564208984375,0.00022025080397725105,0.000660567544400692,0.0015010423958301544
1772535235763580200,10.223580078125,-0.00029528053710237145,-0.00019929418340325356,-0.0007072119042277336
1772535235773596200,10.23359619140625,-0.0008036780054681003,-0.000462148105725646,-0.0005751191638410091
1772535235783612200,10.243612060546875,-0.00046867987839505076,-0.0011885701678693295,0.0003005773760378361
1772535235793628200,10.253628173828124,0.000607503519859165,0.0000516639556735754,-0.0005495036020874977
1772535235803644200,10.26364404296875,-0.000543947156984359,-0.0003271065652370453,-0.0005101403221487999
1772535235813660200,10.27366015625,0.0001974768820218742,0.0004587923176586628,-0.000763673335313797
1772535235823676200,10.28367626953125,-0.001272436697036028,0.0006064041517674923,-0.0018223458901047707
1772535235833692200,10.293692138671876,0.0003600809723138809,-0.0004135863855481148,-0.0012236670590937138
1772535235843708200,10.303708251953125,0.0009644542587921023,0.00005718483589589596,0.00014255940914154053
1772535235853724200,10.31372412109375,0.000513847335241735,0.0006808971520513296,-0.0003961976617574692
1772535235863740200,10.323740234375,-0.0002012941986322403,-0.00015846476890146732,0.00018908781930804253
1772535235873756200,10.333756103515626,0.000596855184994638,0.000267640920355916,-0.0003113201819360256
1772535235883772200,10.343772216796875,-0.0008997386321425438,-0.0005726383533328772,-0.00027562910690903664
1772535235893788200,10.3537880859375,0.0012734007323160768,-0.0009934176923707128,0.0005414285697042942
1772535235903804200,10.36380419921875,0.001714287674985826,-0.0013879005564376712,-0.000793888233602047
1772535235913820000,10.37381982421875,0.0002519459230825305,-0.0010321022709831595,0.0009297097567468882
1772535235923836200,10.383836181640625,0.0011960610281676054,-0.000024009495973587036,0.0011091092601418495
1772535235933852200,10.39385205078125,-0.0011688258964568377,-0.0007249534828588367,-0.0005460451357066631
1772535235943868200,10.4038681640625,0.00008135667303577065,0.001108737662434578,-0.0012458842247724533
1772535235953884200,10.41388427734375,0.0012235864996910095,0.0004682473372668028,-0.00161712896078825
1772535235963900200,10.423900146484375,-0.0008038185769692063,-0.0009179895278066397,-0.001025912817567587
1772535235973916200,10.433916259765626,-0.0010869125835597515,0.000019709579646587372,-0.00012363353744149208
1772535235983932000,10.443931884765625,-0.00041239644633606076,0.000046336790546774864,0.00038948096334934235
1772535235993948200,10.4539482421875,-0.0011905720457434654,-0.00021545193158090115,-0.0015620836056768894
1772535236003964200,10.463964111328124,0.0005795984761789441,0.0007526497356593609,-0.000041064340621232986
1772535236013980200,10.473980224609376,-0.0003146909875795245,0.0009779531974345446,0.0005216614808887243
1772535236023996200,10.48399609375,0.00018034607637673616,0.00009808945469558239,-0.0002393815666437149
1772535236034012200,10.49401220703125,0.0010024638613685966,-0.0005740923807024956,-0.000513687264174223
1772535236044027100,10.504027099609376,-0.000626790220849216,0.000026234658434987068,0.0000658663921058178
1772535236054043100,10.514043212890625,0.0007964029791764915,0.00017696944996714592,-0.0003687613643705845
1772535236064059100,10.52405908203125,0.0009454525425098836,0.00015171407721936703,0.0004108273424208164
1772535236074075100,10.5340751953125,0.0011672938708215952,0.0009477329440414906,0.00010269926860928535
1772535236084091100,10.544091064453125,-0.000016226025763899088,-0.0008900468237698078,-0.000676439143717289
1772535236094107100,10.554107177734375,0.00012172572314739227,0.0007525908295065165,-0.001703087706118822
1772535236104123100,10.564123046875,0.00013464305084198713,-0.00006098765879869461,-0.00028275977820158005
1772535236114139100,10.57413916015625,0.0017495839856564999,-0.00016032345592975616,-0.0007924884557723999
1772535236124155100,10.584155029296875,0.00013418070739135146,0.00023912289179861546,-0.0005385857075452805
1772535236134171100,10.594171142578125,0.0003094166750088334,0.0014508611056953669,-0.0012978529557585716
1772535236144187100,10.604187255859374,-0.0007217223173938692,-0.000392095185816288,0.00018469849601387978
1772535236154203100,10.614203125,-0.001147029222920537,-0.0003476203419268131,-0.0004624500870704651
1772535236164219100,10.62421923828125,0.0011168380733579397,-0.00009838584810495377,0.0008767903782427311
1772535236174235100,10.634235107421874,-0.0005479038809426129,0.0006608814001083374,-0.00029659830033779144
1772535236184251100,10.644251220703126,0.0003673026221804321,-0.0003327901940792799,0.001559222349897027
1772535236194267100,10.65426708984375,-0.0013304625172168016,-0.0003674111794680357,-0.0019428343512117863
1772535236204283100,10.664283203125,0.0014729491667822003,0.0007015555165708065,-0.0010365028865635395
1772535236214299100,10.674299072265624,0.0005400438094511628,0.00022911070846021175,-0.0013560820370912552
1772535236224315100,10.684315185546875,0.0014466398861259222,-0.00047926604747772217,0.0006609449628740549
1772535236234331100,10.6943310546875,-0.0005438067018985748,-0.0007525064283981919,0.000643368111923337
1772535236244347100,10.70434716796875,-0.0007464620284736156,-0.0004967828281223774,0.0010834629647433758
1772535236254363100,10.714363037109376,0.001397648942656815,0.0008257431909441948,-0.0007232255302369595
1772535236264379100,10.724379150390625,-0.00030900671845301986,0.0013359198346734047,-0.0008209189400076866
1772535236274395600,10.734395751953125,-0.0002067413297481835,-0.00014905864372849464,-0.0002696448937058449
1772535236284411600,10.74441162109375,0.002315669786185026,-0.00013840757310390472,0.0000019096769392490387
1772535236294427600,10.754427734375,0.0007742320885881782,0.0005518835969269276,-0.0013246112503111362
1772535236304443600,10.764443603515625,-0.0007092898013070226,0.00016232789494097233,-0.0003781723789870739
1772535236314459600,10.774459716796875,-0.0008991732029244304,0.0007809803355485201,-0.00009135017171502113
1772535236324475600,10.7844755859375,0.0005568769993260503,-0.0010571131715551019,-0.00047525204718112946
1772535236334491600,10.79449169921875,0.00011852063471451402,0.00023585138842463493,-0.0006579449400305748
1772535236344507600,10.804507568359375,-0.00036263593938201666,0.00005043181590735912,0.0008534393273293972
1772535236354523600,10.814523681640624,0.00034603121457621455,-0.00034318328835070133,0.0005610242951661348
1772535236364539600,10.82453955078125,-0.0001565378624945879,0.0003572322893887758,-0.0019209524616599083
1772535236374555600,10.8345556640625,-0.001159218023531139,-0.0009623641381040215,-0.0013246708549559116
1772535236384570600,10.844570556640624,0.0013338500866666436,-0.0007133211474865675,-0.000029097311198711395
1772535236394586600,10.854586669921876,0.00006698438664898276,0.00017217989079654217,-0.0006669242866337299
