time,seconds_elapsed,z,y,x
1772535405920456700,0.265456787109375,0,0,0
1772535405930395600,0.275395751953125,0.017298221588134766,0.03975486755371094,0.11983034014701843
1772535405940307500,0.285307373046875,0.011245250701904297,0.04546785354614258,0.17208029329776764
1772535405950235600,0.295235595703125,-0.05675840377807617,0.10612058639526367,0.10211960971355438
1772535405960172500,0.305172607421875,-0.20285701751708984,0.30769968032836914,0.013632595539093018
1772535405970104000,0.31510400390625,-0.48534107208251953,0.5390744209289551,0.0025942176580429077
1772535405980080600,0.32508056640625,-0.7204608917236328,0.7814955711364746,0.04505924880504608
1772535405990030300,0.3350302734375,-0.7230591773986816,0.8443183898925781,0.10783398151397705
1772535405999898000,0.344898193359375,-0.6164398193359375,0.8767709732055664,0.3125168979167938
1772535406009814500,0.354814453125,-0.43012189865112305,0.9376201629638672,0.3922775387763977
1772535406019774200,0.364774169921875,-0.15030574798583984,0.9631867408752441,0.37929147481918335
1772535406029708000,0.3747080078125,0.2033095359802246,0.8618259429931641,0.4737911522388458
1772535406039639000,0.38463916015625,0.5879807472229004,0.6909666061401367,0.64113450050354
1772535406049571800,0.39457177734375,0.8739447593688965,0.5929889678955078,0.8225802183151245
1772535406059491000,0.404490966796875,1.227546215057373,0.5871744155883789,0.9608896970748901
1772535406069418500,0.41441845703125,1.8869833946228027,0.5351719856262207,1.0792888402938843
1772535406079353900,0.424353759765625,3.02866268157959,0.27138376235961914,1.0324982404708862
1772535406089284400,0.434284423828125,4.045989513397217,-0.18292856216430664,0.5265176892280579
1772535406099220500,0.444220458984375,4.180385589599609,-0.518892765045166,-0.4918094873428345
1772535406109153300,0.4541533203125,3.677379608154297,-0.741919994354248,-1.7043925523757935
1772535406119087000,0.464087158203125,2.619359016418457,-1.0875654220581055,-2.3049111366271973
1772535406129020400,0.4740205078125,1.6775140762329102,-1.2842803001403809,-1.7974140644073486
1772535406138944800,0.48394482421875,1.3350448608398438,-0.762763500213623,-1.4463340044021606
1772535406148874200,0.493874267578125,1.213547706604004,-0.45729827880859375,-1.0914032459259033
1772535406158809300,0.503809326171875,1.250864028930664,-0.5136809349060059,-0.5328977108001709
1772535406168741000,0.5137412109375,1.5846729278564453,-0.21382379531860352,0.18600165843963623
1772535406178675500,0.523675537109375,1.7751526832580566,0.2557210922241211,0.9733249545097351
1772535406188608300,0.533608154296875,1.2508430480957031,0.3994779586791992,1.4498964548110962
1772535406198542600,0.54354248046875,0.3586854934692383,0.38770008087158203,1.5034458637237549
1772535406208476000,0.553475830078125,-0.2771439552307129,0.2885932922363281,1.1950492858886719
1772535406218407000,0.563406982421875,-0.44135522842407227,-0.10386371612548828,0.7336753606796265
1772535406228340200,0.57334033203125,-0.20720911026000977,-0.7605581283569336,0.4099847972393036
1772535406238283000,0.583282958984375,0.14371871948242188,-1.2179851531982422,0.021090097725391388
1772535406248217000,0.593217041015625,0.5513448715209961,-1.3965063095092773,-0.2918696105480194
1772535406258138000,0.60313818359375,1.342740535736084,-1.4129343032836914,-0.3959484100341797
1772535406268071000,0.61307080078125,1.942145824432373,-1.453972339630127,-0.40464651584625244
1772535406277991400,0.622991455078125,2.122556209564209,-1.5090184211730957,-0.23712557554244995
1772535406297867800,0.64286767578125,1.8106250762939453,-1.865872859954834,0.12044539302587509
1772535406307800800,0.65280078125,1.4193482398986816,-2.047027587890625,0.08895779401063919
1772535406317721300,0.662721435546875,0.6979331970214844,-2.309375286102295,-0.19048768281936646
1772535406327652900,0.67265283203125,-0.1600475311279297,-2.5294575691223145,-0.5222607851028442
1772535406337588500,0.68258837890625,-0.877140998840332,-2.6377291679382324,-0.7842057347297668
1772535406347520500,0.6925205078125,-1.3343892097473145,-2.6147541999816895,-0.8646640777587891
1772535406357447200,0.702447265625,-1.3613905906677246,-2.438737392425537,-0.7790075540542603
1772535406367378700,0.712378662109375,-1.0545525550842285,-2.245811939239502,-0.44205448031425476
1772535406377292000,0.7222919921875,-0.7589221000671387,-2.0115723609924316,0.05831126868724823
1772535406387221800,0.7322216796875,-0.7614631652832031,-1.809903621673584,0.505935549736023
1772535406397171000,0.7421708984375,-1.2009339332580566,-1.7483367919921875,0.7073728442192078
1772535406407102500,0.7521025390625,-1.8983612060546875,-1.7178421020507812,0.643048882484436
1772535406417044200,0.762044189453125,-2.7312192916870117,-1.910973072052002,0.5262838006019592
1772535406426976800,0.771976806640625,-4.381092548370361,-2.0485143661499023,-0.10905773192644119
1772535406436912600,0.78191259765625,-5.3085246086120605,-1.843407154083252,-0.41778478026390076
1772535406446845400,0.791845458984375,-4.800045013427734,-1.9043464660644531,-0.18452535569667816
1772535406456734700,0.801734619140625,-3.2922089099884033,-2.2956385612487793,0.018027082085609436
1772535406476629200,0.821629150390625,-1.3468685150146484,-2.5494675636291504,-0.06142234802246094
1772535406486564900,0.83156494140625,-0.8757452964782715,-2.3046398162841797,-0.1947152316570282
1772535406496488400,0.841488525390625,-1.0270352363586426,-2.2733750343322754,-0.22977080941200256
1772535406506422800,0.8514228515625,-1.7980380058288574,-2.501070976257324,-0.042060017585754395
1772535406516351700,0.861351806640625,-2.758096218109131,-2.524287223815918,-0.3778097331523895
1772535406526285600,0.87128564453125,-3.7374367713928223,-2.7353572845458984,-0.5941686630249023
1772535406536217300,0.88121728515625,-4.129483222961426,-2.6830310821533203,-0.7196399569511414
1772535406546151000,0.89115087890625,-3.7165651321411133,-2.2596426010131836,-1.1449172496795654
1772535406556083500,0.90108349609375,-2.6451187133789062,-1.954096794128418,-1.2674238681793213
1772535406566017000,0.91101708984375,-1.2299180030822754,-1.7082724571228027,-1.2928107976913452
1772535406575928600,0.920928466796875,-0.008474349975585938,-1.2518420219421387,-1.383384108543396
1772535406585860000,0.930860107421875,0.4614105224609375,-0.857032299041748,-1.5062075853347778
1772535406595823900,0.940823974609375,0.20302438735961914,-0.6293330192565918,-1.4420619010925293
1772535406605758500,0.950758544921875,-0.7021541595458984,-0.2215285301208496,-1.4776822328567505
1772535406615700700,0.96070068359375,-1.9107789993286133,0.4832429885864258,-1.457617163658142
1772535406625636000,0.970635986328125,-2.7052791118621826,1.2205944061279297,-1.071897268295288
1772535406635513300,0.980513427734375,-2.732849359512329,1.952301025390625,-0.5040339827537537
1772535406645442800,0.99044287109375,-2.224052906036377,2.511199951171875,0.044710997492074966
1772535406655377400,1.00037744140625,-1.4784955978393555,2.814237594604492,0.3085208535194397
1772535406665307400,1.010307373046875,-0.5817070007324219,2.9237546920776367,0.381163090467453
1772535406675273200,1.020273193359375,0.4023103713989258,2.923585891723633,0.3467473089694977
1772535406685207000,1.03020703125,1.2416725158691406,2.9188218116760254,0.16667599976062775
1772535406695147500,1.0401474609375,1.9336938858032227,2.8010640144348145,-0.13508808612823486
1772535406705081900,1.050081787109375,2.7224349975585938,2.5381417274475098,-0.35465535521507263
1772535406714991400,1.059991455078125,3.3302860260009766,2.248076915740967,-0.5267915725708008
1772535406724923100,1.069923095703125,3.575094223022461,2.125239372253418,-0.7389694452285767
1772535406734835500,1.07983544921875,3.6842732429504395,2.204787254333496,-0.9494142532348633
1772535406744765400,1.089765380859375,3.9561891555786133,2.5377554893493652,-1.157100796699524
1772535406754730500,1.09973046875,4.087492942810059,2.7180113792419434,-0.7574719190597534
1772535406764663800,1.109663818359375,4.2568230628967285,2.774567127227783,0.33673879504203796
1772535406774564900,1.11956494140625,4.139086723327637,2.7357382774353027,1.111083984375
1772535406784494800,1.129494873046875,3.6350440979003906,2.671642780303955,1.191850185394287
1772535406794423800,1.139423828125,2.8336172103881836,2.8899402618408203,0.4129403233528137
1772535406804354000,1.14935400390625,1.8979134559631348,3.136221408843994,-0.632800817489624
1772535406814289400,1.159289306640625,1.143509864807129,2.876619338989258,-1.4347442388534546
1772535406824220000,1.169219970703125,0.7623786926269531,1.9872322082519531,-1.9265599250793457
1772535406834173700,1.179173583984375,0.6978921890258789,0.7101297378540039,-2.4765825271606445
1772535406844106800,1.189106689453125,1.1239204406738281,-0.6931734085083008,-2.8131771087646484
1772535406854035000,1.199034912109375,1.8279166221618652,-1.6339449882507324,-2.8317790031433105
1772535406863967500,1.208967529296875,2.364931583404541,-2.1129651069641113,-2.5722978115081787
1772535406873910500,1.21891064453125,2.5755491256713867,-2.412357807159424,-1.5409855842590332
1772535406883844000,1.228843994140625,2.423462390899658,-2.251342296600342,-0.5435766577720642
1772535406893775600,1.238775634765625,1.7407636642456055,-1.8320856094360352,0.06321519613265991
1772535406903709000,1.248708984375,0.5682587623596191,-1.643178939819336,0.23272109031677246
1772535406913655300,1.2586552734375,-0.8802695274353027,-1.8258566856384277,-0.02391749620437622
1772535406923590000,1.26858984375,-2.2356419563293457,-2.142209529876709,-0.4436306953430176
1772535406933493800,1.27849365234375,-3.242867946624756,-2.3834619522094727,-0.8059263825416565
1772535406943425300,1.28842529296875,-3.7719039916992188,-2.4947543144226074,-0.8827919960021973
1772535406953364000,1.298364013671875,-3.916020631790161,-2.6738028526306152,-0.8577978014945984
1772535406963296000,1.3082958984375,-3.9348671436309814,-2.9350504875183105,-0.8351922035217285
1772535406973228800,1.318228759765625,-3.836792230606079,-3.24281644821167,-0.6857146620750427
1772535406983161000,1.3281611328125,-3.405245304107666,-3.430349826812744,-0.5550284385681152
1772535406993088300,1.338088134765625,-2.891875743865967,-3.5057148933410645,-0.32204610109329224
1772535407003020000,1.34802001953125,-2.6358301639556885,-3.7996773719787598,-0.12351597100496292
1772535407012948700,1.35794873046875,-2.65527081489563,-4.085615158081055,0.05881930887699127
1772535407022880300,1.36788037109375,-3.041457176208496,-3.951528787612915,0.14448514580726624
1772535407032812000,1.37781201171875,-3.3606925010681152,-3.4360127449035645,0.10701742023229599
1772535407042743600,1.38774365234375,-2.535501480102539,-2.768226146697998,-0.31705978512763977
1772535407052683500,1.39768359375,-0.6873807907104492,-2.4421815872192383,-0.61856609582901
1772535407062616000,1.407615966796875,1.2966809272766113,-2.4379920959472656,-0.5915178656578064
1772535407072544000,1.4175439453125,2.685314178466797,-2.5064191818237305,-0.6266007423400879
1772535407082475800,1.427475830078125,3.1289615631103516,-2.7599077224731445,-0.7659033536911011
1772535407092414700,1.437414794921875,3.280663013458252,-2.649838924407959,-0.7181980609893799
1772535407102347500,1.447347412109375,3.303358554840088,-2.116069793701172,-0.40879541635513306
1772535407112268800,1.457268798828125,2.266711711883545,-1.5589566230773926,-0.07205075025558472
1772535407122200300,1.467200439453125,0.828984260559082,-0.9700088500976562,0.14663106203079224
1772535407132129000,1.47712890625,0.1302356719970703,-0.312685489654541,0.35355430841445923
1772535407142060300,1.487060302734375,-0.014145851135253906,0.1233057975769043,0.7820190191268921
1772535407151998700,1.496998779296875,-0.47053003311157227,0.3020014762878418,0.9737949967384338
1772535407161930800,1.5069306640625,-1.0599956512451172,0.5212492942810059,0.9070891737937927
1772535407171870500,1.516870361328125,-1.3831257820129395,0.8961343765258789,0.7758142948150635
1772535407181803300,1.52680322265625,-1.355079174041748,1.1866483688354492,0.6548510789871216
1772535407191722500,1.536722412109375,-1.0838370323181152,1.2990126609802246,0.8006519079208374
1772535407201653800,1.54665380859375,-0.5900063514709473,1.410146713256836,1.0514014959335327
1772535407211585000,1.5565849609375,0.08720684051513672,1.5198001861572266,1.1336079835891724
1772535407221516300,1.566516357421875,0.5586833953857422,1.5029540061950684,1.1430307626724243
1772535407231453000,1.576452880859375,0.8784322738647461,1.3560256958007812,1.220766544342041
1772535407241385000,1.586385009765625,1.3443779945373535,1.1635618209838867,1.3291274309158325
1772535407251326000,1.596325927734375,2.0930538177490234,1.049896240234375,1.3745030164718628
1772535407261258800,1.6062587890625,2.6846208572387695,1.0531764030456543,1.3679735660552979
1772535407271188700,1.616188720703125,2.7731337547302246,1.0729732513427734,1.4042383432388306
1772535407281121300,1.626121337890625,2.619196891784668,1.041457176208496,1.5381383895874023
1772535407291042600,1.63604248046875,2.4887871742248535,1.2161564826965332,1.1471757888793945
1772535407300974000,1.64597412109375,2.4135890007019043,1.5248546600341797,0.38312041759490967
1772535407310879500,1.65587939453125,2.0035176277160645,1.4383206367492676,0.031310319900512695
1772535407320808400,1.665808349609375,1.4413414001464844,1.0489144325256348,-0.452927827835083
1772535407330777600,1.675777587890625,1.1774535179138184,0.6961493492126465,-1.1368826627731323
1772535407340710700,1.685710693359375,0.9648046493530273,0.14347124099731445,-1.4761775732040405
1772535407350639900,1.695639892578125,0.9020981788635254,-0.4398479461669922,-1.367695927619934
1772535407360572400,1.705572509765625,1.308431625366211,-0.4311647415161133,-0.6382348537445068
1772535407370494700,1.71549462890625,1.583341121673584,-0.19995880126953125,0.8586204051971436
1772535407380426200,1.72542626953125,1.284332275390625,-0.1582927703857422,2.585775375366211
1772535407390355500,1.73535546875,0.8901629447937012,-0.08995676040649414,3.6500368118286133
1772535407400286500,1.745286376953125,0.9389629364013672,0.057231903076171875,3.701251745223999
1772535407410221800,1.755221923828125,1.6873908042907715,-0.08990669250488281,3.1757636070251465
1772535407420153600,1.765153564453125,2.657778263092041,-0.8824992179870605,2.3682291507720947
1772535407430103300,1.775103271484375,3.179900646209717,-1.7051453590393066,1.4111533164978027
1772535407440036600,1.78503662109375,3.2657923698425293,-2.232320785522461,0.41877758502960205
1772535407449951500,1.794951416015625,2.931426525115967,-2.444882869720459,-0.260550856590271
1772535407459883000,1.804883056640625,2.073759078979492,-2.4268083572387695,-0.18542814254760742
1772535407469814300,1.814814208984375,0.689363956451416,-2.310135841369629,0.5732413530349731
1772535407479745800,1.824745849609375,-0.8740830421447754,-2.1562538146972656,1.470188856124878
1772535407489686300,1.834686279296875,-1.9653129577636719,-1.964881420135498,2.2055928707122803
1772535407499618800,1.844618896484375,-2.3930506706237793,-1.7233362197875977,2.930518627166748
1772535407509517600,1.854517578125,-2.537100315093994,-1.4741606712341309,3.214970350265503
1772535407519446800,1.86444677734375,-2.696281909942627,-1.4872932434082031,3.1366140842437744
1772535407529405400,1.874405517578125,-2.7520699501037598,-1.761613368988037,2.710207939147949
1772535407539337500,1.88433740234375,-2.6554007530212402,-1.9985003471374512,2.03293776512146
1772535407549269000,1.89426904296875,-2.4990663528442383,-2.1876230239868164,1.289931297302246
1772535407559201000,1.904200927734375,-2.3942437171936035,-2.5186843872070312,0.6815775036811829
1772535407569109800,1.91410986328125,-2.2279815673828125,-2.908891439437866,0.259295254945755
1772535407579039500,1.92403955078125,-2.1352972984313965,-3.181238889694214,0.07189561426639557
1772535407588999200,1.933999267578125,-2.1657633781433105,-3.358618974685669,0.08651284873485565
1772535407598932000,1.943931884765625,-2.167433738708496,-3.364452600479126,0.2731928825378418
1772535407608861700,1.95386181640625,-1.9573702812194824,-3.1538636684417725,0.5438132286071777
1772535407618794000,1.9637939453125,-1.5901389122009277,-2.7551305294036865,0.8730356693267822
1772535407628720600,1.973720703125,-1.356161117553711,-2.289036273956299,1.1695618629455566
1772535407638652400,1.98365234375,-1.372450351715088,-1.8715176582336426,1.2674078941345215
1772535407648587500,1.99358740234375,-1.5317254066467285,-1.536977767944336,1.0003880262374878
1772535407658519600,2.00351953125,-1.89937162399292,-1.2475600242614746,0.47530004382133484
1772535407668447700,2.01344775390625,-2.418825626373291,-0.9962716102600098,-0.10795295238494873
1772535407678379300,2.023379150390625,-2.735933303833008,-0.6546993255615234,-0.680332362651825
1772535407688317000,2.03331689453125,-2.507852077484131,-0.2621927261352539,-1.1396009922027588
1772535407698249200,2.043249267578125,-1.9521679878234863,0.1854267120361328,-1.2108087539672852
1772535407708153300,2.0531533203125,-1.2586936950683594,0.6605544090270996,-1.0111238956451416
1772535407718082800,2.063082763671875,-0.5926241874694824,1.0935544967651367,-0.9540254473686218
1772535407728045300,2.07304541015625,0.09532594680786133,1.6115617752075195,-0.9733871221542358
1772535407737978000,2.08297802734375,0.7727551460266113,2.141845226287842,-1.0208497047424316
1772535407747886800,2.092886962890625,1.2883176803588867,2.512341022491455,-1.1417875289916992
1772535407757817300,2.1028173828125,1.6712126731872559,2.8535561561584473,-1.425020694732666
1772535407767765000,2.112764892578125,2.0360612869262695,3.1190295219421387,-1.9758942127227783
1772535407777697000,2.122697021484375,2.2165794372558594,3.023169994354248,-2.449565887451172
1772535407787637200,2.13263720703125,2.1615352630615234,2.748546600341797,-2.9296724796295166
1772535407797570300,2.1425703125,2.038259983062744,2.4676308631896973,-3.346778154373169
1772535407807496200,2.15249609375,2.0935211181640625,2.295039653778076,-3.582338809967041
1772535407817428500,2.162428466796875,2.3123302459716797,2.2096285820007324,-3.629058361053467
1772535407827359000,2.17235888671875,2.781132698059082,2.4034605026245117,-3.8713443279266357
1772535407837291000,2.182291015625,3.2069854736328125,3.0799660682678223,-4.338899612426758
1772535407847216400,2.19221630859375,2.827777862548828,3.220860004425049,-4.080724239349365
1772535407857147600,2.202147705078125,2.103529930114746,2.730374336242676,-3.6293647289276123
1772535407867102500,2.2121025390625,1.8636670112609863,2.2575201988220215,-3.807922840118408
1772535407877036300,2.222036376953125,2.045224189758301,1.9404010772705078,-4.3959197998046875
1772535407886964700,2.23196484375,2.2977209091186523,1.679941177368164,-4.980049133300781
1772535407896897800,2.241897705078125,2.448859214782715,1.4349422454833984,-5.346657752990723
1772535407906798600,2.251798583984375,2.5015106201171875,1.17218017578125,-5.462475776672363
1772535407916728600,2.261728515625,2.6387405395507812,0.6684365272521973,-5.244246959686279
1772535407926664000,2.271663818359375,2.977201461791992,0.004141330718994141,-4.79929256439209
1772535407936594400,2.281594482421875,3.2253780364990234,-0.7199301719665527,-4.218263626098633
1772535407946523400,2.2915234375,3.017482280731201,-1.4520130157470703,-3.53730845451355
1772535407956454000,2.301453857421875,2.199331283569336,-1.9073247909545898,-2.9219114780426025
1772535407966385700,2.3113857421875,1.0688800811767578,-2.0344676971435547,-2.3016586303710938
1772535407976316200,2.321316162109375,0.1594233512878418,-1.9287309646606445,-1.6524896621704102
1772535407986251800,2.331251708984375,-0.15927457809448242,-1.686574935913086,-1.338808536529541
1772535407996183000,2.34118310546875,-0.053882598876953125,-1.51841402053833,-1.3555798530578613
1772535408006117600,2.35111767578125,0.2777266502380371,-1.5071253776550293,-1.3770190477371216
1772535408016049000,2.361048828125,0.5429935455322266,-1.610485553741455,-1.2254436016082764
1772535408026006300,2.37100634765625,0.635535717010498,-1.7317276000976562,-0.98907071352005
1772535408035940400,2.3809404296875,0.6718001365661621,-1.8340611457824707,-0.7978914380073547
1772535408045869600,2.39086962890625,0.6195130348205566,-1.9129810333251953,-0.5731309056282043
1772535408055803000,2.400802978515625,0.2127842903137207,-2.029468059539795,-0.2403041124343872
1772535408065726200,2.410726318359375,-0.44379377365112305,-2.2075815200805664,0.1263946294784546
1772535408075658800,2.42065869140625,-1.104142665863037,-2.28031587600708,0.6790891289710999
1772535408085593600,2.430593505859375,-1.7847027778625488,-2.110948085784912,1.1105899810791016
1772535408095526100,2.440526123046875,-2.4824628829956055,-1.7112727165222168,1.5434818267822266
1772535408105428000,2.450427978515625,-3.0045809745788574,-1.4552464485168457,1.8871486186981201
1772535408115357700,2.460357666015625,-3.2536821365356445,-1.3827462196350098,2.054649829864502
1772535408125319400,2.4703193359375,-3.2405295372009277,-1.3405513763427734,2.1130528450012207
1772535408135252200,2.480252197265625,-3.0222702026367188,-1.4597086906433105,2.0609726905822754
1772535408145181700,2.490181640625,-2.374265670776367,-1.6619911193847656,1.9300068616867065
1772535408155114200,2.5001142578125,-1.6573209762573242,-1.918886661529541,1.7569472789764404
1772535408165046000,2.5100458984375,-1.1726760864257812,-2.092602014541626,1.5296329259872437
1772535408174978600,2.519978515625,-0.902747631072998,-2.235469102859497,1.1795742511749268
1772535408184920600,2.529920654296875,-0.6794638633728027,-2.226788282394409,0.873376727104187
1772535408194854100,2.539854248046875,-0.4933943748474121,-2.0265629291534424,0.6636106967926025
1772535408204748000,2.549748046875,-0.4024324417114258,-1.7799432277679443,0.6796913146972656
1772535408214677500,2.559677490234375,-0.287630558013916,-1.4545059204101562,0.708942174911499
1772535408224636000,2.569635986328125,-0.16852998733520508,-1.026559829711914,0.7327282428741455
1772535408234568200,2.579568115234375,-0.10799360275268555,-0.6474499702453613,0.7333259582519531
1772535408244505900,2.589505859375,-0.03159046173095703,-0.36711788177490234,0.7327213287353516
1772535408254438700,2.599438720703125,0.20618343353271484,-0.015916824340820312,0.8092465400695801
1772535408264369400,2.609369384765625,0.6179704666137695,0.4078993797302246,1.024687647819519
1772535408274302000,2.619302001953125,1.1700801849365234,0.7539472579956055,1.3648672103881836
1772535408284225300,2.629225341796875,1.934476375579834,0.9100437164306641,1.7451773881912231
1772535408294157000,2.639156982421875,2.6328001022338867,0.9998245239257812,1.9031075239181519
1772535408304095700,2.649095703125,2.9830527305603027,1.1038703918457031,1.8655492067337036
1772535408314028300,2.6590283203125,3.144195079803467,1.0955305099487305,1.688400149345398
1772535408323931600,2.668931640625,3.130033016204834,0.8868551254272461,1.498816967010498
1772535408333861400,2.678861328125,2.81190824508667,0.5276188850402832,1.4374372959136963
1772535408343820800,2.68882080078125,2.3641486167907715,0.1553792953491211,1.2489588260650635
1772535408353753300,2.69875341796875,2.0159406661987305,-0.10250377655029297,0.93958979845047
1772535408363688000,2.70868798828125,1.8877291679382324,-0.21749401092529297,0.40435338020324707
1772535408373620700,2.718620849609375,2.1254754066467285,-0.19774246215820312,-0.3389075994491577
1772535408383545000,2.728545166015625,2.3736867904663086,-0.4665336608886719,-0.746681809425354
1772535408393476900,2.738476806640625,2.43233585357666,-0.8291759490966797,-0.7710698843002319
1772535408403413800,2.748413818359375,2.314377784729004,-0.6710100173950195,-0.775740385055542
1772535408413346000,2.758345947265625,1.8958311080932617,-0.18996667861938477,-0.5834914445877075
1772535408423279000,2.768279052734375,1.3817448616027832,0.27915096282958984,-0.1749659776687622
1772535408433211600,2.778211669921875,0.7882165908813477,0.49030065536499023,0.3124663829803467
1772535408443113000,2.788113037109375,0.2832932472229004,0.5931439399719238,0.7902531027793884
1772535408453042200,2.798042236328125,0.1494741439819336,0.7101650238037109,1.1713995933532715
1772535408463007500,2.808007568359375,0.3712806701660156,0.4720315933227539,1.4957753419876099
1772535408472940300,2.817940185546875,0.9332795143127441,0.03484773635864258,1.8263189792633057
1772535408482868700,2.82786865234375,1.8862719535827637,-0.2970743179321289,1.9633010625839233
1772535408492801000,2.837801025390625,3.1472554206848145,-0.8061747550964355,1.9328324794769287
1772535408502732000,2.84773193359375,4.419132709503174,-1.3298850059509277,1.9027360677719116
1772535408512664300,2.857664306640625,5.301370620727539,-1.6073975563049316,1.6390377283096313
1772535408522597400,2.867597412109375,5.329397678375244,-1.929354190826416,1.378680944442749
1772535408532529700,2.87752978515625,4.267628192901611,-2.2441935539245605,1.1481239795684814
1772535408542457300,2.887457275390625,2.288482666015625,-2.414388418197632,0.8759925365447998
1772535408552389000,2.89738916015625,0.010754585266113281,-2.466959238052368,0.6239625811576843
1772535408562321400,2.9073212890625,-2.0836338996887207,-2.4849050045013428,0.4394230842590332
1772535408572253400,2.91725341796875,-3.9419143199920654,-2.5289008617401123,0.10379010438919067
1772535408582186800,2.927186767578125,-5.332403182983398,-2.4956681728363037,-0.15365135669708252
1772535408592118800,2.937118896484375,-5.888906478881836,-2.2174675464630127,-0.40762579441070557
1772535408602058200,2.947058349609375,-5.518702507019043,-1.9799585342407227,-0.5364886522293091
1772535408611991000,2.956990966796875,-4.60074520111084,-2.1941959857940674,-0.32364752888679504
1772535408621886500,2.966886474609375,-3.4473938941955566,-2.5774319171905518,0.2133488804101944
1772535408631815400,2.9768154296875,-2.242269515991211,-2.8511314392089844,0.6148970127105713
1772535408641752800,2.9867529296875,-1.2310028076171875,-2.862562656402588,1.0464483499526978
1772535408651682600,2.9966826171875,-0.5376582145690918,-2.6529855728149414,1.4075632095336914
1772535408661644000,3.00664404296875,-0.5048460960388184,-2.402601957321167,1.6021010875701904
1772535408671577000,3.0165771484375,-1.0540094375610352,-2.1461641788482666,1.6289503574371338
1772535408681521000,3.02652099609375,-1.8126583099365234,-1.847003698348999,1.5566341876983643
1772535408691455000,3.036455078125,-2.365703582763672,-1.5403401851654053,1.4280835390090942
1772535408701325600,3.04632568359375,-2.436333179473877,-1.1348981857299805,1.236555814743042
1772535408711253200,3.056253173828125,-1.9798717498779297,-0.62957763671875,0.9329395294189453
1772535408721231000,3.066231201171875,-1.2546606063842773,-0.42934465408325195,0.6395773887634277
1772535408731164000,3.076163818359375,-0.7424564361572266,-0.662386417388916,0.47696423530578613
1772535408741103900,3.086103759765625,-0.5635004043579102,-0.8894619941711426,0.2602255344390869
1772535408751037400,3.096037353515625,-0.5578203201293945,-0.922724723815918,-0.11462831497192383
1772535408760959500,3.10595947265625,-0.5903263092041016,-0.806361198425293,-0.5396651029586792
1772535408770891800,3.115891845703125,-0.5576686859130859,-0.4708437919616699,-0.8494241237640381
1772535408780786400,3.125786376953125,-0.5305800437927246,0.12160921096801758,-1.0387909412384033
1772535408790715100,3.135715087890625,-0.5589127540588379,0.9112939834594727,-1.1937839984893799
1772535408800698000,3.145697998046875,-0.511573314666748,1.7824864387512207,-1.2187422513961792
1772535408810632200,3.155632080078125,-0.15691184997558594,2.6864466667175293,-1.0885134935379028
1772535408820558000,3.16555810546875,0.37826061248779297,3.2048511505126953,-0.903121292591095
1772535408830491400,3.175491455078125,0.8097801208496094,3.282123565673828,-0.8390650749206543
1772535408840426000,3.185426025390625,1.2065773010253906,3.199033260345459,-1.0259883403778076
1772535408850359300,3.195359375,1.5315742492675781,3.174859046936035,-1.4030817747116089
1772535408860276700,3.20527685546875,1.9052724838256836,3.2707271575927734,-1.910512924194336
1772535408870208500,3.21520849609375,2.38571834564209,3.4899439811706543,-2.192138671875
1772535408880141800,3.225141845703125,2.902287483215332,3.7105116844177246,-2.215458393096924
1772535408890073900,3.235073974609375,3.4271974563598633,3.8629255294799805,-2.1220812797546387
1772535408900008000,3.245008056640625,3.6036758422851562,3.6351585388183594,-1.9237055778503418
1772535408909940200,3.254940185546875,3.533463478088379,3.1726951599121094,-1.9178436994552612
1772535408919878000,3.2648779296875,3.3643150329589844,2.952948570251465,-2.444387197494507
1772535408929810400,3.274810546875,2.6995058059692383,2.9511609077453613,-2.801058292388916
1772535408939731200,3.284731201171875,1.2146968841552734,2.456690788269043,-2.5020651817321777
1772535408949662700,3.294662841796875,-0.4387784004211426,1.7009954452514648,-2.231642723083496
1772535408959595500,3.304595458984375,-1.4866876602172852,1.4402813911437988,-2.4386396408081055
1772535408969527000,3.314527099609375,-1.672830581665039,1.780029296875,-2.937075614929199
1772535408979452200,3.3244521484375,-1.019474983215332,2.2714591026306152,-3.3535099029541016
1772535408989383200,3.334383056640625,0.09025955200195312,2.3324928283691406,-3.2734577655792236
1772535408999327000,3.344326904296875,1.2178964614868164,1.7600436210632324,-2.745636463165283
1772535409009259300,3.35425927734375,2.3143978118896484,0.8992362022399902,-2.360558032989502
1772535409019186700,3.364186767578125,2.891836166381836,-0.12562894821166992,-2.375026226043701
1772535409029118500,3.374118408203125,2.767702102661133,-1.2309069633483887,-2.5537948608398438
1772535409039034000,3.3840341796875,2.118380546569824,-2.227320432662964,-2.706465482711792
1772535409048964400,3.39396435546875,1.144627571105957,-3.045924186706543,-2.878026008605957
1772535409058896000,3.403895751953125,0.12943267822265625,-3.591372013092041,-2.8848352432250977
1772535409068826400,3.413826416015625,-0.7994909286499023,-3.834437131881714,-2.774867534637451
1772535409078754800,3.4237548828125,-1.5817108154296875,-3.7804300785064697,-2.6484785079956055
1772535409088685000,3.43368505859375,-1.9184942245483398,-3.4696550369262695,-2.5886013507843018
1772535409098622500,3.44362255859375,-1.7905035018920898,-3.0979838371276855,-2.5101025104522705
1772535409108553500,3.453553466796875,-1.32318115234375,-2.786949634552002,-2.223323106765747
1772535409118484000,3.46348388671875,-0.8253669738769531,-2.659376621246338,-1.8225696086883545
1772535409128415000,3.4734150390625,-0.39352941513061523,-2.5803723335266113,-1.3229641914367676
1772535409138349600,3.483349609375,0.03815174102783203,-2.467454433441162,-0.8975710868835449
1772535409148280800,3.49328076171875,0.43045806884765625,-2.3761000633239746,-0.40190625190734863
1772535409158209300,3.503209228515625,0.6059646606445312,-2.3655014038085938,0.12440061569213867
1772535409168140300,3.513140380859375,0.5103597640991211,-2.388092041015625,0.4638711214065552
1772535409178075400,3.523075439453125,0.09262466430664062,-2.319370746612549,0.8255987167358398
1772535409188007000,3.5330068359375,-0.47156572341918945,-2.0704267024993896,1.2386261224746704
1772535409197941500,3.54294140625,-0.8937654495239258,-1.6159088611602783,1.5392417907714844
1772535409207873300,3.552873291015625,-1.262014389038086,-1.165235996246338,1.554004430770874
1772535409217815300,3.562815185546875,-1.5347099304199219,-0.9301056861877441,1.3392596244812012
1772535409227748000,3.572748046875,-1.6082172393798828,-0.9056730270385742,1.1528726816177368
1772535409237670700,3.582670654296875,-1.5165796279907227,-0.9657130241394043,1.1445831060409546
1772535409247602400,3.5926025390625,-1.2451000213623047,-1.0087361335754395,1.3944520950317383
1772535409257557000,3.602556884765625,-0.8875694274902344,-0.977299690246582,1.6755576133728027
1772535409267491000,3.612490966796875,-0.7178335189819336,-0.8962531089782715,1.8306492567062378
1772535409277421600,3.622421630859375,-0.7427492141723633,-0.7651047706604004,1.9213799238204956
1772535409287355400,3.63235546875,-0.8415412902832031,-0.6004981994628906,1.9369581937789917
1772535409297294600,3.642294677734375,-0.9996337890625,-0.45884227752685547,1.8748019933700562
1772535409307229000,3.65222900390625,-1.0551719665527344,-0.35239553451538086,1.8033676147460938
1772535409317149700,3.662149658203125,-1.113687515258789,-0.3233976364135742,1.7035467624664307
1772535409327082500,3.67208251953125,-1.3558645248413086,-0.20438432693481445,1.544013500213623
1772535409337009000,3.6820087890625,-1.7252836227416992,0.0448455810546875,1.352513313293457
1772535409346941000,3.69194091796875,-2.0577874183654785,0.3369903564453125,1.1441360712051392
1772535409356871000,3.701870849609375,-2.294539451599121,0.6787838935852051,0.8503246307373047
1772535409366803000,3.711802978515625,-2.343599319458008,1.0279393196105957,0.8056087493896484
1772535409376728600,3.721728515625,-2.218630313873291,1.4348535537719727,1.1125227212905884
1772535409386659800,3.731659912109375,-1.8329195976257324,1.8817200660705566,1.5089807510375977
1772535409396614100,3.7416142578125,-1.0465574264526367,2.242216110229492,1.840553641319275
1772535409406548000,3.7515478515625,0.14418363571166992,2.263543128967285,2.1819307804107666
1772535409416472300,3.761472412109375,1.6034026145935059,2.046576499938965,2.3754706382751465
1772535409426405000,3.771405029296875,3.0878710746765137,1.5536494255065918,2.318481206893921
1772535409436337700,3.781337646484375,4.284628868103027,0.8531231880187988,1.9984409809112549
1772535409446270500,3.7912705078125,4.908987522125244,0.16027307510375977,1.3658196926116943
1772535409456192500,3.801192626953125,5.079104900360107,-0.35013628005981445,0.49192488193511963
1772535409466124300,3.811124267578125,5.058006286621094,-0.600224494934082,-0.3576117753982544
1772535409476061000,3.82106103515625,4.740672588348389,-0.7825145721435547,-0.6098926067352295
1772535409485993000,3.830992919921875,4.169409275054932,-0.7695140838623047,-0.5497226715087891
1772535409495932400,3.840932373046875,3.3650565147399902,-0.33986806869506836,-0.38879144191741943
1772535409505865500,3.850865478515625,2.5564374923706055,0.3144402503967285,0.08182299137115479
1772535409515785000,3.860784912109375,1.8509368896484375,0.9845600128173828,0.7454832792282104
1772535409525716700,3.870716796875,1.4122257232666016,1.485109806060791,1.2844576835632324
1772535409535651300,3.8806513671875,1.4521608352661133,1.7175908088684082,1.8021889925003052
1772535409545583400,3.890583251953125,2.1135306358337402,1.511247158050537,2.0485005378723145
1772535409555510300,3.90051025390625,3.2396860122680664,0.8497576713562012,1.9946008920669556
1772535409565441800,3.91044189453125,4.67974853515625,-0.21796274185180664,1.9585245847702026
1772535409575389700,3.9203896484375,6.29194450378418,-1.3359527587890625,1.859439730644226
1772535409585323000,3.930322998046875,7.500188827514648,-2.286827802658081,1.6483091115951538
1772535409595214000,3.940214111328125,7.845916748046875,-2.9305901527404785,1.689772605895996
1772535409605143000,3.95014306640625,7.00755500793457,-3.2388458251953125,2.0465331077575684
1772535409615102500,3.9601025390625,5.191112518310547,-3.2446742057800293,2.42008638381958
1772535409625034500,3.970034423828125,2.90462589263916,-3.0417871475219727,2.7593612670898438
1772535409634968000,3.979968017578125,0.5558385848999023,-2.760145664215088,2.8667221069335938
1772535409644900400,3.989900390625,-1.313211441040039,-2.4488024711608887,2.5271778106689453
1772535409654828500,3.99982861328125,-2.3722143173217773,-2.1558034420013428,1.965392827987671
1772535409664760300,4.00976025390625,-2.7346997261047363,-2.191516637802124,1.384401798248291
1772535409674705400,4.019705322265625,-2.742455005645752,-2.5486392974853516,0.8239436149597168
1772535409684638500,4.029638427734375,-2.62973690032959,-2.9454126358032227,0.477067768573761
1772535409694561300,4.039561279296875,-2.3064889907836914,-3.219653606414795,0.21455734968185425
1772535409704493300,4.049493408203125,-1.8643951416015625,-3.3821513652801514,0.08127796649932861
1772535409714417400,4.05941748046875,-1.446742057800293,-3.3775789737701416,0.1704598069190979
1772535409724348700,4.0693486328125,-1.2161750793457031,-3.2197020053863525,0.36776262521743774
1772535409734292700,4.079292724609375,-1.2309703826904297,-2.971575975418091,0.600999653339386
1772535409744225300,4.089225341796875,-1.522390365600586,-2.6775307655334473,0.8330649137496948
1772535409754151400,4.0991513671875,-2.19989013671875,-2.3058810234069824,1.0143954753875732
1772535409764083200,4.109083251953125,-3.0606579780578613,-1.990999698638916,1.0281498432159424
1772535409774023200,4.119023193359375,-3.832475185394287,-1.7454440593719482,0.9925881028175354
1772535409783956000,4.1289560546875,-4.382326602935791,-1.5396173000335693,0.8536617755889893
1772535409793875700,4.138875732421875,-4.647702217102051,-1.4001076221466064,0.6197858452796936
1772535409803807000,4.148806884765625,-4.635920524597168,-1.2716448307037354,0.33463555574417114
1772535409813747200,4.158747314453125,-4.404557704925537,-1.0506095886230469,0.006848946213722229
1772535409823679500,4.168679443359375,-4.062607288360596,-0.7784733772277832,-0.2965872883796692
1772535409833609700,4.178609619140625,-3.670746326446533,-0.4491610527038574,-0.5669797658920288
1772535409843541800,4.188541748046875,-3.2799744606018066,-0.13756132125854492,-0.7344015836715698
1772535409853447000,4.198447021484375,-2.9088082313537598,0.1598820686340332,-0.9462473392486572
1772535409863376100,4.208376220703125,-2.54360294342041,0.5536646842956543,-1.0166383981704712
1772535409873336300,4.21833642578125,-2.305445671081543,0.9351000785827637,-1.037665605545044
1772535409883268900,4.228268798828125,-2.019606590270996,1.2828025817871094,-1.0892484188079834
1772535409893195800,4.23819580078125,-1.5347318649291992,1.641648292541504,-1.1763190031051636
1772535409903127800,4.2481279296875,-0.9462423324584961,1.9103331565856934,-1.2968655824661255
1772535409913089300,4.25808935546875,-0.486971378326416,2.1199264526367188,-1.4466310739517212
1772535409923024100,4.268024169921875,-0.1025094985961914,2.3924269676208496,-1.6801397800445557
1772535409932930300,4.277930419921875,0.2224578857421875,2.660305976867676,-1.9587205648422241
1772535409942862300,4.2878623046875,0.45458030700683594,2.952821731567383,-2.0685598850250244
1772535409952791000,4.297791015625,0.722935676574707,3.227532386779785,-2.1965723037719727
1772535409962722800,4.307722900390625,1.1567039489746094,3.351010799407959,-2.2651262283325195
1772535409972662300,4.317662353515625,1.6709957122802734,3.3311586380004883,-2.2792372703552246
1772535409982594800,4.3275947265625,2.2533483505249023,3.227062702178955,-2.417283535003662
1772535409992521200,4.337521240234375,2.8530969619750977,3.001716136932373,-2.4987339973449707
1772535410002453000,4.347452880859375,3.48568058013916,2.7101426124572754,-2.621565818786621
1772535410012379100,4.357379150390625,4.050955772399902,2.728675365447998,-2.8866593837738037
1772535410022310400,4.367310302734375,4.037242889404297,2.488898277282715,-2.6242997646331787
1772535410032245500,4.37724560546875,3.8781328201293945,2.091799736022949,-2.2012643814086914
1772535410042177000,4.387177001953125,3.8478260040283203,1.8832688331604004,-2.0981884002685547
1772535410052100600,4.3971005859375,3.8289995193481445,1.7670865058898926,-2.088996171951294
1772535410062031400,4.40703125,3.814591407775879,1.9336776733398438,-2.1999852657318115
1772535410071972900,4.416972900390625,3.898141860961914,2.2144312858581543,-2.3659212589263916
1772535410081904600,4.426904541015625,4.337459564208984,2.131484031677246,-2.335205078125
1772535410091837000,4.4368369140625,5.101282119750977,1.5127511024475098,-2.084651231765747
1772535410101769000,4.44676904296875,5.6538543701171875,0.5698699951171875,-1.851396083831787
1772535410111699000,4.456698974609375,5.578526496887207,-0.28214359283447266,-1.905813217163086
1772535410121630700,4.466630615234375,4.834288597106934,-0.8813650608062744,-2.1403963565826416
1772535410131571500,4.476571533203125,3.688654899597168,-1.338796854019165,-2.364867925643921
1772535410141504300,4.486504150390625,2.7042293548583984,-1.6359715461730957,-2.463481903076172
1772535410151434200,4.496434326171875,2.1088342666625977,-1.762392520904541,-2.427424907684326
1772535410161366500,4.506366455078125,1.6732425689697266,-1.7892370223999023,-2.2633414268493652
1772535410171293000,4.51629296875,1.2506990432739258,-1.646141529083252,-1.9363468885421753
1772535410181224700,4.526224609375,0.856602668762207,-1.3423941135406494,-1.4886271953582764
1772535410191157200,4.5361572265625,0.45296764373779297,-1.0659205913543701,-1.0772385597229004
1772535410201089000,4.546089111328125,0.14449501037597656,-0.867814302444458,-0.7172490358352661
1772535410220947700,4.56594775390625,0.015337944030761719,-0.835134744644165,-0.22967815399169922
1772535410230867700,4.57586767578125,-0.07815742492675781,-1.0590360164642334,-0.12159651517868042
1772535410240798000,4.5857978515625,-0.35973548889160156,-1.2863800525665283,-0.1275189220905304
1772535410250759200,4.59575927734375,-0.8059673309326172,-1.5289638042449951,-0.20745500922203064
1772535410260692500,4.6056923828125,-1.3172364234924316,-1.7270607948303223,-0.330951988697052
1772535410270591200,4.61559130859375,-1.7937746047973633,-1.855696201324463,-0.41444700956344604
1772535410280521200,4.625521240234375,-2.293405532836914,-1.8904438018798828,-0.3413141965866089
1772535410290495200,4.6354951171875,-2.7447547912597656,-1.8119525909423828,-0.07710093259811401
1772535410300429600,4.6454296875,-3.048219680786133,-1.6392157077789307,0.28950637578964233
1772535410310319000,4.655319091796875,-3.0804476737976074,-1.3724148273468018,0.6473636627197266
1772535410320248800,4.665248779296875,-2.8795852661132812,-1.2481458187103271,0.9110286831855774
1772535410330180600,4.6751806640625,-2.6405773162841797,-1.221757173538208,1.0929722785949707
1772535410340110800,4.68511083984375,-2.4766740798950195,-1.3007194995880127,1.2083284854888916
1772535410350045200,4.695045166015625,-2.4446096420288086,-1.3464605808258057,1.208103060722351
1772535410359975400,4.704975341796875,-2.453892707824707,-1.3617188930511475,1.073979377746582
1772535410369945600,4.714945556640625,-2.447751045227051,-1.3679916858673096,0.9275774955749512
1772535410379880200,4.724880126953125,-2.374547004699707,-1.3629395961761475,0.8393557071685791
1772535410389806300,4.734806396484375,-2.2915163040161133,-1.3035342693328857,0.7539535760879517
1772535410399740000,4.744739990234375,-2.3412723541259766,-1.2195594310760498,0.6237614750862122
1772535410409671400,4.75467138671875,-2.4229774475097656,-1.0304193496704102,0.6036374568939209
1772535410419604700,4.764604736328125,-2.5323028564453125,-0.7786321640014648,0.7143210172653198
1772535410429521200,4.774521240234375,-2.61785888671875,-0.49071455001831055,0.897308349609375
1772535410439453000,4.784452880859375,-2.604522705078125,-0.11688804626464844,1.065085768699646
1772535410449388300,4.79438818359375,-2.422147750854492,0.24871444702148438,1.214845061302185
1772535410459320300,4.8043203125,-2.08579158782959,0.5815587043762207,1.3519439697265625
1772535410469250300,4.814250244140625,-1.5621271133422852,0.9229493141174316,1.520552396774292
1772535410479182300,4.824182373046875,-0.9178066253662109,1.203700065612793,1.6990413665771484
1772535410489112000,4.834112060546875,-0.2617473602294922,1.363511562347412,1.8665049076080322
1772535410499043600,4.844043701171875,0.37870121002197266,1.481724739074707,1.9959983825683594
1772535410508983000,4.853983154296875,0.9949455261230469,1.4999418258666992,1.9558897018432617
1772535410518915300,4.863915283203125,1.5782585144042969,1.2168612480163574,1.7194762229919434
1772535410528839700,4.873839599609375,2.1295289993286133,0.775609016418457,1.3461132049560547
1772535410538771200,4.883771240234375,2.611299514770508,0.21398687362670898,0.8992186784744263
1772535410548714800,4.89371484375,3.0377798080444336,-0.18447589874267578,0.3717879056930542
1772535410558647600,4.9036474609375,3.3941078186035156,-0.4752540588378906,0.03436088562011719
1772535410568578600,4.91357861328125,3.8040666580200195,-0.5806369781494141,-0.37496376037597656
1772535410578511000,4.923510986328125,4.0869855880737305,-0.5540523529052734,-0.6858179569244385
1772535410588432000,4.933431884765625,3.977733612060547,-0.5453920364379883,-0.6599005460739136
1772535410598363400,4.94336328125,3.396245002746582,-0.3292660713195801,-0.5448052883148193
1772535410608296400,4.95329638671875,2.503026008605957,0.049922943115234375,-0.4264683723449707
1772535410618228000,4.96322802734375,1.6983213424682617,0.5371532440185547,-0.13658905029296875
1772535410628161500,4.97316162109375,1.1651935577392578,1.0213518142700195,0.277632474899292
1772535410638093600,4.983093505859375,1.1911334991455078,1.185549259185791,0.7102464437484741
1772535410648022800,4.993022705078125,2.003310203552246,0.9331879615783691,1.1052013635635376
1772535410657954300,5.002954345703125,3.5396080017089844,0.43124961853027344,1.3201184272766113
1772535410667898400,5.0128984375,4.98139762878418,-0.34218883514404297,1.3568129539489746
1772535410677831200,5.0228310546875,6.115711212158203,-1.2184300422668457,1.2713316679000854
1772535410687758800,5.0327587890625,7.0305280685424805,-1.8046934604644775,0.9152979254722595
1772535410697691100,5.042691162109375,7.3013763427734375,-2.243213176727295,0.5958002805709839
1772535410707626000,5.0526259765625,6.525537490844727,-2.570075511932373,0.3117462396621704
1772535410717558500,5.06255859375,4.801012992858887,-2.705449104309082,0.08021581172943115
1772535410727480000,5.07247998046875,2.6584272384643555,-2.713010787963867,0.12254345417022705
1772535410737411600,5.08241162109375,0.5190792083740234,-2.6092958450317383,0.385479211807251
1772535410747352600,5.0923525390625,-1.2967538833618164,-2.302935838699341,0.5847634673118591
1772535410757284900,5.102284912109375,-2.6821131706237793,-1.8895742893218994,0.8397413492202759
1772535410767211800,5.112211669921875,-3.632591724395752,-1.5319995880126953,1.0790863037109375
1772535410777143600,5.1221435546875,-4.0697455406188965,-1.2248339653015137,1.1607333421707153
1772535410787074000,5.132073974609375,-3.931718349456787,-1.1678504943847656,1.217132806777954
1772535410797005800,5.142005859375,-3.617499828338623,-1.2727165222167969,1.319906234741211
1772535410806940200,5.151940185546875,-3.3053994178771973,-1.3980226516723633,1.3769302368164062
1772535410816872000,5.161871826171875,-2.9545083045959473,-1.4487745761871338,1.4122499227523804
1772535410826804200,5.17180419921875,-2.581467628479004,-1.472832441329956,1.471224069595337
1772535410836736300,5.181736328125,-2.2453508377075195,-1.4607770442962646,1.4877853393554688
1772535410846692400,5.1916923828125,-2.10091495513916,-1.4594881534576416,1.4465525150299072
1772535410856627000,5.201626953125,-2.1224021911621094,-1.5084164142608643,1.3859343528747559
1772535410866503400,5.21150341796875,-2.3098506927490234,-1.567371129989624,1.2771968841552734
1772535410886392800,5.231392822265625,-2.6067771911621094,-1.5351927280426025,1.0530586242675781
1772535410896324600,5.24132470703125,-2.6913299560546875,-1.5602810382843018,0.8196327090263367
1772535410906260500,5.251260498046875,-2.8004956245422363,-1.6379287242889404,0.5087867975234985
1772535410916192500,5.261192626953125,-2.86336088180542,-1.709979772567749,0.1470283567905426
1772535410926120200,5.2711201171875,-2.850879192352295,-1.735131025314331,-0.18897974491119385
1772535410936052000,5.281052001953125,-2.8672165870666504,-1.5918152332305908,-0.41208165884017944
1772535410945958400,5.29095849609375,-3.035881519317627,-1.2341845035552979,-0.5159860849380493
1772535410955887600,5.3008876953125,-3.12284517288208,-0.7581195831298828,-0.6158950924873352
1772535410965821200,5.3108212890625,-3.0475096702575684,-0.28783226013183594,-0.7403830289840698
1772535410975751000,5.3207509765625,-2.7191848754882812,0.21430730819702148,-0.8798040151596069
1772535410985720300,5.33072021484375,-2.1898841857910156,0.6697826385498047,-0.9131217002868652
1772535410995654100,5.340654052734375,-1.7066946029663086,0.9419498443603516,-0.9267281293869019
1772535411005582300,5.350582275390625,-1.55999755859375,1.1636452674865723,-1.054611325263977
1772535411015515400,5.360515380859375,-1.5350046157836914,1.417954921722412,-1.2397249937057495
1772535411025440000,5.37043994140625,-1.451690673828125,1.63145112991333,-1.4476754665374756
1772535411035372300,5.380372314453125,-1.3353700637817383,1.8543353080749512,-1.6611055135726929
1772535411045304300,5.39030419921875,-1.0966062545776367,2.1224470138549805,-1.9319634437561035
1772535411055236900,5.40023681640625,-0.7031588554382324,2.3850207328796387,-2.133601188659668
1772535411065172500,5.41017236328125,-0.20830726623535156,2.6048593521118164,-2.1995632648468018
1772535411075105000,5.42010498046875,0.4359140396118164,2.7815027236938477,-2.1358771324157715
1772535411085031400,5.430031494140625,1.1824140548706055,2.884603977203369,-1.9981608390808105
1772535411094963500,5.43996337890625,1.8417301177978516,2.8539161682128906,-1.8590248823165894
1772535411104908300,5.449908203125,2.4060487747192383,2.6395788192749023,-1.9788620471954346
1772535411114841600,5.459841552734375,3.043668746948242,2.1783905029296875,-2.298618793487549
1772535411124762600,5.4697626953125,3.7609386444091797,1.8829584121704102,-2.8852126598358154
1772535411134694700,5.479694580078125,4.02086067199707,2.0009407997131348,-3.368116855621338
1772535411144623400,5.489623291015625,3.4486007690429688,1.9279260635375977,-3.2008543014526367
1772535411154555100,5.49955517578125,2.5204954147338867,1.933631420135498,-2.835695266723633
1772535411164495600,5.50949560546875,1.7088079452514648,2.191437244415283,-2.505419969558716
1772535411174428200,5.51942822265625,1.292799949645996,2.6268696784973145,-2.2156171798706055
1772535411184350500,5.5293505859375,1.6141729354858398,2.909532070159912,-2.1214213371276855
1772535411194282000,5.539281982421875,2.704073905944824,2.6901540756225586,-2.193709135055542
1772535411204189400,5.549189453125,3.8990516662597656,1.922957420349121,-2.362673759460449
1772535411214118700,5.55911865234375,4.54827880859375,0.9517998695373535,-2.698997735977173
1772535411224078300,5.569078369140625,4.5484209060668945,0.024806976318359375,-3.1235218048095703
1772535411234010600,5.5790107421875,4.126945495605469,-0.7994434833526611,-3.229917526245117
1772535411243955000,5.588954833984375,3.412735939025879,-1.2315852642059326,-3.0872597694396973
1772535411253888500,5.598888427734375,2.5034379959106445,-1.3161275386810303,-2.8618950843811035
1772535411263813400,5.6088134765625,1.6907157897949219,-1.3140952587127686,-2.6635303497314453
1772535411273746200,5.61874609375,1.3428401947021484,-1.4031283855438232,-2.381371021270752
1772535411283668200,5.628668212890625,1.3299446105957031,-1.4586570262908936,-1.8667349815368652
1772535411293599700,5.638599853515625,1.2817707061767578,-1.2756521701812744,-1.4187085628509521
1772535411303539500,5.64853955078125,1.2431821823120117,-0.9935500621795654,-1.2998237609863281
1772535411313471700,5.6584716796875,1.2335824966430664,-1.0294172763824463,-1.3025988340377808
1772535411323405600,5.668405517578125,1.2920026779174805,-1.3658719062805176,-1.2562371492385864
1772535411333338000,5.678338134765625,1.3578195571899414,-1.6895966529846191,-1.0911976099014282
1772535411343265800,5.688265869140625,1.1522722244262695,-1.8449797630310059,-0.8785097599029541
1772535411353197800,5.69819775390625,0.5825109481811523,-1.9240398406982422,-0.6063593626022339
1772535411363132700,5.708132568359375,-0.11191463470458984,-1.975266456604004,-0.2729254961013794
1772535411373065200,5.718065185546875,-0.8124756813049316,-2.016139030456543,0.07118916511535645
1772535411382992600,5.72799267578125,-1.5777521133422852,-2.073741912841797,0.49053049087524414
1772535411392924400,5.73792431640625,-2.362128257751465,-2.0556087493896484,0.978999137878418
1772535411402866400,5.747866455078125,-3.068066120147705,-1.8461518287658691,1.3941798210144043
1772535411412799200,5.75779931640625,-3.6609034538269043,-1.5450708866119385,1.7545677423477173
1772535411422699800,5.76769970703125,-3.9192357063293457,-1.2632567882537842,2.0341527462005615
1772535411432629200,5.777629150390625,-3.8304266929626465,-1.0140087604522705,2.113546848297119
1772535411442563000,5.78756298828125,-3.409019947052002,-1.057415246963501,1.9056144952774048
1772535411452493000,5.7974931640625,-2.921412944793701,-1.336364984512329,1.6398204565048218
1772535411462420500,5.80742041015625,-2.379439353942871,-1.5897042751312256,1.3732757568359375
1772535411472350000,5.817349853515625,-1.8996315002441406,-1.7239158153533936,1.0312914848327637
1772535411492251400,5.83725146484375,-1.5349054336547852,-1.9240634441375732,0.3959871530532837
1772535411502185500,5.847185546875,-1.6936836242675781,-1.8318002223968506,0.2185220718383789
1772535411512081700,5.85708154296875,-1.9556665420532227,-1.6521961688995361,0.18117570877075195
1772535411522012200,5.86701220703125,-2.2361459732055664,-1.4143688678741455,0.2725398540496826
1772535411531981600,5.876981689453125,-2.4700098037719727,-1.1175751686096191,0.4322153925895691
1772535411541916000,5.886916015625,-2.7457756996154785,-0.7320899963378906,0.5567253828048706
1772535411551822800,5.89682275390625,-3.013947010040283,-0.2530665397644043,0.7903249859809875
1772535411561754600,5.906754638671875,-3.1341195106506348,0.2746405601501465,1.0383208990097046
1772535411571680500,5.916680419921875,-2.8850951194763184,0.825078010559082,1.395796775817871
1772535411581611500,5.926611572265625,-2.2976932525634766,1.2841339111328125,1.9541940689086914
1772535411591538400,5.936538330078125,-1.4390630722045898,1.6750860214233398,2.547220230102539
1772535411601469200,5.94646923828125,-0.47054052352905273,2.1114978790283203,2.9527008533477783
1772535411611422500,5.95642236328125,0.6048440933227539,2.343285083770752,2.973452091217041
1772535411621355500,5.96635546875,1.8225860595703125,2.1672182083129883,2.6610405445098877
1772535411631284200,5.9762841796875,2.7178516387939453,1.6023521423339844,2.1732077598571777
1772535411641216500,5.986216552734375,3.2279491424560547,0.8920121192932129,1.7411491870880127
1772535411651165000,5.9961650390625,3.4741477966308594,0.44924068450927734,1.34380042552948
1772535411661099000,6.00609912109375,3.714228630065918,0.11101865768432617,1.1142417192459106
1772535411671019800,6.016019775390625,4.0810546875,-0.10686397552490234,0.9960339069366455
1772535411680952300,6.025952392578125,4.503130912780762,-0.08466720581054688,0.6552998423576355
1772535411690855700,6.035855712890625,4.495146751403809,-0.12084531784057617,0.45143550634384155
1772535411700785400,6.045785400390625,3.9065418243408203,-0.07174253463745117,0.3189568519592285
1772535411710742000,6.055741943359375,3.0799522399902344,0.296018123626709,0.14960622787475586
1772535411720674600,6.065674560546875,2.2740821838378906,0.6277446746826172,0.15071558952331543
1772535411730604000,6.07560400390625,1.561014175415039,0.9323081970214844,0.27449798583984375
1772535411740536300,6.085536376953125,0.9264650344848633,1.300489902496338,0.39510035514831543
1772535411750476500,6.0954765625,0.36457347869873047,1.3798513412475586,0.6626150608062744
1772535411760409600,6.10540966796875,0.4840106964111328,0.9877781867980957,1.0610401630401611
1772535411770348000,6.11534814453125,1.4710569381713867,0.2419729232788086,1.4544063806533813
1772535411780281600,6.125281494140625,3.0007238388061523,-0.19656133651733398,1.5371760129928589
1772535411790200300,6.135200439453125,4.6872053146362305,-0.548032283782959,1.5680515766143799
1772535411800132400,6.14513232421875,5.969655990600586,-1.092390537261963,1.8057878017425537
1772535411810066000,6.15506591796875,6.406770706176758,-1.3533003330230713,1.8253980875015259
1772535411819998000,6.164998046875,5.757402420043945,-1.3048369884490967,1.5904910564422607
1772535411829925000,6.174925048828125,4.336963653564453,-1.2868640422821045,1.258243441581726
1772535411839857000,6.18485693359375,2.522907257080078,-1.3831589221954346,1.133385181427002
1772535411849793300,6.194793212890625,0.6951141357421875,-1.5075781345367432,1.1451647281646729
1772535411859725600,6.2047255859375,-0.8390927314758301,-1.48398756980896,0.9575797915458679
1772535411869658000,6.214658203125,-1.9961309432983398,-1.4403603076934814,0.7412617802619934
1772535411879590100,6.224590087890625,-2.7373924255371094,-1.423555612564087,0.5320732593536377
1772535411889519400,6.234519287109375,-2.9397997856140137,-1.2714049816131592,0.01932370662689209
1772535411899451100,6.244451171875,-2.5161733627319336,-1.2434260845184326,-0.4256882071495056
1772535411909392600,6.254392578125,-1.7637481689453125,-1.55613112449646,-0.4659307599067688
1772535411919325700,6.26432568359375,-1.0877909660339355,-2.011904716491699,-0.2855913043022156
1772535411929244000,6.274243896484375,-0.7501583099365234,-2.18196964263916,-0.08008652925491333
1772535411939175200,6.284175048828125,-0.789947509765625,-2.091709613800049,0.0041787028312683105
1772535411949118200,6.2941181640625,-1.0580248832702637,-2.0189919471740723,0.0896572470664978
1772535411959050800,6.30405078125,-1.435546875,-1.956617832183838,0.23366829752922058
1772535411968978000,6.31397802734375,-2.0285959243774414,-1.834177017211914,0.38692957162857056
1772535411978910000,6.323909912109375,-2.7916698455810547,-1.6211466789245605,0.6399128437042236
1772535411988842500,6.333842529296875,-3.2372241020202637,-1.2115018367767334,0.8069825172424316
1772535411998774500,6.3437744140625,-3.1555752754211426,-0.8208487033843994,0.7810009121894836
1772535412008708400,6.353708251953125,-2.8931379318237305,-0.81972336769104,0.6661516427993774
1772535412018640400,6.363640380859375,-2.6447153091430664,-1.0770223140716553,0.4716561734676361
1772535412028564200,6.373564208984375,-2.5370864868164062,-1.2720634937286377,0.196051687002182
1772535412038495700,6.383495849609375,-2.592348098754883,-1.2696025371551514,-0.13324134051799774
1772535412048445000,6.39344482421875,-2.7620182037353516,-1.1139914989471436,-0.42479878664016724
1772535412058378200,6.403378173828125,-2.845675468444824,-0.8287498950958252,-0.5353538393974304
1772535412068272000,6.413272216796875,-2.8249711990356445,-0.48001527786254883,-0.4431685209274292
1772535412078201600,6.42320166015625,-2.839003562927246,-0.04321718215942383,-0.294765442609787
1772535412088156700,6.43315673828125,-2.6972198486328125,0.5544819831848145,-0.11768698692321777
1772535412098088700,6.443088623046875,-2.233583450317383,1.1086950302124023,-0.10690772533416748
1772535412108000300,6.453000244140625,-1.5770606994628906,1.3929414749145508,-0.10559985041618347
1772535412117930200,6.46293017578125,-0.927182674407959,1.4904513359069824,-0.13401231169700623
1772535412127894000,6.47289404296875,-0.3161172866821289,1.547480583190918,-0.35441601276397705
1772535412137827300,6.482827392578125,0.24741649627685547,1.65370512008667,-0.6374813318252563
1772535412147762700,6.4927626953125,0.7208023071289062,1.6752853393554688,-0.8438600301742554
1772535412157696300,6.5026962890625,1.0567941665649414,1.6838898658752441,-0.8516629934310913
1772535412167621600,6.51262158203125,1.2036104202270508,1.7840356826782227,-0.7567805647850037
1772535412177554200,6.52255419921875,1.219015121459961,1.9706411361694336,-0.7112248539924622
1772535412187480000,6.53247998046875,1.2892351150512695,2.118946075439453,-0.6670304536819458
1772535412197412000,6.542412109375,1.4809036254882812,2.1512985229492188,-0.6947791576385498
1772535412207345400,6.552345458984375,1.8035993576049805,2.1187963485717773,-0.7073637247085571
1772535412217277700,6.562277587890625,2.295328140258789,2.0300755500793457,-0.8319331407546997
1772535412227190500,6.5721904296875,2.922954559326172,1.9213109016418457,-1.1045689582824707
1772535412237120800,6.582120849609375,3.5932350158691406,2.0029358863830566,-1.7021318674087524
1772535412247044900,6.592044921875,3.402647018432617,2.1017584800720215,-1.8650096654891968
1772535412256974600,6.601974609375,2.186298370361328,1.5028729438781738,-0.8352074027061462
1772535412266941400,6.61194140625,1.0290288925170898,0.9087123870849609,0.2884765565395355
1772535412276874800,6.621874755859375,0.5824613571166992,1.1111583709716797,0.46811893582344055
1772535412286796500,6.631796630859375,0.7463703155517578,1.6789069175720215,0.20509573817253113
1772535412296728800,6.641728759765625,1.313960075378418,2.014035224914551,-0.05033618211746216
1772535412306637300,6.65163720703125,2.0466270446777344,1.925015926361084,-0.3675035536289215
1772535412316567000,6.661567138671875,2.7259130477905273,1.5304551124572754,-0.8874890804290771
1772535412326527700,6.67152783203125,3.219487190246582,0.8339128494262695,-1.5551007986068726
1772535412336460500,6.68146044921875,3.4716310501098633,0.010373115539550781,-2.2147152423858643
1772535412346397200,6.691397216796875,3.2114486694335938,-0.9898819923400879,-2.650580883026123
1772535412356330800,6.701330810546875,2.448915481567383,-1.9698469638824463,-2.8552610874176025
1772535412366262800,6.7112626953125,1.4317388534545898,-2.5491318702697754,-2.8371894359588623
1772535412376196000,6.721196044921875,0.5367221832275391,-2.717139720916748,-2.575801372528076
1772535412386095900,6.731095947265625,-0.05137443542480469,-2.530022621154785,-2.0750627517700195
1772535412396025600,6.741025634765625,-0.15263080596923828,-2.30246639251709,-1.6375688314437866
1772535412405961000,6.7509609375,0.23812103271484375,-2.2667813301086426,-1.3679618835449219
1772535412415891500,6.760891357421875,0.7697906494140625,-2.2999467849731445,-1.0690016746520996
1772535412435777500,6.780777587890625,1.0584993362426758,-2.1724319458007812,-0.16210389137268066
1772535412455651300,6.8006513671875,0.47828006744384766,-1.4035604000091553,0.6219081878662109
1772535412465572900,6.81057275390625,0.17608165740966797,-1.1147511005401611,0.5843591690063477
1772535412475505200,6.820505126953125,-0.15700817108154297,-1.092541217803955,0.5133991241455078
1772535412485438700,6.830438720703125,-0.7304863929748535,-1.2841746807098389,0.3550574481487274
1772535412495371000,6.84037109375,-1.4732351303100586,-1.366229772567749,0.18969641625881195
1772535412505304800,6.850304931640625,-2.245062828063965,-1.3275163173675537,0.05538111925125122
1772535412515237400,6.8602373046875,-2.8496432304382324,-1.241708755493164,0.0439169704914093
1772535412525165600,6.87016552734375,-3.253396511077881,-1.106278419494629,0.21301445364952087
1772535412535097600,6.88009765625,-3.479038715362549,-1.030801773071289,0.40961870551109314
1772535412545028600,6.890028564453125,-3.5952486991882324,-1.0130462646484375,0.5358659625053406
1772535412554960600,6.899960693359375,-3.5257554054260254,-0.9959225654602051,0.6677049398422241
1772535412564890600,6.909890625,-3.1456942558288574,-0.9336404800415039,0.893120288848877
1772535412574822700,6.91982275390625,-2.5251083374023438,-0.8108282089233398,1.0877623558044434
1772535412584761600,6.92976171875,-1.8522109985351562,-0.7041521072387695,1.089113712310791
1772535412594694000,6.93969384765625,-1.3097076416015625,-0.7431502342224121,0.8576412200927734
1772535412604600000,6.94960009765625,-0.9796428680419922,-0.8668832778930664,0.4321417212486267
1772535412614530000,6.959530029296875,-0.9157390594482422,-1.000319004058838,-0.09952330589294434
1772535412624465400,6.96946533203125,-1.1487207412719727,-0.9530816078186035,-0.49337756633758545
1772535412634395600,6.979395751953125,-1.5776262283325195,-0.6319499015808105,-0.5280569195747375
1772535412644329200,6.9893291015625,-2.0659637451171875,-0.20189380645751953,-0.28106510639190674
1772535412654260000,6.999260009765625,-2.369485855102539,0.2812795639038086,0.05774754285812378
1772535412664193500,7.009193603515625,-2.2965993881225586,0.7667593955993652,0.18352091312408447
1772535412674124500,7.01912451171875,-1.8599929809570312,1.1250576972961426,0.18025052547454834
1772535412684053000,7.029052978515625,-1.1462774276733398,1.1659770011901855,0.320218026638031
1772535412693983700,7.038983642578125,-0.2725067138671875,1.1579279899597168,0.5524994134902954
1772535412703922400,7.04892236328125,0.6739912033081055,1.2475237846374512,0.7849657535552979
1772535412713854000,7.05885400390625,1.3711175918579102,1.369802474975586,0.9702728986740112
1772535412723780000,7.068780029296875,1.614206314086914,1.3931455612182617,1.0117844343185425
1772535412733711000,7.078711181640625,1.6026639938354492,1.3465943336486816,0.8363935351371765
1772535412743646200,7.088646240234375,1.5675344467163086,1.2888107299804688,0.6615698933601379
1772535412753577700,7.09857763671875,1.5388164520263672,1.096367359161377,0.5888093113899231
1772535412763515600,7.108515625,1.3807563781738281,0.7872591018676758,0.4720907211303711
1772535412773447700,7.11844775390625,1.169219970703125,0.5395207405090332,0.3223746716976166
1772535412783395800,7.128395751953125,1.1093997955322266,0.43812990188598633,0.19562190771102905
1772535412793329700,7.13832958984375,1.4207916259765625,0.34674501419067383,0.18848669528961182
1772535412803243300,7.1482431640625,2.028087615966797,0.13602209091186523,0.07565605640411377
1772535412813175000,7.158175048828125,2.8150415420532227,0.21493291854858398,-0.3595138192176819
1772535412823136300,7.16813623046875,3.108222007751465,0.4227180480957031,-0.6304129362106323
1772535412833070800,7.17807080078125,2.662167549133301,0.16486454010009766,-0.27418649196624756
1772535412842966300,7.18796630859375,2.1672019958496094,0.05033540725708008,0.2981065511703491
1772535412852897000,7.19789697265625,1.887497901916504,0.35701990127563477,0.5153123140335083
1772535412862857500,7.207857421875,1.572026252746582,0.500694751739502,0.6415534019470215
1772535412872791300,7.217791259765625,1.433058738708496,0.43312978744506836,0.9992427825927734
1772535412882720000,7.227719970703125,1.7162666320800781,0.46352481842041016,1.407299518585205
1772535412892653300,7.2376533203125,2.5117597579956055,0.44299983978271484,1.688295841217041
1772535412902587100,7.247587158203125,3.278453826904297,0.06353473663330078,1.8812341690063477
1772535412912520400,7.2575205078125,3.5834264755249023,-0.6549487113952637,2.000141143798828
1772535412922446300,7.2674462890625,3.531619071960449,-1.1866683959960938,1.9293670654296875
1772535412932378600,7.277378662109375,3.225261688232422,-1.299839973449707,1.51710045337677
1772535412942308000,7.28730810546875,2.651547431945801,-1.2741189002990723,1.1173464059829712
1772535412952240400,7.297240478515625,1.7873039245605469,-1.2915959358215332,0.8140978217124939
1772535412962172200,7.307172119140625,0.789463996887207,-1.421278953552246,0.5445505380630493
1772535412972104200,7.317104248046875,-0.2541818618774414,-1.5426292419433594,0.3562667965888977
1772535412982049000,7.327049072265625,-1.2666301727294922,-1.5483598709106445,0.28687238693237305
1772535412991982300,7.336982421875,-2.000020980834961,-1.3636374473571777,0.26544898748397827
1772535413001907200,7.3469072265625,-2.3398494720458984,-1.2164859771728516,0.217502623796463
1772535413011839700,7.35683984375,-2.4217605590820312,-1.2439765930175781,0.13094791769981384
1772535413021760300,7.36676025390625,-2.4118947982788086,-1.3575019836425781,-0.0450860857963562
1772535413031691500,7.37669140625,-2.3606834411621094,-1.4076342582702637,-0.1768741011619568
1772535413041605600,7.386605712890625,-2.3951969146728516,-1.4310593605041504,-0.193697988986969
1772535413051535400,7.396535400390625,-2.385481834411621,-1.400416374206543,-0.049510657787323
1772535413061489400,7.406489501953125,-2.3120508193969727,-1.4169092178344727,0.16796144843101501
1772535413071421400,7.41642138671875,-2.2218494415283203,-1.424748420715332,0.274827241897583
1772535413081355300,7.426355224609375,-2.1519908905029297,-1.368678092956543,0.3258042633533478
1772535413091287600,7.43628759765625,-2.0822134017944336,-1.2699651718139648,0.39997148513793945
1772535413101219600,7.446219482421875,-1.9400510787963867,-1.168487548828125,0.4666111469268799
1772535413111151900,7.45615185546875,-1.6821422576904297,-1.0842914581298828,0.46841979026794434
1772535413121086700,7.466086669921875,-1.4365558624267578,-1.100226879119873,0.38510897755622864
1772535413131019300,7.476019287109375,-1.388284683227539,-1.1890625953674316,0.2565433084964752
1772535413140946400,7.485946533203125,-1.6513919830322266,-1.2547411918640137,0.1000967025756836
1772535413150878200,7.495878173828125,-2.049917221069336,-1.280249834060669,-0.11478722095489502
1772535413160813600,7.5058134765625,-2.3753528594970703,-1.1430492401123047,-0.2518012523651123
1772535413170745900,7.515745849609375,-2.5623674392700195,-0.8795294761657715,-0.32792651653289795
1772535413180684300,7.525684326171875,-2.6162919998168945,-0.5471072196960449,-0.4655953645706177
1772535413190617000,7.5356171875,-2.5031700134277344,-0.28646373748779297,-0.6272439360618591
1772535413200547300,7.54554736328125,-2.308185577392578,-0.08576202392578125,-0.6310936808586121
1772535413210479900,7.55547998046875,-2.0592031478881836,0.16297149658203125,-0.5838117003440857
1772535413220399900,7.56539990234375,-1.780008316040039,0.4735145568847656,-0.5706374049186707
1772535413230331100,7.5753310546875,-1.4995708465576172,0.8364896774291992,-0.6490052342414856
1772535413240278300,7.5852783203125,-1.2466678619384766,1.2186613082885742,-0.8841702938079834
1772535413250211000,7.595211181640625,-0.9834766387939453,1.5255241394042969,-1.1063960790634155
1772535413260139000,7.605138916015625,-0.6773848533630371,1.6250104904174805,-1.1625382900238037
1772535413270071600,7.615071533203125,-0.3198661804199219,1.6483397483825684,-1.1766228675842285
1772535413279998200,7.624998291015625,0.15053081512451172,1.7067337036132812,-1.2374186515808105
1772535413289930200,7.63493017578125,0.6955089569091797,1.9002118110656738,-1.3243070840835571
1772535413299858000,7.64485791015625,1.2014131546020508,2.0879602432250977,-1.3976486921310425
1772535413309789200,7.6547890625,1.6076641082763672,2.062281608581543,-1.4314264059066772
1772535413319726300,7.664726318359375,1.9059295654296875,1.9651455879211426,-1.479245662689209
1772535413329658400,7.674658447265625,2.13095760345459,1.937758445739746,-1.549349069595337
1772535413339580200,7.684580078125,2.1647701263427734,1.9584307670593262,-1.4858503341674805
1772535413349511200,7.69451123046875,2.0173816680908203,1.936471939086914,-1.3510849475860596
1772535413359453000,7.704452880859375,1.9887361526489258,2.022744655609131,-1.3223077058792114
1772535413369385000,7.714385009765625,2.2157325744628906,2.3869056701660156,-1.7889277935028076
1772535413379317500,7.7243173828125,1.9679746627807617,2.779262065887451,-2.2692151069641113
1772535413389249500,7.73424951171875,1.0119094848632812,2.3172683715820312,-1.8007311820983887
1772535413399179500,7.744179443359375,0.4212980270385742,1.4576196670532227,-0.985907256603241
1772535413409111600,7.754111572265625,0.8870468139648438,1.2361927032470703,-0.94992995262146
1772535413419050800,7.76405078125,1.5867424011230469,1.4967632293701172,-1.2360501289367676
1772535413428983600,7.773983642578125,1.9398670196533203,1.7564144134521484,-1.3848190307617188
1772535413438916600,7.78391650390625,2.401312828063965,1.8803486824035645,-1.6589603424072266
1772535413448849400,7.793849365234375,3.0337982177734375,1.5999937057495117,-1.8482083082199097
1772535413458770200,7.803770263671875,3.4816513061523438,0.96014404296875,-2.0366899967193604
1772535413468701700,7.81370166015625,3.5388355255126953,0.11438417434692383,-2.176595687866211
1772535413478634800,7.823634765625,3.1944141387939453,-0.7061524391174316,-2.266965866088867
1772535413508396000,7.85339599609375,-0.13072872161865234,-1.8550984859466553,-1.7737268209457397
1772535413528281600,7.873281494140625,-1.0225467681884766,-1.7002465724945068,-1.4040510654449463
1772535413538216200,7.88321630859375,-0.7972826957702637,-1.5812938213348389,-1.1965961456298828
1772535413548156200,7.89315625,-0.3083372116088867,-1.5654489994049072,-0.9246225953102112
1772535413558091300,7.90309130859375,0.26492786407470703,-1.4709537029266357,-0.6795271039009094
1772535413568031500,7.913031494140625,0.7871665954589844,-1.3405635356903076,-0.457963764667511
1772535413577967000,7.922967041015625,1.0082263946533203,-1.2875306606292725,-0.28251492977142334
1772535413587886300,7.93288623046875,0.872283935546875,-1.197500467300415,-0.14639759063720703
1772535413597820200,7.942820068359375,0.5561418533325195,-1.102236270904541,-0.15099060535430908
1772535413607770000,7.95277001953125,0.09702682495117188,-0.979945182800293,-0.15984028577804565
1772535413627611600,7.972611572265625,-0.9346795082092285,-0.7545514106750488,-0.0745018720626831
1772535413637544200,7.982544189453125,-1.523116111755371,-0.8349180221557617,0.007597684860229492
1772535413647446000,7.992446044921875,-2.1913576126098633,-0.8999171257019043,-0.05803966522216797
1772535413657375500,8.00237548828125,-2.8024096488952637,-1.0041775703430176,-0.20204991102218628
1772535413667346400,8.012346435546876,-3.157832622528076,-1.1686110496520996,-0.26283276081085205
1772535413677280000,8.022280029296875,-3.159203052520752,-1.3005993366241455,-0.24903112649917603
1772535413687206400,8.032206298828125,-2.783252239227295,-1.4628398418426514,-0.18523317575454712
1772535413697139200,8.04213916015625,-2.339646339416504,-1.5908939838409424,-0.11010891199111938
1772535413707081200,8.052081298828124,-2.0176610946655273,-1.7401058673858643,-0.1558033525943756
1772535413717015000,8.06201513671875,-1.7768287658691406,-1.8945481777191162,-0.19077956676483154
1772535413726984400,8.071984375,-1.653151512145996,-1.9096581935882568,-0.13300931453704834
1772535413736921900,8.081921875,-1.7927131652832031,-1.7743847370147705,-0.03879725933074951
1772535413746800000,8.091800048828125,-2.0941295623779297,-1.6094262599945068,-0.0580715537071228
1772535413756731600,8.101731689453125,-2.575900077819824,-1.511145830154419,-0.11387556791305542
1772535413766662100,8.111662109375,-3.118709087371826,-1.3021924495697021,-0.2499961256980896
1772535413776593400,8.121593505859375,-3.5374503135681152,-0.9855098724365234,-0.29742497205734253
1772535413786498800,8.131498779296875,-3.835261821746826,-0.5614485740661621,-0.025378882884979248
1772535413796427500,8.141427490234374,-3.891624927520752,-0.0768747329711914,0.09332266449928284
1772535413806374000,8.151373779296875,-3.829420566558838,0.25339841842651367,0.19935917854309082
1772535413816304400,8.161304443359375,-3.6412558555603027,0.5617737770080566,0.22527597844600677
1772535413826237400,8.171237548828126,-3.0425467491149902,0.8558368682861328,0.26468074321746826
1772535413836168200,8.181168212890626,-1.8159513473510742,1.0520944595336914,0.3769373893737793
1772535413846136800,8.19113671875,0.014299392700195312,1.1353302001953125,0.607440710067749
1772535413856071200,8.2010712890625,1.9016685485839844,1.1334166526794434,0.8057199716567993
1772535413865964000,8.210964111328124,3.492645263671875,1.0578632354736328,1.045612096786499
1772535413875894300,8.220894287109376,4.725214004516602,1.1926894187927246,1.2335551977157593
1772535413885821700,8.23082177734375,5.264674186706543,1.3489456176757812,1.351690411567688
1772535413895752000,8.240751953125,5.166638374328613,1.3660612106323242,1.412139654159546
1772535413905694200,8.250694091796875,4.6467180252075195,1.2698802947998047,1.2679367065429688
1772535413915625500,8.26062548828125,4.009091377258301,1.0032596588134766,1.060878038406372
1772535413925551900,8.2705517578125,3.5953712463378906,0.5851140022277832,0.8334544897079468
1772535413935482600,8.280482666015626,3.442551612854004,0.1832594871520996,0.6803762912750244
1772535413945414700,8.29041455078125,3.4740428924560547,0.03981351852416992,0.44192928075790405
1772535413955345700,8.300345703125,3.46083927154541,0.4109044075012207,0.0562821626663208
1772535413965285000,8.31028515625,2.8587493896484375,0.5263800621032715,0.21275022625923157
1772535413975217000,8.320216796875,2.1481714248657227,0.3216514587402344,0.7807629108428955
1772535413985163500,8.33016357421875,1.8127670288085938,0.511479377746582,1.0922625064849854
1772535413995096600,8.3400966796875,1.5499401092529297,0.8198609352111816,1.1643632650375366
1772535414005039600,8.35003955078125,1.1676483154296875,0.8994803428649902,1.3239719867706299
1772535414014974000,8.359973876953125,1.002920150756836,0.8166265487670898,1.4919183254241943
1772535414024895200,8.369895263671875,1.2351789474487305,0.5307769775390625,1.6604313850402832
1772535414034828300,8.379828369140625,1.8692607879638672,-0.016813278198242188,1.7692861557006836
1772535414044758500,8.389758544921875,2.6875858306884766,-0.5395479202270508,1.861162543296814
1772535414054691300,8.39969140625,3.35983943939209,-0.9256899356842041,1.9260663986206055
1772535414064617000,8.409616943359374,3.742487907409668,-1.216113805770874,1.8905712366104126
1772535414074549000,8.419549072265625,4.020346641540527,-1.205531358718872,1.8048075437545776
1772535414084479200,8.429479248046874,3.9715795516967773,-1.1238653659820557,1.597747802734375
1772535414094411000,8.439410888671874,3.4456825256347656,-1.137164831161499,1.3370532989501953
1772535414104343300,8.44934326171875,2.4537696838378906,-1.1652896404266357,1.0769374370574951
1772535414114275300,8.459275390625,1.1721820831298828,-1.081458330154419,0.8688012361526489
1772535414124211000,8.4692109375,-0.024727821350097656,-0.9366710186004639,0.7231529355049133
1772535414134143200,8.479143310546876,-0.9410872459411621,-0.7995877265930176,0.5596710443496704
1772535414144070100,8.489070068359375,-1.4897518157958984,-0.7508931159973145,0.27538707852363586
1772535414154002000,8.499001953125,-1.7636423110961914,-0.8264122009277344,0.04113423824310303
1772535414163936300,8.508936279296876,-1.758544921875,-0.8586344718933105,-0.1514054536819458
1772535414173868300,8.518868408203126,-1.5509614944458008,-0.8957347869873047,-0.26385653018951416
1772535414183801300,8.52880126953125,-1.3649616241455078,-0.995919942855835,-0.309894859790802
1772535414193733400,8.5387333984375,-1.2521467208862305,-1.0693180561065674,-0.25585293769836426
1772535414203674000,8.548674072265625,-1.2356328964233398,-1.0833685398101807,-0.08881828188896179
1772535414213607200,8.558607177734375,-1.2006301879882812,-1.0666544437408447,0.24559243023395538
1772535414223539000,8.5685390625,-1.099398136138916,-0.9762372970581055,0.5781952142715454
1772535414233471700,8.5784716796875,-1.0939126014709473,-0.932708740234375,0.8039616346359253
1772535414243405300,8.5884052734375,-1.3454704284667969,-0.9567995071411133,0.852808952331543
1772535414253338400,8.59833837890625,-1.800607681274414,-0.9775581359863281,0.6782203912734985
1772535414263262000,8.608261962890625,-2.311014175415039,-1.0856516361236572,0.4461619257926941
1772535414273194000,8.618194091796875,-2.7006101608276367,-1.198570966720581,0.3512427806854248
1772535414283121700,8.62812158203125,-2.779280662536621,-1.1815226078033447,0.2524110674858093
1772535414293053400,8.638053466796874,-2.538564682006836,-1.1392271518707275,0.1513586938381195
1772535414302989800,8.64798974609375,-2.1982412338256836,-1.1397650241851807,0.1803787797689438
1772535414312921900,8.657921875,-1.948190689086914,-1.0706632137298584,0.23486453294754028
1772535414322860000,8.667860107421875,-1.8202028274536133,-0.9295501708984375,0.20012493431568146
1772535414332792800,8.677792724609375,-1.8560409545898438,-0.7085342407226562,0.014637857675552368
1772535414342725400,8.687725341796876,-2.0743770599365234,-0.46503782272338867,-0.3282037079334259
1772535414352658200,8.697658203125,-2.3558168411254883,-0.2175135612487793,-0.6137714982032776
1772535414362580200,8.707580322265626,-2.73445463180542,0.10172414779663086,-0.9176108241081238
1772535414372511700,8.71751171875,-3.034424304962158,0.4982442855834961,-1.1294866800308228
1772535414382443500,8.727443603515624,-3.0479979515075684,0.7742643356323242,-1.1611511707305908
1772535414392375300,8.737375244140624,-2.6725573539733887,1.0858254432678223,-1.0851798057556152
1772535414402309400,8.747309326171875,-2.129444122314453,1.262704849243164,-0.8289029002189636
1772535414412241200,8.7572412109375,-1.4855852127075195,1.425060749053955,-0.3640545606613159
1772535414422170600,8.767170654296875,-0.8316717147827148,1.6115484237670898,-0.03830355405807495
1772535414432102100,8.77710205078125,-0.220001220703125,1.7503294944763184,-0.007117241621017456
1772535414442012400,8.787012451171876,0.2647972106933594,1.8060169219970703,-0.3002142608165741
1772535414451942000,8.79694189453125,0.5580101013183594,1.708765983581543,-0.639979362487793
1772535414461899800,8.806899658203125,0.5608053207397461,1.5763978958129883,-0.7732393741607666
1772535414471832000,8.81683203125,0.42623043060302734,1.6054072380065918,-0.7579940557479858
1772535414481791200,8.826791259765624,0.32032108306884766,1.749847412109375,-0.6743754148483276
1772535414491726300,8.836726318359375,0.30373096466064453,1.8395123481750488,-0.5869177579879761
1772535414501631000,8.846630859375,0.4904603958129883,1.93721342086792,-0.6871472597122192
1772535414511563000,8.85656298828125,1.0186309814453125,2.3102359771728516,-1.3132059574127197
1772535414521488100,8.866488037109375,1.1401214599609375,2.925497055053711,-2.076566696166992
1772535414531419400,8.87641943359375,0.2701539993286133,2.80056095123291,-1.7014477252960205
1772535414541354200,8.886354248046874,-0.35792112350463867,2.0408987998962402,-0.6898987293243408
1772535414551286000,8.8962861328125,0.2756795883178711,1.6459035873413086,-0.36300790309906006
1772535414561217000,8.906217041015625,1.2565383911132812,1.6480774879455566,-0.692064642906189
1772535414571148500,8.9161484375,2.098917007446289,1.4757108688354492,-0.9063114523887634
1772535414581098500,8.926098388671875,3.1330690383911133,1.2532577514648438,-1.1635022163391113
1772535414591031800,8.93603173828125,4.165861129760742,1.0194683074951172,-1.6451696157455444
1772535414600948700,8.94594873046875,4.959136009216309,0.5366964340209961,-2.130317449569702
1772535414610880500,8.955880615234374,5.155896186828613,-0.0839385986328125,-2.4516806602478027
1772535414620824600,8.965824462890625,4.45082950592041,-0.7576394081115723,-2.553921699523926
1772535414630757600,8.975757568359375,3.1225624084472656,-1.2309446334838867,-2.248342514038086
1772535414640654300,8.985654296875,1.7751760482788086,-1.4036028385162354,-1.6550170183181763
1772535414650583600,8.99558349609375,0.7101192474365234,-1.4134008884429932,-1.0642391443252563
1772535414660513800,9.005513671875,-0.05276966094970703,-1.4222781658172607,-0.6387966871261597
1772535414670443300,9.015443359375,-0.6209168434143066,-1.374685525894165,-0.5195827484130859
1772535414680409300,9.025409423828124,-0.9714193344116211,-1.3462779521942139,-0.7292044162750244
1772535414690342400,9.03534228515625,-1.0427751541137695,-1.3612654209136963,-1.0071784257888794
1772535414700268800,9.045268798828126,-0.730384349822998,-1.4490416049957275,-1.1707370281219482
1772535414710201000,9.055201171875,-0.3151378631591797,-1.58357834815979,-1.1610865592956543
1772535414720129000,9.06512890625,0.052124977111816406,-1.6576883792877197,-1.033952236175537
1772535414730061000,9.07506103515625,0.38246822357177734,-1.596350908279419,-0.8719446063041687
1772535414739992600,9.08499267578125,0.5816965103149414,-1.46341872215271,-0.7202167510986328
1772535414749924600,9.094924560546875,0.45601558685302734,-1.3381578922271729,-0.5777557492256165
1772535414759854800,9.104854736328125,-0.08350658416748047,-1.1461117267608643,-0.3390805125236511
1772535414769786600,9.11478662109375,-0.8787846565246582,-0.939307689666748,-0.04586207866668701
1772535414779732500,9.124732421875,-1.6495780944824219,-0.7620477676391602,0.3823811709880829
1772535414789665800,9.134665771484375,-2.4079275131225586,-0.590949535369873,0.6325254440307617
1772535414799587300,9.14458740234375,-3.032416820526123,-0.5503287315368652,0.6789027452468872
1772535414809519000,9.15451904296875,-3.302206516265869,-0.7063279151916504,0.5793902277946472
1772535414819447600,9.164447509765624,-3.186422824859619,-0.9653706550598145,0.3642708659172058
1772535414829379000,9.174379150390624,-2.805062770843506,-1.170177936553955,0.12566602230072021
1772535414839313200,9.184313232421875,-2.319788932800293,-1.3373987674713135,-0.015104830265045166
1772535414849245000,9.194244873046875,-1.8243436813354492,-1.4464538097381592,-0.14191746711730957
1772535414859178500,9.204178466796876,-1.392949104309082,-1.524956464767456,-0.17139607667922974
1772535414869110500,9.214110595703126,-1.104771614074707,-1.5284125804901123,-0.05977123975753784
1772535414879043800,9.2240439453125,-0.9961843490600586,-1.4116942882537842,0.18002080917358398
1772535414888976100,9.23397607421875,-0.9511508941650391,-1.1148326396942139,0.4613131880760193
1772535414898909200,9.2439091796875,-0.9782915115356445,-0.7019295692443848,0.7019887566566467
1772535414908841500,9.253841552734375,-1.158522605895996,-0.17809391021728516,0.8457258939743042
1772535414918779400,9.263779296875,-1.5066394805908203,0.26215410232543945,0.906965970993042
1772535414928712200,9.273712158203125,-1.9426469802856445,0.6356930732727051,0.8576958179473877
1772535414938633700,9.2836337890625,-2.224576950073242,0.9880704879760742,0.778343915939331
1772535414948565200,9.293565185546875,-2.3162078857421875,1.2546191215515137,0.6793197393417358
1772535414958501600,9.303501708984374,-2.148007392883301,1.46205472946167,0.6595728397369385
1772535414968433700,9.31343359375,-1.5741338729858398,1.6469335556030273,0.7391073107719421
1772535414978360800,9.32336083984375,-0.7196135520935059,1.7664775848388672,0.815117597579956
1772535414988292600,9.333292724609375,0.23513221740722656,1.8136286735534668,0.8915638327598572
1772535414998202600,9.34320263671875,1.325368881225586,1.8191184997558594,0.9066044688224792
1772535415008132000,9.353132080078124,2.1519346237182617,1.7322673797607422,0.8121094107627869
1772535415018100200,9.363100341796875,2.5207395553588867,1.5288782119750977,0.7194952964782715
1772535415028033500,9.373033447265625,2.527804374694824,1.2158160209655762,0.6375806927680969
1772535415037929200,9.38292919921875,2.392183303833008,0.9199738502502441,0.5563855171203613
1772535415047859000,9.39285888671875,2.3373804092407227,0.5664525032043457,0.495988667011261
1772535415057797400,9.40279736328125,2.4294261932373047,0.13626432418823242,0.3663397431373596
1772535415067728000,9.412727783203126,2.7677526473999023,-0.2325296401977539,0.10166072845458984
1772535415077686300,9.422686279296874,3.552727699279785,-0.34186601638793945,-0.3576849699020386
1772535415087619600,9.43261962890625,4.533783912658691,-0.08474397659301758,-0.9579551815986633
1772535415097531000,9.44253076171875,4.879883766174316,-0.18169450759887695,-1.1634342670440674
1772535415107462100,9.452462158203126,4.640888214111328,-0.7649550437927246,-0.9679675102233887
1772535415117420800,9.4624208984375,4.36956787109375,-0.9527802467346191,-0.9023172855377197
1772535415127354600,9.472354736328125,3.901930809020996,-0.7032294273376465,-0.9559707641601562
1772535415137284600,9.48228466796875,3.2265243530273438,-0.44331836700439453,-0.8074290752410889
1772535415147218000,9.492218017578125,2.535365104675293,-0.05779218673706055,-0.25731372833251953
1772535415157147600,9.502147705078125,2.120138168334961,0.33432483673095703,0.7085546255111694
1772535415167080700,9.512080810546875,2.0260534286499023,0.4823026657104492,1.4807920455932617
1772535415177011000,9.522010986328125,2.038358688354492,0.2466449737548828,1.8462684154510498
1772535415186943700,9.53194384765625,2.1172266006469727,-0.05373239517211914,1.9185234308242798
1772535415196863500,9.541863525390625,1.9995527267456055,-0.32258033752441406,1.7821369171142578
1772535415206795000,9.551794921875,1.5700559616088867,-0.5528073310852051,1.6420449018478394
1772535415216726800,9.561726806640625,0.9839401245117188,-0.6280660629272461,1.5654075145721436
1772535415226658300,9.571658203125,0.31760692596435547,-0.6804733276367188,1.4031579494476318
1772535415236595200,9.58159521484375,-0.4401826858520508,-0.7775163650512695,1.1622318029403687
1772535415246527200,9.59152734375,-1.0671873092651367,-0.8914861679077148,1.020805835723877
1772535415256452900,9.601452880859375,-1.355574607849121,-0.8808364868164062,1.0563383102416992
1772535415266384100,9.611384033203125,-1.4021997451782227,-0.9067015647888184,1.1545076370239258
1772535415276304600,9.6213046875,-1.282923698425293,-0.9598226547241211,1.2816697359085083
1772535415286235000,9.63123486328125,-1.182708740234375,-1.065119743347168,1.3540936708450317
1772535415296195300,9.6411953125,-1.1481456756591797,-1.1416704654693604,1.3123723268508911
1772535415306128600,9.651128662109375,-1.1550378799438477,-1.160325288772583,1.2244685888290405
1772535415316044500,9.66104443359375,-1.169966697692871,-1.1781809329986572,1.0411262512207031
1772535415325976000,9.67097607421875,-1.2025794982910156,-1.2623717784881592,0.8197535872459412
1772535415335910400,9.680910400390625,-1.3481340408325195,-1.4089829921722412,0.611149787902832
1772535415345842200,9.69084228515625,-1.5441532135009766,-1.5327646732330322,0.35478535294532776
1772535415355775000,9.70077490234375,-1.766754150390625,-1.6249711513519287,0.18860101699829102
1772535415365707000,9.71070703125,-1.9540672302246094,-1.6527040004730225,0.23540103435516357
1772535415375650300,9.720650390625,-1.972991943359375,-1.6249878406524658,0.3110942840576172
1772535415385583400,9.730583251953124,-1.8250064849853516,-1.6261041164398193,0.3051418364048004
1772535415395503600,9.740503662109376,-1.620427131652832,-1.6748301982879639,0.2281312346458435
1772535415405435400,9.750435302734376,-1.4394445419311523,-1.667290449142456,0.15617108345031738
1772535415415370800,9.760370849609375,-1.2811975479125977,-1.5803539752960205,0.2045067548751831
1772535415425302800,9.770302734375,-1.2927007675170898,-1.3581278324127197,0.3240424692630768
1772535415435234800,9.78023486328125,-1.7111434936523438,-1.012132167816162,0.5271346569061279
1772535415445167000,9.7901669921875,-2.292203903198242,-0.5281672477722168,0.537976861000061
1772535415455096800,9.800096923828125,-2.7029919624328613,-0.11915111541748047,0.37889915704727173
1772535415465028900,9.81002880859375,-2.9747509956359863,0.29457902908325195,0.14627039432525635
1772535415474965000,9.819965087890624,-3.0908303260803223,0.6591310501098633,-0.11182403564453125
1772535415484897500,9.8298974609375,-2.872323513031006,0.8875365257263184,-0.31276100873947144
1772535415494808800,9.839808837890626,-2.3640565872192383,0.9628443717956543,-0.4112064838409424
1772535415514666500,9.85966650390625,-1.0721006393432617,0.7687234878540039,-0.6046029925346375
1772535415524598300,9.869598388671875,-0.4801802635192871,0.8766775131225586,-0.880709707736969
1772535415534562600,9.8795625,0.08774280548095703,0.8994712829589844,-1.0207295417785645
1772535415544497400,9.889497314453125,0.3477792739868164,0.9197702407836914,-0.9528454542160034
1772535415554414800,9.899414794921874,0.2065134048461914,1.1988153457641602,-0.8881878852844238
1772535415564348200,9.90934814453125,-0.16490840911865234,1.5752229690551758,-0.7501401901245117
1772535415574288000,9.919287841796875,-0.5582365989685059,1.8206706047058105,-0.3987267017364502
1772535415584221700,9.9292216796875,-0.7945041656494141,1.7839674949645996,0.19938600063323975
1772535415594155000,9.939155029296876,-0.0948953628540039,1.6647286415100098,0.6331253051757812
1772535415604088600,9.949088623046874,-0.8834161758422852,2.366654872894287,0.14822542667388916
1772535415614003700,9.959003662109374,-1.7944879531860352,2.7811384201049805,-0.18814027309417725
1772535415623935700,9.968935791015625,-0.12596940994262695,2.893402576446533,-0.014555931091308594
1772535415633866800,9.97886669921875,2.9386253356933594,2.4776854515075684,0.5239737033843994
1772535415643798500,9.988798583984375,5.0472412109375,1.761916160583496,0.7133846282958984
1772535415653732600,9.998732666015625,5.8882551193237305,1.5725245475769043,-0.5634872913360596
1772535415663664600,10.00866455078125,4.159945487976074,1.6101555824279785,-1.75627601146698
1772535415673609500,10.018609375,0.9364509582519531,1.0906634330749512,-0.9892125129699707
1772535415683542800,10.028542724609375,-0.6632080078125,0.6439094543457031,0.014785170555114746
1772535415693461800,10.038461669921874,-0.8569631576538086,1.1243195533752441,-0.3402070999145508
