time,seconds_elapsed,z,y,x
1772535405920456700,0.265456787109375,7.910073280334473,5.648856163024902,-0.6149554252624512
1772535405930395600,0.275395751953125,7.953144073486328,5.715855121612549,-0.380458801984787
1772535405940307500,0.285307373046875,7.953144073486328,5.744568824768066,-0.2315055876970291
1772535405950235600,0.295235595703125,7.857431411743164,5.854638576507568,-0.24107688665390015
1772535405960172500,0.305172607421875,7.642077445983887,6.161518096923828,-0.2847459018230438
1772535405970104000,0.31510400390625,7.235297679901123,6.539584159851074,-0.24107688665390015
1772535405980080600,0.32508056640625,6.847062110900879,6.955935478210449,-0.13100704550743103
1772535405990030300,0.3350302734375,6.708278179168701,7.181458950042725,0.0077766734175384045
1772535405999898000,0.344898193359375,6.708278179168701,7.358527660369873,0.3044866919517517
1772535406009814500,0.354814453125,6.823133945465088,7.549953460693359,0.46719861030578613
1772535406019774200,0.364774169921875,7.072585582733154,7.688737392425537,0.5150550603866577
1772535406029708000,0.3747080078125,7.4362945556640625,7.674380302429199,0.6586244106292725
1772535406039639000,0.38463916015625,7.867002487182617,7.564310550689697,0.8697910308837891
1772535406049571800,0.39457177734375,8.221738815307617,7.511668682098389,1.085145115852356
1772535406059491000,0.404490966796875,8.666803359985352,7.545167922973633,1.2430713176727295
1772535406069418500,0.41441845703125,9.457033157348633,7.526025295257568,1.3674981594085693
1772535406079353900,0.424353759765625,10.788041114807129,7.281957626342773,1.3052847385406494
1772535406089284400,0.434284423828125,12.028120994567871,6.836294174194336,0.735194742679596
1772535406099220500,0.444220458984375,12.354143142700195,6.52044153213501,-0.41874396800994873
1772535406109153300,0.4541533203125,11.970693588256836,6.343372821807861,-1.8215361833572388
1772535406119087000,0.464087158203125,10.936395645141602,6.065805435180664,-2.6021945476531982
1772535406129020400,0.4740205078125,9.940383911132812,5.959922790527344,-2.190030813217163
1772535406138944800,0.48394482421875,9.509675025939941,6.616154670715332,-1.8550357818603516
1772535406148874200,0.493874267578125,9.284749984741211,7.076174736022949,-1.4530415534973145
1772535406158809300,0.503809326171875,9.217751502990723,7.167101860046387,-0.8015955686569214
1772535406168741000,0.5137412109375,9.46181869506836,7.616952896118164,0.046061836183071136
1772535406178675500,0.523675537109375,9.57188892364502,8.244470596313477,0.9846464991569519
1772535406188608300,0.533608154296875,8.95394229888916,8.536395072937012,1.592423439025879
1772535406198542600,0.54354248046875,7.953144073486328,8.651249885559082,1.7216359376907349
1772535406208476000,0.553475830078125,7.216155052185059,8.646464347839355,1.4249259233474731
1772535406218407000,0.563406982421875,6.981060028076172,8.301898002624512,0.9224331378936768
1772535406228340200,0.57334033203125,7.187440872192383,7.640881061553955,0.529412031173706
1772535406238283000,0.583282958984375,7.5463643074035645,7.143173694610596,0.06041877344250679
1772535406248217000,0.593217041015625,7.991429328918457,6.903293132781982,-0.3278166949748993
1772535406258138000,0.60313818359375,8.85344409942627,6.8171515464782715,-0.48574298620224
1772535406268071000,0.61307080078125,9.538389205932617,6.7070817947387695,-0.5240281820297241
1772535406277991400,0.622991455078125,9.79681396484375,6.592226505279541,-0.36610186100006104
1772535406297867800,0.64286767578125,9.5862455368042,6.142375946044922,0.0077766734175384045
1772535406307800800,0.65280078125,9.21296501159668,5.9264235496521,-0.01136590726673603
1772535406317721300,0.662721435546875,8.48016357421875,5.6344990730285645,-0.28953152894973755
1772535406327652900,0.67265283203125,7.584649562835693,5.385645389556885,-0.6293123364448547
1772535406337588500,0.68258837890625,6.813562393188477,5.246861934661865,-0.9020941257476807
1772535406347520500,0.6925205078125,6.296712875366211,5.237290382385254,-0.9882357716560364
1772535406357447200,0.702447265625,6.215356826782227,5.380859851837158,-0.8973084688186646
1772535406367378700,0.712378662109375,6.478567123413086,5.543571949005127,-0.5383850932121277
1772535406377292000,0.7222919921875,6.736992359161377,5.754140377044678,-0.001794616924598813
1772535406387221800,0.7322216796875,6.6939215660095215,5.9407806396484375,0.4815555512905121
1772535406397171000,0.7421708984375,6.200999736785889,5.994020938873291,0.7016952633857727
1772535406407102500,0.7521025390625,5.434698581695557,6.017949104309082,0.6299105882644653
1772535406417044200,0.762044189453125,4.5200419425964355,5.811567783355713,0.4863412082195282
1772535406426976800,0.771976806640625,2.7625136375427246,5.653641700744629,-0.20757736265659332
1772535406436912600,0.78191259765625,1.7234305143356323,5.830710411071777,-0.6005984544754028
1772535406446845400,0.791845458984375,2.1547367572784424,5.720640659332275,-0.41874396800994873
1772535406456734700,0.801734619140625,3.6340994834899902,5.256433010101318,-0.23629122972488403
1772535406476629200,0.821629150390625,5.5830535888671875,4.849055290222168,-0.3517449200153351
1772535406486564900,0.83156494140625,6.057430744171143,5.0362935066223145,-0.5000999569892883
1772535406496488400,0.841488525390625,5.894120216369629,5.021936416625977,-0.5527420043945312
1772535406506422800,0.8514228515625,5.090131759643555,4.753342151641846,-0.3852444589138031
1772535406516351700,0.861351806640625,4.0797624588012695,4.691128730773926,-0.7489534616470337
1772535406526285600,0.87128564453125,3.040679454803467,4.432703971862793,-0.9978070259094238
1772535406536217300,0.88121728515625,2.5950162410736084,4.427918434143066,-1.155733346939087
1772535406546151000,0.89115087890625,2.978466033935547,4.786841869354248,-1.6109678745269775
1772535406556083500,0.90108349609375,4.051048755645752,5.021936416625977,-1.7497515678405762
1772535406566017000,0.91101708984375,5.492125988006592,5.199005603790283,-1.7784653902053833
1772535406575928600,0.920928466796875,6.74656343460083,5.605785369873047,-1.8598214387893677
1772535406585860000,0.930860107421875,7.235297679901123,5.979663848876953,-1.960319995880127
1772535406595823900,0.940823974609375,6.966702938079834,6.214160442352295,-1.8598214387893677
1772535406605758500,0.950758544921875,6.019145488739014,6.654439926147461,-1.8502501249313354
1772535406615700700,0.96070068359375,4.7401814460754395,7.41117000579834,-1.7784653902053833
1772535406625636000,0.970635986328125,3.868596076965332,8.206185340881348,-1.3286148309707642
1772535406635513300,0.980513427734375,3.7776687145233154,8.9910306930542,-0.6819544434547424
1772535406645442800,0.99044287109375,4.247260093688965,9.594620704650879,-0.04486542567610741
1772535406655377400,1.00037744140625,4.980062007904053,9.92961597442627,0.3044866919517517
1772535406665307400,1.010307373046875,5.889334678649902,10.058828353881836,0.45284169912338257
1772535406675273200,1.020273193359375,6.909275531768799,10.068399429321289,0.4815555512905121
1772535406685207000,1.03020703125,7.800003528594971,10.068399429321289,0.3475574851036072
1772535406695147500,1.0401474609375,8.551948547363281,9.953543663024902,0.07477571070194244
1772535406705081900,1.050081787109375,9.404391288757324,9.69511890411377,-0.12622138857841492
1772535406714991400,1.059991455078125,10.069596290588379,9.41755199432373,-0.2847459018230438
1772535406724923100,1.069923095703125,10.357333183288574,9.32183837890625,-0.48574298620224
1772535406734835500,1.07983544921875,10.491331100463867,9.44626522064209,-0.6867401003837585
1772535406744765400,1.089765380859375,10.773683547973633,9.843474388122559,-0.8877372145652771
1772535406754730500,1.09973046875,10.898110389709473,10.106684684753418,-0.48095735907554626
1772535406764663800,1.109663818359375,11.041680335998535,10.265209197998047,0.6251249313354492
1772535406774564900,1.11956494140625,10.878968238830566,10.341779708862305,1.4057832956314087
1772535406784494800,1.129494873046875,10.314262390136719,10.39920711517334,1.4727823734283447
1772535406794423800,1.139423828125,9.442676544189453,10.738987922668457,0.649053156375885
1772535406804354000,1.14935400390625,8.437092781066895,11.097911834716797,-0.4713860750198364
1772535406814289400,1.159289306640625,7.622934818267822,10.930414199829102,-1.3668999671936035
1772535406824220000,1.169219970703125,7.201797962188721,10.101899147033691,-1.960319995880127
1772535406834173700,1.179173583984375,7.125227451324463,8.847461700439453,-2.6213371753692627
1772535406844106800,1.189106689453125,7.57507848739624,7.425527095794678,-3.071187973022461
1772535406854035000,1.199034912109375,8.336593627929688,6.434299945831299,-3.1956145763397217
1772535406863967500,1.208967529296875,8.949156761169434,5.888138294219971,-3.0281169414520264
1772535406873910500,1.21891064453125,9.236893653869629,5.519643783569336,-2.0608184337615967
1772535406883844000,1.228843994140625,9.145966529846191,5.624927997589111,-1.098305583000183
1772535406893775600,1.238775634765625,8.49452018737793,6.013163089752197,-0.5048855543136597
1772535406903709000,1.248708984375,7.316653251647949,6.1950178146362305,-0.3326023519039154
1772535406913655300,1.2586552734375,5.827121257781982,6.022734642028809,-0.5718846321105957
1772535406923590000,1.26858984375,4.405186653137207,5.725426197052002,-0.9547362327575684
1772535406933493800,1.27849365234375,3.318246841430664,5.505286693572998,-1.2562319040298462
1772535406943425300,1.28842529296875,2.709871530532837,5.409573554992676,-1.25144624710083
1772535406953364000,1.298364013671875,2.4993033409118652,5.232504844665527,-1.1365907192230225
1772535406963296000,1.3082958984375,2.4323041439056396,4.95493745803833,-1.0265209674835205
1772535406973228800,1.318228759765625,2.504088878631592,4.609772682189941,-0.7968099117279053
1772535406983161000,1.3281611328125,2.9353952407836914,4.3657050132751465,-0.5958128571510315
1772535406993088300,1.338088134765625,3.4713873863220215,4.217350006103516,-0.3038884699344635
1772535407003020000,1.34802001953125,3.768097400665283,3.833899974822998,-0.06400800496339798
1772535407012948700,1.35794873046875,3.806382656097412,3.441477060317993,0.13220344483852386
1772535407022880300,1.36788037109375,3.4953157901763916,3.4510483741760254,0.19920247793197632
1772535407032812000,1.37781201171875,3.270390272140503,3.824328899383545,0.11306086927652359
1772535407042743600,1.38774365234375,4.218546390533447,4.332205295562744,-0.380458801984787
1772535407052683500,1.39768359375,6.220142364501953,4.480560302734375,-0.7585247755050659
1772535407062616000,1.407615966796875,8.374878883361816,4.2987060546875,-0.8159525394439697
1772535407072544000,1.4175439453125,9.930811882019043,4.04985237121582,-0.9499505758285522
1772535407082475800,1.427475830078125,10.520044326782227,3.6329028606414795,-1.1988041400909424
1772535407092414700,1.437414794921875,10.788041114807129,3.6089746952056885,-1.2562319040298462
1772535407102347500,1.447347412109375,10.893324851989746,4.04985237121582,-1.0456634759902954
1772535407112268800,1.457268798828125,9.892526626586914,4.561916351318359,-0.8063812255859375
1772535407122200300,1.467200439453125,8.446663856506348,5.151148796081543,-0.672383189201355
1772535407132129000,1.47712890625,7.71386194229126,5.840281963348389,-0.5240281820297241
1772535407142060300,1.487060302734375,7.522436141967773,6.329015731811523,-0.13100704550743103
1772535407151998700,1.496998779296875,7.004988193511963,6.573083877563477,0.03170489892363548
1772535407161930800,1.5069306640625,6.344569206237793,6.865008354187012,-0.06400800496339798
1772535407171870500,1.516870361328125,5.946762561798096,7.315456867218018,-0.22193430364131927
1772535407181803300,1.52680322265625,5.90369176864624,7.679165840148926,-0.36610186100006104
1772535407191722500,1.536722412109375,6.110072612762451,7.861020565032959,-0.23629122972488403
1772535407201653800,1.54665380859375,6.545566558837891,8.038089752197266,0.0029910283628851175
1772535407211585000,1.5565849609375,7.173084259033203,8.210970878601074,0.07477571070194244
1772535407221516300,1.566516357421875,7.599006652832031,8.25404167175293,0.06999006122350693
1772535407231453000,1.576452880859375,7.8765740394592285,8.163114547729492,0.12741780281066895
1772535407241385000,1.586385009765625,8.307880401611328,8.018946647644043,0.20877377688884735
1772535407251326000,1.596325927734375,9.030512809753418,7.94716215133667,0.2183450609445572
1772535407261258800,1.6062587890625,9.600603103637695,7.990232944488525,0.1657029688358307
1772535407271188700,1.616188720703125,9.662816047668457,8.052446365356445,0.14656038582324982
1772535407281121300,1.626121337890625,9.476176261901855,8.067401885986328,0.2231307178735733
1772535407291042600,1.63604248046875,9.30867862701416,8.292326927185059,-0.22193430364131927
1772535407300974000,1.64597412109375,9.193822860717773,8.656036376953125,-1.0360921621322632
1772535407310879500,1.65587939453125,8.738588333129883,8.62732219696045,-1.4291132688522339
1772535407320808400,1.665808349609375,8.126026153564453,8.297112464904785,-1.9411773681640625
1772535407330777600,1.675777587890625,7.809575080871582,8.004590034484863,-2.630908489227295
1772535407340710700,1.685710693359375,7.5463643074035645,7.511668682098389,-2.946761131286621
1772535407350639900,1.695639892578125,7.441080093383789,6.97986364364624,-2.788834810256958
1772535407360572400,1.705572509765625,7.823931694030762,7.028318405151367,-1.989033818244934
1772535407370494700,1.71549462890625,8.097311973571777,7.281957626342773,-0.4139583110809326
1772535407380426200,1.72542626953125,7.814360618591309,7.325028419494629,1.3866406679153442
1772535407390355500,1.73535546875,7.4602227210998535,7.368099212646484,2.507079839706421
1772535407400286500,1.745286376953125,7.579864025115967,7.459026336669922,2.5884358882904053
1772535407410221800,1.755221923828125,8.432307243347168,7.22452974319458,2.066800594329834
1772535407420153600,1.765153564453125,9.528818130493164,6.31944465637207,1.2430713176727295
1772535407430103300,1.775103271484375,10.18026351928711,5.376074314117432,0.26620152592658997
1772535407440036600,1.78503662109375,10.381260871887207,4.738985061645508,-0.729810893535614
1772535407449951500,1.794951416015625,10.137192726135254,4.442275047302246,-1.3812568187713623
1772535407459883000,1.804883056640625,9.33739185333252,4.408775806427002,-1.2370892763137817
1772535407469814300,1.814814208984375,7.977072715759277,4.504488468170166,-0.37088751792907715
1772535407479745800,1.824745849609375,6.4115681648254395,4.657629489898682,0.6634100675582886
1772535407489686300,1.834686279296875,5.30548620223999,4.8538408279418945,1.5493526458740234
1772535407499618800,1.844618896484375,4.864608287811279,5.093721389770508,2.42093825340271
1772535407509517600,1.854517578125,4.716253280639648,5.32821798324585,2.8277182579040527
1772535407519446800,1.86444677734375,4.563112735748291,5.285147190093994,2.837289333343506
1772535407529405400,1.874405517578125,4.524827480316162,4.964509010314941,2.4640090465545654
1772535407539337500,1.88433740234375,4.649254322052002,4.667200565338135,1.8077775239944458
1772535407549269000,1.89426904296875,4.840680122375488,4.408775806427002,1.0612168312072754
1772535407559201000,1.904200927734375,4.984847545623779,4.001996040344238,0.4336991012096405
1772535407569109800,1.91410986328125,5.1906304359436035,3.5324044227600098,-0.01136590726673603
1772535407579039500,1.92403955078125,5.31984281539917,3.1830523014068604,-0.21714866161346436
1772535407588999200,1.933999267578125,5.31984281539917,2.9341988563537598,-0.21236300468444824
1772535407598932000,1.943931884765625,5.343770980834961,2.8624141216278076,-0.025722842663526535
1772535407608861700,1.95386181640625,5.578267574310303,3.0107691287994385,0.251844584941864
1772535407618794000,1.9637939453125,5.971288681030273,3.3505499362945557,0.5868397355079651
1772535407628720600,1.973720703125,6.2297139167785645,3.762115478515625,0.8793623447418213
1772535407638652400,1.98365234375,6.234499454498291,4.131208419799805,0.9559326171875
1772535407648587500,1.99358740234375,6.090929985046387,4.423132419586182,0.649053156375885
1772535407658519600,2.00351953125,5.731408596038818,4.676771640777588,0.06999006122350693
1772535407668447700,2.01344775390625,5.2145586013793945,4.89691162109375,-0.576670229434967
1772535407678379300,2.023379150390625,4.898108005523682,5.208576679229736,-1.2131611108779907
1772535407688317000,2.03331689453125,5.13320255279541,5.567500114440918,-1.7306089401245117
1772535407698249200,2.043249267578125,5.702694416046143,5.979663848876953,-1.8454644680023193
1772535407708153300,2.0531533203125,6.416353702545166,6.419943332672119,-1.673181176185608
1772535407718082800,2.063082763671875,7.106084823608398,6.821937561035156,-1.6301103830337524
1772535407728045300,2.07304541015625,7.819146156311035,7.315456867218018,-1.654038667678833
1772535407737978000,2.08297802734375,8.523234367370605,7.827520847320557,-1.7018951177597046
1772535407747886800,2.092886962890625,9.06401252746582,8.187042236328125,-1.8263218402862549
1772535407757817300,2.1028173828125,9.471389770507812,8.522037506103516,-2.1230318546295166
1772535407767765000,2.112764892578125,9.859027862548828,8.785248756408691,-2.702693223953247
1772535407777697000,2.122697021484375,10.06002426147461,8.689535140991211,-3.219542980194092
1772535407787637200,2.13263720703125,10.02173900604248,8.416753768920898,-3.7561333179473877
1772535407797570300,2.1425703125,9.911669731140137,8.139185905456543,-4.2346978187561035
1772535407807496200,2.15249609375,9.978668212890625,7.971090316772461,-4.527220249176025
1772535407817428500,2.162428466796875,10.208977699279785,7.894520282745361,-4.618147850036621
1772535407827359000,2.17235888671875,10.687541961669922,8.105687141418457,-4.890929698944092
1772535407837291000,2.182291015625,11.118250846862793,8.81396198272705,-5.37906551361084
1772535407847216400,2.19221630859375,10.730612754821777,9.005388259887695,-5.13021183013916
1772535407857147600,2.202147705078125,9.983454704284668,8.579465866088867,-4.67078971862793
1772535407867102500,2.2121025390625,9.715457916259766,8.177471160888672,-4.8191447257995605
1772535407877036300,2.222036376953125,9.868598937988281,7.932805061340332,-5.355136871337891
1772535407886964700,2.23196484375,10.093523979187012,7.7461652755737305,-5.867799282073975
1772535407896897800,2.241897705078125,10.218548774719238,7.573882102966309,-6.145366668701172
1772535407906798600,2.251798583984375,10.247262954711914,7.3776702880859375,-6.164509296417236
1772535407916728600,2.261728515625,10.366904258728027,6.927221775054932,-5.853442192077637
1772535407926664000,2.271663818359375,10.697113990783691,6.300302028656006,-5.3312087059021
1772535407936594400,2.281594482421875,10.945966720581055,5.5962138175964355,-4.704289436340332
1772535407946523400,2.2915234375,10.744970321655273,4.868197441101074,-4.019343852996826
1772535407956454000,2.301453857421875,9.93559741973877,4.403990268707275,-3.445066452026367
1772535407966385700,2.3113857421875,8.81515884399414,4.2556352615356445,-2.89890456199646
1772535407976316200,2.321316162109375,7.919644832611084,4.327419757843018,-2.338385820388794
1772535407986251800,2.331251708984375,7.622934818267822,4.5236310958862305,-2.1134605407714844
1772535407996183000,2.34118310546875,7.756932735443115,4.638486862182617,-2.2091734409332275
1772535408006117600,2.35111767578125,8.12123966217041,4.595416069030762,-2.290529489517212
1772535408016049000,2.361048828125,8.417949676513672,4.442275047302246,-2.1756739616394043
1772535408026006300,2.37100634765625,8.537590980529785,4.2795634269714355,-1.9555343389511108
1772535408035940400,2.3809404296875,8.595019340515137,4.145565032958984,-1.7641085386276245
1772535408045869600,2.39086962890625,8.556734085083008,4.045066833496094,-1.5296118259429932
1772535408055803000,2.400802978515625,8.154739379882812,3.9158542156219482,-1.1892328262329102
1772535408065726200,2.410726318359375,7.493722438812256,3.7286159992218018,-0.8303094506263733
1772535408075658800,2.42065869140625,6.823133945465088,3.6472599506378174,-0.3038884699344635
1772535408085593600,2.430593505859375,6.129215240478516,3.8051862716674805,0.07956135272979736
1772535408095526100,2.440526123046875,5.415555953979492,4.18863582611084,0.4384847581386566
1772535408105428000,2.450427978515625,4.878965377807617,4.418346881866455,0.6873382925987244
1772535408115357700,2.460357666015625,4.620540618896484,4.451846599578857,0.7447660565376282
1772535408125319400,2.4703193359375,4.6301116943359375,4.442275047302246,0.6825526356697083
1772535408135252200,2.480252197265625,4.8502516746521,4.260420799255371,0.5054838061332703
1772535408145181700,2.490181640625,5.50648307800293,3.9876389503479004,0.251844584941864
1772535408155114200,2.5001142578125,6.234499454498291,3.6568312644958496,-0.04007977992296219
1772535408165046000,2.5100458984375,6.727420806884766,3.4127633571624756,-0.3852444589138031
1772535408174978600,2.519978515625,7.000202655792236,3.2069804668426514,-0.849452018737793
1772535408184920600,2.529920654296875,7.220940589904785,3.163909673690796,-1.2610175609588623
1772535408194854100,2.539854248046875,7.398009300231934,3.3266217708587646,-1.563111424446106
1772535408204748000,2.549748046875,7.474579811096191,3.551547050476074,-1.6205391883850098
1772535408214677500,2.559677490234375,7.5702924728393555,3.872185230255127,-1.6444673538208008
1772535408224636000,2.569635986328125,7.666005611419678,4.31306266784668,-1.654038667678833
1772535408234568200,2.579568115234375,7.699504852294922,4.719842433929443,-1.6683956384658813
1772535408244505900,2.589505859375,7.747361660003662,5.041079044342041,-1.6636099815368652
1772535408254438700,2.599438720703125,7.957930088043213,5.443073272705078,-1.5583257675170898
1772535408264369400,2.609369384765625,8.346165657043457,5.9264235496521,-1.2897313833236694
1772535408274302000,2.619302001953125,8.877371788024902,6.338587284088135,-0.8781659007072449
1772535408284225300,2.629225341796875,9.624530792236328,6.563512325286865,-0.4139583110809326
1772535408294157000,2.639156982421875,10.30469036102295,6.726224422454834,-0.16929219663143158
1772535408304095700,2.649095703125,10.630114555358887,6.908079147338867,-0.13100704550743103
1772535408314028300,2.6590283203125,10.759326934814453,6.97986364364624,-0.25064817070961
1772535408323931600,2.668931640625,10.706685066223145,6.850651264190674,-0.4043870270252228
1772535408333861400,2.678861328125,10.342975616455078,6.56829833984375,-0.45224347710609436
1772535408343820800,2.68882080078125,9.844670295715332,6.2668023109436035,-0.6484549641609192
1772535408353753300,2.69875341796875,9.44746208190918,6.070590972900391,-0.9786644577980042
1772535408363688000,2.70868798828125,9.275178909301758,6.008377552032471,-1.5391831398010254
1772535408373620700,2.718620849609375,9.476176261901855,6.075376510620117,-2.300100803375244
1772535408383545000,2.728545166015625,9.691530227661133,5.854638576507568,-2.7074787616729736
1772535408393476900,2.738476806640625,9.715457916259766,5.5483574867248535,-2.7074787616729736
1772535408403413800,2.748413818359375,9.55753231048584,5.773283004760742,-2.669193744659424
1772535408413346000,2.758345947265625,9.093324661254883,6.329015731811523,-2.42512583732605
1772535408423279000,2.768279052734375,8.532805442810059,6.869793891906738,-1.965105652809143
1772535408433211600,2.778211669921875,7.9005022048950195,7.138388156890869,-1.4386845827102661
1772535408443113000,2.788113037109375,7.374081134796143,7.272386074066162,-0.9403793215751648
1772535408453042200,2.798042236328125,7.244868755340576,7.387241840362549,-0.5575276613235474
1772535408463007500,2.808007568359375,7.503293514251709,7.109674453735352,-0.24107688665390015
1772535408472940300,2.817940185546875,8.135597229003906,6.597012042999268,0.08434699475765228
1772535408482868700,2.82786865234375,9.189037322998047,6.161518096923828,0.23270200192928314
1772535408492801000,2.837801025390625,10.572687149047852,5.529214859008789,0.23748764395713806
1772535408502732000,2.84773193359375,11.975479125976562,4.8777689933776855,0.26620152592658997
1772535408512664300,2.857664306640625,12.981062889099121,4.485345840454102,0.07956135272979736
1772535408522597400,2.867597412109375,13.110275268554688,4.073780536651611,-0.09272187948226929
1772535408532529700,2.87752978515625,12.119048118591309,3.699902057647705,-0.2315055876970291
1772535408542457300,2.887457275390625,10.18026351928711,3.4989049434661865,-0.4139583110809326
1772535408552389000,2.89738916015625,7.919644832611084,3.43190598487854,-0.576670229434967
1772535408562321400,2.9073212890625,5.831906795501709,3.4031920433044434,-0.6675975322723389
1772535408572253400,2.91725341796875,3.9792640209198,3.3409786224365234,-0.9020941257476807
1772535408582186800,2.927186767578125,2.599801778793335,3.3409786224365234,-1.0456634759902954
1772535408592118800,2.937118896484375,2.0685951709747314,3.565903902053833,-1.1653046607971191
1772535408602058200,2.947058349609375,2.480160713195801,3.7286159992218018,-1.1365907192230225
1772535408611991000,2.956990966796875,3.452244758605957,3.422334671020508,-0.7393822073936462
1772535408621886500,2.966886474609375,4.66361141204834,2.9389843940734863,0.012562318705022335
1772535408631815400,2.9768154296875,5.922834396362305,2.56510591506958,0.6538388133049011
1772535408641752800,2.9867529296875,6.976274490356445,2.4646072387695312,1.3387842178344727
1772535408651682600,2.9966826171875,7.694719314575195,2.60339093208313,1.9519450664520264
1772535408661644000,3.00664404296875,7.733004570007324,2.8043880462646484,2.38265323638916
1772535408671577000,3.0165771484375,7.173084259033203,3.029911756515503,2.6219353675842285
1772535408681521000,3.02652099609375,6.392425537109375,3.3074791431427,2.7415764331817627
1772535408691455000,3.036455078125,5.812764644622803,3.5946178436279297,2.789433002471924
1772535408701325600,3.04632568359375,5.7170515060424805,3.978067636489868,2.760719060897827
1772535408711253200,3.056253173828125,6.153143405914307,4.456632137298584,2.6075785160064697
1772535408721231000,3.066231201171875,6.861418724060059,4.628915309906006,2.4496521949768066
1772535408731164000,3.076163818359375,7.359724044799805,4.370490550994873,2.4017956256866455
1772535408741103900,3.086103759765625,7.5272216796875,4.121636867523193,2.272583246231079
1772535408751037400,3.096037353515625,7.5272216796875,4.068994998931885,1.9519450664520264
1772535408760959500,3.10595947265625,7.498507976531982,4.164707660675049,1.5445669889450073
1772535408770891800,3.115891845703125,7.5463643074035645,4.475774765014648,1.2191431522369385
1772535408780786400,3.125786376953125,7.599006652832031,5.041079044342041,0.9846464991569519
1772535408790715100,3.135715087890625,7.603792190551758,5.80199670791626,0.7591229677200317
1772535408800698000,3.145697998046875,7.689933776855469,6.64486837387085,0.6442674994468689
1772535408810632200,3.155632080078125,8.087740898132324,7.521239757537842,0.6729813814163208
1772535408820558000,3.16555810546875,8.666803359985352,8.014161109924316,0.7495517134666443
1772535408830491400,3.175491455078125,9.141180992126465,8.072187423706055,0.6969096064567566
1772535408840426000,3.185426025390625,9.576674461364746,7.9758758544921875,0.3858426511287689
1772535408850359300,3.195359375,9.93559741973877,7.94716215133667,-0.12143574655056
1772535408860276700,3.20527685546875,10.338190078735352,8.047660827636719,-0.763310432434082
1772535408870208500,3.21520849609375,10.840682983398438,8.282755851745605,-1.179661512374878
1772535408880141800,3.225141845703125,11.372488021850586,8.531609535217285,-1.3381860256195068
1772535408890073900,3.235073974609375,11.903694152832031,8.72782039642334,-1.3860424757003784
1772535408900008000,3.245008056640625,12.075977325439453,8.560322761535645,-1.342971682548523
1772535408909940200,3.254940185546875,11.989835739135742,8.172685623168945,-1.5104693174362183
1772535408919878000,3.2648779296875,11.793624877929688,8.038089752197266,-2.2331018447875977
1772535408929810400,3.274810546875,11.089536666870117,8.12961483001709,-2.812762975692749
1772535408939731200,3.284731201171875,9.552745819091797,7.727022647857666,-2.7601208686828613
1772535408949662700,3.294662841796875,7.8382887840271,7.052246570587158,-2.7457640171051025
1772535408959595500,3.304595458984375,6.732206344604492,6.850651264190674,-3.190829038619995
1772535408969527000,3.314527099609375,6.502495765686035,7.22452974319458,-3.8901314735412598
1772535408979452200,3.3244521484375,7.134799003601074,7.7222371101379395,-4.4650068283081055
1772535408989383200,3.334383056640625,8.24566650390625,7.765307903289795,-4.508078098297119
1772535408999327000,3.344326904296875,9.390034675598145,7.157530784606934,-4.081557273864746
1772535409009259300,3.35425927734375,10.510473251342773,6.252445697784424,-3.789632797241211
1772535409019186700,3.364186767578125,11.108678817749023,5.184648513793945,-3.899702787399292
1772535409029118500,3.374118408203125,10.993824005126953,4.045066833496094,-4.1868414878845215
1772535409039034000,3.3840341796875,10.338190078735352,3.0251259803771973,-4.4650068283081055
1772535409048964400,3.39396435546875,9.342177391052246,2.1918256282806396,-4.776073932647705
1772535409058896000,3.403895751953125,8.293522834777832,1.6360924243927002,-4.9292144775390625
1772535409068826400,3.413826416015625,7.3262248039245605,1.3824533224105835,-4.962714195251465
1772535409078754800,3.4237548828125,6.507281303405762,1.4207384586334229,-4.967499732971191
1772535409088685000,3.43368505859375,6.1435723304748535,1.7078771591186523,-5.015356063842773
1772535409098622500,3.44362255859375,6.258427619934082,2.0482561588287354,-5.015356063842773
1772535409108553500,3.453553466796875,6.727420806884766,2.321038007736206,-4.776073932647705
1772535409118484000,3.46348388671875,7.24008321762085,2.407179594039917,-4.392624378204346
1772535409128415000,3.4734150390625,7.694719314575195,2.445464849472046,-3.885345697402954
1772535409138349600,3.483349609375,8.154739379882812,2.5220351219177246,-3.4307093620300293
1772535409148280800,3.49328076171875,8.575876235961914,2.5842485427856445,-2.8893332481384277
1772535409158209300,3.503209228515625,8.776873588562012,2.5746772289276123,-2.3096721172332764
1772535409168140300,3.513140380859375,8.700303077697754,2.541177749633789,-1.9172492027282715
1772535409178075400,3.523075439453125,8.293522834777832,2.6081767082214355,-1.5056836605072021
1772535409188007000,3.5330068359375,7.733004570007324,2.8624141216278076,-1.0456634759902954
1772535409197941500,3.54294140625,7.311867713928223,3.321835994720459,-0.7058826684951782
1772535409207873300,3.552873291015625,6.942774772644043,3.7716867923736572,-0.6675975322723389
1772535409217815300,3.562815185546875,6.669992923736572,3.9972102642059326,-0.8781659007072449
1772535409227748000,3.572748046875,6.598208427429199,4.001996040344238,-1.074377417564392
1772535409237670700,3.582670654296875,6.6939215660095215,3.9158542156219482,-1.098305583000183
1772535409247602400,3.5926025390625,6.971488952636719,3.8434712886810303,-0.8638089895248413
1772535409257557000,3.602556884765625,7.335795879364014,3.848257064819336,-0.5958128571510315
1772535409267491000,3.612490966796875,7.5080790519714355,3.9110686779022217,-0.45224347710609436
1772535409277421600,3.622421630859375,7.479365348815918,4.035495281219482,-0.37088751792907715
1772535409287355400,3.63235546875,7.369295597076416,4.207778453826904,-0.3613162338733673
1772535409297294600,3.642294677734375,7.192226886749268,4.370490550994873,-0.42831525206565857
1772535409307229000,3.65222900390625,7.110870838165283,4.509274482727051,-0.5048855543136597
1772535409317149700,3.662149658203125,7.0199432373046875,4.581058979034424,-0.6101697683334351
1772535409327082500,3.67208251953125,6.736992359161377,4.753342151641846,-0.7776673436164856
1772535409337009000,3.6820087890625,6.320641040802002,5.065007209777832,-0.9786644577980042
1772535409346941000,3.69194091796875,5.937191009521484,5.423930644989014,-1.1940184831619263
1772535409356871000,3.701870849609375,5.650052547454834,5.835496425628662,-1.4865410327911377
1772535409366803000,3.711802978515625,5.554339408874512,6.25723123550415,-1.5104693174362183
1772535409376728600,3.721728515625,5.640480995178223,6.735795974731445,-1.155733346939087
1772535409386659800,3.731659912109375,6.000002861022949,7.248457908630371,-0.6867401003837585
1772535409396614100,3.7416142578125,6.775277137756348,7.6600236892700195,-0.26560330390930176
1772535409406548000,3.7515478515625,7.972286701202393,7.712665557861328,0.1704886108636856
1772535409416472300,3.761472412109375,9.452247619628906,7.506882667541504,0.44805604219436646
1772535409426405000,3.771405029296875,10.965109825134277,7.008577346801758,0.45284169912338257
1772535409436337700,3.781337646484375,12.19083309173584,6.295516490936279,0.1657029688358307
1772535409446270500,3.7912705078125,12.837493896484375,5.591428279876709,-0.4618147611618042
1772535409456192500,3.801192626953125,13.01934814453125,5.07936429977417,-1.347757339477539
1772535409466124300,3.811124267578125,13.000205039978027,4.839483737945557,-2.213959217071533
1772535409476061000,3.82106103515625,12.674781799316406,4.681557655334473,-2.482553482055664
1772535409485993000,3.830992919921875,12.085549354553223,4.729413986206055,-2.4394826889038086
1772535409495932400,3.840932373046875,11.2576322555542,5.199005603790283,-2.300100803375244
1772535409505865500,3.850865478515625,10.424331665039062,5.888138294219971,-1.8598214387893677
1772535409515785000,3.860784912109375,9.701101303100586,6.577869415283203,-1.2370892763137817
1772535409525716700,3.870716796875,9.260822296142578,7.071389198303223,-0.7489534616470337
1772535409535651300,3.8806513671875,9.32303524017334,7.262814998626709,-0.2799602448940277
1772535409545583400,3.890583251953125,10.036096572875977,6.97986364364624,-0.06400800496339798
1772535409555510300,3.90051025390625,11.24327564239502,6.214160442352295,-0.11665010452270508
1772535409565441800,3.91044189453125,12.78485107421875,5.026721954345703,-0.10707881301641464
1772535409575389700,3.9203896484375,14.508879661560059,3.7908291816711426,-0.11186445504426956
1772535409585323000,3.930322998046875,15.820745468139648,2.746960401535034,-0.18843477964401245
1772535409595214000,3.940214111328125,16.246667861938477,2.053041934967041,0.01734796352684498
1772535409605143000,3.95014306640625,15.457036018371582,1.7413766384124756,0.5533402562141418
1772535409615102500,3.9601025390625,13.656436920166016,1.7700905799865723,1.0995019674301147
1772535409625034500,3.970034423828125,11.362916946411133,2.0243279933929443,1.5828521251678467
1772535409634968000,3.979968017578125,8.997013092041016,2.3497519493103027,1.7934205532073975
1772535409644900400,3.989900390625,7.11565637588501,2.6799614429473877,1.511067509651184
1772535409654828500,3.99982861328125,6.057430744171143,2.958127021789551,0.9655039310455322
1772535409664760300,4.00976025390625,5.712265968322754,2.87198543548584,0.37148571014404297
1772535409674705400,4.019705322265625,5.736194133758545,2.4358935356140137,-0.21714866161346436
1772535409684638500,4.029638427734375,5.889334678649902,1.94297194480896,-0.5958128571510315
1772535409694561300,4.039561279296875,6.258427619934082,1.5643078088760376,-0.8781659007072449
1772535409704493300,4.049493408203125,6.74656343460083,1.3010972738265991,-1.007378339767456
1772535409714417400,4.05941748046875,7.206583499908447,1.2197413444519043,-0.882951557636261
1772535409724348700,4.0693486328125,7.469794273376465,1.3154542446136475,-0.6197410821914673
1772535409734292700,4.079292724609375,7.474579811096191,1.5308083295822144,-0.29431718587875366
1772535409744225300,4.089225341796875,7.187440872192383,1.8233308792114258,0.050847481936216354
1772535409754151400,4.0991513671875,6.49770975112915,2.2205393314361572,0.357128769159317
1772535409764083200,4.109083251953125,5.611767292022705,2.579462766647339,0.5006981492042542
1772535409774023200,4.119023193359375,4.807180881500244,2.8767709732055664,0.5964110493659973
1772535409783956000,4.1289560546875,4.223331928253174,3.1304101943969727,0.5868397355079651
1772535409793875700,4.138875732421875,3.926621913909912,3.3074791431427,0.47676992416381836
1772535409803807000,4.148806884765625,3.9122650623321533,3.4606196880340576,0.30927231907844543
1772535409813747200,4.158747314453125,4.122833251953125,3.6951162815093994,0.09391828626394272
1772535409823679500,4.168679443359375,4.4482574462890625,3.9732820987701416,-0.10229317098855972
1772535409833609700,4.178609619140625,4.826323509216309,4.303491592407227,-0.27038896083831787
1772535409843541800,4.188541748046875,5.204987525939941,4.614558696746826,-0.33738797903060913
1772535409853447000,4.198447021484375,5.563910961151123,4.911268711090088,-0.45224347710609436
1772535409863376100,4.208376220703125,5.91804838180542,5.304289817810059,-0.4331009089946747
1772535409873336300,4.21833642578125,6.14835786819458,5.6823554039001465,-0.380458801984787
1772535409883268900,4.228268798828125,6.430710792541504,6.022734642028809,-0.380458801984787
1772535409893195800,4.23819580078125,6.918846607208252,6.367300987243652,-0.4378865361213684
1772535409903127800,4.2481279296875,7.517650604248047,6.616154670715332,-0.5479564070701599
1772535409913089300,4.25808935546875,7.991429328918457,6.802794933319092,-0.7058826684951782
1772535409923024100,4.268024169921875,8.394021987915039,7.052246570587158,-0.9643075466156006
1772535409932930300,4.277930419921875,8.738588333129883,7.296314239501953,-1.2801600694656372
1772535409942862300,4.2878623046875,8.992227554321289,7.564310550689697,-1.4386845827102661
1772535409952791000,4.297791015625,9.284749984741211,7.813164234161377,-1.6253247261047363
1772535409962722800,4.307722900390625,9.744172096252441,7.908876895904541,-1.7593228816986084
1772535409972662300,4.317662353515625,10.285548210144043,7.861020565032959,-1.8406788110733032
1772535409982594800,4.3275947265625,10.893324851989746,7.731808185577393,-2.0416758060455322
1772535409992521200,4.337521240234375,11.516057014465332,7.4877400398254395,-2.1756739616394043
1772535410002453000,4.347452880859375,12.166905403137207,7.186244487762451,-2.338385820388794
1772535410012379100,4.357379150390625,12.746565818786621,7.205387115478516,-2.6356940269470215
1772535410022310400,4.367310302734375,12.741780281066895,6.975078105926514,-2.4059832096099854
1772535410032245500,4.37724560546875,12.588640213012695,6.592226505279541,-2.017747640609741
1772535410042177000,4.387177001953125,12.564711570739746,6.39601469039917,-1.9507486820220947
1772535410052100600,4.3971005859375,12.555140495300293,6.285944938659668,-1.9794625043869019
1772535410062031400,4.40703125,12.555140495300293,6.448657035827637,-2.132603168487549
1772535410071972900,4.416972900390625,12.66042423248291,6.711867332458496,-2.3437697887420654
1772535410081904600,4.426904541015625,13.129417419433594,6.597012042999268,-2.3533411026000977
1772535410091837000,4.4368369140625,13.929219245910645,5.935994625091553,-2.132603168487549
1772535410101769000,4.44676904296875,14.518451690673828,4.9501519203186035,-1.9268203973770142
1772535410111699000,4.456698974609375,14.475380897521973,4.059423446655273,-2.022533416748047
1772535410121630700,4.466630615234375,13.756935119628906,3.4271202087402344,-2.324028968811035
1772535410131571500,4.476571533203125,12.63171100616455,2.9389843940734863,-2.640479803085327
1772535410141504300,4.486504150390625,11.664412498474121,2.6081767082214355,-2.8414769172668457
1772535410151434200,4.496434326171875,11.08475112915039,2.445464849472046,-2.9036903381347656
1772535410161366500,4.506366455078125,10.663614273071289,2.383251428604126,-2.8223342895507812
1772535410171293000,4.51629296875,10.25204849243164,2.4981069564819336,-2.554338216781616
1772535410181224700,4.526224609375,9.863813400268555,2.785245656967163,-2.1373889446258545
1772535410191157200,4.5361572265625,9.46181869506836,3.0586254596710205,-1.7306089401245117
1772535410201089000,4.546089111328125,9.150752067565918,3.2644083499908447,-1.3525429964065552
1772535410211016200,4.55601611328125,9.044869422912598,3.40797758102417,-1.031306505203247
1772535410220947700,4.56594775390625,9.006584167480469,3.336193084716797,-0.7872386574745178
1772535410230867700,4.57586767578125,8.901300430297852,3.139981508255005,-0.638883650302887
1772535410240798000,4.5857978515625,8.60459041595459,2.943770170211792,-0.6149554252624512
1772535410250759200,4.59575927734375,8.140382766723633,2.7326035499572754,-0.6819544434547424
1772535410260692500,4.6056923828125,7.608577728271484,2.56510591506958,-0.8111668825149536
1772535410270591200,4.61559130859375,7.110870838165283,2.4646072387695312,-0.916451096534729
1772535410280521200,4.625521240234375,6.588637351989746,2.455035924911499,-0.8781659007072449
1772535410290495200,4.6354951171875,6.114858150482178,2.555534601211548,-0.6580262184143066
1772535410300429600,4.6454296875,5.7888360023498535,2.746960401535034,-0.33738797903060913
1772535410310319000,4.655319091796875,5.736194133758545,3.029911756515503,-0.020937198773026466
1772535410320248800,4.665248779296875,5.91804838180542,3.1686954498291016,0.20877377688884735
1772535410330180600,4.6751806640625,6.138786315917969,3.211766242980957,0.36670008301734924
1772535410340110800,4.68511083984375,6.282355785369873,3.1543383598327637,0.46719861030578613
1772535410350045200,4.695045166015625,6.291927337646484,3.1351959705352783,0.4576273262500763
1772535410359975400,4.704975341796875,6.258427619934082,3.149552822113037,0.31405797600746155
1772535410369945600,4.714945556640625,6.239284992218018,3.173480987548828,0.15134602785110474
1772535410379880200,4.724880126953125,6.2871413230896,3.2069804668426514,0.0364905446767807
1772535410399740000,4.744739990234375,6.267998695373535,3.4031920433044434,-0.27038896083831787
1772535410409671400,4.75467138671875,6.157928943634033,3.6185460090637207,-0.3517449200153351
1772535410419604700,4.764604736328125,6.019145488739014,3.896113395690918,-0.3086741268634796
1772535410429521200,4.774521240234375,5.90369176864624,4.207778453826904,-0.19800607860088348
1772535410439453000,4.784452880859375,5.889334678649902,4.600201606750488,-0.10707881301641464
1772535410449388300,4.79438818359375,6.047859191894531,4.978865623474121,-0.03529413416981697
1772535410459320300,4.8043203125,6.363711833953857,5.318646430969238,0.026919255033135414
1772535410469250300,4.814250244140625,6.87099027633667,5.663212776184082,0.12741780281066895
1772535410479182300,4.824182373046875,7.503293514251709,5.945566177368164,0.2470589429140091
1772535410489112000,4.834112060546875,8.149953842163086,6.1088762283325195,0.36670008301734924
1772535410499043600,4.844043701171875,8.781659126281738,6.233303070068359,0.4576273262500763
1772535410508983000,4.853983154296875,9.390034675598145,6.262016773223877,0.3858426511287689
1772535410518915300,4.863915283203125,9.964311599731445,5.994020938873291,0.12263216078281403
1772535410528839700,4.873839599609375,10.505687713623047,5.5722856521606445,-0.275174617767334
1772535410538771200,4.883771240234375,10.97468090057373,5.0362935066223145,-0.7441678643226624
1772535410548714800,4.89371484375,11.386844635009766,4.667200565338135,-1.2945170402526855
1772535410558647600,4.9036474609375,11.726625442504883,4.408775806427002,-1.6588243246078491
1772535410568578600,4.91357861328125,12.119048118591309,4.336990833282471,-2.0991036891937256
1772535410578511000,4.923510986328125,12.382857322692871,4.399204254150391,-2.449054002761841
1772535410588432000,4.933431884765625,12.248859405517578,4.447061061859131,-2.472982168197632
1772535410598363400,4.94336328125,11.635698318481445,4.705485820770264,-2.420340061187744
1772535410608296400,4.95329638671875,10.706685066223145,5.127220630645752,-2.372483730316162
1772535410618228000,4.96322802734375,9.868598937988281,5.648856163024902,-2.1517457962036133
1772535410628161500,4.97316162109375,9.313464164733887,6.151947021484375,-1.7976080179214478
1772535410638093600,4.983093505859375,9.33739185333252,6.309873104095459,-1.4051851034164429
1772535410648022800,4.993022705078125,10.175477981567383,6.022734642028809,-1.0169496536254883
1772535410657954300,5.002954345703125,11.764910697937012,5.462215900421143,-0.7680960893630981
1772535410667898400,5.0128984375,13.27837085723877,4.619344234466553,-0.6580262184143066
1772535410677831200,5.0228310546875,14.489737510681152,3.675973892211914,-0.638883650302887
1772535410687758800,5.0327587890625,15.476179122924805,3.039483070373535,-0.8685946464538574
1772535410697691100,5.042691162109375,15.801602363586426,2.579462766647339,-1.0504491329193115
1772535410707626000,5.0526259765625,15.054443359375,2.2683959007263184,-1.1988041400909424
1772535410717558500,5.06255859375,13.331012725830078,2.1822543144226074,-1.3094722032546997
1772535410727480000,5.07247998046875,11.166107177734375,2.2444677352905273,-1.1653046607971191
1772535410737411600,5.08241162109375,8.992227554321289,2.421536445617676,-0.8255237936973572
1772535410747352600,5.0923525390625,7.139584541320801,2.7900311946868896,-0.576670229434967
1772535410757284900,5.102284912109375,5.721837043762207,3.2452657222747803,-0.2991028428077698
1772535410767211800,5.112211669921875,4.749752998352051,3.6185460090637207,-0.05922235921025276
1772535410777143600,5.1221435546875,4.304687976837158,3.9158542156219482,0.0077766734175384045
1772535410787074000,5.132073974609375,4.4482574462890625,3.9397823810577393,0.046061836183071136
1772535410797005800,5.142005859375,4.778466701507568,3.786043643951416,0.13698910176753998
1772535410806940200,5.151940185546875,5.114060401916504,3.604189157485962,0.1944168359041214
1772535410816872000,5.161871826171875,5.492125988006592,3.494119167327881,0.2470589429140091
1772535410826804200,5.17180419921875,5.894120216369629,3.4127633571624756,0.34277185797691345
1772535410836736300,5.181736328125,6.258427619934082,3.3744781017303467,0.4145565330982208
1772535410846692400,5.1916923828125,6.425925254821777,3.336193084716797,0.44327038526535034
1772535410856627000,5.201626953125,6.421139717102051,3.259622573852539,0.4624129831790924
1772535410866503400,5.21150341796875,6.244070529937744,3.1830523014068604,0.4384847581386566
1772535410886392800,5.231392822265625,5.956333637237549,3.1926236152648926,0.3810569941997528
1772535410896324600,5.24132470703125,5.8749775886535645,3.1543383598327637,0.21355941891670227
1772535410906260500,5.251260498046875,5.769693374633789,3.0586254596710205,-0.049651071429252625
1772535410916192500,5.261192626953125,5.712265968322754,2.9629125595092773,-0.380458801984787
1772535410926120200,5.2711201171875,5.731408596038818,2.9102704524993896,-0.6963114142417908
1772535410936052000,5.281052001953125,5.721837043762207,3.0251259803771973,-0.9068797826766968
1772535410945958400,5.29095849609375,5.5591254234313965,3.3553354740142822,-1.00259268283844
1772535410955887600,5.3008876953125,5.477769374847412,3.8051862716674805,-1.093519926071167
1772535410965821200,5.3108212890625,5.5591254234313965,4.25084924697876,-1.2035897970199585
1772535410975751000,5.3207509765625,5.894120216369629,4.729413986206055,-1.323829174041748
1772535410985720300,5.33072021484375,6.430710792541504,5.165505886077881,-1.3334003686904907
1772535410995654100,5.340654052734375,6.918846607208252,5.423930644989014,-1.323829174041748
1772535411005582300,5.350582275390625,7.067800045013428,5.639284610748291,-1.43389892578125
1772535411015515400,5.360515380859375,7.091728210449219,5.892923831939697,-1.6061822175979614
1772535411025440000,5.37043994140625,7.173084259033203,6.1088762283325195,-1.8023936748504639
1772535411035372300,5.380372314453125,7.287939548492432,6.333801746368408,-2.0033907890319824
1772535411045304300,5.39030419921875,7.5272216796875,6.601797580718994,-2.2618155479431152
1772535411055236900,5.40023681640625,7.9244303703308105,6.860222339630127,-2.4538395404815674
1772535411065172500,5.41017236328125,8.427521705627441,7.071389198303223,-2.5160529613494873
1772535411075105000,5.42010498046875,9.083154678344727,7.234101295471191,-2.458625316619873
1772535411085031400,5.430031494140625,9.844670295715332,7.320242881774902,-2.338385820388794
1772535411094963500,5.43996337890625,10.520044326782227,7.272386074066162,-2.2331018447875977
1772535411104908300,5.449908203125,11.09910774230957,7.042675018310547,-2.4059832096099854
1772535411114841600,5.459841552734375,11.750554084777832,6.56829833984375,-2.7936203479766846
1772535411124762600,5.4697626953125,12.478569984436035,6.2668023109436035,-3.459423303604126
1772535411134694700,5.479694580078125,12.741780281066895,6.391229152679443,-4.033700942993164
1772535411144623400,5.489623291015625,12.162118911743164,6.338587284088135,-3.971487283706665
1772535411154555100,5.49955517578125,11.21934700012207,6.372086524963379,-3.717848300933838
1772535411164495600,5.50949560546875,10.39083194732666,6.654439926147461,-3.497708559036255
1772535411174428200,5.51942822265625,9.964311599731445,7.10010290145874,-3.3104701042175293
1772535411184350500,5.5293505859375,10.29033374786377,7.368099212646484,-3.3056845664978027
1772535411194282000,5.539281982421875,11.401201248168945,7.109674453735352,-3.4498519897460938
1772535411204189400,5.549189453125,12.626925468444824,6.290730953216553,-3.6747772693634033
1772535411214118700,5.55911865234375,13.307085037231445,5.270790100097656,-4.057629108428955
1772535411224078300,5.569078369140625,13.331012725830078,4.308277130126953,-4.522434711456299
1772535411234010600,5.5790107421875,12.923635482788086,3.4654054641723633,-4.661218643188477
1772535411243955000,5.588954833984375,12.215359687805176,3.029911756515503,-4.54636287689209
1772535411253888500,5.598888427734375,11.305488586425781,2.9485557079315186,-4.34955358505249
1772535411263813400,5.6088134765625,10.491331100463867,2.9485557079315186,-4.1868414878845215
1772535411273746200,5.61874609375,10.146764755249023,2.8426733016967773,-3.947559118270874
1772535411283668200,5.628668212890625,10.141979217529297,2.7565317153930664,-3.483351469039917
1772535411293599700,5.638599853515625,10.103095054626465,2.9006991386413574,-3.095116138458252
1772535411303539500,5.64853955078125,10.074381828308105,3.139981508255005,-3.0424740314483643
1772535411313471700,5.6584716796875,10.074381828308105,3.063411235809326,-3.104687452316284
1772535411323405600,5.668405517578125,10.141979217529297,2.6943182945251465,-3.0999016761779785
1772535411333338000,5.678338134765625,10.213763236999512,2.3545374870300293,-2.9515466690063477
1772535411343265800,5.688265869140625,10.0073823928833,2.2061824798583984,-2.7314071655273438
1772535411353197800,5.69819775390625,9.428318977355957,2.1583259105682373,-2.434697151184082
1772535411363132700,5.708132568359375,8.714659690856934,2.1583259105682373,-2.0656042098999023
1772535411373065200,5.718065185546875,7.9866437911987305,2.1822543144226074,-1.6827524900436401
1772535411382992600,5.72799267578125,7.187440872192383,2.196611166000366,-1.2275179624557495
1772535411392924400,5.73792431640625,6.363711833953857,2.287538528442383,-0.7106683254241943
1772535411402866400,5.747866455078125,5.616552829742432,2.56510591506958,-0.275174617767334
1772535411412799200,5.75779931640625,4.984847545623779,2.9246275424957275,0.09870393574237823
1772535411422699800,5.76769970703125,4.692325115203857,3.250051259994507,0.3858426511287689
1772535411432629200,5.777629150390625,4.754538536071777,3.527618885040283,0.46719861030578613
1772535411442563000,5.78756298828125,5.157131195068359,3.4989049434661865,0.2566302418708801
1772535411452493000,5.7974931640625,5.6309099197387695,3.226123094558716,-0.01136590726673603
1772535411462420500,5.80742041015625,6.16271448135376,2.9772696495056152,-0.275174617767334
1772535411472350000,5.817349853515625,6.631708145141602,2.8522446155548096,-0.605384111404419
1772535411492251400,5.83725146484375,6.961917400360107,2.7086751461029053,-1.1892328262329102
1772535411502185500,5.847185546875,6.775277137756348,2.8522446155548096,-1.3286148309707642
1772535411512081700,5.85708154296875,6.478567123413086,3.0969107151031494,-1.319043517112732
1772535411522012200,5.86701220703125,6.157928943634033,3.40797758102417,-1.1748759746551514
1772535411531981600,5.876981689453125,5.879763603210449,3.7812578678131104,-0.9643075466156006
1772535411541916000,5.886916015625,5.5591254234313965,4.241278171539307,-0.7968099117279053
1772535411551822800,5.89682275390625,5.248058319091797,4.786841869354248,-0.5288137793540955
1772535411561754600,5.906754638671875,5.090131759643555,5.371288776397705,-0.25064817070961
1772535411571680500,5.916680419921875,5.310271739959717,5.9647088050842285,0.13698910176753998
1772535411581611500,5.926611572265625,5.879763603210449,6.453442573547363,0.7304090857505798
1772535411591538400,5.936538330078125,6.732206344604492,6.860222339630127,1.3627125024795532
1772535411601469200,5.94646923828125,7.704290866851807,7.301100254058838,1.8029918670654297
1772535411611422500,5.95642236328125,8.791230201721191,7.526025295257568,1.846660852432251
1772535411621355500,5.96635546875,10.026525497436523,7.334599494934082,1.5397813320159912
1772535411631284200,5.9762841796875,10.941181182861328,6.750152587890625,1.042074203491211
1772535411641216500,5.986216552734375,11.46820068359375,6.022734642028809,0.5868397355079651
1772535411651165000,5.9961650390625,11.726625442504883,5.567500114440918,0.16091732680797577
1772535411661099000,6.00609912109375,11.975479125976562,5.222933769226074,-0.0975075215101242
1772535411671019800,6.016019775390625,12.349357604980469,5.002793788909912,-0.24586252868175507
1772535411680952300,6.025952392578125,12.775279998779297,5.026721954345703,-0.6245267391204834
1772535411690855700,6.035855712890625,12.765708923339844,4.9980082511901855,-0.8781659007072449
1772535411700785400,6.045785400390625,12.166905403137207,5.0602216720581055,-1.0791629552841187
1772535411710742000,6.055741943359375,11.324631690979004,5.443073272705078,-1.3334003686904907
1772535411720674600,6.065674560546875,10.50090217590332,5.787639617919922,-1.4195420742034912
1772535411730604000,6.07560400390625,9.772886276245117,6.099305152893066,-1.3764712810516357
1772535411740536300,6.085536376953125,9.131608963012695,6.463014125823975,-1.323829174041748
1772535411750476500,6.0954765625,8.575876235961914,6.52044153213501,-1.1030912399291992
1772535411760409600,6.10540966796875,8.724231719970703,6.080162525177002,-0.7202396392822266
1772535411770348000,6.11534814453125,9.768099784851074,5.256433010101318,-0.2991028428077698
1772535411780281600,6.125281494140625,11.377273559570312,4.719842433929443,-0.1453639715909958
1772535411790200300,6.135200439453125,13.153346061706543,4.265206336975098,-0.01136590726673603
1772535411800132400,6.14513232421875,14.523237228393555,3.628117322921753,0.3523431420326233
1772535411810066000,6.15506591796875,15.030515670776367,3.3026933670043945,0.5054838061332703
1772535411819998000,6.164998046875,14.42752456665039,3.321835994720459,0.39541393518447876
1772535411829925000,6.174925048828125,13.028919219970703,3.3409786224365234,0.1704886108636856
1772535411839857000,6.18485693359375,11.21934700012207,3.2644083499908447,0.13220344483852386
1772535411849793300,6.194793212890625,9.385248184204102,3.163909673690796,0.20877377688884735
1772535411859725600,6.2047255859375,7.843074321746826,3.202194929122925,0.06520441919565201
1772535411869658000,6.214658203125,6.68435001373291,3.2404799461364746,-0.12622138857841492
1772535411879590100,6.224590087890625,5.951548099517822,3.226123094558716,-0.3278166949748993
1772535411889519400,6.234519287109375,5.769693374633789,3.321835994720459,-0.8446664214134216
1772535411899451100,6.244451171875,6.22492790222168,3.273979663848877,-1.2945170402526855
1772535411909392600,6.254392578125,7.015157699584961,2.8767709732055664,-1.3286148309707642
1772535411919325700,6.26432568359375,7.728219032287598,2.3401806354522705,-1.1222338676452637
1772535411929244000,6.274243896484375,8.097311973571777,2.1056840419769287,-0.8733802437782288
1772535411939175200,6.284175048828125,8.078168869018555,2.1535403728485107,-0.7345965504646301
1772535411949118200,6.2941181640625,7.819146156311035,2.2061824798583984,-0.5862415432929993
1772535411959050800,6.30405078125,7.441080093383789,2.2683959007263184,-0.37088751792907715
1772535411968978000,6.31397802734375,6.837490558624268,2.407179594039917,-0.14057832956314087
1772535411978910000,6.323909912109375,6.057430744171143,2.6464617252349854,0.18963119387626648
1772535411988842500,6.333842529296875,5.592624664306641,3.0825538635253906,0.4289134442806244
1772535411998774500,6.3437744140625,5.659623622894287,3.4893336296081543,0.4624129831790924
1772535412008708400,6.353708251953125,5.913262844085693,3.494119167327881,0.39062830805778503
1772535412018640400,6.363640380859375,6.157928943634033,3.2309088706970215,0.2231307178735733
1772535412028564200,6.373564208984375,6.263213157653809,3.0251259803771973,-0.04007977992296219
1772535412038495700,6.383495849609375,6.205785751342773,3.015554666519165,-0.37088751792907715
1772535412048445000,6.39344482421875,6.033502101898193,3.1591241359710693,-0.672383189201355
1772535412058378200,6.403378173828125,5.946762561798096,3.43190598487854,-0.7968099117279053
1772535412068272000,6.413272216796875,5.96590518951416,3.7669010162353516,-0.7202396392822266
1772535412078201600,6.42320166015625,5.951548099517822,4.18863582611084,-0.5910272002220154
1772535412088156700,6.43315673828125,6.095715522766113,4.767699241638184,-0.4378865361213684
1772535412098088700,6.443088623046875,6.564708709716797,5.299503803253174,-0.45224347710609436
1772535412108000300,6.453000244140625,7.230511665344238,5.557928562164307,-0.4713860750198364
1772535412117930200,6.46293017578125,7.890930652618408,5.629713535308838,-0.5144568681716919
1772535412127894000,6.47289404296875,8.513663291931152,5.663212776184082,-0.7489534616470337
1772535412137827300,6.482827392578125,9.08853816986084,5.749354839324951,-1.0504491329193115
1772535412147762700,6.4927626953125,9.57188892364502,5.754140377044678,-1.2849457263946533
1772535412157696300,6.5026962890625,9.916455268859863,5.749354839324951,-1.3334003686904907
1772535412167621600,6.51262158203125,10.069596290588379,5.840281963348389,-1.2897313833236694
1772535412177554200,6.52255419921875,10.088738441467285,6.022734642028809,-1.3046865463256836
1772535412187480000,6.53247998046875,10.161121368408203,6.1710896492004395,-1.319043517112732
1772535412197412000,6.542412109375,10.352546691894531,6.209374904632568,-1.3956137895584106
1772535412207345400,6.552345458984375,10.673185348510742,6.190232276916504,-1.4434702396392822
1772535412217277700,6.562277587890625,11.161321640014648,6.123233318328857,-1.587039589881897
1772535412227190500,6.5721904296875,11.784052848815918,6.0466628074646,-1.8598214387893677
1772535412237120800,6.582120849609375,12.445070266723633,6.175875186920166,-2.444268226623535
1772535412247044900,6.592044921875,12.234501838684082,6.343372821807861,-2.592623233795166
1772535412256974600,6.601974609375,10.984251976013184,5.830710411071777,-1.5487544536590576
1772535412266941400,6.61194140625,9.787242889404297,5.32821798324585,-0.39960137009620667
1772535412276874800,6.621874755859375,9.303893089294434,5.6153564453125,-0.1740778535604477
1772535412286796500,6.631796630859375,9.437891006469727,6.25723123550415,-0.37088751792907715
1772535412296728800,6.641728759765625,9.983454704284668,6.654439926147461,-0.5383850932121277
1772535412306637300,6.65163720703125,10.701899528503418,6.616154670715332,-0.7537391185760498
1772535412316567000,6.661567138671875,11.372488021850586,6.262016773223877,-1.1700903177261353
1772535412326527700,6.67152783203125,11.860623359680176,5.5962138175964355,-1.74496591091156
1772535412336460500,6.68146044921875,12.109477043151855,4.796412944793701,-2.3336002826690674
1772535412346397200,6.691397216796875,11.846266746520996,3.8147575855255127,-2.7314071655273438
1772535412356330800,6.701330810546875,11.079965591430664,2.847458839416504,-2.932404041290283
1772535412366262800,6.7112626953125,10.06002426147461,2.273181438446045,-2.937189817428589
1772535412376196000,6.721196044921875,9.165108680725098,2.100898265838623,-2.7122645378112793
1772535412386095900,6.731095947265625,8.58066177368164,2.273181438446045,-2.252244234085083
1772535412396025600,6.741025634765625,8.489734649658203,2.4741785526275635,-1.8550357818603516
1772535412405961000,6.7509609375,8.896514892578125,2.4741785526275635,-1.6205391883850098
1772535412415891500,6.760891357421875,9.44746208190918,2.4023938179016113,-1.3525429964065552
1772535412435777500,6.780777587890625,9.763314247131348,2.4741785526275635,-0.5000999569892883
1772535412445718000,6.790718017578125,9.605388641357422,2.8522446155548096,0.046061836183071136
1772535412455651300,6.8006513671875,9.179466247558594,3.2452657222747803,0.23748764395713806
1772535412465572900,6.81057275390625,8.863015174865723,3.556332588195801,0.18484555184841156
1772535412475505200,6.820505126953125,8.508877754211426,3.613760471343994,0.10827522724866867
1772535412485438700,6.830438720703125,7.905287742614746,3.47019100189209,-0.049651071429252625
1772535412495371000,6.84037109375,7.125227451324463,3.446262836456299,-0.21236300468444824
1772535412505304800,6.850304931640625,6.311069488525391,3.5467612743377686,-0.34217363595962524
1772535412515237400,6.8602373046875,5.664409637451172,3.690330743789673,-0.34695929288864136
1772535412525165600,6.87016552734375,5.224130153656006,3.872185230255127,-0.1740778535604477
1772535412535097600,6.88009765625,4.9704909324646,3.978067636489868,0.01734796352684498
1772535412545028600,6.890028564453125,4.835894584655762,4.006781578063965,0.12741780281066895
1772535412554960600,6.899960693359375,4.898108005523682,4.016352653503418,0.23270200192928314
1772535412564890600,6.909890625,5.281557559967041,4.054637908935547,0.42412781715393066
1772535412574822700,6.91982275390625,5.913262844085693,4.140779495239258,0.5772684812545776
1772535412584761600,6.92976171875,6.602993965148926,4.202992916107178,0.5246263742446899
1772535412594694000,6.93969384765625,7.163512706756592,4.116851329803467,0.2231307178735733
1772535412604600000,6.94960009765625,7.5080790519714355,3.9493536949157715,-0.2847459018230438
1772535412614530000,6.959530029296875,7.579864025115967,3.7812578678131104,-0.9020941257476807
1772535412624465400,6.96946533203125,7.345367431640625,3.809971809387207,-1.3764712810516357
1772535412634395600,6.979395751953125,6.904489517211914,4.131208419799805,-1.4769697189331055
1772535412644329200,6.9893291015625,6.39721155166626,4.576273441314697,-1.275374412536621
1772535412654260000,6.999260009765625,6.071787357330322,5.0841498374938965,-0.9595218896865845
1772535412664193500,7.009193603515625,6.124429702758789,5.5962138175964355,-0.8350951075553894
1772535412674124500,7.01912451171875,6.545566558837891,5.979663848876953,-0.8207381963729858
1772535412684053000,7.029052978515625,7.249654293060303,6.041877269744873,-0.6484549641609192
1772535412693983700,7.038983642578125,8.116454124450684,6.056233882904053,-0.37088751792907715
1772535412703922400,7.04892236328125,9.05444049835205,6.175875186920166,-0.07836493849754333
1772535412713854000,7.05885400390625,9.739386558532715,6.338587284088135,0.1704886108636856
1772535412723780000,7.068780029296875,9.964311599731445,6.410371780395508,0.26620152592658997
1772535412733711000,7.078711181640625,9.930811882019043,6.415157318115234,0.12741780281066895
1772535412743646200,7.088646240234375,9.873384475708008,6.405586242675781,-0.030508488416671753
1772535412753577700,7.09857763671875,9.825528144836426,6.252445697784424,-0.10707881301641464
1772535412763515600,7.108515625,9.653244972229004,5.969494342803955,-0.25064817070961
1772535412773447700,7.11844775390625,9.43310546875,5.734997749328613,-0.44745782017707825
1772535412783395800,7.128395751953125,9.370891571044922,5.6344990730285645,-0.6293123364448547
1772535412793329700,7.13832958984375,9.686744689941406,5.534000396728516,-0.6867401003837585
1772535412803243300,7.1482431640625,10.30469036102295,5.309075355529785,-0.8350951075553894
1772535412813175000,7.158175048828125,11.103893280029297,5.376074314117432,-1.2897313833236694
1772535412823136300,7.16813623046875,11.405987739562988,5.581857204437256,-1.5726827383041382
1772535412833070800,7.17807080078125,10.96032428741455,5.333003520965576,-1.222732424736023
1772535412842966300,7.18796630859375,10.462616920471191,5.232504844665527,-0.6484549641609192
1772535412852897000,7.19789697265625,10.18026351928711,5.55314302444458,-0.42352959513664246
1772535412862857500,7.207857421875,9.863813400268555,5.7062835693359375,-0.28953152894973755
1772535412872791300,7.217791259765625,9.729815483093262,5.639284610748291,0.07956135272979736
1772535412882720000,7.227719970703125,10.026525497436523,5.6584272384643555,0.5054838061332703
1772535412892653300,7.2376533203125,10.845468521118164,5.6153564453125,0.8123632669448853
1772535412902587100,7.247587158203125,11.640483856201172,5.208576679229736,1.0372886657714844
1772535412912520400,7.2575205078125,11.970693588256836,4.466203689575195,1.1904292106628418
1772535412922446300,7.2674462890625,11.937193870544434,3.920639991760254,1.1521440744400024
1772535412932378600,7.277378662109375,11.640483856201172,3.8051862716674805,0.768694281578064
1772535412942308000,7.28730810546875,11.065608024597168,3.8434712886810303,0.39541393518447876
1772535412952240400,7.297240478515625,10.189835548400879,3.8530426025390625,0.1178465187549591
1772535412962172200,7.307172119140625,9.169894218444824,3.762115478515625,-0.12622138857841492
1772535412972104200,7.317104248046875,8.097311973571777,3.685544967651367,-0.28953152894973755
1772535412982049000,7.327049072265625,7.05344295501709,3.723830223083496,-0.3326023519039154
1772535412991982300,7.336982421875,6.291927337646484,3.944568157196045,-0.3278166949748993
1772535413001907200,7.3469072265625,5.932405471801758,4.11206579208374,-0.3517449200153351
1772535413011839700,7.35683984375,5.84147834777832,4.088137626647949,-0.41874396800994873
1772535413021760300,7.36676025390625,5.851049423217773,3.9637107849121094,-0.5814558863639832
1772535413031691500,7.37669140625,5.908477306365967,3.8913278579711914,-0.7058826684951782
1772535413041605600,7.386605712890625,5.884549140930176,3.8386857509613037,-0.7202396392822266
1772535413051535400,7.396535400390625,5.908477306365967,3.833899974822998,-0.576670229434967
1772535413061489400,7.406489501953125,6.000002861022949,3.776472330093384,-0.3613162338733673
1772535413071421400,7.41642138671875,6.110072612762451,3.723830223083496,-0.2554338276386261
1772535413081355300,7.426355224609375,6.200999736785889,3.7334015369415283,-0.2027917206287384
1772535413091287600,7.43628759765625,6.291927337646484,3.786043643951416,-0.12143574655056
1772535413101219600,7.446219482421875,6.454638957977295,3.8434712886810303,-0.04007977992296219
1772535413111151900,7.45615185546875,6.732206344604492,3.8865420818328857,-0.01615155301988125
1772535413121086700,7.466086669921875,6.99541711807251,3.833899974822998,-0.07357929646968842
1772535413131019300,7.476019287109375,7.058228492736816,3.714258909225464,-0.1788634955883026
1772535413140946400,7.485946533203125,6.803991317749023,3.6233317852020264,-0.32303106784820557
1772535413150878200,7.495878173828125,6.4115681648254395,3.5754752159118652,-0.5383850932121277
1772535413160813600,7.5058134765625,6.090929985046387,3.690330743789673,-0.6867401003837585
1772535413170745900,7.515745849609375,5.908477306365967,3.930211305618286,-0.7824530005455017
1772535413180684300,7.525684326171875,5.860620975494385,4.23649263381958,-0.9451649188995361
1772535413190617000,7.5356171875,5.980860233306885,4.470989227294922,-1.1318050622940063
1772535413200547300,7.54554736328125,6.181857109069824,4.64805793762207,-1.155733346939087
1772535413210479900,7.55547998046875,6.4354963302612305,4.8777689933776855,-1.1222338676452637
1772535413220399900,7.56539990234375,6.7178497314453125,5.175076961517334,-1.1174482107162476
1772535413230331100,7.5753310546875,7.000202655792236,5.529214859008789,-1.1988041400909424
1772535413240278300,7.5852783203125,7.254439830780029,5.907280921936035,-1.43389892578125
1772535413250211000,7.595211181640625,7.517650604248047,6.214160442352295,-1.654038667678833
1772535413260139000,7.605138916015625,7.823931694030762,6.314659118652344,-1.7066807746887207
1772535413270071600,7.615071533203125,8.183453559875488,6.338587284088135,-1.716252088546753
1772535413279998200,7.624998291015625,8.657232284545898,6.39601469039917,-1.7736797332763672
1772535413289930200,7.63493017578125,9.208179473876953,6.5874409675598145,-1.8598214387893677
1772535413299858000,7.64485791015625,9.720243453979492,6.774080753326416,-1.9363917112350464
1772535413309789200,7.6547890625,10.132407188415527,6.750152587890625,-1.9794625043869019
1772535413319726300,7.664726318359375,10.433902740478516,6.6592254638671875,-2.0416758060455322
1772535413329658400,7.674658447265625,10.658828735351562,6.64486837387085,-2.1278176307678223
1772535413339580200,7.684580078125,10.687541961669922,6.687939167022705,-2.079961061477661
1772535413349511200,7.69451123046875,10.529616355895996,6.697510719299316,-1.960319995880127
1772535413359453000,7.704452880859375,10.48654556274414,6.821937561035156,-1.9459630250930786
1772535413369385000,7.714385009765625,10.697113990783691,7.229315280914307,-2.4299113750457764
1772535413379317500,7.7243173828125,10.429117202758789,7.669594764709473,-2.937189817428589
1772535413389249500,7.73424951171875,9.44746208190918,7.258029460906982,-2.5016961097717285
1772535413399179500,7.744179443359375,8.834300994873047,6.439085960388184,-1.7066807746887207
1772535413409111600,7.754111572265625,9.289535522460938,6.2428741455078125,-1.673181176185608
1772535413419050800,7.76405078125,9.988240242004395,6.515655994415283,-1.9555343389511108
1772535413428983600,7.773983642578125,10.347761154174805,6.778866767883301,-2.0991036891937256
1772535413438916600,7.78391650390625,10.821540832519531,6.898507595062256,-2.36291241645813
1772535413448849400,7.793849365234375,11.472986221313477,6.606583118438721,-2.5351955890655518
1772535413458770200,7.803770263671875,11.94197940826416,5.950351715087891,-2.7074787616729736
1772535413468701700,7.81370166015625,12.018549919128418,5.088935375213623,-2.8414769172668457
1772535413478634800,7.823634765625,11.688340187072754,4.2556352615356445,-2.9419753551483154
1772535413508396000,7.85339599609375,8.37009334564209,3.0825538635253906,-2.5639095306396484
1772535413528281600,7.873281494140625,7.488936901092529,3.1926236152648926,-2.2570300102233887
1772535413538216200,7.88321630859375,7.728219032287598,3.2787652015686035,-2.05603289604187
1772535413548156200,7.89315625,8.236095428466797,3.259622573852539,-1.7688941955566406
1772535413558091300,7.90309130859375,8.82951545715332,3.321835994720459,-1.4865410327911377
1772535413568031500,7.913031494140625,9.370891571044922,3.4271202087402344,-1.2131611108779907
1772535413577967000,7.922967041015625,9.605388641357422,3.4654054641723633,-0.9834501147270203
1772535413587886300,7.93288623046875,9.476176261901855,3.551547050476074,-0.7968099117279053
1772535413597820200,7.942820068359375,9.160323143005371,3.652045488357544,-0.7585247755050659
1772535413607770000,7.95277001953125,8.695517539978027,3.786043643951416,-0.7345965504646301
1772535413627611600,7.972611572265625,7.642077445983887,4.045066833496094,-0.6149554252624512
1772535413637544200,7.982544189453125,7.039085865020752,3.9828531742095947,-0.5288137793540955
1772535413647446000,7.992446044921875,6.354140758514404,3.9349968433380127,-0.5958128571510315
1772535413657375500,8.00237548828125,5.726622581481934,3.8434712886810303,-0.7441678643226624
1772535413667346400,8.012346435546876,5.358128070831299,3.685544967651367,-0.8063812255859375
1772535413677280000,8.022280029296875,5.348556995391846,3.551547050476074,-0.7872386574745178
1772535413687206400,8.032206298828125,5.721837043762207,3.3792638778686523,-0.7106683254241943
1772535413697139200,8.04213916015625,6.1675004959106445,3.235694408416748,-0.6197410821914673
1772535413707081200,8.052081298828124,6.492924213409424,3.0681967735290527,-0.6532405614852905
1772535413717015000,8.06201513671875,6.736992359161377,2.895913600921631,-0.6819544434547424
1772535413726984400,8.071984375,6.861418724060059,2.867199659347534,-0.6245267391204834
1772535413736921900,8.081921875,6.7178497314453125,2.9964120388031006,-0.5383850932121277
1772535413746800000,8.091800048828125,6.406782627105713,3.163909673690796,-0.5718846321105957
1772535413756731600,8.101731689453125,5.908477306365967,3.273979663848877,-0.6436693072319031
1772535413766662100,8.111662109375,5.343770980834961,3.503690481185913,-0.7920243144035339
1772535413776593400,8.121593505859375,4.898108005523682,3.848257064819336,-0.8446664214134216
1772535413786498800,8.131498779296875,4.572684288024902,4.303491592407227,-0.5670989751815796
1772535413796427500,8.141427490234374,4.491328239440918,4.815555572509766,-0.4331009089946747
1772535413806374000,8.151373779296875,4.534399032592773,5.165505886077881,-0.3038884699344635
1772535413816304400,8.161304443359375,4.711467742919922,5.481358528137207,-0.24586252868175507
1772535413826237400,8.171237548828126,5.310271739959717,5.768496990203857,-0.16450655460357666
1772535413836168200,8.181168212890626,6.550352096557617,5.9407806396484375,0.0029910283628851175
1772535413846136800,8.19113671875,8.408378601074219,5.98444938659668,0.2997010350227356
1772535413856071200,8.2010712890625,10.333404541015625,5.931209087371826,0.5629115104675293
1772535413865964000,8.210964111328124,11.96590805053711,5.80199670791626,0.8554341197013855
1772535413875894300,8.220894287109376,13.239487648010254,5.888138294219971,1.0755738019943237
1772535413885821700,8.23082177734375,13.814363479614258,6.008377552032471,1.200000524520874
1772535413895752000,8.240751953125,13.742578506469727,6.003592014312744,1.2382856607437134
1772535413905694200,8.250694091796875,13.239487648010254,5.897709846496582,1.046859860420227
1772535413915625500,8.26062548828125,12.612567901611328,5.629713535308838,0.7782655358314514
1772535413925551900,8.2705517578125,12.20518970489502,5.213362216949463,0.4911268353462219
1772535413935482600,8.280482666015626,12.056835174560547,4.815555572509766,0.29012975096702576
1772535413945414700,8.29041455078125,12.09033489227295,4.681557655334473,0.01734796352684498
1772535413955345700,8.300345703125,12.075977325439453,5.069792747497559,-0.39481574296951294
1772535413965285000,8.31028515625,11.46820068359375,5.208576679229736,-0.26081767678260803
1772535413975217000,8.320216796875,10.749755859375,5.026721954345703,0.29012975096702576
1772535413985163500,8.33016357421875,10.409975051879883,5.232504844665527,0.5868397355079651
1772535413995096600,8.3400966796875,10.146764755249023,5.5483574867248535,0.6394818425178528
1772535414005039600,8.35003955078125,9.768099784851074,5.624927997589111,0.7734799385070801
1772535414014974000,8.359973876953125,9.614959716796875,5.5244293212890625,0.9176474809646606
1772535414024895200,8.369895263671875,9.868598937988281,5.20379114151001,1.0707881450653076
1772535414034828300,8.379828369140625,10.534401893615723,4.604987144470215,1.176072359085083
1772535414044758500,8.389758544921875,11.391630172729492,4.021138668060303,1.2765709161758423
1772535414054691300,8.39969140625,12.104691505432129,3.5706896781921387,1.357926845550537
1772535414064617000,8.409616943359374,12.526426315307617,3.2213375568389893,1.3387842178344727
1772535414074549000,8.419549072265625,12.837493896484375,3.1830523014068604,1.262213945388794
1772535414084479200,8.429479248046874,12.813565254211426,3.2309088706970215,1.0516455173492432
1772535414094411000,8.439410888671874,12.301501274108887,3.202194929122925,0.7734799385070801
1772535414104343300,8.44934326171875,11.310274124145508,3.178266763687134,0.4863412082195282
1772535414114275300,8.459275390625,10.016953468322754,3.283550977706909,0.2470589429140091
1772535414124211000,8.4692109375,8.800801277160645,3.4606196880340576,0.07477571070194244
1772535414134143200,8.479143310546876,7.862216949462891,3.6329028606414795,-0.10229317098855972
1772535414144070100,8.489070068359375,7.292725086212158,3.714258909225464,-0.3852444589138031
1772535414154002000,8.499001953125,7.000202655792236,3.666402578353882,-0.6005984544754028
1772535414163936300,8.508936279296876,6.990631580352783,3.6568312644958496,-0.7585247755050659
1772535414173868300,8.518868408203126,7.187440872192383,3.637688636779785,-0.8255237936973572
1772535414183801300,8.52880126953125,7.3645100593566895,3.551547050476074,-0.8207381963729858
1772535414193733400,8.5387333984375,7.469794273376465,3.4893336296081543,-0.7154539823532104
1772535414203674000,8.548674072265625,7.479365348815918,3.4845480918884277,-0.5000999569892883
1772535414213607200,8.558607177734375,7.5080790519714355,3.5084762573242188,-0.12143574655056
1772535414223539000,8.5685390625,7.603792190551758,3.604189157485962,0.2470589429140091
1772535414233471700,8.5784716796875,7.603792190551758,3.652045488357544,0.49591249227523804
1772535414243405300,8.5884052734375,7.345367431640625,3.6329028606414795,0.5533402562141418
1772535414253338400,8.59833837890625,6.880561351776123,3.6185460090637207,0.3762713670730591
1772535414263262000,8.608261962890625,6.358926296234131,3.518047571182251,0.13698910176753998
1772535414273194000,8.618194091796875,5.956333637237549,3.4127633571624756,0.0364905446767807
1772535414283121700,8.62812158203125,5.865406513214111,3.4366915225982666,-0.06400800496339798
1772535414293053400,8.638053466796874,6.095715522766113,3.4845480918884277,-0.16450655460357666
1772535414302989800,8.64798974609375,6.425925254821777,3.4893336296081543,-0.13579268753528595
1772535414312921900,8.657921875,6.665207386016846,3.565903902053833,-0.08793623000383377
1772535414322860000,8.667860107421875,6.780063152313232,3.7190446853637695,-0.14057832956314087
1772535414332792800,8.677792724609375,6.727420806884766,3.9589250087738037,-0.3565305769443512
1772535414342725400,8.687725341796876,6.488138675689697,4.226921081542969,-0.7393822073936462
1772535414352658200,8.697658203125,6.181857109069824,4.504488468170166,-1.069591760635376
1772535414362580200,8.707580322265626,5.774479389190674,4.858626365661621,-1.414756417274475
1772535414372511700,8.71751171875,5.44426965713501,5.294718265533447,-1.654038667678833
1772535414382443500,8.727443603515624,5.401198863983154,5.610570907592773,-1.6923238039016724
1772535414392375300,8.737375244140624,5.750551223754883,5.959922790527344,-1.6013965606689453
1772535414402309400,8.747309326171875,6.27278470993042,6.1710896492004395,-1.3142578601837158
1772535414412241200,8.7572412109375,6.8997039794921875,6.362515449523926,-0.8111668825149536
1772535414422170600,8.767170654296875,7.541578769683838,6.573083877563477,-0.45224347710609436
1772535414432102100,8.77710205078125,8.14516830444336,6.7310099601745605,-0.39960137009620667
1772535414442012400,8.787012451171876,8.623732566833496,6.802794933319092,-0.6867401003837585
1772535414451942000,8.79694189453125,8.910871505737305,6.721438884735107,-1.0360921621322632
1772535414461899800,8.806899658203125,8.906085968017578,6.606583118438721,-1.1892328262329102
1772535414471832000,8.81683203125,8.762516975402832,6.654439926147461,-1.1988041400909424
1772535414481791200,8.826791259765624,8.647661209106445,6.8171515464782715,-1.1413763761520386
1772535414491726300,8.836726318359375,8.623732566833496,6.922435760498047,-1.0791629552841187
1772535414501631000,8.846630859375,8.805587768554688,7.033103942871094,-1.2035897970199585
1772535414511563000,8.85656298828125,9.332606315612793,7.415955543518066,-1.8550357818603516
1772535414521488100,8.866488037109375,9.452247619628906,8.042875289916992,-2.6500511169433594
1772535414531419400,8.87641943359375,8.575876235961914,7.932805061340332,-2.3096721172332764
1772535414541354200,8.886354248046874,7.943572998046875,7.181458950042725,-1.319043517112732
1772535414551286000,8.8962861328125,8.585447311401367,6.778866767883301,-0.9882357716560364
1772535414561217000,8.906217041015625,9.5862455368042,6.759724140167236,-1.3046865463256836
1772535414571148500,8.9161484375,10.457831382751465,6.553941249847412,-1.5056836605072021
1772535414581098500,8.926098388671875,11.530414581298828,6.285944938659668,-1.7497515678405762
1772535414591031800,8.93603173828125,12.607782363891602,5.998806476593018,-2.2235305309295654
1772535414600948700,8.94594873046875,13.445868492126465,5.462215900421143,-2.7122645378112793
1772535414610880500,8.955880615234374,13.680365562438965,4.796412944793701,-3.0520453453063965
1772535414620824600,8.965824462890625,13.000205039978027,4.092923164367676,-3.190829038619995
1772535414630757600,8.975757568359375,11.683554649353027,3.604189157485962,-2.932404041290283
1772535414640654300,8.985654296875,10.338190078735352,3.4271202087402344,-2.3820550441741943
1772535414650583600,8.99558349609375,9.270393371582031,3.417548894882202,-1.8215361833572388
1772535414660513800,9.005513671875,8.504091262817383,3.40797758102417,-1.414756417274475
1772535414670443300,9.015443359375,7.934001445770264,3.4510483741760254,-1.3046865463256836
1772535414680409300,9.025409423828124,7.584649562835693,3.47019100189209,-1.5152549743652344
1772535414690342400,9.03534228515625,7.517650604248047,3.441477060317993,-1.7832510471343994
1772535414700268800,9.045268798828126,7.8382887840271,3.336193084716797,-1.922034740447998
1772535414710201000,9.055201171875,8.264809608459473,3.1830523014068604,-1.8741782903671265
1772535414720129000,9.06512890625,8.642875671386719,3.092125177383423,-1.7018951177597046
1772535414730061000,9.07506103515625,8.982656478881836,3.139981508255005,-1.49611234664917
1772535414739992600,9.08499267578125,9.189037322998047,3.2644083499908447,-1.3094722032546997
1772535414749924600,9.094924560546875,9.06401252746582,3.3888349533081055,-1.1461620330810547
1772535414759854800,9.104854736328125,8.518448829650879,3.589832067489624,-0.9020941257476807
1772535414769786600,9.11478662109375,7.709076404571533,3.8147575855255127,-0.6149554252624512
1772535414779732500,9.124732421875,6.918846607208252,4.016352653503418,-0.19800607860088348
1772535414789665800,9.134665771484375,6.138786315917969,4.212564468383789,0.0364905446767807
1772535414799587300,9.14458740234375,5.492125988006592,4.274777889251709,0.06520441919565201
1772535414809519000,9.15451904296875,5.204987525939941,4.131208419799805,-0.049651071429252625
1772535414819447600,9.164447509765624,5.310271739959717,3.872185230255127,-0.275174617767334
1772535414829379000,9.174379150390624,5.688337802886963,3.6568312644958496,-0.519242525100708
1772535414839313200,9.184313232421875,6.177071571350098,3.47019100189209,-0.6628118753433228
1772535414849245000,9.194244873046875,6.679564476013184,3.336193084716797,-0.7920243144035339
1772535414859178500,9.204178466796876,7.120441913604736,3.2309088706970215,-0.8255237936973572
1772535414869110500,9.214110595703126,7.417151927947998,3.202194929122925,-0.7202396392822266
1772535414879043800,9.2240439453125,7.532007694244385,3.297907829284668,-0.4905286431312561
1772535414888976100,9.23397607421875,7.579864025115967,3.580260992050171,-0.22193430364131927
1772535414908841500,9.253841552734375,7.3645100593566895,4.514060020446777,0.12741780281066895
1772535414918779400,9.263779296875,7.004988193511963,4.964509010314941,0.1657029688358307
1772535414928712200,9.273712158203125,6.555137634277344,5.352146148681641,0.09391828626394272
1772535414938633700,9.2836337890625,6.258427619934082,5.720640659332275,-0.001794616924598813
1772535414948565200,9.293565185546875,6.153143405914307,6.003592014312744,-0.10707881301641464
1772535414958501600,9.303501708984374,6.311069488525391,6.223731517791748,-0.12143574655056
1772535414968433700,9.31343359375,6.880561351776123,6.415157318115234,-0.025722842663526535
1772535414978360800,9.32336083984375,7.737790107727051,6.534798622131348,0.07477571070194244
1772535414988292600,9.333292724609375,8.700303077697754,6.577869415283203,0.18005990982055664
1772535414998202600,9.34320263671875,9.801599502563477,6.577869415283203,0.2231307178735733
1772535415008132000,9.353132080078124,10.63968563079834,6.486942291259766,0.14656038582324982
1772535415018100200,9.363100341796875,11.017751693725586,6.281159400939941,0.050847481936216354
1772535415028033500,9.373033447265625,11.032109260559082,5.9647088050842285,-0.05922235921025276
1772535415037929200,9.38292919921875,10.9028959274292,5.663212776184082,-0.18843477964401245
1772535415047859000,9.39285888671875,10.855039596557617,5.299503803253174,-0.3086741268634796
1772535415057797400,9.40279736328125,10.955538749694824,4.8538408279418945,-0.5000999569892883
1772535415067728000,9.412727783203126,11.305488586425781,4.466203689575195,-0.8207381963729858
1772535415077686300,9.422686279296874,12.104691505432129,4.336990833282471,-1.323829174041748
1772535415087619600,9.43261962890625,13.100704193115234,4.581058979034424,-1.9555343389511108
1772535415097531000,9.44253076171875,13.455439567565918,4.485345840454102,-2.190030813217163
1772535415107462100,9.452462158203126,13.215559005737305,3.9158542156219482,-2.0273189544677734
1772535415117420800,9.4624208984375,12.937992095947266,3.747758388519287,-2.0033907890319824
1772535415127354600,9.472354736328125,12.459427833557129,4.021138668060303,-2.1134605407714844
1772535415137284600,9.48228466796875,11.769696235656738,4.303491592407227,-2.032104730606079
1772535415147218000,9.492218017578125,11.065608024597168,4.705485820770264,-1.5487544536590576
1772535415157147600,9.502147705078125,10.644471168518066,5.103292465209961,-0.638883650302887
1772535415167080700,9.512080810546875,10.553544044494629,5.242076396942139,0.0891326442360878
1772535415177011000,9.522010986328125,10.577472686767578,4.983651161193848,0.41934216022491455
1772535415186943700,9.53194384765625,10.673185348510742,4.652843475341797,0.46719861030578613
1772535415196863500,9.541863525390625,10.572687149047852,4.356133460998535,0.3188436031341553
1772535415206795000,9.551794921875,10.156335830688477,4.107280254364014,0.18005990982055664
1772535415216726800,9.561726806640625,9.576674461364746,4.025924205780029,0.1178465187549591
1772535415226658300,9.571658203125,8.910871505737305,3.978067636489868,-0.020937198773026466
1772535415236595200,9.58159521484375,8.149953842163086,3.8913278579711914,-0.2315055876970291
1772535415246527200,9.59152734375,7.517650604248047,3.7908291816711426,-0.3326023519039154
1772535415256452900,9.601452880859375,7.225726127624512,3.8147575855255127,-0.24107688665390015
1772535415266384100,9.611384033203125,7.17786979675293,3.800400495529175,-0.07357929646968842
1772535415276304600,9.6213046875,7.297510623931885,3.7573297023773193,0.13220344483852386
1772535415286235000,9.63123486328125,7.398009300231934,3.661616802215576,0.28534409403800964
1772535415296195300,9.6411953125,7.431509017944336,3.5946178436279297,0.3188436031341553
1772535415306128600,9.651128662109375,7.421937465667725,3.5850465297698975,0.2949153780937195
1772535415316044500,9.66104443359375,7.40279483795166,3.5754752159118652,0.16091732680797577
1772535415325976000,9.67097607421875,7.3645100593566895,3.4989049434661865,-0.025722842663526535
1772535415335910400,9.680910400390625,7.211369037628174,3.360121250152588,-0.21236300468444824
1772535415345842200,9.69084228515625,7.004988193511963,3.2452657222747803,-0.4570291340351105
1772535415355775000,9.70077490234375,6.770491600036621,3.163909673690796,-0.6149554252624512
1772535415365707000,9.71070703125,6.569494724273682,3.149552822113037,-0.5575276613235474
1772535415375650300,9.720650390625,6.535995006561279,3.1926236152648926,-0.4666004180908203
1772535415385583400,9.730583251953124,6.669992923736572,3.2069804668426514,-0.45224347710609436
1772535415395503600,9.740503662109376,6.861418724060059,3.173480987548828,-0.5048855543136597
1772535415405435400,9.750435302734376,7.029514789581299,3.197409152984619,-0.5527420043945312
1772535415415370800,9.760370849609375,7.173084259033203,3.3026933670043945,-0.48574298620224
1772535415425302800,9.770302734375,7.144370079040527,3.5467612743377686,-0.3565305769443512
1772535415435234800,9.78023486328125,6.703492641448975,3.920639991760254,-0.15493527054786682
1772535415445167000,9.7901669921875,6.095715522766113,4.4374895095825195,-0.15493527054786682
1772535415455096800,9.800096923828125,5.6548380851745605,4.882554531097412,-0.3278166949748993
1772535415465028900,9.81002880859375,5.353342533111572,5.333003520965576,-0.5718846321105957
1772535415474965000,9.819965087890624,5.209773063659668,5.730212211608887,-0.8398807644844055
1772535415484897500,9.8298974609375,5.405984401702881,5.98444938659668,-1.0504491329193115
1772535415494808800,9.839808837890626,5.898906230926514,6.075376510620117,-1.160519003868103
1772535415514666500,9.85966650390625,7.17786979675293,5.888138294219971,-1.4051851034164429
1772535415524598300,9.869598388671875,7.766504287719727,5.994020938873291,-1.7306089401245117
1772535415534562600,9.8795625,8.331808090209961,6.013163089752197,-1.9363917112350464
1772535415544497400,9.889497314453125,8.585447311401367,6.032305717468262,-1.9507486820220947
1772535415554414800,9.899414794921874,8.432307243347168,6.314659118652344,-1.984248161315918
1772535415564348200,9.90934814453125,8.044071197509766,6.697510719299316,-1.9507486820220947
1772535415574288000,9.919287841796875,7.632505893707275,6.951149940490723,-1.6971094608306885
1772535415584221700,9.9292216796875,7.378866672515869,6.922435760498047,-1.179661512374878
1772535415594155000,9.939155029296876,8.063812255859375,6.812366008758545,-0.8111668825149536
1772535415604088600,9.949088623046874,7.244868755340576,7.549953460693359,-1.347757339477539
1772535415614003700,9.959003662109374,6.3014984130859375,8.018946647644043,-1.6683956384658813
1772535415623935700,9.968935791015625,7.9627156257629395,8.177471160888672,-1.3908281326293945
1772535415633866800,9.97886669921875,11.041680335998535,7.789236068725586,-0.7202396392822266
1772535415643798500,9.988798583984375,13.167702674865723,7.090531826019287,-0.4426721930503845
1772535415653732600,9.998732666015625,14.020146369934082,6.912864685058594,-1.7066807746887207
1772535415663664600,10.00866455078125,12.287144660949707,6.965506553649902,-2.96111798286438
1772535415673609500,10.018609375,9.044869422912598,6.45822811126709,-2.290529489517212
1772535415683542800,10.028542724609375,7.4362945556640625,6.003592014312744,-1.3716856241226196
1772535415693461800,10.038461669921874,7.249654293060303,6.463014125823975,-1.7641085386276245
