time,seconds_elapsed,z,y,x
1772534465409843500,0.050843505859375,0.3320779914468527,0.4748129762113094,-0.6138637925703078
1772534465419860500,0.060860595703125,0.3359311597436666,0.45591333769112824,-0.6020667891295627
1772534465429876500,0.07087646484375,0.28166765463650223,0.45850379257574675,-0.46266156984232365
1772534465439893500,0.0808935546875,0.1968202106952667,0.4586069606892764,-0.27352153838612137
1772534465449909500,0.090909423828125,0.07911153063774108,0.48148967749625443,-0.1535718744687736
1772534465459926300,0.10092626953125,0.0701356124997139,0.4877290102772414,-0.15188057864727453
1772534465469942500,0.110942626953125,0.21388182013332843,0.5371716710992157,-0.16928374979831276
1772534465479959600,0.12095947265625,0.26432138303816316,0.4885276133090257,-0.12257447772929445
1772534465489975600,0.1309755859375,0.16113339576423166,0.40947760360017416,-0.05257935141250491
1772534465499992300,0.140992431640625,0.11260288135111331,0.34827465461865065,-0.032712767556309696
1772534465510008600,0.151008544921875,0.007208908465504646,0.2501749303944409,-0.13683262885287403
1772534465520024600,0.161024658203125,-0.054074704536795616,0.22762129941135645,-0.19591036584135144
1772534465530041900,0.171041748046875,0.03260872265994549,0.2858236052721739,-0.20016265299096703
1772534465540057900,0.181057861328125,0.24421383003294467,0.23269991784989832,-0.1510206282165367
1772534465550075000,0.191074951171875,0.47604807096421714,0.09870382759720087,-0.08069256188464351
1772534465560091100,0.201091064453125,0.7049351525276899,0.021894436421990394,-0.05783599786565173
1772534465570108000,0.21110791015625,1.0291168377667665,0.17056027254015207,-0.05590900272529106
1772534465580124000,0.2211240234375,1.1465192283540964,0.342002880872786,-0.1935926269508898
1772534465590141000,0.231140869140625,1.1363918020933865,0.30493717880398036,-0.21978759184470398
1772534465600157000,0.241156982421875,1.0313637399107216,0.24985008235424755,-0.10637511114375665
1772534465610174000,0.251174072265625,0.865485779967904,0.17298837646991014,-0.15308223692146128
1772534465620190000,0.26118994140625,0.49676235769093036,-0.373664239680022,-0.2280306291309185
1772534465630206000,0.2712060546875,0.24614041418135166,-0.7071867308467626,-0.13361689994307235
1772534465640223000,0.281222900390625,0.06734978117346763,-0.8089661664970219,-0.07130325890644452
1772534465650239000,0.291239013671875,-0.07163608019053935,-0.6870410377882421,-0.11983190102288499
1772534465660256000,0.301256103515625,-0.2573959676891565,-0.5431903468668461,-0.26129167821975424
1772534465670272000,0.31127197265625,-0.40075463730990885,-0.4428279384076595,-0.33434831099901346
1772534465680289000,0.3212890625,-0.6268786839008331,-0.2853302687972784,-0.3602787980040535
1772534465690305000,0.331304931640625,-0.8032049726217985,-0.30940146473646163,-0.4503553382378071
1772534465700321800,0.34132177734375,-0.8190028457343578,-0.37168694825768467,-0.47434879276566205
1772534465710337800,0.351337890625,-0.6334738443821668,-0.41281507745981216,-0.5440129883613437
1772534465720355000,0.36135498046875,-0.23583470874428747,-0.39196225904524323,-0.6511318853434175
1772534465730371000,0.37137109375,0.11974924597442149,-0.3088233725875616,-0.7193875293154269
1772534465740387000,0.381386962890625,0.38237785362005233,-0.20298516306579112,-0.6329347690694034
1772534465750403800,0.39140380859375,0.5170359149128199,-0.09615998833328485,-0.5224887734912336
1772534465760419800,0.401419921875,0.5674035816252231,-0.0356993821516633,-0.3747480163287371
1772534465770437000,0.41143701171875,0.5861608890652656,-0.04536854325085878,-0.391258640820533
1772534465780452900,0.421452880859375,0.5192892467975616,-0.023929595511406658,-0.4900682668797672
1772534465790470000,0.431469970703125,0.38665187767744064,-0.06730345781370997,-0.5471020404178649
1772534465800486000,0.44148583984375,0.011715572234988212,-0.04610840183272957,-0.7045991985715925
1772534465810503000,0.4515029296875,-0.30352760426700115,0.08046075328961014,-0.9951532664317637
1772534465820519000,0.461518798828125,-0.42114568343162534,0.29347733489573,-1.2073896574456244
1772534465830535000,0.471534912109375,-0.5075555543839931,0.4724047460258007,-1.3545682506807148
1772534465840552000,0.481552001953125,-0.6106850894689559,0.510196716542542,-1.5191116010189056
1772534465850568000,0.49156787109375,-0.648727527615428,0.4385929311864078,-1.6078404164381324
1772534465860585000,0.5015849609375,-0.6603244419068097,0.3607230711728334,-1.6909418934948741
1772534465870601000,0.51160107421875,-0.6927309199929237,0.29627193405032154,-1.7298631603024899
1772534465880618000,0.521617919921875,-0.5227186367243528,0.28807956750541924,-1.5739507140569389
1772534465890633700,0.5316337890625,-0.4427911135286092,0.2736762174911797,-1.2010435763545333
1772534465900651000,0.541651123046875,-0.3901613471031189,0.3523204228781163,-0.8761914445079863
1772534465910667000,0.5516669921875,-0.2152899333655834,0.5542297734059393,-0.6925757294312119
1772534465920683800,0.561683837890625,-0.0286082548469305,0.8106596725419163,-0.49056116496324537
1772534465930699800,0.57169970703125,0.044155368068814274,0.997137499051541,-0.2305577912546694
1772534465940716000,0.581716064453125,-0.012983400213718414,1.0402940653413533,-0.09943594126403331
1772534465950733000,0.591733154296875,-0.28493162486851215,0.9176195795699954,-0.24958792428672313
1772534465960748800,0.601748779296875,-0.4962625914752483,0.834486684461683,-0.6917790260955691
1772534465970765800,0.611765869140625,-0.5721563291102647,0.8884843782395124,-1.1397431583479045
1772534465980782000,0.621781982421875,-0.6450503004074096,0.938500016643852,-1.4070283596277235
1772534465990798800,0.631798828125,-0.7716185787469149,0.9880331322282552,-1.6166485767938197
1772534466000814800,0.64181494140625,-0.8066279328078031,1.1255382535152136,-1.797853285206109
1772534466010832000,0.651831787109375,-0.6771300307571888,0.9421087086603045,-1.7137509605437515
1772534466020847900,0.661847900390625,-0.7012672776699066,0.6949402666054666,-1.2995138874568044
1772534466030865000,0.671864990234375,-0.8761141414880752,0.5321361611500383,-0.9097164052300155
1772534466040881000,0.681880859375,-0.8651473417937755,0.5340848109997809,-0.7289533031053841
1772534466050897000,0.69189697265625,-0.7418804430872201,0.5338891422972083,-0.7082396009005606
1772534466060914000,0.701913818359375,-0.5130430458843708,0.44787674622982737,-0.6792939307928085
1772534466070930000,0.711929931640625,-0.2671878783851862,0.45765477453097697,-0.6531554270602762
1772534466080947000,0.721947021484375,-0.07297697340548039,0.48145475231334567,-0.669433484905213
1772534466090963000,0.731962890625,0.17365151655375957,0.4480559021890163,-0.737620009163767
1772534466100979700,0.741979736328125,0.2939227405756712,0.40355274359583854,-0.7636898315742612
1772534466110996000,0.751995849609375,0.314734642457962,0.47434287448152895,-0.8329970304258167
1772534466121013000,0.762012939453125,0.5784346787273883,0.6297156608924269,-0.8719988151237368
1772534466131029000,0.772029052734375,0.9103945967525243,0.7306620067194104,-0.7655535796195269
1772534466141045800,0.782045654296875,1.0680074171751737,0.6425125986233353,-0.42127413211688397
1772534466151062000,0.79206201171875,1.2063374449789523,0.37398996450304983,0.030214228738844395
1772534466161078000,0.802078125,1.4521189627200364,0.13525427362024783,0.3906166896551847
1772534466171094800,0.8120947265625,1.8034715634793042,0.032062486954033374,0.6493273932047188
1772534466181110800,0.82211083984375,2.078778450912237,0.029791911673545834,0.8683725874505936
1772534466191128000,0.832128173828125,2.458081719392538,-0.18161884217113256,0.9837709447391331
1772534466201144000,0.84214404296875,2.20643335544467,-0.5386711158767342,0.7895451344512403
1772534466211160800,0.852160888671875,2.090920139604807,-0.46221477592289445,0.3699785369046032
1772534466221176800,0.8621767578125,2.2540713049322365,-0.5673148804284632,0.164053374864161
1772534466231194000,0.872194091796875,2.1743045252561566,-0.7184424304850399,0.0781739575266838
1772534466241209900,0.8822099609375,2.1585475686758757,-0.8641932559393346,0.15629282386526464
1772534466251227000,0.892226806640625,2.040674637967348,-0.9786382580257952,0.3779641288310289
1772534466261243000,0.902242919921875,1.8888287105083466,-1.0169646276801825,0.5638869518063963
1772534466271259000,0.9122587890625,1.867245824253559,-1.0378227067917585,0.6421509257040917
1772534466281276000,0.92227587890625,1.8598107058167457,-1.1270302456386387,0.5748911609016358
1772534466291292000,0.9322919921875,1.4939631312370298,-1.2368516795776783,0.45053997408971186
1772534466301309000,0.942308837890625,1.1886351995497941,-1.4174793187543748,0.29185002595484255
1772534466311325000,0.952324951171875,1.0237690469980238,-1.6014222199589012,0.09996931748837232
1772534466321342000,0.962342041015625,0.8085404884308576,-1.7074496684424578,-0.011572656632959841
1772534466331358000,0.97235791015625,0.44287119302749633,-1.786379266642034,0.008679127148538827
1772534466341375000,0.982375,0.09668108959794044,-1.852670770934224,0.017183189991116524
1772534466351390700,0.992390625,-0.2716875278919935,-1.8597788493737577,-0.05188859266936779
1772534466361408000,1.002407958984375,-0.7859726827919483,-1.8531430646210907,-0.19508812620565294
1772534466371424000,1.012424072265625,-1.1635890210986137,-1.871301383254677,-0.3433157170370221
1772534466381440000,1.02243994140625,-1.3398703016340732,-1.8975877710253,-0.4876829791784286
1772534466391456800,1.032456787109375,-1.5338257705479859,-1.833192748004198,-0.6834682938680052
1772534466401472800,1.04247265625,-1.8444278432458638,-1.7563878868736327,-0.6699363198608159
1772534466411490000,1.052489990234375,-1.7774036407649516,-1.6349859052561222,-0.5073405964590609
1772534466421506000,1.062506103515625,-1.572120137628913,-1.3989537742435931,-0.35391631376743315
1772534466431522800,1.072522705078125,-1.229316754028201,-1.2056838033758104,-0.17466456605382263
1772534466441538800,1.082538818359375,-0.84837273260355,-1.0503792598955333,-0.022671119882911442
1772534466451555800,1.092555908203125,-0.447957702511549,-0.8785945601269602,0.05748327087126672
1772534466461571800,1.10257177734375,-0.19725860211253166,-0.7239175008952617,0.07666084954999387
1772534466471587800,1.112587890625,-0.15453940432667732,-0.655705403804034,0.11312785507328808
1772534466481604900,1.12260498046875,-0.25677929709553715,-0.5711328312814236,0.08434935822598635
1772534466491621000,1.13262109375,-0.5984773498028516,-0.398327994684875,-0.06926920492872596
1772534466501638000,1.142637939453125,-0.940268926012516,-0.28620427515283225,-0.30909926691949363
1772534466511654000,1.15265380859375,-1.1076070216357707,-0.2364208380691707,-0.5939479627449065
1772534466521671000,1.1626708984375,-1.220230361253023,-0.05978022270202636,-0.7873721743263303
1772534466531686100,1.17268603515625,-1.213113807246089,0.07540507733523845,-0.8746835972283035
1772534466541703000,1.182702880859375,-1.1434528265208006,0.17299699816778302,-0.9393029305245727
1772534466551719000,1.192718994140625,-1.2012526890605688,0.35567499400302766,-0.9430500080984086
1772534466561736200,1.202736083984375,-1.3343459852546453,0.5255075367905199,-0.9321036666702479
1772534466571752200,1.212752197265625,-1.4307605328708886,0.5818351348206401,-0.9671814828574656
1772534466581768000,1.222767822265625,-1.5983154861152171,0.6272685600012541,-1.0292327192313968
1772534466591785000,1.232784912109375,-1.6778461189478635,0.7202462650366127,-0.9790219235811382
1772534466601801200,1.24280126953125,-1.75267661126554,0.8624053496092557,-0.9153769152097403
1772534466611818000,1.25281787109375,-1.7682517815381287,0.9813692904248833,-0.8356713642016053
1772534466621834000,1.262833984375,-1.7211100911349058,1.0381304575666785,-0.7952811938852071
1772534466631851000,1.27285107421875,-1.5901590676665305,1.0667783137716351,-0.8059260681487619
1772534466641867000,1.282866943359375,-1.5270938319444656,1.167755639258772,-0.7077673072136939
1772534466651884000,1.292884033203125,-1.3550661172002554,1.2886600466176867,-0.5864610410556197
1772534466661900000,1.302900146484375,-1.1063286722630261,1.2909073871530592,-0.44842429710999127
1772534466671917000,1.3129169921875,-0.9335521849781274,1.3225164312511681,-0.309083777089417
1772534466681932800,1.322932861328125,-0.7271440617263316,1.3355837103560566,-0.1359204824440181
1772534466691949000,1.332948974609375,-0.4776110824972391,1.344005209481716,0.03514569379165768
1772534466701966000,1.342966064453125,-0.2624643569946289,1.3191460780352353,0.2034616945363581
1772534466711982000,1.352982177734375,0.04670505255162716,1.2421980090416966,0.3629569677047431
1772534466721998800,1.362998779296875,0.3714934715121984,1.194928892866522,0.496025421718508
1772534466732015000,1.37301513671875,0.7122767474621534,1.1307556959025562,0.6354847458131611
1772534466742032100,1.3830322265625,1.1541554223209618,1.0124765224806964,0.8002874777399003
1772534466752048000,1.393048095703125,1.5671616384387015,0.9522244444832205,0.9535144842937588
1772534466762065000,1.40306494140625,1.851749564436078,0.8764109324775635,1.0396702343545854
1772534466772081200,1.4130810546875,2.0743442678570747,0.718787298399955,1.0450621565259992
1772534466782097200,1.42309716796875,2.1984879493981597,0.5402944792948663,1.0556680139534176
1772534466792114000,1.433114013671875,1.9804910951614378,0.4031264810077846,1.1222953260712325
1772534466802130000,1.4431298828125,1.5871066943585872,0.29330519319921733,1.2006121991999448
1772534466812147200,1.453147216796875,1.2267062792688608,0.12284925781637429,1.165530948946625
1772534466822163200,1.4631630859375,0.8957704435944557,-0.01199687339439988,1.0074131016112864
1772534466832180000,1.473179931640625,0.6016115561753511,-0.08166136125102638,0.8066143426738679
1772534466842196000,1.483196044921875,0.4857622402489185,-0.22822890991568565,0.6511096004463732
1772534466852213200,1.493213134765625,0.4779670563280582,-0.4258275576375425,0.5060768601335585
1772534466862229000,1.50322900390625,0.5265829109370708,-0.5827725618012249,0.30891105087101456
1772534466872246000,1.51324609375,0.576956422868371,-0.6852594150684773,0.13774740561023355
1772534466882262000,1.523261962890625,0.5459539663612842,-0.7804926439456641,0.1591379841633141
1772534466892279000,1.533279052734375,0.5639899737894535,-0.8415634909801185,0.29984190149158235
1772534466902295000,1.543294921875,0.7814572511941195,-0.8876993653416633,0.39405996197685594
1772534466912311000,1.55331103515625,0.9978630368471145,-0.9155775523483752,0.4920137018591165
1772534466922328000,1.563328125,1.2440221557289362,-0.9038087886214256,0.5179783103294671
1772534466932344000,1.573343994140625,1.3834247812002896,-0.8371224397927522,0.5326010021828115
1772534466942361000,1.583361083984375,1.4065122267991303,-0.7687533985741436,0.518830835505575
1772534466952377000,1.593377197265625,1.3269909463167189,-0.808164933116734,0.5589907041974366
1772534466962394000,1.60339404296875,1.1193208403050898,-0.8989186784923076,0.6785831521749496
1772534466972409900,1.613409912109375,0.9297527926951646,-0.868543560103327,0.7330845576912164
1772534466982427100,1.62342724609375,0.7263865213572979,-0.7714258326537907,0.7085330308891833
1772534466992443100,1.633443115234375,0.5690858356237412,-0.7359760413490235,0.5825650565303861
1772534467002459100,1.643459228515625,0.47187049301862716,-0.7293482937723398,0.3260628228105604
1772534467012476000,1.653475830078125,0.25916297736167904,-0.6760235308200121,0.11223580160439013
1772534467022492000,1.663491943359375,0.01918108581006527,-0.7333506612814963,-0.026806612252444028
1772534467032509200,1.67350927734375,-0.17682722398042677,-0.8387605623885989,-0.0786525348238647
1772534467042525000,1.68352490234375,-0.4207324264556169,-0.7983312291055917,-0.1166208848208189
1772534467052542000,1.6935419921875,-0.6212187584429979,-0.6841580296978355,-0.16055091970115898
1772534467062558000,1.703557861328125,-0.7232441316783428,-0.632608167463541,-0.1415694481164217
1772534467072575000,1.713574951171875,-0.7262567574977874,-0.5350570170328021,-0.2228070309974253
1772534467082591000,1.723591064453125,-0.582072158446908,-0.348484790237993,-0.5666942643120885
1772534467092608000,1.73360791015625,-0.4547475087821483,-0.12340645330771803,-0.7674484534554183
1772534467102624000,1.7436240234375,-0.32846506164669986,-0.004244067310541868,-0.7479710150472819
1772534467112640300,1.75364013671875,-0.20623802738189695,0.11484233084097505,-0.6767158969983458
1772534467122657000,1.763656982421875,-0.18649638507962227,0.3296057561144233,-0.6216529120765626
1772534467132673000,1.773673095703125,-0.2581160986572504,0.4631996953070163,-0.4747475097596645
1772534467142690000,1.78368994140625,-0.3571194937229156,0.41722865611836313,-0.473012064269185
1772534467152706000,1.7937060546875,-0.6478671113938093,0.28751930327415465,-0.5425028760593384
1772534467162723000,1.80372314453125,-1.1140811860859394,0.20180574402287602,-0.6177286513049155
1772534467172739000,1.813739013671875,-1.4499597388595342,0.11201792107000946,-0.7043637823805212
1772534467182755800,1.823755859375,-1.6510756009221077,-0.040898996621370316,-0.7957022688414901
1772534467192772000,1.833772216796875,-1.808984773942828,-0.04522124373465776,-0.8286152351450174
1772534467202789000,1.8437890625,-1.8636714728981256,0.05785831472873688,-0.7895215343799442
1772534467212805000,1.85380517578125,-1.7839502859294414,0.15622691902220248,-0.6982001451842487
1772534467222821000,1.863821044921875,-1.7484388275653122,0.3371934347644448,-0.6896061390358954
1772534467232838100,1.873838134765625,-1.580978566867113,0.5627317904219031,-0.6488166672036051
1772534467242854100,1.883854248046875,-1.452640356245637,0.7553694547355174,-0.5503513245373964
1772534467252871000,1.893870849609375,-1.4453320790588855,0.8820978920727968,-0.39153840760998426
1772534467262887000,1.903886962890625,-1.359488609817624,0.951046925136447,-0.1832016543831676
1772534467272904200,1.913904296875,-1.2435182978600263,0.9827180746853351,-0.011053528129681944
1772534467282920200,1.923920166015625,-1.1047779356896876,1.0161896977849305,0.09072934158667921
1772534467292937000,1.93393701171875,-0.9745546419739722,1.0494397870883345,0.06939180839508771
1772534467302953000,1.943952880859375,-0.8638619781583547,1.022078901953995,-0.06553593668453395
1772534467312970000,1.953969970703125,-0.8166215035557747,0.8920517153322696,-0.20648126155324278
1772534467322986200,1.963986328125,-0.758876586073637,0.72712404185161,-0.33164244957379996
1772534467333002000,1.974001953125,-0.7834329351812601,0.5631675514906644,-0.3988032109811902
1772534467343019000,1.98401904296875,-0.7650567360132933,0.38941330521479245,-0.43495084835700687
1772534467353035000,1.994034912109375,-0.6576262888640165,0.15968699634820221,-0.3542516101364046
1772534467363052000,2.004052001953125,-0.32497663500905033,0.036019846277683974,-0.4856432169791311
1772534467373068000,2.014068115234375,0.005147299760580063,-0.158968472815305,-0.5094079773176461
1772534467383085000,2.0240849609375,0.3822726396799087,-0.3501214515291154,-0.5832399601172655
1772534467393101000,2.03410107421875,0.7674410008013248,-0.5095543269857764,-0.6346759867135435
1772534467403118000,2.0441181640625,1.1141969214200973,-0.651421442874521,-0.5833425437089056
1772534467413134000,2.054134033203125,1.4330956978201865,-0.7292512631386519,-0.43698790714256464
1772534467423151000,2.064151123046875,1.7127765625536442,-0.7811516923762858,-0.30074513394162056
1772534467433167000,2.0741669921875,1.8840970058113335,-0.8369353927880525,-0.13391849497184158
1772534467443182800,2.084182861328125,2.0372925943136213,-0.8916720683649182,0.09403905065655707
1772534467453200100,2.0942001953125,2.174822996172309,-0.8658006911359727,0.2402317746594548
1772534467463216000,2.104216064453125,1.9939789377659558,-0.8895112370692193,0.3612158231258392
1772534467473233000,2.11423291015625,1.8963322180062532,-1.0293578069157898,0.42788302886262536
1772534467483249000,2.124248779296875,1.82985045183897,-1.157584081595391,0.3476191863846034
1772534467493266200,2.13426611328125,1.5742764388799666,-1.2393557713530956,0.15819741537757218
1772534467503282200,2.1442822265625,1.5040864658445119,-1.37979694609195,0.013381898012012243
1772534467513299000,2.154298828125,1.511622706568241,-1.4381187866792082,-0.07434811562821268
1772534467523315000,2.16431494140625,1.489136733993888,-1.5023229633033275,-0.0967968979973346
1772534467533332200,2.174332275390625,1.5241022489130496,-1.545486543855816,-0.152911803124845
1772534467543348000,2.184347900390625,1.4597119020670652,-1.5229830356247722,-0.24985278576798736
1772534467553364200,2.1943642578125,1.432755506080389,-1.4915962559752165,-0.25516762411519883
1772534467563381200,2.20438134765625,1.4607932675629853,-1.498080795688927,-0.20442937052473426
1772534467573397200,2.214397216796875,1.4584581026136874,-1.5307887409396468,-0.20349566987119613
1772534467583414000,2.2244140625,1.4162187972992657,-1.5962157373569905,-0.20981778556481004
1772534467593430300,2.23443017578125,1.1743909856200216,-1.6895453245699406,-0.17447839583195746
1772534467603447300,2.244447265625,0.9471399808257818,-1.7406038961559533,-0.16166903701089322
1772534467613463000,2.254463134765625,0.7547422627478838,-1.6876574649967253,-0.13139058392941952
1772534467623480000,2.26447998046875,0.5295780010998249,-1.6524745079346,-0.06105871820524335
1772534467633496000,2.27449609375,0.38101767118275165,-1.6029693032704293,0.03199088302254677
1772534467643512300,2.28451220703125,0.30889819138944147,-1.5016580696538089,0.05682984846383333
1772534467653529000,2.294529052734375,0.3022732202917337,-1.4384104631021617,0.02025828658752143
1772534467663545000,2.304545166015625,0.2872732195585966,-1.3847757574178277,-0.010715163020789623
1772534467673562000,2.31456201171875,0.2536941905617714,-1.3313598090507088,-0.023357640842348336
1772534467683578400,2.324578369140625,0.145804309207201,-1.2642526044614613,-0.10667561019398271
1772534467693595100,2.33459521484375,0.05864215858280658,-1.1918055001489818,-0.2400117021679878
1772534467703611100,2.344611083984375,-0.060689154240489006,-1.1252294798269866,-0.3065734747689217
1772534467713628200,2.354628173828125,-0.13104863862395286,-1.0534316332034765,-0.3356296925790608
1772534467723644200,2.36464404296875,-0.08237550086975097,-0.9521979948677122,-0.412834439747408
1772534467733661200,2.3746611328125,-0.018454525101184845,-0.8478677056908607,-0.43913069132491944
1772534467743677200,2.38467724609375,0.110050274258852,-0.8048045167729259,-0.46332938610129054
1772534467753693200,2.394693115234375,0.24963994673490522,-0.7215627544626593,-0.5486654172770679
1772534467763710200,2.404710205078125,0.2631839034408331,-0.5361356060497462,-0.70559924245961
1772534467773726200,2.414726318359375,0.38405660048723217,-0.36135245511755343,-0.8431379006899893
1772534467783743200,2.4247431640625,0.5215642059922218,-0.14765534390136598,-0.984886870091781
1772534467793759200,2.43475927734375,0.4883019878596067,0.07456979555487632,-1.1225254815652965
1772534467803776300,2.4447763671875,0.26533319042921066,0.25381416367962956,-1.2871437968358397
1772534467813792300,2.454792236328125,-0.15760931329131125,0.4857286302402615,-1.5527653026871382
1772534467823809000,2.46480908203125,-0.7610486694157124,0.6338005921185016,-1.7673831820100545
1772534467833825000,2.474824951171875,-1.5057769031494854,0.508136715272814,-1.8507248975634574
1772534467843842300,2.48484228515625,-2.194171839764714,0.27716142925843595,-1.8714656339056788
1772534467853858300,2.4948583984375,-2.694499196460843,0.21316519629657268,-1.8310548591926692
1772534467863874300,2.504874267578125,-3.06429813901484,0.2927763470195234,-1.6461001505970954
1772534467873891000,2.51489111328125,-3.0933944696396587,0.4463084739997983,-1.4227075747966766
1772534467883907000,2.524906982421875,-2.9186995815128087,0.7171550210230052,-1.2149131117530165
1772534467893924400,2.53492431640625,-2.451006081917882,1.041212349230051,-1.0949169052802026
1772534467903940000,2.544940185546875,-1.7622890737414358,1.2880448373287916,-1.0249135408580303
1772534467913957000,2.55495703125,-1.0995260065108536,1.421047971021384,-0.9213334855265914
1772534467923973000,2.56497314453125,-0.5655599995851517,1.4792496923603116,-0.7377773916825652
1772534467933990100,2.574990234375,-0.12243629310131073,1.5079682757139206,-0.6091454588115215
1772534467944006100,2.585006103515625,0.12392857748568058,1.5127525873810053,-0.42057650524154305
1772534467954023200,2.595023193359375,0.1450683961480856,1.5111711634084581,-0.17415011372566222
1772534467964039200,2.6050390625,-0.06430033047497272,1.4549993404619395,0.020971037966758012
1772534467974055200,2.61505517578125,-0.3454612046331167,1.3681455251343548,0.0766786044023931
1772534467984072200,2.625072265625,-0.7499550284713506,1.356034669971466,0.10224822220578789
1772534467994088200,2.635088134765625,-1.2910013490468264,1.29584776616469,0.09071268271282315
1772534468004105200,2.645105224609375,-1.7852338959991931,1.1876251457244158,-0.06507043806463479
1772534468014121000,2.655120849609375,-2.0866385167628527,1.0927943601682781,-0.20173092522099614
1772534468024138200,2.66513818359375,-2.0913743131130933,1.0897443249478935,-0.183746940241009
1772534468034154200,2.675154296875,-1.8147458216875791,1.115057045380771,-0.004631751453876495
1772534468044171000,2.6851708984375,-1.3154454699516296,1.1009759130582213,0.19513737217485905
1772534468054187000,2.69518701171875,-0.6749573628932237,1.1426003013446926,0.43899055220186706
1772534468064203300,2.705203369140625,-0.011531447839736938,1.2088754390239715,0.6495723078764974
1772534468074220300,2.71522021484375,0.6219687000274657,1.2586832798965275,0.7828289779387414
1772534468084236000,2.725236083984375,1.0571844098657368,1.2181553085446357,0.9365297394841909
1772534468094253000,2.735253173828125,1.333645143508911,1.1600265063114463,1.1252755109257995
1772534468104269300,2.745269287109375,1.4082891733437777,1.1929942715421318,1.1904466328859329
1772534468114286000,2.7552861328125,1.4169745841026304,1.1299079930320381,1.0831896426074206
1772534468124302000,2.765302001953125,1.537518195325136,1.034231696562469,0.9206078016005456
1772534468134319000,2.775319091796875,1.6434294700831173,0.902060483649373,0.84940762860924
1772534468144335400,2.78533544921875,1.7921745089173315,0.8350975098364055,1.137008180426061
1772534468154352000,2.79535205078125,1.7056775442034005,0.9283369345478713,1.6734369242034852
1772534468164368100,2.8053681640625,1.5483517240285873,0.8595810859687626,2.045420225059241
1772534468174384000,2.815384033203125,1.4985884529501199,0.7527798766337335,2.177489585033059
1772534468184401200,2.825401123046875,1.3378583772897719,0.6990225674830377,2.0495986797876653
1772534468194417200,2.835417236328125,1.1087637904554606,0.6377307711742818,1.6784544601045548
1772534468204434200,2.84543408203125,0.9369494262009859,0.43221915837079283,1.1689293592132628
1772534468214450200,2.8554501953125,0.8047539556294679,0.12740531368553637,0.7543266676843166
1772534468224467200,2.86546728515625,0.6269768835783004,-0.17050196648165583,0.38785789246633645
1772534468234483200,2.875483154296875,0.49876551420688625,-0.45800709509998555,0.19903861739709972
1772534468244500200,2.885500244140625,0.4535737888276577,-0.7381940096594393,0.13501082025319336
1772534468254516200,2.89551611328125,0.6614215894937515,-0.932995427878201,0.18009777008369565
1772534468264533200,2.905533203125,0.9533306521594523,-0.8972915156818926,0.34381416807845233
1772534468274549200,2.91554931640625,1.1236954021275043,-0.7969948659352958,0.42143794437646864
1772534468284565200,2.925565185546875,1.1797492977827786,-0.8187460944943129,0.38042438146471974
1772534468294582000,2.93558203125,1.0282996761649847,-0.8561651400454342,0.3387731051713228
1772534468304598000,2.945597900390625,0.5764449662148952,-0.9185679663360118,0.2818365814626217
1772534468314615300,2.955615234375,0.013323591953516005,-1.0671461241707205,0.18000848436504602
1772534468324631300,2.96563134765625,-0.5142676192432641,-1.1741605378650128,0.029691812299937007
1772534468334648000,2.97564794921875,-0.8949030131101607,-1.1779171139195561,-0.23999372811987996
1772534468344664000,2.9856640625,-1.1103221258133649,-1.2410659362718461,-0.5006900525286794
1772534468354681300,2.995681396484375,-1.196235153159499,-1.2901874023154378,-0.651701136598736
1772534468364697300,3.005697265625,-1.021085507002473,-1.240500265213102,-0.7160279166892171
1772534468374714000,3.015714111328125,-0.819770907497406,-1.220971681139618,-0.5773500983610749
1772534468384730000,3.025730224609375,-0.6132499715209007,-1.239464346294105,-0.3914982947953045
1772534468394746000,3.03574609375,-0.42101416600644587,-1.1357394756644963,-0.31406521876379845
1772534468404763100,3.04576318359375,-0.33983868857622146,-0.9759564715959131,-0.29912191665396093
1772534468414779100,3.055779052734375,-0.35817747834324837,-0.865784178392589,-0.532759553745389
1772534468424796200,3.065796142578125,-0.3605155659019947,-0.748742876202613,-0.8878782290399074
1772534468434812200,3.075812255859375,-0.21798516379892824,-0.600139291665703,-0.9102854372896253
1772534468444829200,3.0858291015625,-0.0008656769186258316,-0.45633331666886806,-0.6381200627528131
1772534468454845200,3.09584521484375,0.3599047405272722,-0.3755190737664699,-0.2701543269753456
1772534468464862200,3.1058623046875,0.6754886932909488,-0.2452076633758843,0.0275780350163579
1772534468474878000,3.1158779296875,0.821603968143463,-0.1289823537439108,0.16536745313741266
1772534468484895200,3.125895263671875,0.7268313425153493,-0.04442527105137706,0.2319328790001571
1772534468494911200,3.1359111328125,0.5562906514585018,0.044480946761369704,0.2590445386137813
1772534468504927200,3.14592724609375,0.30543489919304845,0.147971424113214,0.09836085937842726
1772534468514944000,3.155944091796875,-0.06217851601541042,0.1313352004803717,-0.1536439898569137
1772534468524960300,3.165960205078125,-0.6132838737905025,0.06627762189731001,-0.4758186461225152
1772534468534977800,3.175977783203125,-1.2476391771823168,0.0203485221542418,-0.8051236657246946
1772534468544993800,3.185993896484375,-1.68147073918581,-0.021830723536014555,-0.9453866343524306
1772534468555010800,3.1960107421875,-2.0481711312025785,-0.03220569481700659,-0.8161623616114259
1772534468565026800,3.20602685546875,-2.1726900757968424,0.036411622074246405,-0.6763418760541826
1772534468575043600,3.216043701171875,-2.1088602854430674,0.22083280831500887,-0.6109274468574672
1772534468585059800,3.226059814453125,-1.8667419663846492,0.41810675412714476,-0.47545806918181477
1772534468595076900,3.236076904296875,-1.5503735852450131,0.5583582515127956,-0.39858343075066804
1772534468605092900,3.2460927734375,-1.2162737325817345,0.646959348899126,-0.3730400433670729
1772534468615108600,3.256108642578125,-0.9289350465714931,0.6873284764274954,-0.2720129604540765
1772534468625126000,3.2661259765625,-0.7788385931283235,0.6720299311392008,-0.18510076600275932
1772534468635142000,3.276141845703125,-0.9358230525195598,0.6689983083583414,-0.2280368214096874
1772534468645158700,3.28615869140625,-1.215631343024969,0.5687649331063032,-0.4047954371333122
1772534468655174700,3.296174560546875,-1.3453268134742975,0.34437793944105505,-0.633741117016226
1772534468665192000,3.30619189453125,-1.452643863376975,0.2005101512543857,-0.817292607750371
1772534468675208000,3.3162080078125,-1.412501238080859,0.10043737339153885,-0.8846883469574153
1772534468685224700,3.326224609375,-1.2385901938080788,-0.0003298164762556553,-0.9285938319183885
1772534468695240700,3.33624072265625,-0.9873667772740125,-0.08291939848810434,-0.9576591098178178
1772534468705258000,3.346258056640625,-0.6948585796713829,-0.14422566171362997,-0.9059037881392985
1772534468715274000,3.35627392578125,-0.3802408415913582,-0.21580343584567308,-0.7552700129490345
1772534468725289700,3.366289794921875,-0.039005730220675466,-0.23907354453504084,-0.6172076961707323
1772534468735306800,3.376306640625,0.38097324751913547,-0.19986103969588875,-0.5106202757168561
1772534468745322800,3.38632275390625,0.7620780124634504,-0.18102759827971457,-0.4693029806181788
1772534468755339800,3.39633984375,1.115157875406742,-0.23334742197319863,-0.43064336042143403
1772534468765355800,3.406355712890625,1.4317676640868187,-0.3100178430691361,-0.2462063190244138
1772534468775372800,3.416372802734375,1.7507541187703608,-0.34502091351971026,0.03258643776290118
1772534468785388800,3.426388916015625,2.0919880610972643,-0.3607356383934617,0.26560937702208753
1772534468795405800,3.43640576171875,2.234451243183017,-0.396959044419229,0.39563353143651037
1772534468805421800,3.446421875,2.342199085718393,-0.5165222663022577,0.3016634908955544
1772534468815438800,3.45643896484375,2.3804870230585333,-0.6154324301265179,0.1083423378298059
1772534468825454600,3.46645458984375,2.3529349992662665,-0.678412764044106,-0.1169537700369954
1772534468835470600,3.476470703125,2.2941987326592206,-0.7821120618410408,-0.2994392024422064
1772534468845487900,3.48648779296875,2.191900387701392,-0.9151381380178034,-0.37764859660845246
1772534468855504000,3.49650390625,2.1260797157913447,-0.9970420758530497,-0.4251278484029695
1772534468865520600,3.506520751953125,2.0768618036359547,-1.0733144375421106,-0.408205976229161
1772534468875536600,3.51653662109375,2.005196497350931,-1.1462805972926318,-0.331627909591794
1772534468885554000,3.526553955078125,1.8452566952854395,-1.1353953384019433,-0.4019791010709479
1772534468895570000,3.53656982421875,1.7486843267589807,-1.2184658357985316,-0.5135713075421751
1772534468905586700,3.546586669921875,1.7024866392076015,-1.2834544407986104,-0.5519244921382517
1772534468915602700,3.556602783203125,1.7302543515771627,-1.2694218237929045,-0.5263037652021274
1772534468925620000,3.566619873046875,1.7734464275717734,-1.2452138497315346,-0.4044937142403796
1772534468935635700,3.5766357421875,1.7589777572363614,-1.2251033741168678,-0.18520060964804141
1772534468945651700,3.586651611328125,1.5987550465762614,-1.1656455152370035,0.02742101782374084
1772534468955668700,3.596668701171875,1.373778416454792,-1.1268887913413346,0.17948774842657148
1772534468965685000,3.60668505859375,1.0599994672864674,-1.0971166072815657,0.17622739492375403
1772534468975701800,3.61670166015625,0.7192050854206085,-1.0691472348600626,0.1299890831010416
1772534468985717800,3.6267177734375,0.47468555043935773,-1.0623226495370268,0.05209712085351348
1772534468995734800,3.63673486328125,0.24462767153084278,-1.0010941277228296,-0.04611603714991361
1772534469005750800,3.646750732421875,0.061218731072545045,-0.8877136861279606,-0.05187266444787383
1772534469015767800,3.656767822265625,-0.16314239749908446,-0.7642771299429237,-0.013540230378881095
1772534469025783800,3.66678369140625,-0.42969256250262255,-0.7220153205357491,-0.010729703002795576
1772534469035800600,3.676800537109375,-0.678798840752244,-0.7404724759854376,-0.04864318100735545
1772534469045816800,3.68681689453125,-0.887865954080224,-0.7560330332107842,-0.047343861911818386
1772534469055832800,3.696832763671875,-1.0088590626358986,-0.7778339461304247,0.01766059824451804
1772534469065849900,3.706849853515625,-1.0177940642416476,-0.6952732979521155,-0.004439005360752344
1772534469075865900,3.716865966796875,-0.8791542398363351,-0.5317563680522144,0.019766557547822593
1772534469085883000,3.7268828125,-0.6397381654739379,-0.41075829106047745,-0.007924947780370712
1772534469095899000,3.73689892578125,-0.4806470891922712,-0.3145912884645164,-0.1261208998981863
1772534469105916000,3.746916015625,-0.46955929346680636,-0.2017483147472143,-0.3008244827881455
1772534469115931600,3.756931640625,-0.5452396806120872,-0.16169205256029962,-0.5095830416236072
1772534469125949000,3.766948974609375,-0.6749263832330703,-0.16877514268904922,-0.6896558233965188
1772534469135965000,3.77696484375,-0.8892430876523256,-0.23660262437686322,-0.8719439431313425
1772534469145981700,3.786981689453125,-1.23508130890429,-0.33319983508363366,-1.0275273766182362
1772534469155997700,3.796997802734375,-1.6528677450358866,-0.3829793266445398,-1.0744559357274324
1772534469166013700,3.807013671875,-2.0000988819509744,-0.37541312917396424,-0.9756506205171346
1772534469176031000,3.817031005859375,-2.1816104643553493,-0.2776553502552211,-0.9203438899673521
1772534469186046700,3.827046630859375,-2.238299735304713,-0.05214797425791621,-0.7887522305078803
1772534469196063700,3.837063720703125,-2.164831763511896,0.17390972909852861,-0.5135570598211139
1772534469206079700,3.847079833984375,-2.0467297002226115,0.4393916803486645,-0.2872382213104516
1772534469216096800,3.8570966796875,-1.8605220689564943,0.6704176736369729,-0.1196730389330536
1772534469226112800,3.86711279296875,-1.6262772597521542,0.7912545687176287,0.024811639042943714
1772534469236129800,3.8771298828125,-1.3854109865814446,0.8519429923057555,0.0732532330635935
1772534469246145800,3.887145751953125,-1.217986966240406,0.9029873892359435,0.09022891778387129
1772534469256162800,3.897162841796875,-1.0816244391173124,0.9274510916240513,0.05779146003760397
1772534469266178800,3.9071787109375,-1.0353262138009072,1.0129378563821314,-0.04197627046406269
1772534469276194800,3.91719482421875,-1.094622452378273,1.0988627202965318,-0.171450937769562
1772534469286211800,3.9272119140625,-1.3318570910483598,1.1217296550124882,-0.33753581846132874
1772534469296227600,3.9372275390625,-1.6620307101786136,1.0895787591226398,-0.43943106251098213
1772534469306244900,3.947244873046875,-1.9546096349298954,1.093282582076639,-0.4855742433961481
1772534469316260900,3.9572607421875,-2.087020209556818,1.1477655751533806,-0.5070543268635869
1772534469326277600,3.967277587890625,-2.1048013654410838,1.1966804127089679,-0.4190572597850114
1772534469336293600,3.977293701171875,-2.047075152659416,1.2562887859754264,-0.3219230195920914
1772534469346311000,3.987310791015625,-1.758448764926195,1.2942001450881362,-0.26562998141869903
1772534469356327000,3.997326904296875,-1.2783598941385745,1.3434022751525043,-0.17932240179702638
1772534469366343700,4.00734375,-0.6553501606255769,1.3767770137488842,-0.06774630621038377
1772534469376359700,4.017359619140625,0.04841361003518104,1.3619510544084013,0.09421426109299064
1772534469386376000,4.0273759765625,0.6628688656926155,1.3302470255032182,0.2597560478840023
1772534469396392700,4.037392822265625,1.1433113722234964,1.2964176750071346,0.4017986664701253
1772534469406408700,4.04740869140625,1.4663333660334348,1.2679647568523884,0.5599276927866041
1772534469416425700,4.05742578125,1.727103778591752,1.2071831020228565,0.70703541274257
1772534469426442000,4.06744189453125,1.9463374811470509,1.1286980327203868,0.7780928162623196
1772534469436458800,4.077458740234375,2.1353671840965744,1.024937360125035,0.7850067603692412
1772534469446474800,4.087474853515625,2.3257097232103345,0.9156392194077372,0.8088326763104647
1772534469456491800,4.09749169921875,2.4213825125485657,0.7499040289364755,0.7435079712238162
1772534469466507800,4.1075078125,2.449168345096707,0.574555060815066,0.5434069122269749
1772534469476524800,4.11752490234375,2.3306840044915673,0.3794647426523268,0.40785380179062486
1772534469486540800,4.127540771484375,2.171792250174284,0.18665172177180647,0.369139747992903
1772534469496556800,4.137556884765625,2.0458640233039853,-0.0007630933269858359,0.39933337233513594
1772534469506573600,4.147573486328125,1.8285083895802496,-0.1796038490869105,0.4869990155022591
1772534469516589800,4.15758984375,1.650412753099203,-0.32724750255048274,0.5785790556341409
1772534469526606800,4.16760693359375,1.4567998140126466,-0.38423677935972805,0.6183898916926235
1772534469536622800,4.177622802734375,1.307356271520257,-0.43705505409464235,0.6564193972922862
1772534469546640000,4.187639892578125,1.2326187181830406,-0.5436616176404059,0.6897044848438352
1772534469556655900,4.19765576171875,1.098233044090867,-0.6450764577619731,0.7657114735949784
1772534469566673000,4.2076728515625,1.052283193820715,-0.7559013696551322,0.8317514142788947
1772534469576688600,4.217688720703125,1.0115449407190085,-0.8621690566353499,0.8547890293866396
1772534469586706000,4.227705810546875,0.9612772272497415,-0.9445992103017866,0.835173936073482
1772534469596722000,4.237721923828125,0.9277642492264508,-1.0078587995521724,0.7695039246805012
1772534469606738000,4.247738037109375,0.8718757732659578,-0.9818765092946589,0.6584349018331617
1772534469616754700,4.257754638671875,0.8278121751338243,-1.0020758322365582,0.5682607829764486
1772534469626770700,4.267770751953125,0.8752724299669266,-1.0313523417338728,0.5493391518201679
1772534469636788000,4.2777880859375,0.8661936359763145,-1.000033805014938,0.550720596241206
1772534469646804000,4.287803955078125,0.7781523644298315,-0.956523456851393,0.5142737567231058
1772534469656820700,4.29782080078125,0.6395540410786866,-0.8622381763488054,0.3574078822102397
1772534469666836700,4.307836669921875,0.3935504050195217,-0.7846877575479447,0.1996366563554853
1772534469676854000,4.31785400390625,0.037001404660940165,-0.8068855608306824,0.003492956682294607
1772534469686869800,4.327869873046875,-0.40304187146425247,-0.9219983791761099,-0.21683139065392315
1772534469696886800,4.33788671875,-0.7298825467795134,-0.9999674617804586,-0.39714784498959776
1772534469706902800,4.34790283203125,-0.9757178405344485,-0.9519128943160176,-0.4564626421369612
1772534469716919000,4.3579189453125,-1.1382084961265324,-0.8190848249293863,-0.38814204316996037
1772534469726935800,4.367935791015625,-1.2723662066817283,-0.7286563659854233,-0.25352599438801404
1772534469736951800,4.377951904296875,-1.4624994869589805,-0.6392421986505389,-0.2025179839454591
1772534469746968800,4.38796875,-1.6338894883215427,-0.49306218799874185,-0.3355954249832779
1772534469756984800,4.39798486328125,-1.8305436948001383,-0.35889030278772116,-0.4106983775667846
1772534469767001900,4.408001953125,-1.9880822809427976,-0.1358123458944261,-0.4674293687660247
1772534469777017900,4.418017822265625,-2.054007582271099,0.21209566736891863,-0.641752793231979
1772534469787034600,4.42803466796875,-1.8775187964648008,0.49768648679852484,-0.7258801792703569
1772534469797050600,4.438050537109375,-1.5160165576130151,0.6889578311949968,-0.7445467396870254
1772534469807068000,4.44806787109375,-1.092916232982278,0.7284680038064718,-0.7011739002980292
1772534469817084000,4.458083984375,-0.966300608369708,0.5865044418059289,-0.6694741822417825
1772534469827100000,4.468099853515625,-1.1745242566108702,0.3697951431617141,-0.6821057733431458
1772534469837116700,4.47811669921875,-1.5916215414345263,0.2524745856389403,-0.694830887946859
1772534469847133000,4.4881328125,-1.9528642525672912,0.3263273189656436,-0.5399656126666814
1772534469857150000,4.49814990234375,-2.091577726730704,0.5507071522377431,-0.23673845265097915
1772534469867165700,4.508165771484375,-1.728140720424056,0.8088944164350629,0.035138533398509024
1772534469877182700,4.5181826171875,-1.119311487954855,1.0868116324968635,0.31343225462250407
1772534469887199000,4.528198974609375,-0.5915811605483293,1.2075370300270616,0.6990477019242942
1772534469897215700,4.5382158203125,-0.14725216992795467,1.186356148701906,0.876921585413441
1772534469907231700,4.548231689453125,0.18423253180086613,1.1942530394315718,0.7044071100655943
1772534469917248800,4.558248779296875,0.33191315627396106,1.0972038471736014,0.43979587723538277
1772534469927265000,4.56826513671875,0.39515842473804946,0.9125333623468875,0.09011354777589439
1772534469937280800,4.57828076171875,0.41925417059659953,0.7337462364703417,-0.25902298436909915
1772534469947297800,4.5882978515625,0.43362756386399265,0.5166875398665667,-0.6673486414551735
1772534469957313800,4.598313720703125,0.4468324978739023,0.26550065595060585,-1.0500760391652584
1772534469967330800,4.608330810546875,0.36781858239173887,0.05036182149350643,-1.3016769107095896
1772534469977346800,4.618346923828125,0.24355215125381946,-0.1801245119601488,-1.4125037222988903
1772534469987363800,4.62836376953125,0.08555588447153568,-0.3546018118135631,-1.4127799088917672
1772534469997379800,4.6383798828125,-0.010714870759844779,-0.41891660920530555,-1.376449535360187
1772534470007396900,4.64839697265625,-0.07824877632856368,-0.4134088055692613,-1.2517306842796503
1772534470017412900,4.658412841796875,-0.03791676594018936,-0.41029038128778333,-0.9722636084273457
1772534470027430000,4.668429931640625,0.026196517530083653,-0.3447479417972266,-0.5941854978278279
1772534470037446000,4.67844580078125,0.1457476105839014,-0.18864844854697585,-0.22575331358239054
1772534470047461600,4.688461669921875,0.2698620660305023,-0.07961597302854061,0.05199168771766126
1772534470057479000,4.69847900390625,0.5085673617750406,-0.05376534632667899,0.20365831308700144
1772534470067495000,4.708494873046875,0.7562105817347764,-0.00910641264989972,0.2671232887163758
1772534470077511700,4.71851171875,1.0834954936861991,-0.03065890376642346,0.30782289030812676
1772534470087527700,4.728527587890625,1.3765724310874938,-0.09403656643852591,0.2966035040922463
1772534470097545000,4.738544921875,1.5910358505010604,-0.13602613477557896,0.22010076771341264
1772534470107561000,4.74856103515625,1.7227333084225653,-0.2055367472447455,0.13634462614022194
1772534470117577700,4.75857763671875,1.8473861085295675,-0.27209479351863264,0.03837415431886911
1772534470127593700,4.76859375,1.9330857853859662,-0.32429552087709307,0.036729601982235904
1772534470137611000,4.778611083984375,1.971391258382797,-0.38739392821639773,0.07858546093702316
1772534470147626800,4.788626708984375,2.0049977599084374,-0.43380365108326074,0.014686843130737542
1772534470157642800,4.798642822265625,2.0062287630081177,-0.5799743093848229,-0.05960683889649808
1772534470167659800,4.80865966796875,1.922729811066389,-0.7695885342240333,-0.030666502550989388
1772534470177675800,4.81867578125,1.8401093955248593,-0.9185634362913667,0.03202456609643996
1772534470187692800,4.82869287109375,1.8788895002961157,-1.054957673726976,0.03672273385003209
1772534470197708800,4.838708740234375,1.9584236402601003,-1.2253026960812508,0.04024265160448849
1772534470207725800,4.848725830078125,1.9510832143694161,-1.3715090102180838,0.07364303609877824
1772534470217741800,4.858741943359375,1.918563339036703,-1.5549047989338636,0.13469729732461272
1772534470227758800,4.8687587890625,1.857635699865222,-1.7492467829473315,0.25094496491886675
1772534470237774800,4.87877490234375,1.6465794585466385,-1.9139329027570784,0.3933776788011193
1772534470247791900,4.8887919921875,1.4605933610767126,-2.170104297087341,0.3856951614744961
1772534470257807600,4.8988076171875,1.2914648749053477,-2.4266493470355868,0.32512517663426693
1772534470267823900,4.908823974609375,1.0152835427254439,-2.5311329270780085,0.29209399077855047
1772534470277841000,4.9188408203125,0.5608662888109683,-2.5723212620347735,0.30621786626428366
1772534470287857000,4.92885693359375,-0.11290800177752972,-2.6006194280192254,0.3690867026314139
1772534470297873700,4.938873779296875,-0.9585597849845886,-2.5958500216603277,0.5091911927618086
1772534470307890000,4.948889892578125,-1.922241150766611,-2.596465230949223,0.6601334493793547
1772534470317907000,4.958906982421875,-2.713459917518496,-2.5970810247600076,0.7642511187188327
1772534470327923000,4.9689228515625,-3.0951696626186367,-2.4585586892545224,0.7371263073626905
1772534470337939700,4.978939697265625,-3.1204584176540373,-2.2397494957216084,0.700903851184994
1772534470347956000,4.9889560546875,-2.8529753557145594,-2.007720462870598,0.6789137723688036
1772534470357972700,4.99897265625,-2.33875449822247,-1.7270564323186874,0.6029407589524984
1772534470367988700,5.00898876953125,-1.592722780674696,-1.396923145198822,0.4878993984080851
1772534470378004700,5.019004638671875,-0.879286926305294,-1.0260540891952812,0.43758477705717086
1772534470388022000,5.02902197265625,-0.36774084098041054,-0.7109221179828047,0.5019805307306349
1772534470398038000,5.0390380859375,-0.1420353120625019,-0.5071507729753851,0.6735778912335634
1772534470408054800,5.0490546875,-0.19589198993444443,-0.21850144275799394,0.7068551608048379
1772534470418070800,5.05907080078125,-0.5046633400738239,0.27895649598166344,0.5523169985871762
1772534470428088000,5.069088134765625,-0.7426414905875921,0.6082324356198311,0.3401823874473572
1772534470438103800,5.079103759765625,-0.986558383500576,0.7538432680815458,-0.004957184015959501
1772534470448120800,5.089120849609375,-1.3000263670235872,0.7688029368042946,-0.33422530567385256
1772534470458136800,5.09913671875,-1.6273083563655615,0.6046785425305367,-0.4344339118108153
1772534470468153600,5.109153564453125,-1.85950441634655,0.47590573988407847,-0.43050994330011305
1772534470478169900,5.119169921875,-1.997919199824333,0.48913931546658274,-0.349428866155073
1772534470488185900,5.129185791015625,-1.9338596923679112,0.6459563093364238,-0.37935090701431035
1772534470498203000,5.139202880859375,-1.7102601958185433,0.8963017739921808,-0.513039684883505
1772534470508219000,5.149218994140625,-1.5155886875897646,1.1618357476904988,-0.5414655689008534
1772534470518236000,5.15923583984375,-1.3872206663519144,1.3667629847347735,-0.3259051480308175
1772534470528252000,5.169251953125,-1.3533558061510325,1.4767130134895443,0.11863215157799423
1772534470538268700,5.1792685546875,-1.4428659812062978,1.4693679114237428,0.5872624936316162
1772534470548284700,5.18928466796875,-1.5910335124135015,1.395841487441957,0.9490361698359251
1772534470558301700,5.1993017578125,-1.8378093018889425,1.3026193061262368,1.207746508059278
1772534470568317700,5.209317626953125,-2.0654443375647067,1.2117667765513063,1.3320105280444026
1772534470578334500,5.21933447265625,-2.294555875533819,1.1159519483938813,1.4082235607616602
1772534470588350700,5.229350830078125,-2.3881956977397203,1.076326624970138,1.2722832045733927
1772534470598366700,5.23936669921875,-2.3981559507399797,1.021141036581993,1.0325720927871762
1772534470608383700,5.2493837890625,-2.31475169134438,0.9437745960459113,0.7675504525251686
1772534470618399700,5.259399658203125,-2.0826251894682644,0.9035688423857092,0.4742180790580809
1772534470628416800,5.269416748046875,-1.6578852809369564,0.8495321317717432,0.27625498193800446
1772534470638432800,5.279432861328125,-1.1197516329377888,0.8238114150598644,0.16026932628080248
1772534470648449500,5.289449462890625,-0.45329730997383594,0.8254375549569726,0.08532295249849557
1772534470658465500,5.299465576171875,0.2259223865389824,0.8985439999610185,0.06992693818509578
1772534470668482800,5.30948291015625,0.8113444399356842,0.9787558930560946,0.12108224814385175
1772534470678498800,5.319498779296875,1.8453975650608538,1.1805346029415726,0.45198198959156866
1772534470689141800,5.330141845703125,1.8623270725518464,1.1620675106197595,0.36257622475884854
1772534470699157800,5.34015771484375,2.165016472429037,1.211947978337109,0.6175010530941188
1772534470709173800,5.350173828125,2.2918600605785846,1.239281683203578,0.8480000998988747
1772534470719190500,5.3601904296875,2.3062930750787256,1.2324126742169261,0.9940618179332464
1772534470729206500,5.37020654296875,2.2939725226879117,1.143572945769131,1.0562813966114073
1772534470739223800,5.380223876953125,2.263250052165985,1.0190382190838456,1.0455618496764452
1772534470749239800,5.39023974609375,2.2118162175267932,0.8700982421994209,1.0480967019163072
1772534470759256600,5.400256591796875,2.166573638743162,0.7364294842049479,1.0425394331153481
1772534470769272600,5.4102724609375,2.049296335840225,0.6234481249302626,1.0727792346868663
1772534470779289600,5.42028955078125,1.9065344630688428,0.5596750331997871,1.0977657188400625
1772534470789305600,5.4303056640625,1.7442027974307537,0.5395578355833888,1.0436647838834672
1772534470799322600,5.440322509765625,1.57137954839468,0.5592682059645653,0.8968407031744718
1772534470809338600,5.450338623046875,1.4115151496529579,0.5306739796429872,0.6417066890679299
1772534470819355000,5.46035498046875,1.211455518645048,0.42101533505022526,0.386238547636196
1772534470829371600,5.47037158203125,1.033276880055666,0.3033005175128579,0.13770714666508138
1772534470839387600,5.4803876953125,0.9928770651280879,0.21380554002672433,-0.019831658673286436
1772534470849404700,5.49040478515625,0.9661983170390128,0.18740619340091944,-0.020848142239451407
1772534470859420700,5.500420654296875,0.9750462248831987,0.23947891046553849,0.012579130261763929
1772534470869437700,5.510437744140625,0.9591711948812007,0.41324382426589723,0.03524440492577851
1772534470879453700,5.52045361328125,0.8515221365451813,0.5745215969368815,0.08151165058203041
1772534470889470500,5.530470458984375,0.6444190167665481,0.6032452948570252,0.11856105910316109
1772534470899486700,5.54048681640625,0.32410511287152766,0.5504030547246337,0.114523474150151
1772534470909503700,5.550503662109375,0.02649871534705162,0.44299832653850313,0.17771956971026956
1772534470919519700,5.560519775390625,-0.33362872802019117,0.39589755266755816,0.24992424356900153
1772534470929536500,5.57053662109375,-0.49132805768251414,0.4228992491006851,0.1566205945149064
1772534470939552800,5.580552734375,-0.4828080666184425,0.45612902626842255,0.05160831442326307
1772534470949568800,5.59056884765625,-0.4049614413499832,0.49995764660090203,0.0327519305229187
1772534470959585800,5.600585693359375,-0.33012101216018197,0.6005448037266731,0.03586246375888586
1772534470969601500,5.6106015625,-0.2842050641596317,0.598715250211954,0.05184957583323121
1772534470979618600,5.62061865234375,-0.24308979443907736,0.449499963517487,0.023925723053887484
1772534470989634800,5.630634765625,-0.3122036626756191,0.3151043525531888,-0.06500036850310861
1772534470999651600,5.640651611328125,-0.5220820923864841,0.24617607001662253,-0.11986205869913101
1772534471009667600,5.65066748046875,-0.8297329140633344,0.08551087628602981,-0.0847493173290044
1772534471019684600,5.6606845703125,-1.1517997991055249,-0.16879063251912593,-0.030280206647142767
1772534471029700900,5.670700927734375,-1.8938994379013776,-0.35738165179044007,0.15025098641775547
1772534471039717600,5.680717529296875,-1.9017869762808084,-0.3503808331176638,0.20089403600543737
1772534471049733600,5.690733642578125,-2.1374580188959835,-0.2839525507032871,0.3337820188857615
1772534471059749600,5.70074951171875,-2.3637778803199527,-0.19629180290699003,0.267378067195043
1772534471069766700,5.7107666015625,-2.502466804563999,-0.15581336978524923,0.08794979387074708
1772534471079782700,5.72078271484375,-2.551445647266507,-0.1314762163862586,-0.14765665907561779
1772534471089799700,5.730799560546875,-2.50197989782989,-0.09684066407382488,-0.40060675327181816
1772534471099815700,5.740815673828125,-2.3373124827206135,-0.05545183810889721,-0.4412365775629878
1772534471109832700,5.750832763671875,-2.077556800162792,0.05607669200897217,-0.2854058182515204
1772534471119848700,5.7608486328125,-1.7984499359250068,0.26741262705177066,-0.003482654483988881
1772534471129865700,5.77086572265625,-1.5537392622858286,0.5113911870241165,0.3686977763790637
1772534471139881700,5.7808818359375,-1.3736983369559048,0.7274135263174771,0.7134428686320782
1772534471149898800,5.790898681640625,-1.1579010385900734,0.8986696721673011,0.9777229698117822
1772534471159914800,5.800914794921875,-1.0091168367892502,1.0177733137145637,1.1685985928889364
1772534471169930800,5.8109306640625,-1.078143026742339,1.0267463092431426,1.2624397098205984
1772534471179947500,5.820947509765625,-1.2349386855632065,0.9389563821092247,1.2422554383173585
1772534471189963500,5.830963623046875,-1.2760405112802982,0.8251128530472517,1.0128304504849015
1772534471199980800,5.840980712890625,-1.2065461192935705,0.739765935151279,0.8144799614824354
1772534471209996800,5.850996826171875,-1.0650029746621847,0.6340604120984673,0.7273861999191343
1772534471220013600,5.861013671875,-0.7660521767914295,0.582941050235927,0.6563796498037874
1772534471230029600,5.871029541015625,-0.3474912491559982,0.5910343403205275,0.6445816599823534
1772534471240046800,5.881046875,0.04975450325012207,0.5957894258931279,0.6352049059584737
1772534471250062600,5.8910625,0.46617958790063857,0.5661994665324688,0.6993548681773245
1772534471260079600,5.90107958984375,0.7985200296759605,0.5269260252863168,0.8181140802010893
1772534471270095600,5.911095703125,1.1021335586607455,0.5264060930654406,0.983228216164559
1772534471280111600,5.921111572265625,1.4206512267887592,0.4318091162651777,1.118965670191869
1772534471290128600,5.931128662109375,1.7825977022767066,0.2790545495286584,1.2567626870974897
1772534471300144600,5.94114453125,2.0471289286732675,0.2121156872436404,1.421450706603378
1772534471310161700,5.95116162109375,2.2161954555243253,0.12333996394276618,1.4801605235949158
1772534471320177700,5.961177734375,2.2093431054115293,0.038084523722529406,1.5229707606650889
1772534471330194700,5.971194580078125,2.0579624573767186,0.03918576296269893,1.6229361326307057
1772534471340210700,5.981210693359375,1.8527742313086986,0.08389584230482577,1.7216316307909785
1772534471350227700,5.991227783203125,1.6330875242888927,0.10869447573572397,1.7831681956410408
1772534471360243500,6.001243408203125,1.5309358943253755,0.11482289548814296,1.6759864625558256
1772534471370260700,6.0112607421875,1.4112035994857548,0.09947948814481496,1.4654915083818136
1772534471380276700,6.02127685546875,1.396141639432311,-0.0192494748711586,1.2266960501357913
1772534471390292700,6.031292724609375,1.303232469588518,-0.09662526775747537,0.9705888801481575
1772534471400309500,6.0413095703125,1.1099895328581333,-0.15075696317851542,0.6195011408701538
1772534471410325800,6.05132568359375,0.8412877427786588,-0.28367256471812724,0.31634025102369484
1772534471420342800,6.0613427734375,0.5486310766160488,-0.4325231097534299,0.18593195612989366
1772534471430358500,6.071358642578125,0.46013270895183084,-0.5027598445400595,0.14184241983890533
1772534471440375600,6.08137548828125,0.5058727158635854,-0.5372837531715631,0.1321937900710851
1772534471450391800,6.091391845703125,0.6220891115367412,-0.5909186049863696,0.07062683008275926
1772534471460408600,6.10140869140625,0.7278507486909628,-0.5970385491713881,0.01127250464260578
1772534471470424600,6.111424560546875,0.6507061342120171,-0.5620914466917515,-0.010144450460746884
1772534471480441600,6.121441650390625,0.45290801839530465,-0.5412827596798538,0.052379737187176936
1772534471490457900,6.131457763671875,0.10896423258781432,-0.5106047128215432,0.10994995568953454
1772534471500473900,6.141473876953125,-0.1249029754757881,-0.51879795614928,0.19944573689326642
1772534471510490600,6.15149072265625,-0.2740828985959291,-0.5011570855185389,0.2978376489970833
1772534471520506600,6.161506591796875,-0.42276656263172624,-0.47052053971439595,0.36581593733243645
1772534471530524000,6.17152392578125,-0.5169698639392852,-0.5135755453258752,0.3843017343547195
1772534471540539400,6.181539306640625,-0.6532429592132568,-0.4912067693904042,0.30866219067648054
1772534471550556200,6.19155615234375,-0.8140075216650963,-0.4495046396926045,0.20795681399852037
1772534471560572200,6.201572265625,-0.9055687840312718,-0.37233869016468524,0.11123904565200209
1772534471570589200,6.211589111328125,-0.8585206171303987,-0.27345775243490933,0.025321926652640103
1772534471580605200,6.221605224609375,-0.7154770048081874,-0.17250760721564293,-0.04221227117702365
1772534471590622200,6.231622314453125,-0.4827256490319967,-0.1093576158195734,-0.07310184189416467
1772534471600638200,6.24163818359375,-0.2631272048175335,0.028019641304016112,-0.04061944902762771
1772534471610655000,6.251655029296875,0.014549918878078459,0.10887217039018869,-0.09705503747686743
1772534471620671200,6.261671142578125,0.30089491767585275,0.11124737508893012,-0.16880159230455755
1772534471630687200,6.271687255859375,0.42479310002326964,0.10284282709807156,-0.17209800350144505
1772534471640704300,6.281704345703125,0.45476095278561113,0.1079454109340906,-0.12183408942446113
1772534471650720000,6.291719970703125,0.4722445870280266,0.04235474838763475,-0.033421573412790895
1772534471660737300,6.3017373046875,0.574354715937376,-0.039459026946127414,0.09525682894848286
1772534471670753300,6.311753173828125,0.5760720412492751,-0.10917056881487369,0.28340529208406806
1772534471680770000,6.32177001953125,0.448505984044075,-0.19589491254389285,0.49821642895676194
1772534471690786000,6.3317861328125,0.000023380875587463377,-0.33017332686930895,0.5820739850778133
1772534471700803300,6.34180322265625,-0.5759235726892947,-0.5300207764312624,0.45295602225549514
1772534471710819300,6.3518193359375,-1.2067027711600065,-0.6567649958595633,0.29885479015037414
1772534471720836000,6.361836181640625,-1.926592331713438,-0.7263239775151014,0.19915712921023368
1772534471730852000,6.37185205078125,-2.456341597726941,-0.7522907779425382,0.08820004230476915
1772534471740868000,6.3818681640625,-2.7398627712756394,-0.4788385784655809,-0.00665441638790071
1772534471750885400,6.391885498046875,-2.762802917358279,-0.028272154760360716,0.0007316752754151821
1772534471760901000,6.401901123046875,-2.422336452272534,0.4162739857420325,0.20753822326026855
1772534471770918100,6.411918212890625,-1.8874603447645901,0.6985910441979766,0.5407501871731132
1772534471780934100,6.42193408203125,-1.5723393333375453,0.8393807401135563,0.8933898320682346
1772534471790951200,6.431951171875,-1.418376267594099,0.8905309355057776,1.178130975865945
1772534471800967200,6.44196728515625,-1.2224936300098894,0.9470990642935037,1.3524265624769032
1772534471810984200,6.451984130859375,-0.7960486711263656,1.0564220471911132,1.3972367411926387
1772534471821000200,6.462000244140625,-0.24542203677892682,1.164076073963195,1.3934081228151918
1772534471831017200,6.472017333984375,0.3789011174201965,1.2723537855915725,1.3732798192828892
1772534471841033200,6.482033203125,0.8424468496859073,1.4270996722757816,1.2712182056903838
1772534471851050200,6.49205029296875,1.3321534436464308,1.539198695757985,1.0758702595047651
1772534471861066000,6.50206591796875,1.8213842367887496,1.6400214152052996,0.9016206309273839
1772534471871082000,6.51208203125,2.238490289440751,1.6471955446183681,0.8858468693427741
1772534471881099300,6.522099365234375,2.4752111333698035,1.57776267356053,0.9718897336136549
1772534471891115300,6.532115234375,2.5820944680303333,1.5188959124416113,1.1113006154567002
1772534471901132000,6.542132080078125,2.3438620504945513,1.4341744329676032,1.2638136285223065
1772534471911148000,6.55214794921875,1.8502005814284086,1.3278167296163736,1.3094747249789536
1772534471921165300,6.562165283203125,1.2429665091961621,1.186393558102846,1.2700969465754925
1772534471931181300,6.572181396484375,0.5933797344028949,0.9824961024977267,1.2166465844821184
1772534471941198000,6.582197998046875,-0.06873802066147328,0.7458648365482687,0.9707190093338489
1772534471951214000,6.592214111328125,-0.6382581560492515,0.42348683973029255,0.6805258106753229
1772534471961231000,6.602231201171875,-0.9679881230652332,0.12272592369765042,0.3971884327283129
1772534471971247000,6.6122470703125,-0.9879080445438623,-0.016314152071624993,-0.011713891734555363
1772534471981263000,6.62226318359375,-0.7451122646152972,-0.16211743836551903,-0.2615410316046327
1772534471991280000,6.632280029296875,-0.46001522005200385,-0.32114889341443775,-0.31099235065709796
1772534472001296400,6.64229638671875,-0.24493454552292823,-0.33731311562135813,-0.5272163865350187
1772534472011313200,6.652313232421875,0.04712532379031181,-0.3634590720079839,-0.6367958284117281
1772534472021329200,6.6623291015625,0.1196224047243595,-0.422850003131479,-0.4871907386820763
1772534472031346200,6.67234619140625,-0.09029284986555576,-0.3790767662480473,-0.3329316126015037
1772534472041362000,6.68236181640625,-0.29920974106788634,-0.4260986296638846,-0.1663364443000406
1772534472051379200,6.692379150390625,-0.5017687876760959,-0.4294815501004457,0.0587671732019633
1772534472061395200,6.702395263671875,-0.617016630578041,-0.34395226137489077,0.3575069952031597
1772534472071412000,6.712411865234375,-0.6185059923529624,-0.22603081534951924,0.6073016210431232
1772534472081428000,6.722427978515625,-0.5693623144775629,-0.11156886212825774,0.6887697612769902
1772534472091444200,6.7324443359375,-0.5581359870642423,0.008142536053806543,0.6672533643871545
1772534472101461200,6.742461181640625,-0.48367315901517866,0.07357493929862975,0.5446928238516673
1772534472111477200,6.752477294921875,-0.19861352385282516,0.04753463524356484,0.4369897337734699
1772534472121494000,6.762493896484375,0.07483984466791152,0.04990180276632308,0.34259858174361285
1772534472131510300,6.77251025390625,0.397716292527318,0.08876052573174238,0.21116116299778223
1772534472141527300,6.78252734375,0.7011720006018877,0.1305548637576401,0.11760726550966501
1772534472151543000,6.79254296875,0.906090762078762,0.1686811807952821,0.07955430596917867
1772534472161560000,6.80256005859375,0.9167629627406597,0.18196107973754405,0.0659210635446012
1772534472171576300,6.812576416015625,0.7392956872910261,0.2048828133806586,0.14904899021685122
1772534472181593000,6.822593017578125,0.5596832165062428,0.23246055613607167,0.2219442036230117
1772534472191609000,6.832609130859375,0.439839277985692,0.21834961319714782,0.2582813356889412
1772534472201625000,6.842625,0.3357207318633795,0.20642697408273816,0.37162593878544864
1772534472211642400,6.852642333984375,0.36445991961359975,0.19262188222259283,0.5313400423362851
1772534472221658000,6.862658203125,0.36333062332272525,0.16497443523183464,0.6429301664482802
1772534472231675100,6.872675048828125,0.28775778820514675,0.1841648733921349,0.7442094705566763
1772534472241691100,6.882691162109375,0.21451310377418994,0.19839812753647565,0.7773400251336395
1772534472251708200,6.892708251953125,0.02780979794561863,0.20344664309769867,0.7530114203672855
1772534472261724200,6.90272412109375,-0.3559668165564537,0.19229849548712372,0.5721488764561713
1772534472271741200,6.9127412109375,-0.6396598395407199,0.06681567429676652,0.27741584241092204
1772534472281757200,6.922757080078125,-0.9655939214050769,-0.04070128209218383,0.13696604597419498
1772534472291774200,6.932774169921875,-1.1053139422625302,-0.1012369993366301,0.06905249343812465
1772534472301790200,6.942790283203125,-1.053620579904318,-0.12195493932515382,0.10110964662991463
1772534472311806200,6.95280615234375,-1.0454518864959477,-0.08259908049255608,0.21085224317908285
1772534472321823200,6.9628232421875,-1.1860714865416289,-0.07629822678267956,0.2719428178273141
1772534472331839000,6.9728388671875,-1.5146715727448463,-0.03819894388243556,0.1348604519970715
1772534472341856300,6.982856201171875,-1.9906676212608814,0.0029952362932264805,-0.1093374498143792
1772534472351872300,6.992872314453125,-2.3567396522462367,-0.07081044302135706,-0.17637597308158873
1772534472361889000,7.002888916015625,-2.557307817298174,-0.05093976751193404,-0.11104681101553142
1772534472371905000,7.012905029296875,-2.4699890148073433,0.0762215082846582,-0.00793276576064527
1772534472381922300,7.02292236328125,-2.2692671204984185,0.17980682431310413,0.10897168524190783
1772534472391938300,7.032938232421875,-2.108120280730724,0.1667529892116785,0.11222279599234461
1772534472401955000,7.042955078125,-1.953449943500757,0.11633476135581731,0.07005830947980285
1772534472411971000,7.05297119140625,-1.9218243866592644,0.05943111700341105,0.0045290217317640775
1772534472421987000,7.062987060546875,-2.0382845279604194,-0.03007745061665773,-0.12203275380171835
1772534472432004000,7.073004150390625,-2.013674987360835,-0.11000877320468425,-0.22993958629108965
1772534472442020000,7.08302001953125,-1.9449334595680237,-0.12518266920000315,-0.2591981217402965
1772534472452037000,7.093037109375,-1.916562520608306,-0.08655351720675826,-0.1429407364696264
1772534472462053000,7.10305322265625,-1.9180957215249537,-0.029610709887742996,-0.0016701251693069933
1772534472472070100,7.113070068359375,-1.9842460637807844,0.030164836639165877,0.055921355316787956
1772534472482086100,7.123086181640625,-1.90510355348289,0.014867168133705854,0.060893371575698255
1772534472492103200,7.133103271484375,-1.6954688694000244,-0.012887684754282236,0.07224990123994648
1772534472502119200,7.143119140625,-1.4023936855643986,-0.03969166665822267,-0.00761763539686799
1772534472512136200,7.15313623046875,-1.0293459703475236,-0.09695464584231377,-0.11933226267136633
1772534472522152200,7.163152099609375,-0.6874988645583391,-0.10044804091602563,-0.12697305974811315
1772534472532169200,7.173169189453125,-0.4562450538635254,-0.047722120639681814,-0.18665230629369614
1772534472542185200,7.183185302734375,-0.2072813989549875,-0.056902913700044154,-0.15938151059560476
1772534472552201200,7.193201171875,0.12812661369740963,0.0460889664798975,-0.21954817533195017
1772534472562218500,7.203218505859375,0.5419377164572478,0.13096680555939674,-0.24039332189671694
1772534472572234500,7.213234375,0.9020125528544187,0.1816618045300245,-0.19316278416626154
1772534472582251300,7.223251220703125,1.1086515622526407,0.27676015498116613,-0.26477738317735494
1772534472592267300,7.233267333984375,1.0476239698380232,0.36564591452777384,-0.3131919430606067
1772534472602284500,7.243284423828125,1.106071482631564,0.39793607275784015,-0.3622920740552246
1772534472612300300,7.25330029296875,1.2077911509186028,0.48772725671157235,-0.3919133784022182
1772534472622317300,7.2633173828125,1.4250433242678642,0.5635111042313278,-0.3235699100162834
1772534472632333300,7.273333251953125,1.6199468876868486,0.6204917593427002,-0.2664607331544161
1772534472642349300,7.283349365234375,1.6939730778843163,0.6648996408678591,-0.3138183313306421
1772534472652366300,7.293366455078125,1.7379612726926803,0.7075627245523035,-0.3728000971313566
1772534472662382300,7.30338232421875,1.7357149550706148,0.7359250418141484,-0.38460122875794767
1772534472672399400,7.3133994140625,1.81086459634006,0.7675446073062717,-0.38766375813372433
1772534472682415400,7.323415283203125,1.891964670446515,0.8781058998271822,-0.4074711591485888
1772534472692432400,7.333432373046875,1.9477333194196222,0.9482711768127977,-0.39575018008612095
1772534472702448400,7.343448486328125,1.9946599057674408,0.9138742555618286,-0.3792554107505828
1772534472712465400,7.35346533203125,1.9732482844263315,0.8268241870097816,-0.4171786064315587
1772534472722481200,7.363481201171875,1.9023650684297084,0.7119990995645523,-0.4549487304426729
1772534472732498400,7.37349853515625,1.8762515530079602,0.5876759698033333,-0.45317945574782786
1772534472742514400,7.383514404296875,1.8099200089663265,0.5237494410768151,-0.3858255098558962
1772534472752531200,7.39353125,1.6743600303977726,0.45204672539085144,-0.27757446703873573
1772534472762547200,7.403547119140625,1.5782196235477923,0.35553485487997527,-0.18908983563892542
1772534472772563200,7.413563232421875,1.5095090754151343,0.26779242014959453,-0.1146861173659563
1772534472782580500,7.42358056640625,1.5272469766795633,0.14982202041596174,-0.06317110724933445
1772534472792596200,7.43359619140625,1.5846037716269492,0.09206614314839244,-0.009789426477998495
1772534472802613200,7.44361328125,1.699302163952589,-0.02407090367823839,0.08767901410534977
1772534472812629200,7.453629150390625,1.7486480864018201,-0.11677476020827889,0.12578173107169568
1772534472822646300,7.463646240234375,1.7429174337953328,-0.213402366053313,0.1929465110670775
1772534472832662300,7.473662353515625,1.7087684959560632,-0.3410857660278678,0.30608576431721446
1772534472842679300,7.48367919921875,1.6195388914078472,-0.4390608409591019,0.35219891539029774
1772534472852695300,7.4936953125,1.383705936229229,-0.5679075856246054,0.36988684003315864
1772534472862712300,7.50371240234375,0.9782488203167915,-0.760967128612101,0.32266302430443466
1772534472872728300,7.513728271484375,0.4145207123339176,-0.9858008431315421,0.11596505126059055
1772534472882744300,7.523744384765625,0.11932254499495029,-1.2335535148151218,-0.08821984298378228
1772534472892761300,7.53376123046875,0.006574117693305015,-1.3930004187971352,-0.12996164710484445
1772534472902777300,7.54377734375,0.058093292528390884,-1.498878960329294,-0.12142258601412176
1772534472912794400,7.55379443359375,0.1658504874140024,-1.6208327306106685,0.008817804966866969
1772534472922810400,7.563810302734375,0.3244727771401405,-1.6458990750670432,0.19759039135016498
1772534472932827100,7.5738271484375,0.429665674495697,-1.6383178261578082,0.36988274837993085
1772534472942843400,7.583843505859375,0.3465507534354925,-1.6852055417999625,0.47423619923666116
1772534472952860400,7.5938603515625,0.1324187579333782,-1.7338614361584186,0.47451128985099494
1772534472962876400,7.60387646484375,-0.1553594885379076,-1.6763754618734121,0.4049657521989196
1772534472972893200,7.61389306640625,-0.48509120911955833,-1.5942551048085092,0.40120347705595194
1772534472982909400,7.623909423828125,-0.7302437813073396,-1.457757845389843,0.4107441894698888
1772534472992925400,7.633925537109375,-0.9535504323899745,-1.259563131470978,0.40620143147371707
1772534473002942200,7.643942138671875,-1.2004103930175303,-1.1023875334218143,0.3802363115467131
1772534473012958200,7.653958251953125,-1.2501385927826165,-1.0300400900915265,0.2799689609598368
1772534473022975500,7.6639755859375,-1.2210019301474093,-0.9432651852190495,0.14599851660504937
1772534473032991500,7.673991455078125,-1.1953671381533144,-0.8341808333829045,-0.0510934237036854
1772534473043008300,7.68400830078125,-1.0951122817218304,-0.7202008184596895,-0.3491333903398365
1772534473053024300,7.694024169921875,-0.9015607174336909,-0.5538692695304751,-0.6225264800406992
1772534473063041500,7.70404150390625,-0.8143412836641073,-0.4371455088570714,-0.5979019245350733
1772534473073057500,7.7140576171875,-0.7464291924327612,-0.406560108718276,-0.40090515169650315
1772534473083074300,7.72407421875,-0.7191355273157358,-0.26251930205225943,-0.22847678372953087
1772534473093090300,7.73409033203125,-0.6590285568773746,-0.016152970160543918,-0.024375256919674574
1772534473103106300,7.744106201171875,-0.5522206255406141,0.1443704770117998,0.1377403913475573
1772534473113123300,7.754123291015625,-0.5022627086728811,0.273956349606812,0.13204528497848658
1772534473123139300,7.764139404296875,-0.45117958716750145,0.3808490366175771,0.12212076087873429
1772534473133156400,7.77415625,-0.42789983386695385,0.4559665291830897,0.14109667950551957
1772534473143172400,7.78417236328125,-0.5016945533961057,0.4914706810235977,0.22893143216185272
1772534473153189400,7.794189453125,-0.7120470303595066,0.4787991232380271,0.39667518597654994
1772534473163205400,7.804205322265625,-1.039658690047264,0.4446016700819134,0.5092784326538443
1772534473173222400,7.814222412109375,-1.445338508799672,0.43003918398320673,0.5042220991123467
1772534473183238100,7.824238037109375,-1.6803613166391849,0.3544716095626354,0.41863494271971285
1772534473193255400,7.83425537109375,-1.8066840957850216,0.3774617322668433,0.3590574760481715
1772534473203271400,7.844271484375,-1.8644255061358213,0.4961380883127451,0.3788502640157938
1772534473213287400,7.854287353515625,-1.7455419370800256,0.5760907459497452,0.4650033837281167
1772534473223304200,7.86430419921875,-1.4585808522105217,0.6935740928187966,0.5671466477220878
1772534473233320200,7.8743203125,-1.0655062480092048,0.8266831711038947,0.6056033292252571
1772534473243337500,7.88433740234375,-0.600951630961895,0.8950283930554985,0.6144736680969596
1772534473253353500,7.894353515625,-0.212519299608469,0.8945151828363537,0.6513619677722454
1772534473263370200,7.904370361328125,-0.014916414102911947,0.9303700478106737,0.6844132465679198
1772534473273386200,7.91438623046875,0.15990180814266203,0.9172469468653202,0.6992370870165526
1772534473283403500,7.924403564453125,0.30107027424275873,0.9794874222010373,0.6318998730637133
1772534473293419300,7.934419189453125,0.3344423824906349,0.9901806656509637,0.44328857818935063
1772534473303436300,7.944436279296875,0.3306248700290918,0.8631032687455416,0.24564974458757788
1772534473313452300,7.954452392578125,0.2964531358361244,0.7541495575517415,0.05521064976416528
1772534473323468500,7.964468505859375,0.19963059194087981,0.6800275057643651,-0.18008366849310695
1772534473333485300,7.9744853515625,0.08115677272975444,0.5971724046841264,-0.392462975108996
1772534473343501300,7.984501220703125,-0.04397942698001861,0.5003779178395867,-0.5016754468368366
1772534473353518300,7.994518310546875,-0.041780455631017684,0.43336832840591666,-0.5353462092377245
1772534473363534300,8.004534423828124,0.1170218668371439,0.44262920096516606,-0.45100715321004387
1772534473373551400,8.01455126953125,0.3400309962779283,0.4845902738600969,-0.2742820744298398
1772534473383567400,8.0245673828125,0.548970099312067,0.488976526120305,-0.09216120102070272
1772534473393584000,8.034584228515625,0.6102426063984632,0.49626010725721714,0.2340370847377926
1772534473403600100,8.04460009765625,0.644777328684926,0.5067931917093694,0.577466929673776
1772534473413617400,8.054617431640626,0.7124070958435536,0.5794233975037932,0.8285197388812899
1772534473423633400,8.06463330078125,0.752459120246768,0.5874551666595041,1.0023633439410478
1772534473433650200,8.074650146484375,0.8851824140846729,0.5388023410409689,1.0750712911468
1772534473443666200,8.084666259765624,0.949386882969737,0.5238476407542825,1.1199854416936634
1772534473453682400,8.094682373046876,0.9152093035578727,0.4662015074715018,1.106608658248186
1772534473463699500,8.104699462890625,0.9232137463152408,0.333720497956872,1.0072772002719341
1772534473473715200,8.114715087890625,0.9035960226535796,0.26708631770685315,0.8612735691003501
1772534473483732200,8.124732177734375,0.9056547087490558,0.19901187552064656,0.6726055390700697
1772534473493748500,8.13474853515625,0.9206441880881786,0.07666077648475765,0.5675492006409913
1772534473503765200,8.14476513671875,0.9122487001866102,-0.0036008009709417818,0.5165072879288345
1772534473513781200,8.15478125,0.7231880175769329,-0.05923150277808308,0.4175985854092985
1772534473523798300,8.16479833984375,0.43843408736288547,-0.16420856542587278,0.3728333418138325
1772534473533814500,8.174814453125,0.24255261882245538,-0.1822106705844402,0.315441987009719
1772534473543830000,8.184830078125,0.04772855038046837,-0.15803206874802708,0.258831626515463
1772534473553846800,8.1948466796875,-0.023332944792509077,-0.21164529325291515,0.23336503069512546
1772534473563862800,8.20486279296875,0.03283551715314388,-0.21894816361218689,0.19023206447660923
1772534473573880000,8.214880126953124,0.2983049011826515,-0.23934081716910002,0.16301950177177785
1772534473583895800,8.224895751953126,0.5196195016652345,-0.2692551861785352,0.17264811166487634
1772534473593912800,8.234912841796875,0.6471475649476051,-0.2887847931653261,0.09270407572574912
1772534473603928800,8.2449287109375,0.5452946256697178,-0.29083047364875675,0.07651230792477727
1772534473613945900,8.25494580078125,0.4074760545194149,-0.29207492075189945,0.09684811672791838
1772534473623961900,8.2649619140625,0.1975403416633606,-0.1936972563691437,0.12231566239632666
1772534473633979000,8.274978759765625,-0.052031800532341,-0.14767244116663933,0.18414295382127166
1772534473643995000,8.284994873046875,-0.35277357347309585,-0.17241978280171752,0.1750181287318468
1772534473654011100,8.29501123046875,-0.8185328901350498,-0.19522680402398107,0.012712985774502158
1772534473664028000,8.30502783203125,-1.1586211695581674,-0.3278638808831572,-0.22565672134011983
1772534473674044000,8.3150439453125,-1.2742775932610033,-0.4570717139460146,-0.4625235496111214
1772534473684061000,8.32506103515625,-1.264830550479889,-0.48386692802160974,-0.5983242781329899
1772534473694077000,8.335076904296875,-1.197622808125615,-0.48749914704412217,-0.6075187343925237
1772534473704094000,8.345093994140624,-1.1190163044005632,-0.46122401131987567,-0.5818312623631209
1772534473714110000,8.35510986328125,-1.0756611467987298,-0.38671456765010953,-0.5199216994822025
1772534473724126700,8.365126708984375,-1.030134490376711,-0.276819045561552,-0.5041594091396778
1772534473734143000,8.37514306640625,-1.035063178950548,-0.18775602975189684,-0.49076245968900617
1772534473744160000,8.385159912109375,-0.9947481196969747,-0.08323299448192119,-0.39353389227613805
1772534473754176000,8.395176025390626,-0.8567647133737802,-0.016430618058145045,-0.27315204748660327
1772534473764191700,8.405191650390625,-0.7558744816482067,0.027692455176264046,-0.1415317464545369
1772534473774209000,8.415208984375,-0.6918669966399669,0.08246858598068356,-0.04341908968351781
1772534473784225000,8.42522509765625,-0.6725070471316575,0.13490692148730157,0.03953070394285023
1772534473794241800,8.43524169921875,-0.8073936564832925,0.17766192123889923,0.12077369365133345
1772534473804257800,8.4452578125,-0.8436790218293666,0.16499416284561155,0.07166157995797694
1772534473814275000,8.455275146484375,-0.8773346231937408,0.15567498422786594,0.014193506655842065
1772534473824291000,8.465291015625,-0.863977128970623,0.11458455668762325,0.03111256581805646
1772534473834307800,8.475307861328124,-0.8046616011708975,0.0901959653623402,0.07225538113266229
1772534473844323800,8.48532373046875,-0.7526485053390264,0.08316431315988301,0.10373320006653666
1772534473854341000,8.495341064453125,-0.6997048506587743,0.1119938095420599,0.07415157014280557
1772534473864357000,8.505357177734375,-0.5279226351082325,0.21426818910241124,-0.029430750210955738
1772534473874372900,8.515372802734374,-0.2998170593112707,0.2939575196281075,-0.15788659586273132
1772534473884390000,8.525389892578126,0.007056932774186134,0.3736374978035688,-0.2894878268681466
1772534473894406000,8.535406005859375,0.25455577582716943,0.4981912214502692,-0.36806751565150914
1772534473904423000,8.5454228515625,0.3332657399266958,0.6002595570445061,-0.3833428992599249
1772534473914439000,8.55543896484375,0.4072136041909456,0.6644318772256373,-0.42763358414620156
1772534473924456000,8.5654560546875,0.4368371735602617,0.7249649641215801,-0.5049085470065474
1772534473934472000,8.575471923828125,0.38653263521194453,0.7100187394022941,-0.5511554074618965
1772534473944489000,8.585489013671875,0.2962222496896982,0.712215957185626,-0.5727173970591276
1772534473954505000,8.5955048828125,0.23908055879771709,0.7885521778911352,-0.5430849137309939
1772534473964522000,8.60552197265625,0.18815233559310435,0.8778262061029672,-0.5084802680134773
1772534473974537700,8.615537841796876,0.18128128077983854,0.9194944335311651,-0.5256244411684572
1772534473984553700,8.6255537109375,0.19925299080014228,0.9362158512294292,-0.626724443187192
1772534473994571000,8.635571044921875,0.17577274649143218,0.9486845799192786,-0.7263599256113171
1772534474004587000,8.6455869140625,0.16082067655324936,0.8820821099817753,-0.7925595138363539
1772534474014603800,8.655603759765626,0.10940379304885864,0.7631593779593706,-0.8224223718542605
1772534474024619800,8.665619873046875,-0.03349836497604847,0.6179591721251606,-0.7679659014582634
1772534474034637000,8.675636962890625,-0.07598024687469006,0.4596355730846524,-0.6598587971564381
1772534474044653000,8.685653076171874,0.03555705107152462,0.41350481328964234,-0.5359699671592563
1772534474054669800,8.695669921875,0.17608371213674545,0.3451756656900048,-0.2730138811249286
1772534474064685800,8.705685791015625,0.3847217863976955,0.26514409759789703,-0.1042458257637918
1772534474074703000,8.715703125,0.6467863304197787,0.2738213250502944,-0.008893646682053804
1772534474084718800,8.72571875,0.8996814795583487,0.2542187989577651,0.011533201405405997
1772534474094734800,8.73573486328125,1.2769172941148281,0.3897413681253791,-0.19199980480149387
1772534474104751900,8.745751953125,1.9326988318949936,0.6006695991501212,-0.5817005486555397
1772534474114768100,8.75576806640625,1.7329437367916105,0.04833557636290788,0.06409808590114116
1772534474124785000,8.765784912109375,1.7252882536023855,-0.2513550800897181,0.5604451407894492
1772534474134801000,8.77580078125,1.7184452558398247,-0.22718056990653276,0.43122598261497913
1772534474144818000,8.78581787109375,1.6671821015924215,-0.09670227851644157,0.1550105289697647
1772534474154834000,8.795833984375,1.4106371977746486,-0.0068858139909803865,-0.02744249900318682
1772534474164851000,8.805850830078125,1.2644997110903262,-0.03483531266823411,-0.13489398894049226
1772534474174867000,8.815866943359374,1.2844050195217132,-0.12703501906841994,-0.1323969844929874
1772534474184883700,8.8258837890625,1.2624047846376896,-0.20802271884158252,0.003944719037786126
1772534474194899700,8.835899658203125,1.0573287867724894,-0.2671590906821191,0.266877278066054
1772534474204916000,8.845916015625,1.0498539208471775,-0.2676388370230794,0.35121195017956197
1772534474214933000,8.85593310546875,1.0207470688283442,-0.2921380491159856,0.24563597179055213
1772534474224949000,8.865948974609376,1.069446510067582,-0.48760816037654875,0.33281587726734574
1772534474234965800,8.8759658203125,1.1206085420280694,-0.6818504834078252,0.37365525265596805
1772534474244982000,8.88598193359375,1.3592074547886848,-0.9127388217911123,0.35515381967313586
1772534474254999000,8.8959990234375,1.3610796784013508,-1.180365237724036,0.47823944352865216
1772534474265014800,8.906014892578124,1.4445494042485951,-1.2822156927838921,0.6342855991564691
1772534474275031800,8.91603173828125,1.0230734659492968,-1.2186875157251953,0.6043287792447954
1772534474285048000,8.926048095703125,0.36335458872020243,-1.0122847993008792,0.5280720535162836
1772534474295064800,8.93606494140625,0.10136544802188872,-0.7705331215977669,0.34331220990568395
1772534474305080800,8.946080810546874,-0.0719178197413683,-0.6648135700196027,-0.03709127490147948
1772534474315097900,8.956097900390626,-0.028579028752446174,-0.6238640122547745,-0.18209069746658205
1772534474325114000,8.966114013671875,-0.13320669344067573,-0.6207923497244715,-0.13742328822240232
1772534474335129900,8.9761298828125,-0.37890754716098307,-0.6277751943491399,0.013869681528955697
1772534474345147000,8.98614697265625,-0.49590194146931166,-0.6202471369318664,0.2526600982736796
1772534474355163000,8.996162841796876,-0.5265273813575506,-0.6210910404101013,0.3589377951912582
1772534474365180000,9.006179931640625,-0.580479336297512,-0.6571586713522672,0.44268224632665515
1772534474375196000,9.01619580078125,-0.7184516367048025,-0.6808122264012694,0.40149785689264533
1772534474385213000,9.026212890625,-1.2742068661123513,-0.7279987788595259,0.1408659760221839
1772534474395229000,9.03622900390625,-1.76901399808228,-0.6831669728338718,-0.24295184727311134
1772534474405246000,9.046245849609376,-1.7283967410117387,-0.4005702206537127,-0.446235262633115
1772534474415262000,9.056261962890625,-2.06381585958004,-0.21773455003872513,-0.4765167113892734
1772534474425279000,9.066279052734375,-2.295539041352272,-0.06001096271798014,-0.41761838608831164
1772534474435295000,9.076294921875,-2.0389310091704127,0.09775865570157766,-0.3116390145301819
1772534474445310700,9.086310791015626,-1.68184366415143,0.3037587826743722,-0.28039719630926846
1772534474455328000,9.096327880859375,-1.3980746533215045,0.4307441173821687,-0.12494111552909015
1772534474465344000,9.106343994140625,-1.178984158629179,0.4893995738379657,0.10612301781252026
1772534474475360800,9.11636083984375,-0.9999579632997512,0.42680049432292577,0.31278445823825896
1772534474485376800,9.126376708984376,-0.840511497709155,0.2952589576154947,0.5070216667030006
1772534474495394000,9.13639404296875,-0.722145230525732,0.19003829547017811,0.6410737979918718
1772534474505410000,9.14641015625,-0.728366881519556,0.133092419411242,0.657254606007412
1772534474515426800,9.1564267578125,-0.9529933830291032,0.0965789443977177,0.7104071541979908
1772534474525442800,9.16644287109375,-1.4232552718073128,0.08720891237556934,0.8082457432679832
1772534474535460000,9.176460205078126,-1.7221178068727254,0.22737156243398784,0.7974890791930258
1772534474545476000,9.18647607421875,-1.637098513495922,0.49739904815927144,0.5580307731240988
1772534474555492000,9.1964921875,-1.8052280517578123,0.6791705966740846,0.20009864784404635
1772534474565509000,9.206509033203124,-1.7581062350988388,0.8078028218060731,-0.08490618839114904
1772534474575525400,9.216525390625,-1.5131272659122943,0.967430781443417,-0.5585746707424522
1772534474585542100,9.226542236328125,-1.0694763206839561,0.9782561268404125,-0.8802506567709147
1772534474595558100,9.23655810546875,-0.6313730727106333,0.8814568176902831,-0.7399618961147963
1772534474605575200,9.2465751953125,-0.40210196026563644,0.7259479838095605,-0.48397623361498116
1772534474615591200,9.256591064453126,-0.2937725184500217,0.4970806298598647,-0.08748027666285633
1772534474625608200,9.266608154296875,-0.08665595466792583,0.429675026845932,0.29734482397884127
1772534474635624200,9.276624267578125,0.13119710718393324,0.5016374163813889,0.45914925087243313
1772534474645641200,9.28664111328125,0.3873755157768726,0.6292668942116201,0.5410452976621687
1772534474655657000,9.296656982421876,0.6254752468436956,0.6442220328897238,0.5705376418672502
1772534474665673200,9.306673095703125,0.765297559031844,0.6120211603783071,0.5393813099727034
1772534474675690200,9.316690185546875,0.7813836014360189,0.5698807853937149,0.5207924909673631
1772534474686332200,9.327332275390624,0.6567717178612947,0.6028432899273931,0.5501501028768718
1772534474696349200,9.33734912109375,0.5545294870048761,0.6778986770421266,0.5049921336367726
1772534474706365200,9.347365234375,0.5355997456073761,0.6797397748641669,0.4077719687260687
1772534474716382200,9.35738232421875,0.5254010076761245,0.5542682057201862,0.3218075034536421
1772534474726398200,9.367398193359374,0.680432579433918,0.37753625880777836,0.25879823570251465
1772534474736415200,9.377415283203124,0.8761731781989336,0.274912189026922,0.10957593474537133
1772534474746431200,9.38743115234375,0.8820189816176891,0.14228387999609113,0.010113689996302128
1772534474756448300,9.3974482421875,0.8301865030497312,0.050287879474461075,0.06454129962399602
1772534474766464300,9.40746435546875,0.8735574427425861,0.029805794068425893,0.1938417794063687
1772534474776480300,9.417480224609376,0.8869880022019148,0.01127864212244749,0.35623131271153685
1772534474786497000,9.4274970703125,0.9302309316009283,0.03640738429054618,0.5221962202854454
1772534474796513000,9.437512939453125,0.9461515543103217,0.08562938809916376,0.6792981685765087
1772534474806530300,9.4475302734375,0.9997492889851332,0.11724018576294183,0.7619508789524435
1772534474816546300,9.45754638671875,1.0757371346443891,0.10590279919058083,0.8188523313477635
1772534474826563000,9.46756298828125,1.0858645609050988,0.05150879957154393,0.9269846431560814
1772534474836579000,9.4775791015625,1.0370575676381588,-0.03580781096220016,0.9966491310127079
1772534474846596400,9.487596435546875,1.0009779539972543,-0.12336685194969177,0.9821249310977757
1772534474856612000,9.497612060546874,0.9493255081713199,-0.20749723366275427,0.8861949521280824
1772534474866629000,9.507629150390626,0.7684358570575713,-0.2491219142101705,0.8932507158584893
1772534474876645000,9.51764501953125,0.5230120667129755,-0.2962845012709498,0.8391885785423219
1772534474886661000,9.5276611328125,0.23962182606756685,-0.29563655875623224,0.807363991997391
1772534474896678100,9.53767822265625,0.1191261456400156,-0.2597301097251475,0.8376514321029186
1772534474906694100,9.547694091796876,0.03518120349645614,-0.22326354259327053,0.8579856334708631
1772534474916711200,9.557711181640625,-0.02309796699285507,-0.1909564332284033,0.8054790550336242
1772534474926727200,9.56772705078125,0.09364099124968052,-0.14018106249794363,0.76303925871104
1772534474936744200,9.577744140625,0.24253683673143386,-0.11703779505863784,0.6681862613230943
1772534474946760200,9.58776025390625,0.3565449087053537,-0.14311433947086333,0.517196073910594
1772534474956777200,9.597777099609376,0.4376677791655063,-0.22235110392346977,0.4264212857469916
1772534474966793000,9.60779296875,0.5273246692150831,-0.31508184846043585,0.34971623172909017
1772534474976810200,9.617810302734375,0.4128162465035915,-0.3473432189874351,0.32061069488450883
1772534474986826200,9.627826171875,0.039033202749490736,-0.3539012623287737,0.2576492117978632
1772534474996842200,9.63784228515625,-0.29443887340426445,-0.3813676536642015,0.2039491857923567
1772534475006859000,9.64785888671875,-0.6494891596376896,-0.42015652626380323,0.07741685554906726
1772534475016875300,9.657875244140625,-1.1890712528795002,-0.42624739048480986,-0.11360358282625675
1772534475026892300,9.667892333984375,-1.7331325373619795,-0.43375045959129926,-0.3299083923228085
1772534475036908000,9.677907958984376,-1.9317519064337014,-0.3975448814831674,-0.4684172838248312
1772534475046925000,9.687925048828125,-1.9657149663120508,-0.2540494337402284,-0.48861485320106146
1772534475056941300,9.69794140625,-1.9691461098045109,-0.08399111937284469,-0.5268615817479789
1772534475066958000,9.7079580078125,-1.8992372917979954,0.02699599734470248,-0.43781040250658987
1772534475076974000,9.71797412109375,-1.7000380770117043,0.08203735495656728,-0.32231340714916584
1772534475086991000,9.7279912109375,-1.4037187966883182,0.13118453996330498,-0.1963542006187141
1772534475097007400,9.73800732421875,-1.0819079322338103,0.245578396384418,-0.17385332273617385
1772534475107024100,9.748024169921875,-0.6965215444475412,0.4010818234376609,-0.21741934660971163
1772534475117040000,9.7580400390625,-0.35059915204346176,0.5662181712329387,-0.2056691414527595
1772534475127056100,9.76805615234375,-0.10607552540898323,0.691579704131186,-0.16064780420437455
1772534475137073200,9.7780732421875,0.11675474033355712,0.7949417327977717,-0.06862842280715703
1772534475147089200,9.788089111328125,0.3374100001245737,0.8699931743897498,0.05381897621005773
1772534475157106200,9.798106201171874,0.558822800284624,0.9265253550812601,0.12454261773079633
1772534475167122200,9.8081220703125,0.6309744287818669,0.9197424169428646,0.1710053859591484
1772534475177139200,9.81813916015625,0.4329851743072271,0.8145638403736054,0.2207749406479299
1772534475187155200,9.8281552734375,0.14180793304741382,0.60839288687855,0.3087950232759118
1772534475197172200,9.838172119140625,-0.10300620096623897,0.38839696777909993,0.31628420998752116
1772534475207188200,9.848188232421874,-0.20183833111822605,0.26060689255967734,0.3411475792177021
1772534475217205000,9.858205078125,-0.4574421546936035,0.2089379339903593,0.41232451746389265
1772534475227221200,9.86822119140625,-0.7873989162027836,0.21180340642407536,0.4005655444785952
1772534475237237200,9.8782373046875,-1.0526146177321671,0.3157740685082972,0.3388433939285576
1772534475247254000,9.88825390625,-1.1329460455536842,0.45199981750920415,0.23908304301574826
1772534475257270000,9.89827001953125,-1.078040735411644,0.5434057431831956,0.014460633159428833
1772534475267287300,9.908287353515625,-0.9261837020367384,0.5470796093903482,-0.22041224481537935
1772534475277303300,9.91830322265625,-0.9374456852853298,0.7051292137950659,-0.5761055051274597
1772534475287320000,9.928320068359374,-0.8827607398957014,0.8332301085293292,-0.7584758963182568
1772534475297336000,9.938336181640626,-0.7192863339632749,0.680229165816307,-0.7245429393172264
1772534475307353300,9.948353271484375,-0.6285831497311591,0.513244852066785,-0.8061334272891283
1772534475317369300,9.958369384765625,-0.34922143394947047,0.47371100631877777,-0.9085933925494551
1772534475327386000,9.96838623046875,-0.033435821133852,0.4938349259369075,-0.9305331294178962
1772534475337402000,9.978402099609376,0.1376134039670229,0.5056942905567586,-0.7958198308065533
1772534475347418000,9.988418212890625,0.2619488086879253,0.5449263768792152,-0.5543797032706439
1772534475357435100,9.99843505859375,0.43518005400300025,0.5743598305039107,-0.3409299909442663
1772534475367451100,10.008451171875,0.6261398482322692,0.6288530527137219,-0.26426512280628084
1772534475377468200,10.01846826171875,0.7257955697268247,0.7873772888928652,-0.28322935099527236
1772534475387484200,10.028484130859376,0.8139940776616335,0.9486989007055759,-0.27864333837926386
1772534475397501200,10.038501220703125,0.8506658119767904,1.0481560308881104,-0.20130641619861125
1772534475407517200,10.04851708984375,0.9111872084349393,1.0737808860100806,-0.13119564587920904
1772534475417534200,10.0585341796875,1.0434645120710133,1.039720064845681,-0.04744783374294639
1772534475427550000,10.068550048828126,1.0870248368561268,0.9826992238543927,0.0024631752431392667
1772534475437567200,10.078567138671875,1.0409294406354426,0.8931734128385782,0.10311229168921708
1772534475447583200,10.088583251953125,1.0277192459285258,0.8719935544267297,0.12326280705332755
1772534475457599200,10.09859912109375,0.9804852010667323,0.8879568472340702,0.14542933841496705
1772534475467616000,10.108615966796876,0.9644237085819244,0.8827852898150682,0.1330247610025108
1772534475477632000,10.118632080078125,1.0284119043678044,0.7423930687844753,0.1257386956475675
1772534475487649300,10.128649169921875,1.1134370429635048,0.5510941057287156,0.1540950215600431
1772534475497665300,10.138665283203125,1.0938900464504957,0.316869170268625,0.11543605895042419
1772534475507682000,10.14868212890625,1.0017126980125903,0.17481062346100806,0.06204129950180649
1772534475517698000,10.158697998046875,0.8150000398337841,0.1543286841854453,-0.023441081342101096
1772534475527715300,10.16871533203125,0.6677642365187406,0.12289748087227344,-0.0715438718624413
1772534475537731000,10.17873095703125,0.6318681627511977,-0.005134001887589693,-0.04617985963374376
1772534475547748900,10.188748779296875,0.5744593453556299,-0.2349026885911822,-0.039103856832906604
1772534475557765000,10.19876513671875,0.5007283387124538,-0.4251933513872325,-0.05176737744249403
1772534475567780900,10.20878076171875,0.43848260267972944,-0.5548562347412109,-0.09551314179711043
1772534475577798000,10.2187978515625,0.5043459446877241,-0.6879048150107264,-0.1289838881138712
1772534475587814000,10.22881396484375,0.7050760223031044,-0.8127373555988073,-0.1614089978352189
1772534475597831000,10.238830810546874,0.8104846082359551,-0.9210575911946595,-0.15865246566869318
1772534475607847000,10.248846923828125,0.8701216230750083,-0.9766972069606185,-0.11950849602110683
1772534475617864000,10.258864013671875,0.8835048362612724,-1.0227996174439786,-0.015121508220955728
1772534475627880000,10.2688798828125,0.7660650362730026,-1.0995359433829783,0.05271101496815681
1772534475637897000,10.27889697265625,0.6503752948224544,-1.1482782008506356,-0.01727094133980572
1772534475647913000,10.288912841796876,0.5605763659536839,-1.1360163929097353,-0.12275595350973308
1772534475657930000,10.298929931640625,0.4936322429716587,-1.1612559019759296,-0.2589386670865118
1772534475667946000,10.308946044921875,0.3804173672020435,-1.2240084184870124,-0.34391675167009234
1772534475677963000,10.318962890625,0.2395370703935623,-1.2416003354094922,-0.38122649162784217
1772534475687979000,10.32897900390625,0.01080722521841526,-1.1827414653360844,-0.3559208585228771
1772534475697995000,10.3389951171875,-0.23304244767725465,-1.1123382879413664,-0.34305487414374947
1772534475708011800,10.34901171875,-0.3329892610728741,-1.0636951069340108,-0.3344992272444069
1772534475718027800,10.35902783203125,-0.44308337447345253,-1.013921898983419,-0.23675313876345752
1772534475728045000,10.369045166015624,-0.5669505771607161,-0.9520743684880435,-0.11556377698332071
1772534475738061000,10.37906103515625,-0.7153881574809551,-0.899217223047465,-0.05259564496017992
1772534475748077800,10.389077880859375,-0.8294406531184911,-0.8881871488586067,-0.06058218673467636
1772534475758093800,10.39909375,-0.9370447032690048,-0.8082109642155468,-0.16164748276621102
1772534475768111000,10.409111083984374,-1.1133224766731262,-0.6534151009097695,-0.2793113007687032
1772534475778126800,10.419126953125,-1.3058242396473885,-0.5627149854175746,-0.2640249573748559
1772534475788143900,10.429143798828125,-1.5277987653434275,-0.552834373524785,-0.12562186433486638
1772534475798160000,10.439159912109375,-1.709604362258315,-0.49080520285218954,-0.07345379713699221
1772534475808175900,10.44917578125,-1.7380962972491978,-0.3731707570746541,-0.13692293748483061
1772534475818193000,10.45919287109375,-1.731632069671154,-0.24223098565265536,-0.21282617360055445
1772534475828209000,10.469208984375,-1.5340519805192947,-0.09381927042603493,-0.11756561832502484
1772534475838226000,10.479225830078125,-1.1665320888131856,0.04228986645787954,0.0223717716101557
1772534475848242000,10.489241943359374,-0.8007879746079445,0.1220405717819929,0.17845197563804685
1772534475858259000,10.499259033203124,-0.46755730599462986,0.17823241460323333,0.27301293127685783
1772534475868275000,10.50927490234375,-0.2863917605489492,0.25036592292189597,0.3224512812498957
1772534475878292000,10.5192919921875,-0.25520225703716276,0.30667846951335664,0.30905126305930314
1772534475888307700,10.5293076171875,-0.2734060222476721,0.323244696649909,0.3795329125177115
1772534475898325000,10.539324951171874,-0.3805307644486427,0.33244185632318257,0.4996059105537832
1772534475908341000,10.549341064453126,-0.5357224952042102,0.3583826455265283,0.5428383916240185
1772534475918357000,10.55935693359375,-0.7018360174685716,0.38520825474038717,0.5277933827053756
1772534475928373800,10.569373779296875,-0.8394710487455129,0.4195528612822294,0.4028392615642398
1772534475938390000,10.57939013671875,-0.9624690673828125,0.489516478215903,0.1860666153602302
1772534475948407000,10.589406982421876,-1.08798871345222,0.5543751732259988,0.06869067438840866
1772534475958422800,10.5994228515625,-1.213520049959421,0.5588007345832884,0.00321092487052083
1772534475968439800,10.609439697265625,-1.1688298443615437,0.5899294478185475,-0.08694719269946218
1772534475978456000,10.6194560546875,-0.8262170148968696,0.6471823440000415,-0.10459471226669848
1772534475988472800,10.629472900390626,-0.5188859266936778,0.7357398945055902,-0.05841960187330842
1772534475998488800,10.63948876953125,-0.28622517181038853,0.7666763000391423,0.09209142372012138
1772534476008505900,10.649505859375,0.05376198532581329,0.8040114666990935,0.2682824686888605
1772534476018522000,10.659522216796875,0.38983576841056344,0.867108412733674,0.38132425291389227
1772534476028539000,10.669538818359374,0.5514788672626019,0.8892975943185388,0.5646010183598846
1772534476038555000,10.679554931640626,0.6357751070618629,0.9083169136956334,0.7267291242498904
1772534476048571000,10.68957080078125,0.6848708541423082,0.914563406869769,0.7920338825270533
1772534476058588000,10.699587890625,0.6625386108249426,0.8822231258876622,0.7544739672005176
1772534476068604000,10.70960400390625,0.5925578966259956,0.8336905656479299,0.6295302943881601
1772534476078621000,10.719620849609376,0.5068102889746428,0.811654236537218,0.5182786815155297
1772534476088637000,10.729636962890625,0.40078853957951066,0.8314170677579938,0.4494027136880904
1772534476098654000,10.739654052734375,0.2222358069807291,0.7993198748167604,0.43124468731544907
1772534476108670000,10.749669921875,0.046446109354496,0.7482567001208662,0.4627187068570405
1772534476118687000,10.75968701171875,-0.046747722649574275,0.656548649695143,0.501252435651794
1772534476128703000,10.769702880859375,-0.016075521010160444,0.5625094529081136,0.5153168360352516
1772534476138719700,10.7797197265625,0.011388239976763725,0.5294355238892138,0.48942828847579656
1772534476148736000,10.789736083984375,0.007466098096966743,0.45730493817999956,0.4399326553575694
1772534476158752000,10.799751953125,0.038974750560522076,0.38569947232343255,0.45345023551322516
1772534476168768800,10.809768798828125,0.14371931962668894,0.37328196236416694,0.5636272779569029
1772534476178784800,10.81978466796875,0.23245558770000932,0.40228053170293565,0.7131118100468069
1772534476188802000,10.829802001953125,0.2922375639677048,0.42625133600756526,0.8785388113517314
1772534476198818000,10.839818115234374,0.41020518722236154,0.4278988840188831,0.9884401055939495
1772534476208834800,10.849834716796876,0.6065683017998933,0.38271293079331514,0.9835299755901098
1772534476218850800,10.859850830078125,0.8237684527009725,0.30218108502887187,0.9673357235711068
1772534476228868000,10.8698681640625,0.9395429498255252,0.20759799062348902,0.9068543668624013
1772534476238884000,10.879884033203124,1.002826796734333,0.11593940536268055,0.9091668815884738
1772534476248900900,10.88990087890625,0.9341863912284374,0.05467267042994499,0.9181306708972901
1772534476258916900,10.899916748046875,0.8639496564418077,0.011036138603463768,1.0332627784650772
1772534476268932900,10.909932861328125,0.796439716270566,-0.05732018926404416,1.1568644620839506
1772534476278950000,10.919949951171875,0.7331441789239644,-0.13116452008858323,1.1718349444616585
1772534476288966000,10.9299658203125,0.7045972988754511,-0.1792414455153048,1.046642119193822
1772534476298983000,10.93998291015625,0.6214332779765128,-0.18475063739083705,0.8080768164418637
1772534476308999000,10.9499990234375,0.44967035164833064,-0.203072110696882,0.6561245059989392
1772534476319016000,10.960015869140625,0.32073651322126384,-0.10936024616807699,0.45777416312694547
1772534476329032000,10.970031982421874,-0.3994704427182674,-0.007877016985416412,0.4048603921283036
1772534476339049000,10.980049072265626,-0.8066980754345655,-0.1706942011181265,0.7130007508877665
1772534476349064700,10.990064697265625,-0.05175882880985737,-0.492257155226171,0.7824396863602101
1772534476359082000,11.00008203125,0.783546916949749,-0.6717196961462497,0.7024684701532125
1772534476369098000,11.010097900390624,1.3122849600940942,-0.5118818200852722,0.5183249318100511
1772534476379114000,11.020114013671876,1.5338538275986908,-0.4799057693056762,0.2789794384658337
1772534476389130800,11.030130859375,1.5059890845954418,-0.5443372518796473,0.21489275074154138
1772534476399147000,11.04014697265625,1.1981781039208173,-0.5904737107630819,0.18559286036863923
1772534476409164000,11.0501640625,0.7329881115794181,-0.613096534524858,0.06462883177697658
1772534476419180000,11.060179931640626,0.26969547729194165,-0.6221833656914532,-0.07615005048364401
1772534476429196800,11.07019677734375,-0.11760697324872016,-0.5492862525891512,-0.20943090513907373
1772534476439212800,11.080212890625,-0.42296179294288155,-0.4307614338431507,-0.40504488184973597
1772534476449230000,11.09022998046875,-0.9162930071413516,-0.4443569746058434,-0.43668549012988805
