time,seconds_elapsed,z,y,x
1772534465409843500,0.050843505859375,-0.6980801224708557,-0.26710110902786255,-0.1794900894165039
1772534465419860500,0.060860595703125,-0.705815315246582,-0.23338177800178528,-0.1573946475982666
1772534465429876500,0.07087646484375,-0.6958792805671692,-0.23084503412246704,-0.12128058075904846
1772534465439893500,0.0808935546875,-0.677509069442749,-0.2543189525604248,-0.079774409532547
1772534465449909500,0.090909423828125,-0.6479547023773193,-0.2708732485771179,-0.03938405215740204
1772534465459926300,0.10092626953125,-0.6176037192344666,-0.261149525642395,-0.009484746493399143
1772534465469942500,0.110942626953125,-0.5810527205467224,-0.25512540340423584,0.014747492969036102
1772534465479959600,0.12095947265625,-0.5421969294548035,-0.2686750590801239,0.055390793830156326
1772534465489975600,0.1309755859375,-0.511254608631134,-0.2826535403728485,0.12860263884067535
1772534465499992300,0.140992431640625,-0.4870752990245819,-0.29233279824256897,0.24071373045444489
1772534465510008600,0.151008544921875,-0.472578227519989,-0.3034042716026306,0.37251630425453186
1772534465520024600,0.161024658203125,-0.4664766490459442,-0.3317940831184387,0.47787973284721375
1772534465530041900,0.171041748046875,-0.45643866062164307,-0.36908474564552307,0.5493149757385254
1772534465540057900,0.181057861328125,-0.4488019645214081,-0.39997169375419617,0.5782241225242615
1772534465550075000,0.191074951171875,-0.45047950744628906,-0.4238400161266327,0.5656620264053345
1772534465560091100,0.201091064453125,-0.47293853759765625,-0.358321875333786,0.46410006284713745
1772534465570108000,0.21110791015625,-0.45094239711761475,-0.2926737666130066,0.3733256161212921
1772534465580124000,0.2211240234375,-0.35123127698898315,-0.24015356600284576,0.28314486145973206
1772534465590141000,0.231140869140625,-0.2465699464082718,-0.22439399361610413,0.20980021357536316
1772534465600157000,0.241156982421875,-0.19398796558380127,-0.23968586325645447,0.17899063229560852
1772534465610174000,0.251174072265625,-0.15914225578308105,-0.31554871797561646,0.17953673005104065
1772534465620190000,0.26118994140625,-0.14215794205665588,-0.40950849652290344,0.19905796647071838
1772534465630206000,0.2712060546875,-0.1345040202140808,-0.5265421867370605,0.2358601838350296
1772534465640223000,0.281222900390625,-0.13909704983234406,-0.6558248400688171,0.27042096853256226
1772534465650239000,0.291239013671875,-0.15279075503349304,-0.7718355655670166,0.31170129776000977
1772534465660256000,0.301256103515625,-0.1837283819913864,-0.8272613883018494,0.36438944935798645
1772534465670272000,0.31127197265625,-0.18910256028175354,-0.833747923374176,0.42171454429626465
1772534465680289000,0.3212890625,-0.20884057879447937,-0.8012298941612244,0.4795442819595337
1772534465690305000,0.331304931640625,-0.2528603971004486,-0.7388173341751099,0.5155364871025085
1772534465700321800,0.34132177734375,-0.3213007152080536,-0.6571914553642273,0.5222859978675842
1772534465710337800,0.351337890625,-0.4127509891986847,-0.5624936819076538,0.46307721734046936
1772534465720355000,0.36135498046875,-0.5081339478492737,-0.5104150176048279,0.32594624161720276
1772534465730371000,0.37137109375,-0.5900946259498596,-0.5005175471305847,0.13948465883731842
1772534465740387000,0.381386962890625,-0.6480602025985718,-0.521056056022644,-0.046902794390916824
1772534465750403800,0.39140380859375,-0.6796159148216248,-0.5634273290634155,-0.21849626302719116
1772534465760419800,0.401419921875,-0.6793351769447327,-0.5934438109397888,-0.37900310754776
1772534465770437000,0.41143701171875,-0.6649312973022461,-0.6266286969184875,-0.5329447984695435
1772534465780452900,0.421452880859375,-0.655592143535614,-0.6656309962272644,-0.6674363017082214
1772534465790470000,0.431469970703125,-0.6565358638763428,-0.6959872841835022,-0.7652572989463806
1772534465800486000,0.44148583984375,-0.6718842387199402,-0.7071227431297302,-0.7999179363250732
1772534465810503000,0.4515029296875,-0.6998000144958496,-0.6725032925605774,-0.7672029137611389
1772534465820519000,0.461518798828125,-0.7514960169792175,-0.6099000573158264,-0.6791508197784424
1772534465830535000,0.471534912109375,-0.8171306252479553,-0.5768375992774963,-0.5532673597335815
1772534465840552000,0.481552001953125,-0.9098016619682312,-0.543829083442688,-0.41360005736351013
1772534465850568000,0.49156787109375,-1.0216820240020752,-0.5191539525985718,-0.27755528688430786
1772534465860585000,0.5015849609375,-1.1444470882415771,-0.5164990425109863,-0.1601349115371704
1772534465870601000,0.51160107421875,-1.2717238664627075,-0.48876962065696716,-0.0738208144903183
1772534465880618000,0.521617919921875,-1.3788177967071533,-0.47242632508277893,-0.03128853440284729
1772534465890633700,0.5316337890625,-1.4559494256973267,-0.48585909605026245,-0.041213519871234894
1772534465900651000,0.541651123046875,-1.501933217048645,-0.5101484656333923,-0.07645033299922943
1772534465910667000,0.5516669921875,-1.4837993383407593,-0.5850212574005127,-0.12270241975784302
1772534465920683800,0.561683837890625,-1.388467788696289,-0.6883875727653503,-0.18960289657115936
1772534465930699800,0.57169970703125,-1.2474591732025146,-0.7330439686775208,-0.2643921375274658
1772534465940716000,0.581716064453125,-1.1129732131958008,-0.6596592664718628,-0.31173938512802124
1772534465950733000,0.591733154296875,-1.0378119945526123,-0.4298555254936218,-0.3081771731376648
1772534465960748800,0.601748779296875,-1.0148192644119263,-0.13698555529117584,-0.28565749526023865
1772534465970765800,0.611765869140625,-1.0395399332046509,0.09540295600891113,-0.26922932267189026
1772534465980782000,0.621781982421875,-1.074647068977356,0.1963748335838318,-0.26359567046165466
1772534465990798800,0.631798828125,-1.1182432174682617,0.20002774894237518,-0.24094346165657043
1772534466000814800,0.64181494140625,-1.1441723108291626,0.1726485937833786,-0.1794329732656479
1772534466010832000,0.651831787109375,-1.1211068630218506,0.0844971165060997,-0.10116018354892731
1772534466020847900,0.661847900390625,-1.066965103149414,-0.11971940100193024,-0.007901341654360294
1772534466030865000,0.671864990234375,-1.0104091167449951,-0.37248891592025757,0.0865880474448204
1772534466040881000,0.681880859375,-0.9733949899673462,-0.5856954455375671,0.1608835905790329
1772534466050897000,0.69189697265625,-1.0055861473083496,-0.7046857476234436,0.18312454223632812
1772534466060914000,0.701913818359375,-1.124489665031433,-0.7550767064094543,0.12159299105405807
1772534466070930000,0.711929931640625,-1.2490179538726807,-0.8043458461761475,-0.0022009932436048985
1772534466080947000,0.721947021484375,-1.3251923322677612,-0.8171668648719788,-0.1389833390712738
1772534466090963000,0.731962890625,-1.3605860471725464,-0.7659857869148254,-0.2586154043674469
1772534466100979700,0.741979736328125,-1.3768556118011475,-0.6632735729217529,-0.33738693594932556
1772534466110996000,0.751995849609375,-1.3842583894729614,-0.4942944049835205,-0.355314701795578
1772534466121013000,0.762012939453125,-1.3957074880599976,-0.2736203670501709,-0.3208637833595276
1772534466131029000,0.772029052734375,-1.426047444343567,-0.06641512364149094,-0.28082507848739624
1772534466141045800,0.782045654296875,-1.4514776468276978,0.05523674562573433,-0.2678768038749695
1772534466151062000,0.79206201171875,-1.4422714710235596,0.08226514607667923,-0.29105526208877563
1772534466161078000,0.802078125,-1.401118278503418,0.059351846575737,-0.33863475918769836
1772534466171094800,0.8120947265625,-1.3329977989196777,0.0007425283547490835,-0.40751194953918457
1772534466181110800,0.82211083984375,-1.226184606552124,0.006563133560121059,-0.4966452717781067
1772534466191128000,0.832128173828125,-1.1046723127365112,-0.06865701079368591,-0.5814447402954102
1772534466201144000,0.84214404296875,-1.0442895889282227,-0.1418854296207428,-0.6490181684494019
1772534466211160800,0.852160888671875,-1.0231307744979858,-0.1327284276485443,-0.6756601929664612
1772534466221176800,0.8621767578125,-1.0250381231307983,-0.12348539382219315,-0.6734782457351685
1772534466231194000,0.872194091796875,-1.0402987003326416,-0.1020127609372139,-0.6462364792823792
1772534466241209900,0.8822099609375,-1.0465972423553467,-0.07733963429927826,-0.6069119572639465
1772534466251227000,0.892226806640625,-1.0341343879699707,-0.07150675356388092,-0.5575924515724182
1772534466261243000,0.902242919921875,-1.0010310411453247,-0.11110662668943405,-0.53378826379776
1772534466271259000,0.9122587890625,-0.9480133652687073,-0.1400565803050995,-0.49508360028266907
1772534466281276000,0.92227587890625,-0.9027889370918274,-0.19483940303325653,-0.4321078062057495
1772534466291292000,0.9322919921875,-0.8917152881622314,-0.2311093956232071,-0.34351062774658203
1772534466301309000,0.942308837890625,-0.9149290323257446,-0.20753003656864166,-0.24089768528938293
1772534466311325000,0.952324951171875,-0.9533506035804749,-0.20620809495449066,-0.17685022950172424
1772534466321342000,0.962342041015625,-0.9730201363563538,-0.2903069853782654,-0.19009946286678314
1772534466331358000,0.97235791015625,-0.9627922773361206,-0.3905707895755768,-0.2397267371416092
1772534466341375000,0.982375,-0.940567135810852,-0.4450888931751251,-0.276636004447937
1772534466351390700,0.992390625,-0.9237020015716553,-0.4584074914455414,-0.27846601605415344
1772534466361408000,1.002407958984375,-0.9105406403541565,-0.3994064927101135,-0.2582997679710388
1772534466371424000,1.012424072265625,-0.9071255326271057,-0.24198928475379944,-0.2388961911201477
1772534466381440000,1.02243994140625,-0.9321163296699524,-0.030867982655763626,-0.22334332764148712
1772534466391456800,1.032456787109375,-0.9764723777770996,0.15468865633010864,-0.17155027389526367
1772534466401472800,1.04247265625,-1.0174132585525513,0.3536140024662018,-0.08259642124176025
1772534466411490000,1.052489990234375,-1.0210371017456055,0.5014055967330933,0.008156961761415005
1772534466421506000,1.062506103515625,-0.964518129825592,0.5970165729522705,0.061869990080595016
1772534466431522800,1.072522705078125,-0.8474851846694946,0.6778473854064941,0.09321675449609756
1772534466441538800,1.082538818359375,-0.6942300796508789,0.7692686319351196,0.12377679347991943
1772534466451555800,1.092555908203125,-0.5477586388587952,0.8099188804626465,0.1642707884311676
1772534466461571800,1.10257177734375,-0.4292415976524353,0.7423059940338135,0.21202819049358368
1772534466471587800,1.112587890625,-0.34543681144714355,0.5527317523956299,0.251711905002594
1772534466481604900,1.12260498046875,-0.2888619601726532,0.2538284361362457,0.29484471678733826
1772534466491621000,1.13262109375,-0.240448459982872,-0.031025012955069542,0.36172351241111755
1772534466501638000,1.142637939453125,-0.18309170007705688,-0.21505743265151978,0.44444024562835693
1772534466511654000,1.15265380859375,-0.1426016092300415,-0.3303808867931366,0.5193775296211243
1772534466521671000,1.1626708984375,-0.1129973903298378,-0.4014188349246979,0.564443826675415
1772534466531686100,1.17268603515625,-0.09606116265058517,-0.42628005146980286,0.5680438280105591
1772534466541703000,1.182702880859375,-0.09868863224983215,-0.4670317471027374,0.5332517623901367
1772534466551719000,1.192718994140625,-0.11363354325294495,-0.5315411686897278,0.46880191564559937
1772534466561736200,1.202736083984375,-0.14354485273361206,-0.576294481754303,0.39030736684799194
1772534466571752200,1.212752197265625,-0.19253478944301605,-0.6086395978927612,0.3144450783729553
1772534466581768000,1.222767822265625,-0.25951090455055237,-0.6169195771217346,0.2623232901096344
1772534466591785000,1.232784912109375,-0.3295387625694275,-0.6293574571609497,0.22737552225589752
1772534466601801200,1.24280126953125,-0.39178773760795593,-0.6325061321258545,0.196070596575737
1772534466611818000,1.25281787109375,-0.4525708258152008,-0.6090314984321594,0.16712304949760437
1772534466621834000,1.262833984375,-0.519025444984436,-0.5474059581756592,0.13303406536579132
1772534466631851000,1.27285107421875,-0.596560001373291,-0.5145427584648132,0.08623963594436646
1772534466641867000,1.282866943359375,-0.6749666333198547,-0.4892755150794983,0.024636458605527878
1772534466651884000,1.292884033203125,-0.7430738210678101,-0.4390009343624115,-0.0489756241440773
1772534466661900000,1.302900146484375,-0.7997989058494568,-0.38233980536460876,-0.11458579450845718
1772534466671917000,1.3129169921875,-0.8348436951637268,-0.30605843663215637,-0.16942881047725677
1772534466681932800,1.322932861328125,-0.8510780930519104,-0.2076610028743744,-0.20703664422035217
1772534466691949000,1.332948974609375,-0.8583638668060303,-0.10448222607374191,-0.2240283042192459
1772534466701966000,1.342966064453125,-0.8483405113220215,-0.005385205149650574,-0.2221398502588272
1772534466711982000,1.352982177734375,-0.8281335234642029,0.07579050958156586,-0.20309415459632874
1772534466721998800,1.362998779296875,-0.8020697236061096,0.1246480718255043,-0.17571233212947845
1772534466732015000,1.37301513671875,-0.7612974047660828,0.16136454045772552,-0.1572597771883011
1772534466742032100,1.3830322265625,-0.7076671719551086,0.1623629629611969,-0.16187024116516113
1772534466752048000,1.393048095703125,-0.6505410075187683,0.12267158180475235,-0.18934011459350586
1772534466762065000,1.40306494140625,-0.5979180335998535,0.06155736744403839,-0.23970741033554077
1772534466772081200,1.4130810546875,-0.5566784739494324,0.0019389863591641188,-0.2992405295372009
1772534466782097200,1.42309716796875,-0.5228019952774048,-0.11276256293058395,-0.35029280185699463
1772534466792114000,1.433114013671875,-0.4821028411388397,-0.27427181601524353,-0.3667216897010803
1772534466802130000,1.4431298828125,-0.418837308883667,-0.40075093507766724,-0.3387172222137451
1772534466812147200,1.453147216796875,-0.34746482968330383,-0.44960084557533264,-0.2738623023033142
1772534466822163200,1.4631630859375,-0.28318971395492554,-0.45053401589393616,-0.19344604015350342
1772534466832180000,1.473179931640625,-0.23948439955711365,-0.4268181025981903,-0.13433080911636353
1772534466842196000,1.483196044921875,-0.23135961592197418,-0.38537266850471497,-0.11595739424228668
1772534466852213200,1.493213134765625,-0.26826781034469604,-0.3069610297679901,-0.12007613480091095
1772534466862229000,1.50322900390625,-0.33608946204185486,-0.19965162873268127,-0.1304885596036911
1772534466872246000,1.51324609375,-0.4172411262989044,-0.11466627568006516,-0.13044092059135437
1772534466882262000,1.523261962890625,-0.49054089188575745,-0.06205739080905914,-0.11250107735395432
1772534466892279000,1.533279052734375,-0.5583198070526123,-0.006757654715329409,-0.09503664076328278
1772534466902295000,1.543294921875,-0.6260106563568115,0.06665850430727005,-0.091376394033432
1772534466912311000,1.55331103515625,-0.6945754885673523,0.14743736386299133,-0.1095171719789505
1772534466922328000,1.563328125,-0.7528254985809326,0.1861003339290619,-0.13352476060390472
1772534466932344000,1.573343994140625,-0.795138418674469,0.16513250768184662,-0.15160474181175232
1772534466942361000,1.583361083984375,-0.8157073855400085,0.1071147546172142,-0.16241344809532166
1772534466952377000,1.593377197265625,-0.8211718797683716,0.023595565930008888,-0.14873819053173065
1772534466962394000,1.60339404296875,-0.8162103891372681,-0.08002164214849472,-0.10695239156484604
1772534466972409900,1.613409912109375,-0.7989392280578613,-0.18841533362865448,-0.056638602167367935
1772534466982427100,1.62342724609375,-0.774831235408783,-0.2636834383010864,-0.01271855179220438
1772534466992443100,1.633443115234375,-0.7679646611213684,-0.2896351218223572,-0.0037347725592553616
1772534467002459100,1.643459228515625,-0.7997527122497559,-0.31970009207725525,-0.026196938008069992
1772534467012476000,1.653475830078125,-0.842730700969696,-0.3346230089664459,-0.053132832050323486
1772534467022492000,1.663491943359375,-0.878896176815033,-0.30729207396507263,-0.059696994721889496
1772534467032509200,1.67350927734375,-0.9165222644805908,-0.26702791452407837,-0.03506946563720703
1772534467042525000,1.68352490234375,-0.9521516561508179,-0.22801072895526886,0.02083827182650566
1772534467052542000,1.6935419921875,-0.9649521708488464,-0.15779776871204376,0.10397344082593918
1772534467062558000,1.703557861328125,-0.9683540463447571,-0.048414018005132675,0.19907838106155396
1772534467072575000,1.713574951171875,-0.9815244674682617,0.0911688506603241,0.2617100179195404
1772534467082591000,1.723591064453125,-0.9959095120429993,0.21637870371341705,0.27306440472602844
1772534467092608000,1.73360791015625,-1.0027271509170532,0.3359946310520172,0.24204114079475403
1772534467102624000,1.7436240234375,-0.9783908724784851,0.4276300370693207,0.20153473317623138
1772534467112640300,1.75364013671875,-0.9328390955924988,0.46168002486228943,0.15544767677783966
1772534467122657000,1.763656982421875,-0.876558244228363,0.41466403007507324,0.11210499703884125
1772534467132673000,1.773673095703125,-0.8276287317276001,0.3261338770389557,0.06487156450748444
1772534467142690000,1.78368994140625,-0.7945764660835266,0.1790434718132019,0.02644801326096058
1772534467152706000,1.7937060546875,-0.7854610085487366,-0.0300010833889246,0.025938550010323524
1772534467162723000,1.80372314453125,-0.7840452790260315,-0.22865106165409088,0.06418127566576004
1772534467172739000,1.813739013671875,-0.8103216290473938,-0.38431447744369507,0.1024668738245964
1772534467182755800,1.823755859375,-0.8708483576774597,-0.4946572184562683,0.11391713470220566
1772534467192772000,1.833772216796875,-0.9506543278694153,-0.551108717918396,0.10020572692155838
1772534467202789000,1.8437890625,-1.0238076448440552,-0.5108635425567627,0.05722630023956299
1772534467212805000,1.85380517578125,-1.0863065719604492,-0.40647730231285095,-0.017969967797398567
1772534467222821000,1.863821044921875,-1.1345369815826416,-0.22202277183532715,-0.10863089561462402
1772534467232838100,1.873838134765625,-1.1450105905532837,-0.020266782492399216,-0.19430039823055267
1772534467242854100,1.883854248046875,-1.122004508972168,0.12206906080245972,-0.2582785487174988
1772534467252871000,1.893870849609375,-1.065660834312439,0.20589978992938995,-0.27685824036598206
1772534467262887000,1.903886962890625,-0.9795206785202026,0.22388970851898193,-0.26387453079223633
1772534467272904200,1.913904296875,-0.8661863207817078,0.1564931571483612,-0.24670633673667908
1772534467282920200,1.923920166015625,-0.7372384667396545,0.015794631093740463,-0.23936134576797485
1772534467292937000,1.93393701171875,-0.6026729345321655,-0.1476791352033615,-0.23388515412807465
1772534467302953000,1.943952880859375,-0.46978330612182617,-0.3122478127479553,-0.22473347187042236
1772534467312970000,1.953969970703125,-0.34798941016197205,-0.449428528547287,-0.21509164571762085
1772534467322986200,1.963986328125,-0.2546890079975128,-0.5280421376228333,-0.19490940868854523
1772534467333002000,1.974001953125,-0.19497747719287872,-0.5435306429862976,-0.15686997771263123
1772534467343019000,1.98401904296875,-0.15049070119857788,-0.5241239666938782,-0.11527964472770691
1772534467353035000,1.994034912109375,-0.13327857851982117,-0.43867361545562744,-0.08820778131484985
1772534467363052000,2.004052001953125,-0.12828780710697174,-0.2990339696407318,-0.09062033891677856
1772534467373068000,2.014068115234375,-0.14019951224327087,-0.12103615701198578,-0.11382203549146652
1772534467383085000,2.0240849609375,-0.17328156530857086,0.06164764240384102,-0.15229618549346924
1772534467393101000,2.03410107421875,-0.22670669853687286,0.21711419522762299,-0.19653181731700897
1772534467403118000,2.0441181640625,-0.283796101808548,0.32452908158302307,-0.23328371345996857
1772534467413134000,2.054134033203125,-0.3219242990016937,0.3803541362285614,-0.26472777128219604
1772534467423151000,2.064151123046875,-0.328776091337204,0.3738642930984497,-0.28188571333885193
1772534467433167000,2.0741669921875,-0.29704776406288147,0.28261610865592957,-0.3176954686641693
1772534467443182800,2.084182861328125,-0.25217801332473755,0.19602741301059723,-0.31091639399528503
1772534467453200100,2.0942001953125,-0.19183464348316193,0.07546691596508026,-0.24778993427753448
1772534467463216000,2.104216064453125,-0.12339938431978226,-0.039453279227018356,-0.14602547883987427
1772534467473233000,2.11423291015625,-0.06327968835830688,-0.13123291730880737,-0.03870917856693268
1772534467483249000,2.124248779296875,-0.03497401624917984,-0.22598420083522797,0.06857386231422424
1772534467493266200,2.13426611328125,-0.029814401641488075,-0.2610456943511963,0.16144691407680511
1772534467503282200,2.1442822265625,-0.045804817229509354,-0.2582395076751709,0.21583318710327148
1772534467513299000,2.154298828125,-0.07464901357889175,-0.24554651975631714,0.22516293823719025
1772534467523315000,2.16431494140625,-0.10049579292535782,-0.19042707979679108,0.20398041605949402
1772534467533332200,2.174332275390625,-0.12626799941062927,-0.11679920554161072,0.17378470301628113
1772534467543348000,2.184347900390625,-0.1521344929933548,-0.03631691634654999,0.14955145120620728
1772534467553364200,2.1943642578125,-0.1788972169160843,0.034641083329916,0.11432037502527237
1772534467563381200,2.20438134765625,-0.2107323855161667,0.07719334214925766,0.05972982943058014
1772534467573397200,2.214397216796875,-0.24741676449775696,0.09933650493621826,-0.015389462932944298
1772534467583414000,2.2244140625,-0.28637561202049255,0.11338601261377335,-0.07211079448461533
1772534467593430300,2.23443017578125,-0.3175547122955322,0.14070232212543488,-0.08315124362707138
1772534467603447300,2.244447265625,-0.32197049260139465,0.15890581905841827,-0.07337877154350281
1772534467613463000,2.254463134765625,-0.29444482922554016,0.14833207428455353,-0.04300088807940483
1772534467623480000,2.26447998046875,-0.23782682418823242,0.13627728819847107,0.003942918963730335
1772534467633496000,2.27449609375,-0.17051176726818085,0.11734725534915924,0.048185545951128006
1772534467643512300,2.28451220703125,-0.09958033263683319,0.08628920465707779,0.064265176653862
1772534467653529000,2.294529052734375,-0.033428870141506195,0.0447973757982254,0.05088363215327263
1772534467663545000,2.304545166015625,0.0327802412211895,0.012889775447547436,0.023117780685424805
1772534467673562000,2.31456201171875,0.08994921296834946,-0.017006682232022285,-0.007810488343238831
1772534467683578400,2.324578369140625,0.1427873820066452,-0.0192639771848917,-0.03273022174835205
1772534467693595100,2.33459521484375,0.19999462366104126,-0.02947058714926243,-0.042039792984724045
1772534467703611100,2.344611083984375,0.26363858580589294,-0.03364748880267143,-0.028252340853214264
1772534467713628200,2.354628173828125,0.32908761501312256,-0.022512542083859444,0.010019770823419094
1772534467723644200,2.36464404296875,0.39478379487991333,-0.004638735204935074,0.06868148595094681
1772534467733661200,2.3746611328125,0.46536922454833984,0.032493956387043,0.15015900135040283
1772534467743677200,2.38467724609375,0.5275780558586121,0.0828615203499794,0.24099090695381165
1772534467753693200,2.394693115234375,0.563416063785553,0.09573239833116531,0.3227992057800293
1772534467763710200,2.404710205078125,0.5817084908485413,0.08661959320306778,0.3661938011646271
1772534467773726200,2.414726318359375,0.5996677875518799,0.05061722546815872,0.3567732274532318
1772534467783743200,2.4247431640625,0.6226173043251038,-0.01943802833557129,0.29712241888046265
1772534467793759200,2.43475927734375,0.6389212012290955,-0.14259174466133118,0.21894557774066925
1772534467803776300,2.4447763671875,0.6369343400001526,-0.3713516891002655,0.12183426320552826
1772534467813792300,2.454792236328125,0.612695038318634,-0.6985908150672913,-0.012259894981980324
1772534467823809000,2.46480908203125,0.5626020431518555,-1.013381838798523,-0.13898669183254242
1772534467833825000,2.474824951171875,0.4828405976295471,-1.179207682609558,-0.19328482449054718
1772534467843842300,2.48484228515625,0.3749796450138092,-1.184829592704773,-0.16795016825199127
1772534467853858300,2.4948583984375,0.25185975432395935,-1.0799604654312134,-0.10229377448558807
1772534467863874300,2.504874267578125,0.13760855793952942,-0.8477494120597839,-0.01803535781800747
1772534467873891000,2.51489111328125,0.04724927619099617,-0.5443254113197327,0.06610487401485443
1772534467883907000,2.524906982421875,-0.004106058273464441,-0.19454050064086914,0.1293696016073227
1772534467893924400,2.53492431640625,-0.009301722049713135,0.14934499561786652,0.13828805088996887
1772534467903940000,2.544940185546875,0.02328338474035263,0.4131127595901489,0.09691503643989563
1772534467913957000,2.55495703125,0.0536443293094635,0.5781064629554749,0.023840956389904022
1772534467923973000,2.56497314453125,0.0671263188123703,0.62784743309021,-0.052978456020355225
1772534467933990100,2.574990234375,0.0629521906375885,0.5363078117370605,-0.11867460608482361
1772534467944006100,2.585006103515625,0.05982377380132675,0.3157466650009155,-0.16748449206352234
1772534467954023200,2.595023193359375,0.05691462755203247,-0.001437109662219882,-0.19932283461093903
1772534467964039200,2.6050390625,0.04688276723027229,-0.35257914662361145,-0.22505269944667816
1772534467974055200,2.61505517578125,0.012820194475352764,-0.7095623016357422,-0.2451810985803604
1772534467984072200,2.625072265625,-0.03622271493077278,-1.0370362997055054,-0.266779363155365
1772534467994088200,2.635088134765625,-0.10154180228710175,-1.2413856983184814,-0.26368236541748047
1772534468004105200,2.645105224609375,-0.19888512790203094,-1.2639658451080322,-0.23309168219566345
1772534468014121000,2.655120849609375,-0.3202236294746399,-1.1041145324707031,-0.18924205005168915
1772534468024138200,2.66513818359375,-0.44433119893074036,-0.819973349571228,-0.1756407618522644
1772534468034154200,2.675154296875,-0.5531160235404968,-0.46883338689804077,-0.22183753550052643
1772534468044171000,2.6851708984375,-0.6368939876556396,-0.09702252596616745,-0.3232981264591217
1772534468054187000,2.69518701171875,-0.7011649012565613,0.24657005071640015,-0.4476191997528076
1772534468064203300,2.705203369140625,-0.760067880153656,0.5159434676170349,-0.5722924470901489
1772534468074220300,2.71522021484375,-0.8045957088470459,0.664779543876648,-0.6706601977348328
1772534468084236000,2.725236083984375,-0.8185946345329285,0.6922838687896729,-0.7111149430274963
1772534468094253000,2.735253173828125,-0.8120265007019043,0.5882328748703003,-0.6811752319335938
1772534468104269300,2.745269287109375,-0.7916991710662842,0.39271607995033264,-0.6051278710365295
1772534468114286000,2.7552861328125,-0.7847058773040771,0.19617639482021332,-0.4845934808254242
1772534468124302000,2.765302001953125,-0.7702456712722778,0.011105069890618324,-0.35590580105781555
1772534468134319000,2.775319091796875,-0.7326279878616333,-0.16817378997802734,-0.24654628336429596
1772534468144335400,2.78533544921875,-0.6863366365432739,-0.3545364737510681,-0.15722385048866272
1772534468154352000,2.79535205078125,-0.5991314053535461,-0.49097055196762085,-0.09311843663454056
1772534468164368100,2.8053681640625,-0.44767478108406067,-0.5083454847335815,-0.09338582307100296
1772534468174384000,2.815384033203125,-0.24307578802108765,-0.4366571307182312,-0.14529384672641754
1772534468184401200,2.825401123046875,-0.04198715463280678,-0.32105836272239685,-0.20663230121135712
1772534468194417200,2.835417236328125,0.11512608081102371,-0.1881357729434967,-0.2412761002779007
1772534468204434200,2.84543408203125,0.21415464580059052,-0.07311149686574936,-0.2491629719734192
1772534468214450200,2.8554501953125,0.23050619661808014,-0.023194540292024612,-0.22382058203220367
1772534468224467200,2.86546728515625,0.17626745998859406,-0.018813908100128174,-0.15800614655017853
1772534468234483200,2.875483154296875,0.07627443224191666,-0.011531185358762741,-0.07801665365695953
1772534468244500200,2.885500244140625,-0.03169730678200722,0.045675378292798996,-0.019452938809990883
1772534468254516200,2.89551611328125,-0.11398230493068695,0.11797469109296799,-0.02488711290061474
1772534468264533200,2.905533203125,-0.15808343887329102,0.17441773414611816,-0.10446396470069885
1772534468274549200,2.91554931640625,-0.1707371473312378,0.25724339485168457,-0.229984313249588
1772534468284565200,2.925565185546875,-0.17050518095493317,0.33918753266334534,-0.34884437918663025
1772534468294582000,2.93558203125,-0.17649833858013153,0.3554988205432892,-0.4151965081691742
1772534468304598000,2.945597900390625,-0.19163599610328674,0.3196767568588257,-0.3934161067008972
1772534468314615300,2.955615234375,-0.22393402457237244,0.23707562685012817,-0.29913806915283203
1772534468324631300,2.96563134765625,-0.26396825909614563,0.11707837879657745,-0.16512301564216614
1772534468334648000,2.97564794921875,-0.3053562343120575,-0.02884959802031517,-0.014381557703018188
1772534468344664000,2.9856640625,-0.3615500032901764,-0.17110100388526917,0.13381057977676392
1772534468354681300,2.995681396484375,-0.46071454882621765,-0.2710801959037781,0.24739329516887665
1772534468364697300,3.005697265625,-0.5860213041305542,-0.3215814530849457,0.3063434362411499
1772534468374714000,3.015714111328125,-0.7107753157615662,-0.3103458881378174,0.30987608432769775
1772534468384730000,3.025730224609375,-0.8277813196182251,-0.21022862195968628,0.2835294306278229
1772534468394746000,3.03574609375,-0.9284642338752747,-0.039472438395023346,0.2491036355495453
1772534468404763100,3.04576318359375,-1.006361722946167,0.14524494111537933,0.22290797531604767
1772534468414779100,3.055779052734375,-1.0718902349472046,0.3254946768283844,0.22893109917640686
1772534468424796200,3.065796142578125,-1.123414158821106,0.4778871536254883,0.27537208795547485
1772534468434812200,3.075812255859375,-1.14393150806427,0.5740576982498169,0.33747410774230957
1772534468444829200,3.0858291015625,-1.1250195503234863,0.6291710138320923,0.3886866867542267
1772534468454845200,3.09584521484375,-1.0770710706710815,0.6090261936187744,0.4148707389831543
1772534468464862200,3.1058623046875,-1.000148892402649,0.5124986171722412,0.40489134192466736
1772534468474878000,3.1158779296875,-0.9006491303443909,0.3501688241958618,0.38256049156188965
1772534468484895200,3.125895263671875,-0.8016711473464966,0.17280973494052887,0.35152241587638855
1772534468494911200,3.1359111328125,-0.7211476564407349,0.010729624889791012,0.30009716749191284
1772534468504927200,3.14592724609375,-0.6647956967353821,-0.09603570401668549,0.21798017621040344
1772534468514944000,3.155944091796875,-0.6287409067153931,-0.12536245584487915,0.1257411390542984
1772534468524960300,3.165960205078125,-0.6193940043449402,-0.09557659178972244,0.05296839401125908
1772534468534977800,3.175977783203125,-0.6339622735977173,-0.02212783880531788,0.010659807361662388
1772534468544993800,3.185993896484375,-0.6565128564834595,0.0595230795443058,-0.0015491885133087635
1772534468555010800,3.1960107421875,-0.6829526424407959,0.14111267030239105,0.012979368679225445
1772534468565026800,3.20602685546875,-0.7003452181816101,0.21694430708885193,0.03462713956832886
1772534468575043600,3.216043701171875,-0.6805835962295532,0.29546716809272766,0.05011187493801117
1772534468585059800,3.226059814453125,-0.6191069483757019,0.38114798069000244,0.05834397301077843
1772534468595076900,3.236076904296875,-0.5194083452224731,0.45118701457977295,0.05585567280650139
1772534468605092900,3.2460927734375,-0.4001443088054657,0.45471861958503723,0.04420700669288635
1772534468615108600,3.256108642578125,-0.27881622314453125,0.352722704410553,0.02535841055214405
1772534468625126000,3.2661259765625,-0.17011503875255585,0.13014501333236694,0.013379511423408985
1772534468635142000,3.276141845703125,-0.07752105593681335,-0.1042378842830658,0.018977435305714607
1772534468645158700,3.28615869140625,-0.013461642898619175,-0.2544499933719635,0.03176034241914749
1772534468655174700,3.296174560546875,0.016701288521289825,-0.3481766879558563,0.02938177064061165
1772534468665192000,3.30619189453125,0.017618481069803238,-0.3642064929008484,0.011496514081954956
1772534468675208000,3.3162080078125,0.0014529479667544365,-0.2764444947242737,-0.03709379583597183
1772534468685224700,3.326224609375,-0.034020356833934784,-0.0878647193312645,-0.11125057935714722
1772534468695240700,3.33624072265625,-0.09726013988256454,0.13093753159046173,-0.18911701440811157
1772534468705258000,3.346258056640625,-0.1638418436050415,0.33069804310798645,-0.25539880990982056
1772534468715274000,3.35627392578125,-0.2094786912202835,0.4935160279273987,-0.29202747344970703
1772534468725289700,3.366289794921875,-0.2312804013490677,0.6265883445739746,-0.29149189591407776
1772534468735306800,3.376306640625,-0.2263246327638626,0.6860408186912537,-0.2720833420753479
1772534468745322800,3.38632275390625,-0.20387817919254303,0.6977534294128418,-0.24070757627487183
1772534468755339800,3.39633984375,-0.1653027981519699,0.6703900098800659,-0.1715952605009079
1772534468765355800,3.406355712890625,-0.10371959954500198,0.5885406732559204,-0.0883733406662941
1772534468775372800,3.416372802734375,-0.01847391203045845,0.44794219732284546,-0.008259490132331848
1772534468785388800,3.426388916015625,0.07823052257299423,0.2661111354827881,0.06122930720448494
1772534468795405800,3.43640576171875,0.17336590588092804,0.14103153347969055,0.11812794208526611
1772534468805421800,3.446421875,0.24345391988754272,0.06989209353923798,0.15702474117279053
1772534468815438800,3.45643896484375,0.2810920774936676,0.027607019990682602,0.17921879887580872
1772534468825454600,3.46645458984375,0.29516661167144775,-0.008446321822702885,0.18849804997444153
1772534468835470600,3.476470703125,0.29666900634765625,-0.035686857998371124,0.19645774364471436
1772534468845487900,3.48648779296875,0.2893570065498352,-0.053268514573574066,0.1975424438714981
1772534468855504000,3.49650390625,0.27622219920158386,-0.0722452774643898,0.18863920867443085
1772534468865520600,3.506520751953125,0.26532667875289917,-0.09327919036149979,0.17723874747753143
1772534468875536600,3.51653662109375,0.23824703693389893,-0.11167845129966736,0.17880260944366455
1772534468885554000,3.526553955078125,0.1901889592409134,-0.08109204471111298,0.19920162856578827
1772534468895570000,3.53656982421875,0.12183146178722382,-0.0355241559445858,0.20890812575817108
1772534468905586700,3.546586669921875,0.05365267023444176,-0.002040499122813344,0.19122739136219025
1772534468915602700,3.556602783203125,0.007950722239911556,0.014225148595869541,0.1504753679037094
1772534468925620000,3.566619873046875,-0.008319593966007233,0.019942155107855797,0.09313138574361801
1772534468935635700,3.5766357421875,-0.0017486440483480692,-0.004080302082002163,0.028960611671209335
1772534468945651700,3.586651611328125,0.03554519638419151,-0.04487327113747597,-0.016779446974396706
1772534468955668700,3.596668701171875,0.08803088963031769,-0.1104535236954689,-0.04470150172710419
1772534468965685000,3.60668505859375,0.13596299290657043,-0.18506836891174316,-0.05513709783554077
1772534468975701800,3.61670166015625,0.16888810694217682,-0.2429404854774475,-0.06308790296316147
1772534468985717800,3.6267177734375,0.19396255910396576,-0.2920515537261963,-0.07735525816679001
1772534468995734800,3.63673486328125,0.2189788818359375,-0.3297482132911682,-0.1001959815621376
1772534469005750800,3.646750732421875,0.24072065949440002,-0.3363912105560303,-0.11852039396762848
1772534469015767800,3.656767822265625,0.26510435342788696,-0.2952469289302826,-0.11871743947267532
1772534469025783800,3.66678369140625,0.29246407747268677,-0.20160247385501862,-0.10011526197195053
1772534469035800600,3.676800537109375,0.3210115134716034,-0.06867104768753052,-0.048120614141225815
1772534469045816800,3.68681689453125,0.3488234281539917,0.10188444703817368,0.03597775101661682
1772534469055832800,3.696832763671875,0.3789139688014984,0.2582593858242035,0.12122074514627457
1772534469065849900,3.706849853515625,0.42098844051361084,0.3545185625553131,0.17395293712615967
1772534469075865900,3.716865966796875,0.4837997555732727,0.4010844826698303,0.1777370721101761
1772534469085883000,3.7268828125,0.5522438287734985,0.40230926871299744,0.16169925034046173
1772534469095899000,3.73689892578125,0.5983139276504517,0.33638668060302734,0.13724179565906525
1772534469105916000,3.746916015625,0.6114145517349243,0.20822393894195557,0.1040971577167511
1772534469115931600,3.756931640625,0.5813066363334656,0.035004522651433945,0.052767254412174225
1772534469125949000,3.766948974609375,0.5191583037376404,-0.1374727189540863,-0.013653579168021679
1772534469135965000,3.77696484375,0.4224725067615509,-0.2650527358055115,-0.07163174450397491
1772534469145981700,3.786981689453125,0.3013407588005066,-0.33873361349105835,-0.10519369691610336
1772534469155997700,3.796997802734375,0.17672288417816162,-0.33707889914512634,-0.10654748976230621
1772534469166013700,3.807013671875,0.06516094505786896,-0.24287621676921844,-0.08303843438625336
1772534469176031000,3.817031005859375,-0.015986785292625427,-0.10201017558574677,-0.05311830714344978
1772534469186046700,3.827046630859375,-0.052365563809871674,0.06488506495952606,-0.03391718119382858
1772534469196063700,3.837063720703125,-0.03655890375375748,0.20664912462234497,-0.014958938583731651
1772534469206079700,3.847079833984375,0.010588100180029869,0.2883701026439667,0.011412480846047401
1772534469216096800,3.8570966796875,0.06647184491157532,0.2912440299987793,0.03694454953074455
1772534469226112800,3.86711279296875,0.10835005342960358,0.21511679887771606,0.06109995394945145
1772534469236129800,3.8771298828125,0.1347951740026474,0.0724959746003151,0.0775623545050621
1772534469246145800,3.887145751953125,0.13995371758937836,-0.09658679366111755,0.07775276899337769
1772534469256162800,3.897162841796875,0.1250499188899994,-0.2832736372947693,0.05100017786026001
1772534469266178800,3.9071787109375,0.09115533530712128,-0.45163628458976746,0.007864955812692642
1772534469276194800,3.91719482421875,0.03526228666305542,-0.5860013365745544,-0.05551169067621231
1772534469286211800,3.9272119140625,-0.035231053829193115,-0.6529995203018188,-0.11060477048158646
1772534469296227600,3.9372275390625,-0.11459138989448547,-0.633693516254425,-0.1412782520055771
1772534469306244900,3.947244873046875,-0.18115602433681488,-0.5464057326316833,-0.1683117300271988
1772534469316260900,3.9572607421875,-0.22349660098552704,-0.3971216082572937,-0.19499672949314117
1772534469326277600,3.967277587890625,-0.24844029545783997,-0.22299614548683167,-0.2030320167541504
1772534469336293600,3.977293701171875,-0.26107725501060486,-0.013494016602635384,-0.1874757707118988
1772534469346311000,3.987310791015625,-0.25786203145980835,0.20754516124725342,-0.1644064038991928
1772534469356327000,3.997326904296875,-0.23976629972457886,0.3778575658798218,-0.15255123376846313
1772534469366343700,4.00734375,-0.20845791697502136,0.4835866689682007,-0.16082939505577087
1772534469376359700,4.017359619140625,-0.1655881702899933,0.5168070197105408,-0.17612622678279877
1772534469386376000,4.0273759765625,-0.10986711084842682,0.47877949476242065,-0.1873202919960022
1772534469396392700,4.037392822265625,-0.04300990328192711,0.37689030170440674,-0.17712387442588806
1772534469406408700,4.04740869140625,0.04001041501760483,0.2525571584701538,-0.14322982728481293
1772534469416425700,4.05742578125,0.13689063489437103,0.12267935276031494,-0.10230840742588043
1772534469426442000,4.06744189453125,0.2352108210325241,-0.0006646896945312619,-0.07889708876609802
1772534469436458800,4.077458740234375,0.32261472940444946,-0.09731787443161011,-0.09247662127017975
1772534469446474800,4.087474853515625,0.3773791790008545,-0.14384782314300537,-0.1422814577817917
1772534469456491800,4.09749169921875,0.3948785662651062,-0.13016349077224731,-0.20903447270393372
1772534469466507800,4.1075078125,0.38496628403663635,-0.09687452018260956,-0.2738629877567291
1772534469476524800,4.11752490234375,0.35761335492134094,-0.059662286192178726,-0.31087151169776917
1772534469486540800,4.127540771484375,0.31143733859062195,-0.036196108907461166,-0.3359563648700714
1772534469496556800,4.137556884765625,0.25909408926963806,-0.04542636498808861,-0.3647374212741852
1772534469506573600,4.147573486328125,0.20874172449111938,-0.05164511129260063,-0.3819856643676758
1772534469516589800,4.15758984375,0.17567425966262817,-0.04836638644337654,-0.38261204957962036
1772534469526606800,4.16760693359375,0.16335634887218475,-0.03282684460282326,-0.36594945192337036
1772534469536622800,4.177622802734375,0.1601235568523407,-0.006445532198995352,-0.34640735387802124
1772534469546640000,4.187639892578125,0.15379561483860016,0.005790361203253269,-0.3122371435165405
1772534469556655900,4.19765576171875,0.14905959367752075,0.0065724411979317665,-0.25677505135536194
1772534469566673000,4.2076728515625,0.14658871293067932,0.009255575947463512,-0.18717041611671448
1772534469576688600,4.217688720703125,0.13576838374137878,-0.0009584362851455808,-0.11052026599645615
1772534469586706000,4.227705810546875,0.1196725070476532,-0.015521133318543434,-0.03708279877901077
1772534469596722000,4.237721923828125,0.1002640426158905,-0.04430488497018814,0.038740456104278564
1772534469606738000,4.247738037109375,0.0812099277973175,-0.07221321761608124,0.11065246164798737
1772534469616754700,4.257754638671875,0.07074803858995438,-0.08870557695627213,0.16448864340782166
1772534469626770700,4.267770751953125,0.05982961133122444,-0.11839529126882553,0.19031678140163422
1772534469636788000,4.2777880859375,0.05330610275268555,-0.1672537475824356,0.19721096754074097
1772534469646804000,4.287803955078125,0.03802888095378876,-0.19076812267303467,0.18797992169857025
1772534469656820700,4.29782080078125,0.011294052004814148,-0.19439521431922913,0.17496614158153534
1772534469666836700,4.307836669921875,-0.023010924458503723,-0.17300871014595032,0.17456932365894318
1772534469676854000,4.31785400390625,-0.09554450213909149,-0.1267457753419876,0.20168758928775787
1772534469686869800,4.327869873046875,-0.20622467994689941,-0.0507492795586586,0.23052376508712769
1772534469696886800,4.33788671875,-0.3264763355255127,0.006540657952427864,0.2340262532234192
1772534469706902800,4.34790283203125,-0.42842400074005127,0.02408902533352375,0.21223707497119904
1772534469716919000,4.3579189453125,-0.48827049136161804,0.03044402226805687,0.18120139837265015
1772534469726935800,4.367935791015625,-0.51849365234375,0.0412260964512825,0.16875618696212769
1772534469736951800,4.377951904296875,-0.539289116859436,0.04457598552107811,0.17129136621952057
1772534469746968800,4.38796875,-0.5656057000160217,0.0050099375657737255,0.18843546509742737
1772534469756984800,4.39798486328125,-0.5933727025985718,-0.0697631686925888,0.22756196558475494
1772534469767001900,4.408001953125,-0.6115317344665527,-0.1485208421945572,0.30119943618774414
1772534469777017900,4.418017822265625,-0.5992875695228577,-0.20406080782413483,0.3719679117202759
1772534469787034600,4.42803466796875,-0.5691426992416382,-0.2614505887031555,0.35021066665649414
1772534469797050600,4.438050537109375,-0.5405078530311584,-0.2824873626232147,0.20302599668502808
1772534469807068000,4.44806787109375,-0.5427728891372681,-0.2793426811695099,-0.0390167236328125
1772534469817084000,4.458083984375,-0.5925966501235962,-0.21083247661590576,-0.294050931930542
1772534469827100000,4.468099853515625,-0.6717678904533386,-0.07479286938905716,-0.46188443899154663
1772534469837116700,4.47811669921875,-0.7220510840415955,0.12155984342098236,-0.48899000883102417
1772534469847133000,4.4881328125,-0.6982381939888,0.3390061557292938,-0.4051651358604431
1772534469857150000,4.49814990234375,-0.5939562320709229,0.5604925751686096,-0.28022003173828125
1772534469867165700,4.508165771484375,-0.40836507081985474,0.7153679132461548,-0.17452369630336761
1772534469877182700,4.5181826171875,-0.16135558485984802,0.7613503336906433,-0.08448099344968796
1772534469887199000,4.528198974609375,0.12095999717712402,0.7072522044181824,0.0026560393162071705
1772534469897215700,4.5382158203125,0.40219518542289734,0.5497696995735168,0.09319529682397842
1772534469907231700,4.548231689453125,0.6573665142059326,0.29693958163261414,0.17408987879753113
1772534469917248800,4.558248779296875,0.8747456073760986,-0.017840787768363953,0.23959074914455414
1772534469927265000,4.56826513671875,1.0450865030288696,-0.34078875184059143,0.29724231362342834
1772534469937280800,4.57828076171875,1.1383423805236816,-0.6121956706047058,0.3234235346317291
1772534469947297800,4.5882978515625,1.1482242345809937,-0.8211842775344849,0.3052796721458435
1772534469957313800,4.598313720703125,1.0860321521759033,-0.9656841158866882,0.2574925124645233
1772534469967330800,4.608330810546875,0.9529840350151062,-1.01702082157135,0.19122029840946198
1772534469977346800,4.618346923828125,0.7562519311904907,-0.9489758014678955,0.11013251543045044
1772534469987363800,4.62836376953125,0.5279969573020935,-0.7470288276672363,0.014327693730592728
1772534469997379800,4.6383798828125,0.3097245395183563,-0.44413769245147705,-0.08527781814336777
1772534470007396900,4.64839697265625,0.13321395218372345,-0.08932476490736008,-0.1849604696035385
1772534470017412900,4.658412841796875,0.014733284711837769,0.22385169565677643,-0.26179447770118713
1772534470027430000,4.668429931640625,-0.04517825320363045,0.44055071473121643,-0.2930264472961426
1772534470037446000,4.67844580078125,-0.04351276159286499,0.5356727242469788,-0.27102625370025635
1772534470047461600,4.688461669921875,0.010521446354687214,0.5600284337997437,-0.20576363801956177
1772534470057479000,4.69847900390625,0.0870538130402565,0.5106682777404785,-0.11302630603313446
1772534470067495000,4.708494873046875,0.16453424096107483,0.41681528091430664,-0.020147230476140976
1772534470077511700,4.71851171875,0.22277237474918365,0.2923780679702759,0.05753491446375847
1772534470087527700,4.728527587890625,0.24299375712871552,0.16610321402549744,0.12677231431007385
1772534470097545000,4.738544921875,0.23338693380355835,0.07480286061763763,0.175065279006958
1772534470107561000,4.74856103515625,0.21370051801204681,0.0447695329785347,0.20413728058338165
1772534470117577700,4.75857763671875,0.200644388794899,0.060377199202775955,0.21201413869857788
1772534470127593700,4.76859375,0.20979821681976318,0.09579378366470337,0.206661194562912
1772534470137611000,4.778611083984375,0.2284168004989624,0.13322517275810242,0.1873749941587448
1772534470147626800,4.788626708984375,0.25009122490882874,0.17008864879608154,0.16475756466388702
1772534470157642800,4.798642822265625,0.2739604413509369,0.18423819541931152,0.16391968727111816
1772534470167659800,4.80865966796875,0.29804927110671997,0.16649648547172546,0.18586812913417816
1772534470177675800,4.81867578125,0.31858736276626587,0.13227860629558563,0.20120199024677277
1772534470187692800,4.82869287109375,0.34454545378685,0.10363978147506714,0.19011738896369934
1772534470197708800,4.838708740234375,0.3582790791988373,0.06860896199941635,0.16745664179325104
1772534470207725800,4.848725830078125,0.3694411814212799,0.052321337163448334,0.14302000403404236
1772534470217741800,4.858741943359375,0.3716326057910919,0.04720073938369751,0.1076425313949585
1772534470227758800,4.8687587890625,0.35810962319374084,0.04683029279112816,0.06978649646043777
1772534470237774800,4.87877490234375,0.3239072859287262,0.0929487869143486,0.019619952887296677
1772534470247791900,4.8887919921875,0.2772465646266937,0.1776341050863266,-0.06413832306861877
1772534470257807600,4.8988076171875,0.22877226769924164,0.24896927177906036,-0.17229382693767548
1772534470267823900,4.908823974609375,0.195736825466156,0.2721816599369049,-0.2767006754875183
1772534470277841000,4.9188408203125,0.19351741671562195,0.243048295378685,-0.34333381056785583
1772534470287857000,4.92885693359375,0.22545883059501648,0.1586303412914276,-0.3405739665031433
1772534470297873700,4.938873779296875,0.2767106592655182,0.03610476106405258,-0.257727712392807
1772534470307890000,4.948889892578125,0.3513137996196747,-0.05964360386133194,-0.1124618649482727
1772534470317907000,4.958906982421875,0.44304540753364563,-0.04561948403716087,0.06568944454193115
1772534470327923000,4.9689228515625,0.5547066926956177,0.07034147530794144,0.23797918856143951
1772534470337939700,4.978939697265625,0.6808386445045471,0.2805252969264984,0.3792818486690521
1772534470347956000,4.9889560546875,0.8087694644927979,0.5359493494033813,0.4992966651916504
1772534470357972700,4.99897265625,0.9132996201515198,0.7925568222999573,0.5836187601089478
1772534470367988700,5.00898876953125,0.9788016676902771,0.9497336149215698,0.6133785247802734
1772534470378004700,5.019004638671875,1.021254539489746,0.9542450904846191,0.582057535648346
1772534470388022000,5.02902197265625,1.0684359073638916,0.8502840995788574,0.5378501415252686
1772534470398038000,5.0390380859375,1.121147632598877,0.6777986288070679,0.5319228172302246
1772534470408054800,5.0490546875,1.1767866611480713,0.4039233922958374,0.5636605024337769
1772534470418070800,5.05907080078125,1.2588269710540771,0.09130024164915085,0.59637850522995
1772534470428088000,5.069088134765625,1.358805775642395,-0.2324269562959671,0.5942271947860718
1772534470438103800,5.079103759765625,1.4251538515090942,-0.5125868916511536,0.5571746230125427
1772534470448120800,5.089120849609375,1.419802188873291,-0.6997314691543579,0.5252164006233215
1772534470458136800,5.09913671875,1.3427363634109497,-0.7514471411705017,0.5234277844429016
1772534470468153600,5.109153564453125,1.1987296342849731,-0.701511025428772,0.5233830213546753
1772534470478169900,5.119169921875,1.013764500617981,-0.558373749256134,0.47744089365005493
1772534470488185900,5.129185791015625,0.8230491280555725,-0.3087178170681,0.36938580870628357
1772534470498203000,5.139202880859375,0.6540290713310242,-0.005643756128847599,0.21350181102752686
1772534470508219000,5.149218994140625,0.5409267544746399,0.27911391854286194,0.04410053789615631
1772534470518236000,5.15923583984375,0.4999288022518158,0.48138174414634705,-0.09443929046392441
1772534470528252000,5.169251953125,0.5222088694572449,0.5513195395469666,-0.1771640032529831
1772534470538268700,5.1792685546875,0.5784156322479248,0.48610150814056396,-0.1996966451406479
1772534470548284700,5.18928466796875,0.6560960412025452,0.32284998893737793,-0.1585068553686142
1772534470558301700,5.1993017578125,0.739676833152771,0.09539346396923065,-0.07126066833734512
1772534470568317700,5.209317626953125,0.8281715512275696,-0.15835759043693542,0.03080684132874012
1772534470578334500,5.21933447265625,0.9063675999641418,-0.3775290250778198,0.11981385946273804
1772534470588350700,5.229350830078125,0.9625424146652222,-0.4951171875,0.17516979575157166
1772534470598366700,5.23936669921875,0.9842720031738281,-0.49070098996162415,0.2190086394548416
1772534470608383700,5.2493837890625,0.9554867148399353,-0.3776727020740509,0.25591713190078735
1772534470618399700,5.259399658203125,0.8742532730102539,-0.18229570984840393,0.27361592650413513
1772534470628416800,5.269416748046875,0.7542539238929749,0.04578059911727905,0.2529604434967041
1772534470638432800,5.279432861328125,0.6134119033813477,0.2967628240585327,0.19555427134037018
1772534470648449500,5.289449462890625,0.47006887197494507,0.5388191342353821,0.12232000380754471
1772534470658465500,5.299465576171875,0.3498471677303314,0.7296607494354248,0.04345795512199402
1772534470668482800,5.30948291015625,0.25257545709609985,0.8768568634986877,-0.04263831675052643
1772534470678498800,5.319498779296875,0.1912221908569336,0.9481666684150696,-0.12805739045143127
1772534470689141800,5.330141845703125,0.17240697145462036,0.9386751651763916,-0.19494108855724335
1772534470699157800,5.34015771484375,0.2002280205488205,0.8604179620742798,-0.22244024276733398
1772534470709173800,5.350173828125,0.25923460721969604,0.7464392185211182,-0.2230316400527954
1772534470719190500,5.3601904296875,0.3278219401836395,0.6359949707984924,-0.19285722076892853
1772534470729206500,5.37020654296875,0.39086607098579407,0.5352184772491455,-0.14771738648414612
1772534470739223800,5.380223876953125,0.44830992817878723,0.440011590719223,-0.09984759986400604
1772534470749239800,5.39023974609375,0.5104693174362183,0.34170955419540405,-0.05818496644496918
1772534470759256600,5.400256591796875,0.5705685615539551,0.2261696457862854,-0.017007434740662575
1772534470769272600,5.4102724609375,0.6235605478286743,0.09177758544683456,0.02505021169781685
1772534470779289600,5.42028955078125,0.6767275929450989,-0.026626821607351303,0.06351211667060852
1772534470789305600,5.4303056640625,0.7338117361068726,-0.10911177843809128,0.09414950758218765
1772534470799322600,5.440322509765625,0.7800841927528381,-0.14678139984607697,0.12495535612106323
1772534470809338600,5.450338623046875,0.7881455421447754,-0.15742698311805725,0.17221641540527344
1772534470819355000,5.46035498046875,0.736476480960846,-0.14831630885601044,0.22022601962089539
1772534470829371600,5.47037158203125,0.6372714042663574,-0.09976872056722641,0.257109135389328
1772534470839387600,5.4803876953125,0.5261752605438232,-0.04753187671303749,0.2701285481452942
1772534470849404700,5.49040478515625,0.43322914838790894,0.023369746282696724,0.2555684447288513
1772534470859420700,5.500420654296875,0.35804277658462524,0.1062270775437355,0.19686198234558105
1772534470869437700,5.510437744140625,0.3373523950576782,0.17605778574943542,0.10792642086744308
1772534470879453700,5.52045361328125,0.36048513650894165,0.2303178310394287,0.04071729630231857
1772534470889470500,5.530470458984375,0.3896169364452362,0.2667540907859802,0.02748253382742405
1772534470899486700,5.54048681640625,0.395721435546875,0.27669939398765564,0.07287958264350891
1772534470909503700,5.550503662109375,0.3853171169757843,0.21180059015750885,0.16091209650039673
1772534470919519700,5.560519775390625,0.36821961402893066,0.14551211893558502,0.2588237524032593
1772534470929536500,5.57053662109375,0.3555435538291931,0.11292581260204315,0.327908992767334
1772534470939552800,5.580552734375,0.35071122646331787,0.11885400861501694,0.3467532694339752
1772534470949568800,5.59056884765625,0.36241090297698975,0.13979032635688782,0.32926565408706665
1772534470959585800,5.600585693359375,0.38029563426971436,0.17401060461997986,0.29657748341560364
1772534470969601500,5.6106015625,0.39459753036499023,0.22403734922409058,0.2636757791042328
1772534470979618600,5.62061865234375,0.38212090730667114,0.24103258550167084,0.21944227814674377
1772534470989634800,5.630634765625,0.34936824440956116,0.15713028609752655,0.15888100862503052
1772534470999651600,5.640651611328125,0.30706632137298584,0.013644494116306305,0.09550389647483826
1772534471009667600,5.65066748046875,0.2653827965259552,-0.11648332327604294,0.05985279008746147
1772534471019684600,5.6606845703125,0.22913768887519836,-0.25205498933792114,0.05123293772339821
1772534471029700900,5.670700927734375,0.19613569974899292,-0.408700168132782,0.07546881586313248
1772534471039717600,5.680717529296875,0.16470614075660706,-0.5623770952224731,0.11430303007364273
1772534471049733600,5.690733642578125,0.1229269877076149,-0.6900378465652466,0.12794160842895508
1772534471059749600,5.70074951171875,0.07675186544656754,-0.6995929479598999,0.10531915724277496
1772534471069766700,5.7107666015625,0.025483082979917526,-0.5654324889183044,0.08086387813091278
1772534471079782700,5.72078271484375,-0.0563359297811985,-0.3101128041744232,0.04847165197134018
1772534471089799700,5.730799560546875,-0.15022780001163483,-0.009942569769918919,0.0011930875480175018
1772534471099815700,5.740815673828125,-0.24402649700641632,0.26241910457611084,-0.06277524679899216
1772534471109832700,5.750832763671875,-0.3135203421115875,0.44431620836257935,-0.12040925025939941
1772534471119848700,5.7608486328125,-0.31706470251083374,0.5341845154762268,-0.14708620309829712
1772534471129865700,5.77086572265625,-0.245057612657547,0.5504473447799683,-0.1273612380027771
1772534471139881700,5.7808818359375,-0.11453481018543243,0.4919434189796448,-0.07275260239839554
1772534471149898800,5.790898681640625,0.04518135264515877,0.3131960332393646,-0.0180043987929821
1772534471159914800,5.800914794921875,0.2075723260641098,0.023265350610017776,0.028180023655295372
1772534471169930800,5.8109306640625,0.34361109137535095,-0.26012906432151794,0.09624030441045761
1772534471179947500,5.820947509765625,0.42605167627334595,-0.45039933919906616,0.16694483160972595
1772534471189963500,5.830963623046875,0.44508129358291626,-0.5287553668022156,0.20945315062999725
1772534471199980800,5.840980712890625,0.4244932532310486,-0.4971114695072174,0.2066715806722641
1772534471209996800,5.850996826171875,0.3790959417819977,-0.3255586326122284,0.16640938818454742
1772534471220013600,5.861013671875,0.3183367848396301,-0.06240268051624298,0.08740344643592834
1772534471230029600,5.871029541015625,0.2575754225254059,0.22062397003173828,-0.03118498995900154
1772534471240046800,5.881046875,0.21079517900943756,0.4848257005214691,-0.14950762689113617
1772534471250062600,5.8910625,0.1829073578119278,0.6829560995101929,-0.23676103353500366
1772534471260079600,5.90107958984375,0.1736530214548111,0.7983938455581665,-0.27496588230133057
1772534471270095600,5.911095703125,0.18296903371810913,0.8443061709403992,-0.27061933279037476
1772534471280111600,5.921111572265625,0.2082262933254242,0.8395952582359314,-0.25161004066467285
1772534471290128600,5.931128662109375,0.25313305854797363,0.7754950523376465,-0.22976811230182648
1772534471300144600,5.94114453125,0.3021930754184723,0.6789834499359131,-0.20581330358982086
1772534471310161700,5.95116162109375,0.34681329131126404,0.5418279767036438,-0.1711418777704239
1772534471320177700,5.961177734375,0.39411380887031555,0.3766782581806183,-0.1073015034198761
1772534471330194700,5.971194580078125,0.463269978761673,0.2189812809228897,-0.02794463559985161
1772534471340210700,5.981210693359375,0.5758921504020691,0.11945891380310059,0.06184268370270729
1772534471350227700,5.991227783203125,0.7129527926445007,0.08638671785593033,0.1387885957956314
1772534471360243500,6.001243408203125,0.8398049473762512,0.06609783321619034,0.18497800827026367
1772534471370260700,6.0112607421875,0.9285558462142944,0.05787079408764839,0.2013567090034485
1772534471380276700,6.02127685546875,0.9721102118492126,0.03692115843296051,0.1980360746383667
1772534471390292700,6.031292724609375,0.9721499085426331,-0.0007473907899111509,0.19407862424850464
1772534471400309500,6.0413095703125,0.9551770091056824,-0.026750639081001282,0.20361877977848053
1772534471410325800,6.05132568359375,0.9221863150596619,-0.02307947166264057,0.24241836369037628
1772534471420342800,6.0613427734375,0.8766340613365173,0.02056172862648964,0.2880392372608185
1772534471430358500,6.071358642578125,0.8247186541557312,0.08236277848482132,0.3014759421348572
1772534471440375600,6.08137548828125,0.7711902260780334,0.15598222613334656,0.2561286985874176
1772534471450391800,6.091391845703125,0.7186979651451111,0.24394084513187408,0.1714572310447693
1772534471460408600,6.10140869140625,0.6743912696838379,0.32423198223114014,0.08482770621776581
1772534471470424600,6.111424560546875,0.6535067558288574,0.3912791907787323,0.014468595385551453
1772534471480441600,6.121441650390625,0.6572533249855042,0.41719263792037964,-0.00966230034828186
1772534471490457900,6.131457763671875,0.681090235710144,0.4336872100830078,-0.0023876093327999115
1772534471500473900,6.141473876953125,0.7228267192840576,0.4164644479751587,0.017747478559613228
1772534471510490600,6.15149072265625,0.7754281163215637,0.3592506945133209,0.03099483996629715
1772534471520506600,6.161506591796875,0.8189728260040283,0.29046010971069336,0.03423354774713516
1772534471530524000,6.17152392578125,0.8511669635772705,0.23663020133972168,0.05255529657006264
1772534471540539400,6.181539306640625,0.8773995041847229,0.2076880931854248,0.08719481527805328
1772534471550556200,6.19155615234375,0.9001282453536987,0.19901125133037567,0.13058596849441528
1772534471560572200,6.201572265625,0.9221693873405457,0.20699328184127808,0.17617636919021606
1772534471570589200,6.211589111328125,0.943721354007721,0.24919264018535614,0.21514864265918732
1772534471580605200,6.221605224609375,0.9531044363975525,0.32227858901023865,0.24237626791000366
1772534471590622200,6.231622314453125,0.953133761882782,0.38936495780944824,0.2513197064399719
1772534471600638200,6.24163818359375,0.9455651044845581,0.470041960477829,0.22669178247451782
1772534471610655000,6.251655029296875,0.9278958439826965,0.5777084827423096,0.16652537882328033
1772534471620671200,6.261671142578125,0.9109853506088257,0.661300539970398,0.0908445417881012
1772534471630687200,6.271687255859375,0.9024317860603333,0.7088470458984375,0.03529154136776924
1772534471640704300,6.281704345703125,0.9068477153778076,0.7268664240837097,0.011854182928800583
1772534471650720000,6.291719970703125,0.913019061088562,0.7177416086196899,-0.0028358129784464836
1772534471660737300,6.3017373046875,0.9271990060806274,0.6398653984069824,-0.0353633388876915
1772534471670753300,6.311753173828125,0.9526095390319824,0.49437636137008667,-0.09336645156145096
1772534471680770000,6.32177001953125,0.99942547082901,0.3015635907649994,-0.14968697726726532
1772534471690786000,6.3317861328125,1.0482490062713623,0.13294366002082825,-0.19401103258132935
1772534471700803300,6.34180322265625,1.0774884223937988,-0.024228893220424652,-0.2427927553653717
1772534471710819300,6.3518193359375,1.0591964721679688,-0.17665091156959534,-0.30325955152511597
1772534471720836000,6.361836181640625,0.9826056361198425,-0.23223374783992767,-0.3466746509075165
1772534471730852000,6.37185205078125,0.8571816682815552,-0.14292384684085846,-0.35073626041412354
1772534471740868000,6.3818681640625,0.7193437218666077,0.060046084225177765,-0.33535876870155334
1772534471750885400,6.391885498046875,0.6190051436424255,0.3204542398452759,-0.34709426760673523
1772534471760901000,6.401901123046875,0.5780447721481323,0.5636233687400818,-0.42523953318595886
1772534471770918100,6.411918212890625,0.6034929156303406,0.7212263345718384,-0.5452854633331299
1772534471780934100,6.42193408203125,0.6585965156555176,0.8141022324562073,-0.6007100939750671
1772534471790951200,6.431951171875,0.7250192165374756,0.889369010925293,-0.542453944683075
1772534471800967200,6.44196728515625,0.7992047667503357,0.9590112566947937,-0.39732927083969116
1772534471810984200,6.451984130859375,0.8867604732513428,1.0000598430633545,-0.24728089570999146
1772534471821000200,6.462000244140625,0.9880697727203369,1.0095312595367432,-0.1321118324995041
1772534471831017200,6.472017333984375,1.0874594449996948,1.001907467842102,-0.03120865300297737
1772534471841033200,6.482033203125,1.1845502853393555,1.0229750871658325,0.04516708478331566
1772534471851050200,6.49205029296875,1.2693791389465332,1.0636316537857056,0.06755387783050537
1772534471861066000,6.50206591796875,1.3460922241210938,1.0907117128372192,0.013594603165984154
1772534471871082000,6.51208203125,1.4263889789581299,1.0661700963974,-0.10433069616556168
1772534471881099300,6.522099365234375,1.5004018545150757,0.9947009682655334,-0.25617077946662903
1772534471891115300,6.532115234375,1.5874643325805664,0.8398394584655762,-0.39905843138694763
1772534471901132000,6.542132080078125,1.6911756992340088,0.5885605216026306,-0.4858315587043762
1772534471911148000,6.55214794921875,1.803787112236023,0.2778630554676056,-0.5046640634536743
1772534471921165300,6.562165283203125,1.9233794212341309,-0.07001258432865143,-0.47709381580352783
1772534471931181300,6.572181396484375,2.021190881729126,-0.4048556089401245,-0.40769433975219727
1772534471941198000,6.582197998046875,2.072610855102539,-0.6458080410957336,-0.27497410774230957
1772534471951214000,6.592214111328125,2.06746244430542,-0.7624289393424988,-0.11112633347511292
1772534471961231000,6.602231201171875,1.9832923412322998,-0.775173008441925,0.03384975716471672
1772534471971247000,6.6122470703125,1.8342543840408325,-0.7000840902328491,0.10606004297733307
1772534471981263000,6.62226318359375,1.6516391038894653,-0.5719980001449585,0.1029634028673172
1772534471991280000,6.632280029296875,1.4338921308517456,-0.39814046025276184,0.05224722996354103
1772534472001296400,6.64229638671875,1.1854865550994873,-0.1533176153898239,-0.0217190682888031
1772534472011313200,6.652313232421875,0.9466957449913025,0.0473204106092453,-0.12938347458839417
1772534472021329200,6.6623291015625,0.7364757657051086,0.1540648490190506,-0.23238883912563324
1772534472031346200,6.67234619140625,0.5709959864616394,0.2516753077507019,-0.28886088728904724
1772534472041362000,6.68236181640625,0.46337980031967163,0.32269808650016785,-0.29085755348205566
1772534472051379200,6.692379150390625,0.41378721594810486,0.3366703689098358,-0.2516254484653473
1772534472061395200,6.702395263671875,0.41071704030036926,0.2883077561855316,-0.17916086316108704
1772534472071412000,6.712411865234375,0.4442577064037323,0.20278805494308472,-0.0841243639588356
1772534472081428000,6.722427978515625,0.49191904067993164,0.09999214112758636,0.030053628608584404
1772534472091444200,6.7324443359375,0.5344856977462769,0.02620980143547058,0.15833649039268494
1772534472101461200,6.742461181640625,0.5506415367126465,0.0023828470148146152,0.2595651149749756
1772534472111477200,6.752477294921875,0.5382053852081299,-0.012423263862729073,0.2991945445537567
1772534472121494000,6.762493896484375,0.5010217428207397,-0.004098896868526936,0.2737247943878174
1772534472131510300,6.77251025390625,0.449256032705307,0.04040971398353577,0.19753816723823547
1772534472141527300,6.78252734375,0.3968280553817749,0.10091898590326309,0.10188177227973938
1772534472151543000,6.79254296875,0.34074079990386963,0.13665492832660675,0.02102101594209671
1772534472161560000,6.80256005859375,0.28077733516693115,0.11761679500341415,-0.0313820019364357
1772534472171576300,6.812576416015625,0.2336103320121765,0.09604145586490631,-0.036287810653448105
1772534472181593000,6.822593017578125,0.206411212682724,0.09474475681781769,-0.007348398212343454
1772534472191609000,6.832609130859375,0.19168074429035187,0.09166400879621506,0.015146259218454361
1772534472201625000,6.842625,0.18921643495559692,0.09440433979034424,0.004517291206866503
1772534472211642400,6.852642333984375,0.20702366530895233,0.08928867429494858,-0.02752240188419819
1772534472221658000,6.862658203125,0.2459794282913208,0.06594381481409073,-0.053348373621702194
1772534472231675100,6.872675048828125,0.3051620423793793,0.014674769714474678,-0.06235039234161377
1772534472241691100,6.882691162109375,0.3758617043495178,-0.08737491071224213,-0.05701246112585068
1772534472251708200,6.892708251953125,0.4240955412387848,-0.19852086901664734,-0.022677656263113022
1772534472261724200,6.90272412109375,0.42524001002311707,-0.23472005128860474,0.03230564296245575
1772534472271741200,6.9127412109375,0.4002757966518402,-0.25467753410339355,0.08046518266201019
1772534472281757200,6.922757080078125,0.3667783737182617,-0.2640487253665924,0.10831555724143982
1772534472291774200,6.932774169921875,0.3285857141017914,-0.2665883004665375,0.09053203463554382
1772534472301790200,6.942790283203125,0.28723248839378357,-0.2908109426498413,0.026936935260891914
1772534472311806200,6.95280615234375,0.24619612097740173,-0.3289596438407898,-0.05601147562265396
1772534472321823200,6.9628232421875,0.1872948408126831,-0.3695753216743469,-0.1236921176314354
1772534472331839000,6.9728388671875,0.10246597230434418,-0.40289944410324097,-0.14869147539138794
1772534472341856300,6.982856201171875,0.018060369417071342,-0.3903321325778961,-0.13819202780723572
1772534472351872300,6.992872314453125,-0.04833409935235977,-0.3680516183376312,-0.09605149924755096
1772534472361889000,7.002888916015625,-0.0928712785243988,-0.3300029933452606,-0.05995263531804085
1772534472371905000,7.012905029296875,-0.11601760983467102,-0.30692270398139954,-0.05628785863518715
1772534472381922300,7.02292236328125,-0.1363084763288498,-0.26745033264160156,-0.08080197870731354
1772534472391938300,7.032938232421875,-0.15973950922489166,-0.22092729806900024,-0.11632215976715088
1772534472401955000,7.042955078125,-0.20042259991168976,-0.19295234978199005,-0.13618174195289612
1772534472411971000,7.05297119140625,-0.264640212059021,-0.19133447110652924,-0.13195185363292694
1772534472421987000,7.062987060546875,-0.35068100690841675,-0.16734014451503754,-0.12263493239879608
1772534472432004000,7.073004150390625,-0.4338483214378357,-0.141230508685112,-0.12972266972064972
1772534472442020000,7.08302001953125,-0.4814155697822571,-0.13375121355056763,-0.13166916370391846
1772534472452037000,7.093037109375,-0.4907403588294983,-0.13537387549877167,-0.11339801549911499
1772534472462053000,7.10305322265625,-0.47430822253227234,-0.15628111362457275,-0.06679556518793106
1772534472472070100,7.113070068359375,-0.4431162178516388,-0.15462729334831238,0.003629594575613737
1772534472482086100,7.123086181640625,-0.41507524251937866,-0.14632709324359894,0.07178963720798492
1772534472492103200,7.133103271484375,-0.4085845947265625,-0.13759486377239227,0.11067552864551544
1772534472502119200,7.143119140625,-0.4150562584400177,-0.1167115792632103,0.11329690366983414
1772534472512136200,7.15313623046875,-0.41816070675849915,-0.0868237242102623,0.1063937246799469
1772534472522152200,7.163152099609375,-0.4220181405544281,-0.061918869614601135,0.12202732264995575
1772534472532169200,7.173169189453125,-0.42686349153518677,-0.02680296078324318,0.15956591069698334
1772534472542185200,7.183185302734375,-0.42854973673820496,0.01907404512166977,0.20710478723049164
1772534472552201200,7.193201171875,-0.41940897703170776,0.05416012555360794,0.24408544600009918
1772534472562218500,7.203218505859375,-0.3977145850658417,0.06368310004472733,0.2603519558906555
1772534472572234500,7.213234375,-0.39613819122314453,0.04663937911391258,0.26299354434013367
1772534472582251300,7.223251220703125,-0.4110734760761261,0.007614483125507832,0.2858772873878479
1772534472592267300,7.233267333984375,-0.409441202878952,0.02658098377287388,0.3264673352241516
1772534472602284500,7.243284423828125,-0.3895433247089386,0.059843700379133224,0.3580648899078369
1772534472612300300,7.25330029296875,-0.35581037402153015,0.0741126537322998,0.36233046650886536
1772534472622317300,7.2633173828125,-0.3359524607658386,0.06209182366728783,0.34676772356033325
1772534472632333300,7.273333251953125,-0.3365594744682312,0.033347420394420624,0.33375120162963867
1772534472642349300,7.283349365234375,-0.3638981282711029,0.013030431233346462,0.3235190808773041
1772534472652366300,7.293366455078125,-0.3983421325683594,0.007855109870433807,0.3042670786380768
1772534472662382300,7.30338232421875,-0.41979682445526123,0.04086099565029144,0.2736726701259613
1772534472672399400,7.3133994140625,-0.4249630570411682,0.07554049044847488,0.23293139040470123
1772534472682415400,7.323415283203125,-0.42150285840034485,0.09712871164083481,0.1917053759098053
1772534472692432400,7.333432373046875,-0.41887563467025757,0.10056019574403763,0.1509595364332199
1772534472702448400,7.343448486328125,-0.43908262252807617,0.08445730060338974,0.10720443725585938
1772534472712465400,7.35346533203125,-0.47873228788375854,0.06528733670711517,0.06703198701143265
1772534472722481200,7.363481201171875,-0.5197252631187439,0.05608807131648064,0.03868599981069565
1772534472732498400,7.37349853515625,-0.548579216003418,0.045348238199949265,0.007168032228946686
1772534472742514400,7.383514404296875,-0.5612830519676208,0.03627964109182358,-0.010530536994338036
1772534472752531200,7.39353125,-0.555513858795166,0.05380670353770256,-0.006557633634656668
1772534472762547200,7.403547119140625,-0.5386226177215576,0.08671573549509048,0.013064323924481869
1772534472772563200,7.413563232421875,-0.5171926617622375,0.12323220074176788,0.03518400713801384
1772534472782580500,7.42358056640625,-0.49570509791374207,0.1295595020055771,0.04309658333659172
1772534472792596200,7.43359619140625,-0.47205808758735657,0.11843947321176529,0.029988503083586693
1772534472802613200,7.44361328125,-0.45342135429382324,0.10922393202781677,-0.0022508529946208
1772534472812629200,7.453629150390625,-0.43509000539779663,0.10422944277524948,-0.040637124329805374
1772534472822646300,7.463646240234375,-0.40132567286491394,0.10360720008611679,-0.0798582211136818
1772534472832662300,7.473662353515625,-0.35505855083465576,0.08121325075626373,-0.10794239491224289
1772534472842679300,7.48367919921875,-0.2979510724544525,0.017866242676973343,-0.11693163216114044
1772534472852695300,7.4936953125,-0.23880599439144135,-0.07720062136650085,-0.08993063867092133
1772534472862712300,7.50371240234375,-0.19695785641670227,-0.1828087717294693,0.00827191211283207
1772534472872728300,7.513728271484375,-0.18821336328983307,-0.23053394258022308,0.15208446979522705
1772534472882744300,7.523744384765625,-0.2090536653995514,-0.26687192916870117,0.2649987041950226
1772534472892761300,7.53376123046875,-0.23395927250385284,-0.30524328351020813,0.31250283122062683
1772534472902777300,7.54377734375,-0.24395427107810974,-0.2957545518875122,0.31017011404037476
1772534472912794400,7.55379443359375,-0.2334049642086029,-0.2152051031589508,0.2699310779571533
1772534472922810400,7.563810302734375,-0.2085525095462799,-0.1125360056757927,0.19355982542037964
1772534472932827100,7.5738271484375,-0.17798949778079987,-0.017876271158456802,0.09609577059745789
1772534472942843400,7.583843505859375,-0.14663051068782806,0.09367049485445023,0.01911230944097042
1772534472952860400,7.5938603515625,-0.1069086566567421,0.2209448218345642,-0.02446392923593521
1772534472962876400,7.60387646484375,-0.025240691378712654,0.307547926902771,-0.02545497566461563
1772534472972893200,7.61389306640625,0.10677965730428696,0.34066328406333923,0.004696002695709467
1772534472982909400,7.623909423828125,0.27738410234451294,0.30323123931884766,0.058484818786382675
1772534472992925400,7.633925537109375,0.4463355541229248,0.22497451305389404,0.1412489414215088
1772534473002942200,7.643942138671875,0.5867853760719299,0.15514087677001953,0.23776154220104218
1772534473012958200,7.653958251953125,0.6886385083198547,0.112590491771698,0.31072765588760376
1772534473022975500,7.6639755859375,0.7500603199005127,0.12073913961648941,0.36160585284233093
1772534473032991500,7.673991455078125,0.7585909962654114,0.22331692278385162,0.38991445302963257
1772534473043008300,7.68400830078125,0.7164632081985474,0.35770320892333984,0.35306283831596375
1772534473053024300,7.694024169921875,0.6594725847244263,0.45857179164886475,0.24994896352291107
1772534473063041500,7.70404150390625,0.612943172454834,0.56216961145401,0.15902870893478394
1772534473073057500,7.7140576171875,0.5797148942947388,0.6636064648628235,0.10507254302501678
1772534473083074300,7.72407421875,0.5604598522186279,0.7132701873779297,0.07418385148048401
1772534473093090300,7.73409033203125,0.565605878829956,0.6867624521255493,0.03363589197397232
1772534473103106300,7.744106201171875,0.5886051058769226,0.5917910933494568,-0.013925106264650822
1772534473113123300,7.754123291015625,0.6076735854148865,0.4732637107372284,-0.06029234081506729
1772534473123139300,7.764139404296875,0.6154004335403442,0.3338751792907715,-0.09745712578296661
1772534473133156400,7.77415625,0.619828462600708,0.15989291667938232,-0.13282285630702972
1772534473143172400,7.78417236328125,0.6243025660514832,-0.028035694733262062,-0.16913612186908722
1772534473153189400,7.794189453125,0.6320510506629944,-0.17360195517539978,-0.19481618702411652
1772534473163205400,7.804205322265625,0.6337277889251709,-0.2452312558889389,-0.19952212274074554
1772534473173222400,7.814222412109375,0.6222048401832581,-0.2001708298921585,-0.19494761526584625
1772534473183238100,7.824238037109375,0.6061565279960632,-0.05819106101989746,-0.19892188906669617
1772534473193255400,7.83425537109375,0.5983819365501404,0.1309136152267456,-0.1960587203502655
1772534473203271400,7.844271484375,0.6116294264793396,0.3310314416885376,-0.1635429412126541
1772534473213287400,7.854287353515625,0.6456406712532043,0.5075188875198364,-0.110709547996521
1772534473223304200,7.86430419921875,0.6856226921081543,0.612926185131073,-0.06266006827354431
1772534473233320200,7.8743203125,0.7279559969902039,0.646597146987915,-0.02384575642645359
1772534473243337500,7.88433740234375,0.7717117667198181,0.6049514412879944,0.002300625666975975
1772534473253353500,7.894353515625,0.8176363706588745,0.4783535301685333,0.029387902468442917
1772534473263370200,7.904370361328125,0.8745092749595642,0.32154473662376404,0.06263373792171478
1772534473273386200,7.91438623046875,0.9390666484832764,0.1495506316423416,0.08298055827617645
1772534473283403500,7.924403564453125,0.9915892481803894,-0.023387474939227104,0.0895419791340828
1772534473293419300,7.934419189453125,1.0212228298187256,-0.16841870546340942,0.0815916433930397
1772534473303436300,7.944436279296875,1.0080254077911377,-0.26844683289527893,0.05404673144221306
1772534473313452300,7.954452392578125,0.9591439962387085,-0.3338431417942047,0.01031176932156086
1772534473323468500,7.964468505859375,0.8757554292678833,-0.3468226492404938,-0.03282518312335014
1772534473333485300,7.9744853515625,0.7644110918045044,-0.30184614658355713,-0.04916341230273247
1772534473343501300,7.984501220703125,0.6211668252944946,-0.19488763809204102,-0.05325189232826233
1772534473353518300,7.994518310546875,0.46876057982444763,-0.05805441737174988,-0.07865577936172485
1772534473363534300,8.004534423828124,0.3290139138698578,0.0671403557062149,-0.1266144961118698
1772534473373551400,8.01455126953125,0.21435284614562988,0.1672443151473999,-0.18623414635658264
1772534473383567400,8.0245673828125,0.1330224722623825,0.2207188606262207,-0.22962728142738342
1772534473393584000,8.034584228515625,0.09204307943582535,0.2546437978744507,-0.23426863551139832
1772534473403600100,8.04460009765625,0.1025514081120491,0.25706976652145386,-0.21086983382701874
1772534473413617400,8.054617431640626,0.15161535143852234,0.2319801151752472,-0.1765182465314865
1772534473423633400,8.06463330078125,0.22370122373104095,0.19698117673397064,-0.1450638473033905
1772534473433650200,8.074650146484375,0.30264875292778015,0.1416580080986023,-0.11454260349273682
1772534473443666200,8.084666259765624,0.38024473190307617,0.05941719189286232,-0.07970339804887772
1772534473453682400,8.094682373046876,0.4438956081867218,-0.012133156880736351,-0.04530547186732292
1772534473463699500,8.104699462890625,0.4785470962524414,-0.07167142629623413,-0.019456814974546432
1772534473473715200,8.114715087890625,0.48927193880081177,-0.11102628707885742,-0.0020458679646253586
1772534473483732200,8.124732177734375,0.4829675257205963,-0.13884983956813812,-0.008526728488504887
1772534473493748500,8.13474853515625,0.4611130952835083,-0.15779022872447968,-0.03648539260029793
1772534473503765200,8.14476513671875,0.42061832547187805,-0.1740662008523941,-0.065647654235363
1772534473513781200,8.15478125,0.376537948846817,-0.1694842278957367,-0.07561693340539932
1772534473523798300,8.16479833984375,0.33650192618370056,-0.13324707746505737,-0.06483953446149826
1772534473533814500,8.174814453125,0.30498045682907104,-0.09548664093017578,-0.04132222756743431
1772534473543830000,8.184830078125,0.2870839834213257,-0.044520724564790726,-0.001541375182569027
1772534473553846800,8.1948466796875,0.26551130414009094,0.03378446400165558,0.04855774715542793
1772534473563862800,8.20486279296875,0.2349977195262909,0.11891188472509384,0.07159360498189926
1772534473573880000,8.214880126953124,0.20578090846538544,0.1604992151260376,0.054649919271469116
1772534473583895800,8.224895751953126,0.17225730419158936,0.164728045463562,0.023306645452976227
1772534473593912800,8.234912841796875,0.14129166305065155,0.11468271911144257,-0.00040001561865210533
1772534473603928800,8.2449287109375,0.12285665422677994,0.043970443308353424,-0.0033211717382073402
1772534473613945900,8.25494580078125,0.1280498206615448,-0.06011734530329704,-0.000668663065880537
1772534473623961900,8.2649619140625,0.16680951416492462,-0.16885215044021606,0.008306651376187801
1772534473633979000,8.274978759765625,0.2198486179113388,-0.2705937325954437,0.032273631542921066
1772534473643995000,8.284994873046875,0.2486371248960495,-0.3814108073711395,0.07693351060152054
1772534473654011100,8.29501123046875,0.23409919440746307,-0.42458197474479675,0.1399873048067093
1772534473664028000,8.30502783203125,0.18027205765247345,-0.3856273293495178,0.18304385244846344
1772534473674044000,8.3150439453125,0.09344635158777237,-0.3100425601005554,0.17081141471862793
1772534473684061000,8.32506103515625,-0.0044629513286054134,-0.21197663247585297,0.11418148875236511
1772534473694077000,8.335076904296875,-0.0932743102312088,-0.10830751061439514,0.04888344556093216
1772534473704094000,8.345093994140624,-0.1733444631099701,-0.01772037148475647,-0.0013133492320775986
1772534473714110000,8.35510986328125,-0.24362421035766602,0.03715592622756958,-0.03407875448465347
1772534473724126700,8.365126708984375,-0.29956692457199097,0.04527296498417854,-0.05893627926707268
1772534473734143000,8.37514306640625,-0.3491118848323822,0.001091931015253067,-0.07053880393505096
1772534473744160000,8.385159912109375,-0.38594499230384827,-0.04357939958572388,-0.07683531939983368
1772534473754176000,8.395176025390626,-0.4093374013900757,-0.0915762186050415,-0.07679590582847595
1772534473764191700,8.405191650390625,-0.4211098253726959,-0.13224586844444275,-0.0779443234205246
1772534473774209000,8.415208984375,-0.42023470997810364,-0.17659762501716614,-0.08989392220973969
1772534473784225000,8.42522509765625,-0.4073007106781006,-0.21594621241092682,-0.09546434134244919
1772534473794241800,8.43524169921875,-0.3882865309715271,-0.189819797873497,-0.08548121154308319
1772534473804257800,8.4452578125,-0.3615216910839081,-0.15009470283985138,-0.07012850046157837
1772534473814275000,8.455275146484375,-0.32990917563438416,-0.12576831877231598,-0.0520392470061779
1772534473824291000,8.465291015625,-0.29511043429374695,-0.13021491467952728,-0.02763723023235798
1772534473834307800,8.475307861328124,-0.26586204767227173,-0.15657927095890045,0.010346008464694023
1772534473844323800,8.48532373046875,-0.2372833788394928,-0.17286716401576996,0.07420727610588074
1772534473854341000,8.495341064453125,-0.21848972141742706,-0.15620802342891693,0.14458318054676056
1772534473864357000,8.505357177734375,-0.2094663828611374,-0.11674850434064865,0.1905665546655655
1772534473874372900,8.515372802734374,-0.21404249966144562,-0.06217607110738754,0.20144769549369812
1772534473884390000,8.525389892578126,-0.22886136174201965,-0.025176916271448135,0.18691742420196533
1772534473894406000,8.535406005859375,-0.24669522047042847,-0.02177872322499752,0.17596223950386047
1772534473904423000,8.5454228515625,-0.26248881220817566,-0.012396628968417645,0.17750278115272522
1772534473914439000,8.55543896484375,-0.28798165917396545,-0.004799162968993187,0.177310511469841
1772534473924456000,8.5654560546875,-0.32238736748695374,0.005616832058876753,0.1727716624736786
1772534473934472000,8.575471923828125,-0.3612288534641266,0.0043663689866662025,0.17973420023918152
1772534473944489000,8.585489013671875,-0.3912820816040039,-0.005105429328978062,0.19264520704746246
1772534473954505000,8.5955048828125,-0.40828344225883484,-0.03995689004659653,0.19910231232643127
1772534473964522000,8.60552197265625,-0.41459035873413086,-0.08103995770215988,0.18694284558296204
1772534473974537700,8.615537841796876,-0.41917550563812256,-0.10986734926700592,0.1551191359758377
1772534473984553700,8.6255537109375,-0.42984071373939514,-0.12909118831157684,0.1122978925704956
1772534473994571000,8.635571044921875,-0.4434851408004761,-0.14313828945159912,0.06253539770841599
1772534474004587000,8.6455869140625,-0.47066593170166016,-0.1579863429069519,0.013305611908435822
1772534474014603800,8.655603759765626,-0.5240050554275513,-0.1871010810136795,-0.021655835211277008
1772534474024619800,8.665619873046875,-0.5890169143676758,-0.1930912882089615,-0.03551372140645981
1772534474034637000,8.675636962890625,-0.642238974571228,-0.15919129550457,-0.04635380208492279
1772534474044653000,8.685653076171874,-0.6746443510055542,-0.12986403703689575,-0.07423177361488342
1772534474054669800,8.695669921875,-0.6748499274253845,-0.09235421568155289,-0.12087570875883102
1772534474064685800,8.705685791015625,-0.665636420249939,-0.036281146109104156,-0.17456084489822388
1772534474074703000,8.715703125,-0.6511480212211609,0.03377996385097504,-0.22689594328403473
1772534474084718800,8.72571875,-0.6531188488006592,0.12236294895410538,-0.27649664878845215
1772534474094734800,8.73573486328125,-0.7057428956031799,0.3140450119972229,-0.36872750520706177
1772534474104751900,8.745751953125,-0.6594517230987549,0.3093971014022827,-0.4904979169368744
1772534474114768100,8.75576806640625,-0.580326497554779,0.21216481924057007,-0.5846728682518005
1772534474124785000,8.765784912109375,-0.5187156200408936,0.1195809468626976,-0.6093665361404419
1772534474134801000,8.77580078125,-0.491491436958313,0.058495406061410904,-0.5799280405044556
1772534474144818000,8.78581787109375,-0.48520582914352417,-0.008947551250457764,-0.4976794719696045
1772534474154834000,8.795833984375,-0.48214346170425415,-0.05725915729999542,-0.37084564566612244
1772534474164851000,8.805850830078125,-0.4610414505004883,-0.06627042591571808,-0.2281450629234314
1772534474174867000,8.815866943359374,-0.41355064511299133,-0.06713062524795532,-0.10046540200710297
1772534474184883700,8.8258837890625,-0.34528470039367676,-0.10346739739179611,-0.004176573362201452
1772534474194899700,8.835899658203125,-0.266858845949173,-0.08778244256973267,0.10366307944059372
1772534474204916000,8.845916015625,-0.1720690131187439,-0.06736597418785095,0.2255427986383438
1772534474214933000,8.85593310546875,-0.06847338378429413,-0.037884779274463654,0.31840455532073975
1772534474224949000,8.865948974609376,0.014330662786960602,-0.060168370604515076,0.32081401348114014
1772534474234965800,8.8759658203125,0.05203283950686455,-0.07635961472988129,0.2399338334798813
1772534474244982000,8.88598193359375,0.0647190734744072,-0.17113405466079712,0.05965061113238335
1772534474254999000,8.8959990234375,0.06672230362892151,-0.2186882644891739,-0.10860071331262589
1772534474265014800,8.906014892578124,0.08344642072916031,-0.3209823966026306,-0.2046699821949005
1772534474275031800,8.91603173828125,0.09630150347948074,-0.4980738162994385,-0.22133232653141022
1772534474285048000,8.926048095703125,0.08895054459571838,-0.6297975778579712,-0.15415917336940765
1772534474295064800,8.93606494140625,0.0828859955072403,-0.6768883466720581,-0.023604892194271088
1772534474305080800,8.946080810546874,0.08848979324102402,-0.5914641618728638,0.11965940147638321
1772534474315097900,8.956097900390626,0.10196246206760406,-0.4748366177082062,0.24369879066944122
1772534474325114000,8.966114013671875,0.11792973428964615,-0.42278045415878296,0.3028102517127991
1772534474335129900,8.9761298828125,0.13314469158649445,-0.4059470295906067,0.2733914852142334
1772534474345147000,8.98614697265625,0.15163500607013702,-0.4085180461406708,0.16128303110599518
1772534474355163000,8.996162841796876,0.1742098331451416,-0.41088905930519104,-0.01458732970058918
1772534474365180000,9.006179931640625,0.17829686403274536,-0.4161471426486969,-0.22218148410320282
1772534474375196000,9.01619580078125,0.1461929827928543,-0.4709416925907135,-0.4273782968521118
1772534474385213000,9.026212890625,0.07943277806043625,-0.48016610741615295,-0.5729435682296753
1772534474395229000,9.03622900390625,0.0026197549887001514,-0.3274623155593872,-0.6026281714439392
1772534474405246000,9.046245849609376,-0.014281566254794598,-0.15233255922794342,-0.5243165493011475
1772534474415262000,9.056261962890625,0.03659732639789581,0.02526327222585678,-0.3746413290500641
1772534474425279000,9.066279052734375,0.16213367879390717,0.22206345200538635,-0.20362810790538788
1772534474435295000,9.076294921875,0.31465741991996765,0.41301602125167847,-0.04206531494855881
1772534474445310700,9.086310791015626,0.4502011239528656,0.5513989329338074,0.07442188262939453
1772534474455328000,9.096327880859375,0.5358686447143555,0.5973656177520752,0.1333232820034027
1772534474465344000,9.106343994140625,0.5793136358261108,0.5668344497680664,0.11912582814693451
1772534474475360800,9.11636083984375,0.6073647141456604,0.4596847891807556,0.05924145132303238
1772534474485376800,9.126376708984376,0.6372196078300476,0.2911197245121002,-0.02043737843632698
1772534474495394000,9.13639404296875,0.6782735586166382,0.06700485944747925,-0.11890296638011932
1772534474505410000,9.14641015625,0.7263535261154175,-0.20819778740406036,-0.23496457934379578
1772534474515426800,9.1564267578125,0.7917658686637878,-0.5369186401367188,-0.34063267707824707
1772534474525442800,9.16644287109375,0.8605234622955322,-0.8038837909698486,-0.386501669883728
1772534474535460000,9.176460205078126,0.8954116702079773,-0.8777340650558472,-0.34895840287208557
1772534474545476000,9.18647607421875,0.9055396914482117,-0.829329788684845,-0.23567631840705872
1772534474555492000,9.1964921875,0.8576288819313049,-0.6573772430419922,-0.07859162241220474
1772534474565509000,9.206509033203124,0.813843846321106,-0.4309810996055603,0.04796046391129494
1772534474575525400,9.216525390625,0.766830563545227,-0.16500455141067505,0.13377869129180908
1772534474585542100,9.226542236328125,0.7456581592559814,0.08607125282287598,0.1791020631790161
1772534474595558100,9.23655810546875,0.7338244318962097,0.2693161964416504,0.20024889707565308
1772534474605575200,9.2465751953125,0.716745138168335,0.3510405123233795,0.19765253365039825
1772534474615591200,9.256591064453126,0.6703451871871948,0.3985806107521057,0.16994713246822357
1772534474625608200,9.266608154296875,0.6158716082572937,0.38357216119766235,0.12530362606048584
1772534474635624200,9.276624267578125,0.5821400284767151,0.3142836391925812,0.0617520771920681
1772534474645641200,9.28664111328125,0.5809010863304138,0.24680133163928986,-0.015688644722104073
1772534474655657000,9.296656982421876,0.6142334938049316,0.20033982396125793,-0.09186597168445587
1772534474665673200,9.306673095703125,0.6611661911010742,0.16726304590702057,-0.1520003080368042
1772534474675690200,9.316690185546875,0.7012147903442383,0.116603322327137,-0.18440033495426178
1772534474686332200,9.327332275390624,0.7416069507598877,0.04999207705259323,-0.17697784304618835
1772534474696349200,9.33734912109375,0.7727227807044983,-0.03156350553035736,-0.13043910264968872
1772534474706365200,9.347365234375,0.7887610793113708,-0.10831500589847565,-0.062020570039749146
1772534474716382200,9.35738232421875,0.7731451392173767,-0.11935379356145859,0.009139558300375938
1772534474726398200,9.367398193359374,0.7174387574195862,-0.09686339646577835,0.04903104901313782
1772534474736415200,9.377415283203124,0.6406992077827454,-0.09567136317491531,0.05463220924139023
1772534474746431200,9.38743115234375,0.5439897179603577,-0.10545875132083893,0.0530385747551918
1772534474756448300,9.3974482421875,0.44026732444763184,-0.08329956978559494,0.05652785301208496
1772534474766464300,9.40746435546875,0.3430621922016144,-0.04640839248895645,0.0542931966483593
1772534474776480300,9.417480224609376,0.27440527081489563,-0.004056635778397322,0.035225898027420044
1772534474786497000,9.4274970703125,0.24489955604076385,0.037012770771980286,0.0006676521152257919
1772534474796513000,9.437512939453125,0.2520330250263214,0.08269812911748886,-0.04076814651489258
1772534474806530300,9.4475302734375,0.2769721746444702,0.13671264052391052,-0.08094512671232224
1772534474816546300,9.45754638671875,0.307065486907959,0.1562998741865158,-0.135305717587471
1772534474826563000,9.46756298828125,0.33578795194625854,0.14184290170669556,-0.20625552535057068
1772534474836579000,9.4775791015625,0.35515502095222473,0.12023627012968063,-0.27513396739959717
1772534474846596400,9.487596435546875,0.36781567335128784,0.0899990051984787,-0.3261902332305908
1772534474856612000,9.497612060546874,0.36630502343177795,0.05209343135356903,-0.34704816341400146
1772534474866629000,9.507629150390626,0.35226190090179443,0.015610521659255028,-0.3307480216026306
1772534474876645000,9.51764501953125,0.33380433917045593,-0.037693090736866,-0.26079124212265015
1772534474886661000,9.5276611328125,0.31680378317832947,-0.07724396884441376,-0.14175750315189362
1772534474896678100,9.53767822265625,0.3028741776943207,-0.0931590348482132,0.0021759835071861744
1772534474906694100,9.547694091796876,0.2883996367454529,-0.08325101435184479,0.15356309711933136
1772534474916711200,9.557711181640625,0.2672836184501648,-0.03077930398285389,0.2920776307582855
1772534474926727200,9.56772705078125,0.2519747316837311,0.04549708962440491,0.3733213543891907
1772534474936744200,9.577744140625,0.24642600119113922,0.103302963078022,0.3703688681125641
1772534474946760200,9.58776025390625,0.25155845284461975,0.12818089127540588,0.2814672291278839
1772534474956777200,9.597777099609376,0.25784337520599365,0.12473825365304947,0.13267336785793304
1772534474966793000,9.60779296875,0.25638076663017273,0.091915063560009,-0.03007400408387184
1772534474976810200,9.617810302734375,0.2507535219192505,0.014751655049622059,-0.15546484291553497
1772534474986826200,9.627826171875,0.24150514602661133,-0.08276744186878204,-0.21006551384925842
1772534474996842200,9.63784228515625,0.21306182444095612,-0.1632384955883026,-0.20767079293727875
1772534475006859000,9.64785888671875,0.17008106410503387,-0.24799306690692902,-0.14798881113529205
1772534475016875300,9.657875244140625,0.11017776280641556,-0.32813379168510437,-0.027195826172828674
1772534475026892300,9.667892333984375,0.02309505268931389,-0.33849695324897766,0.12632688879966736
1772534475036908000,9.677907958984376,-0.07144825160503387,-0.3082078993320465,0.2686401903629303
1772534475046925000,9.687925048828125,-0.17058442533016205,-0.2880405783653259,0.363481730222702
1772534475056941300,9.69794140625,-0.25780266523361206,-0.2716052234172821,0.3958762586116791
1772534475066958000,9.7079580078125,-0.32552286982536316,-0.23227407038211823,0.3594069480895996
1772534475076974000,9.71797412109375,-0.3693689703941345,-0.1452280431985855,0.27170953154563904
1772534475086991000,9.7279912109375,-0.3850070536136627,-0.02366964891552925,0.16776342689990997
1772534475097007400,9.73800732421875,-0.37243515253067017,0.112002894282341,0.06812059879302979
1772534475107024100,9.748024169921875,-0.3527735471725464,0.2520290017127991,-0.016723718494176865
1772534475117040000,9.7580400390625,-0.334710955619812,0.3727187514305115,-0.0792616754770279
1772534475127056100,9.76805615234375,-0.31692957878112793,0.44863906502723694,-0.11740480363368988
1772534475137073200,9.7780732421875,-0.296314537525177,0.46947044134140015,-0.13921643793582916
1772534475147089200,9.788089111328125,-0.2604723870754242,0.4312705993652344,-0.15420523285865784
1772534475157106200,9.798106201171874,-0.20986486971378326,0.3573008179664612,-0.1644764244556427
1772534475167122200,9.8081220703125,-0.15723973512649536,0.23253171145915985,-0.17153939604759216
1772534475177139200,9.81813916015625,-0.12897726893424988,0.06866636127233505,-0.20506754517555237
1772534475187155200,9.8281552734375,-0.12468906491994858,-0.0903504490852356,-0.2676132321357727
1772534475197172200,9.838172119140625,-0.1305302232503891,-0.21011966466903687,-0.3398529887199402
1772534475207188200,9.848188232421874,-0.13630129396915436,-0.2942289710044861,-0.3969767093658447
1772534475217205000,9.858205078125,-0.13404899835586548,-0.3757670223712921,-0.4415823519229889
1772534475227221200,9.86822119140625,-0.11238658428192139,-0.4290768504142761,-0.4401676654815674
1772534475237237200,9.8782373046875,-0.07524766772985458,-0.4198969006538391,-0.36968666315078735
1772534475247254000,9.88825390625,-0.033426716923713684,-0.3592876195907593,-0.2545832395553589
1772534475257270000,9.89827001953125,-0.019596267491579056,-0.2538265287876129,-0.1042150929570198
1772534475267287300,9.908287353515625,-0.0326838418841362,-0.1809651106595993,0.03195659816265106
1772534475277303300,9.91830322265625,-0.07024148106575012,-0.15032413601875305,0.13772150874137878
1772534475287320000,9.928320068359374,-0.12361709028482437,-0.0974702462553978,0.2205548733472824
1772534475297336000,9.938336181640626,-0.17798297107219696,0.015196196734905243,0.2994460165500641
1772534475307353300,9.948353271484375,-0.2434176355600357,0.16005989909172058,0.375630259513855
1772534475317369300,9.958369384765625,-0.33483874797821045,0.29127267003059387,0.40762394666671753
1772534475327386000,9.96838623046875,-0.44957491755485535,0.347518652677536,0.38161179423332214
1772534475337402000,9.978402099609376,-0.5484821796417236,0.3160857856273651,0.3088940382003784
1772534475347418000,9.988418212890625,-0.6095673441886902,0.2525545060634613,0.21630576252937317
1772534475357435100,9.99843505859375,-0.639829695224762,0.21171671152114868,0.12423744797706604
1772534475367451100,10.008451171875,-0.6542698740959167,0.2116386741399765,0.048313651233911514
1772534475377468200,10.01846826171875,-0.6528872847557068,0.22279775142669678,-0.007605310063809156
1772534475387484200,10.028484130859376,-0.6436316967010498,0.22864125669002533,-0.03977203369140625
1772534475397501200,10.038501220703125,-0.6330130100250244,0.22974397242069244,-0.05870039016008377
1772534475407517200,10.04851708984375,-0.6192612051963806,0.23931990563869476,-0.07813907414674759
1772534475417534200,10.0585341796875,-0.60064697265625,0.24405263364315033,-0.09545421600341797
1772534475427550000,10.068550048828126,-0.5789390206336975,0.22943773865699768,-0.099318727850914
1772534475437567200,10.078567138671875,-0.5677551627159119,0.22113774716854095,-0.09025201201438904
1772534475447583200,10.088583251953125,-0.5635177493095398,0.23192088305950165,-0.08531877398490906
1772534475457599200,10.09859912109375,-0.5515111684799194,0.21733643114566803,-0.10946058481931686
1772534475467616000,10.108615966796876,-0.5009973645210266,0.17666783928871155,-0.16653212904930115
1772534475477632000,10.118632080078125,-0.42139995098114014,0.1619648039340973,-0.23326274752616882
1772534475487649300,10.128649169921875,-0.3292705714702606,0.19202975928783417,-0.2911880910396576
1772534475497665300,10.138665283203125,-0.25595033168792725,0.25321024656295776,-0.3299217224121094
1772534475507682000,10.14868212890625,-0.21001583337783813,0.30164942145347595,-0.35525453090667725
1772534475517698000,10.158697998046875,-0.17120392620563507,0.32098469138145447,-0.3546556532382965
1772534475527715300,10.16871533203125,-0.12331709265708923,0.3244428038597107,-0.32533133029937744
1772534475537731000,10.17873095703125,-0.07142782211303711,0.3276345133781433,-0.2652941048145294
1772534475547748900,10.188748779296875,-0.02948250249028206,0.3122046887874603,-0.18803846836090088
1772534475557765000,10.19876513671875,-0.004958007484674454,0.26132312417030334,-0.11708882451057434
1772534475567780900,10.20878076171875,0.0034685004502534866,0.2033037692308426,-0.06697133183479309
1772534475577798000,10.2187978515625,0.007370223756879568,0.16819867491722107,-0.03743105009198189
1772534475587814000,10.22881396484375,0.011960714124143124,0.15001115202903748,-0.03492208570241928
1772534475597831000,10.238830810546874,0.026255911216139793,0.13598546385765076,-0.042783502489328384
1772534475607847000,10.248846923828125,0.05853768065571785,0.10333005338907242,-0.05245663598179817
1772534475617864000,10.258864013671875,0.09952465444803238,0.06573522835969925,-0.05499370023608208
1772534475627880000,10.2688798828125,0.13552792370319366,0.04127010330557823,-0.05273587256669998
1772534475637897000,10.27889697265625,0.16034278273582458,0.04788684844970703,-0.04477958381175995
1772534475647913000,10.288912841796876,0.1681426465511322,0.08331035077571869,-0.043781161308288574
1772534475657930000,10.298929931640625,0.15817154943943024,0.11656970530748367,-0.048715803772211075
1772534475667946000,10.308946044921875,0.14498703181743622,0.13920044898986816,-0.05922836810350418
1772534475677963000,10.318962890625,0.14615784585475922,0.14121150970458984,-0.05672921985387802
1772534475687979000,10.32897900390625,0.16178633272647858,0.14271274209022522,-0.016865164041519165
1772534475697995000,10.3389951171875,0.17722025513648987,0.1365766078233719,0.04280538484454155
1772534475708011800,10.34901171875,0.18832136690616608,0.08058710396289825,0.09042908996343613
1772534475718027800,10.35902783203125,0.19959266483783722,-0.03722070902585983,0.10279779881238937
1772534475728045000,10.369045166015624,0.21681106090545654,-0.17456232011318207,0.09251293540000916
1772534475738061000,10.37906103515625,0.22995121777057648,-0.27059999108314514,0.0590105801820755
1772534475748077800,10.389077880859375,0.22803135216236115,-0.2916232645511627,0.0026532988995313644
1772534475758093800,10.39909375,0.20856423676013947,-0.27605921030044556,-0.07884153723716736
1772534475768111000,10.409111083984374,0.18692605197429657,-0.22967122495174408,-0.16815251111984253
1772534475778126800,10.419126953125,0.188709557056427,-0.1585771143436432,-0.23116911947727203
1772534475788143900,10.429143798828125,0.21468283236026764,-0.0493004247546196,-0.22554372251033783
1772534475798160000,10.439159912109375,0.24321316182613373,0.09501281380653381,-0.1676328033208847
1772534475808175900,10.44917578125,0.24178092181682587,0.23813961446285248,-0.08360341191291809
1772534475818193000,10.45919287109375,0.21834696829319,0.3437929153442383,-0.0030196961015462875
1772534475828209000,10.469208984375,0.21011434495449066,0.39892542362213135,0.05119613930583
1772534475838226000,10.479225830078125,0.23144389688968658,0.41582438349723816,0.06147000193595886
1772534475848242000,10.489241943359374,0.2811504900455475,0.42196935415267944,0.047772567719221115
1772534475858259000,10.499259033203124,0.33818769454956055,0.41259223222732544,0.021621137857437134
1772534475868275000,10.50927490234375,0.3858945071697235,0.3725529611110687,-0.00387250492349267
1772534475878292000,10.5192919921875,0.4324219822883606,0.29656893014907837,-0.02378862351179123
1772534475888307700,10.5293076171875,0.4815051257610321,0.1710621565580368,-0.041638460010290146
1772534475898325000,10.539324951171874,0.5289317965507507,0.015837199985980988,-0.05587713420391083
1772534475908341000,10.549341064453126,0.5600937008857727,-0.1477048546075821,-0.07984185963869095
1772534475918357000,10.55935693359375,0.5731254816055298,-0.2397521436214447,-0.1089228168129921
1772534475928373800,10.569373779296875,0.5759148597717285,-0.25118082761764526,-0.12267004698514938
1772534475938390000,10.57939013671875,0.582470178604126,-0.20948433876037598,-0.09636708348989487
1772534475948407000,10.589406982421876,0.5859538912773132,-0.11933314055204391,-0.031554531306028366
1772534475958422800,10.5994228515625,0.5795384049415588,0.005675089545547962,0.04981953278183937
1772534475968439800,10.609439697265625,0.5523802638053894,0.15838687121868134,0.11476790904998779
1772534475978456000,10.6194560546875,0.5196635127067566,0.2829095125198364,0.14027225971221924
1772534475988472800,10.629472900390626,0.5039114356040955,0.32932522892951965,0.12180163711309433
1772534475998488800,10.63948876953125,0.5024908185005188,0.34530845284461975,0.07791083306074142
1772534476008505900,10.649505859375,0.5143594145774841,0.3573334217071533,0.030673014000058174
1772534476018522000,10.659522216796875,0.5446510910987854,0.33518797159194946,-0.00740911765024066
1772534476028539000,10.669538818359374,0.5887314677238464,0.27055788040161133,-0.030381811782717705
1772534476038555000,10.679554931640626,0.6388971209526062,0.16132351756095886,-0.05037203058600426
1772534476048571000,10.68957080078125,0.693831205368042,0.03000197932124138,-0.05671807751059532
1772534476058588000,10.699587890625,0.7357680797576904,-0.08560502529144287,-0.050829626619815826
1772534476068604000,10.70960400390625,0.7390370965003967,-0.17610031366348267,-0.0314687117934227
1772534476078621000,10.719620849609376,0.7037597298622131,-0.23949752748012543,-0.017820043489336967
1772534476088637000,10.729636962890625,0.6448705792427063,-0.28143110871315,-0.01260370947420597
1772534476098654000,10.739654052734375,0.5948871970176697,-0.31285005807876587,-0.0036339624784886837
1772534476108670000,10.749669921875,0.5673272013664246,-0.31626689434051514,-0.0012517650611698627
1772534476118687000,10.75968701171875,0.5400610566139221,-0.27242812514305115,-0.013188904151320457
1772534476128703000,10.769702880859375,0.4998987019062042,-0.19754137098789215,-0.04582168161869049
1772534476138719700,10.7797197265625,0.4452900290489197,-0.1192922294139862,-0.097862608730793
1772534476148736000,10.789736083984375,0.38971197605133057,-0.02297394536435604,-0.14462558925151825
1772534476158752000,10.799751953125,0.34017184376716614,0.0843939259648323,-0.1764465570449829
1772534476168768800,10.809768798828125,0.3096224367618561,0.17123934626579285,-0.1987377405166626
1772534476178784800,10.81978466796875,0.29684415459632874,0.22397185862064362,-0.2070578783750534
1772534476188802000,10.829802001953125,0.2948632836341858,0.2414374053478241,-0.217659130692482
1772534476198818000,10.839818115234374,0.30219176411628723,0.255228728055954,-0.25012484192848206
1772534476208834800,10.849834716796876,0.3366738259792328,0.2750556766986847,-0.2834748327732086
1772534476218850800,10.859850830078125,0.3698819577693939,0.2983950078487396,-0.3081975281238556
1772534476228868000,10.8698681640625,0.37805891036987305,0.31809255480766296,-0.3445611298084259
1772534476238884000,10.879884033203124,0.3643645942211151,0.306302547454834,-0.3740744888782501
1772534476248900900,10.88990087890625,0.34908416867256165,0.2525474429130554,-0.3779808282852173
1772534476258916900,10.899916748046875,0.339024156332016,0.16233083605766296,-0.35187602043151855
1772534476268932900,10.909932861328125,0.3461824655532837,0.06943552941083908,-0.3156019151210785
1772534476278950000,10.919949951171875,0.3659941554069519,0.023581795394420624,-0.28364527225494385
1772534476288966000,10.9299658203125,0.3976847231388092,0.007650766521692276,-0.2606115937232971
1772534476298983000,10.93998291015625,0.41587671637535095,0.02855706959962845,-0.20514628291130066
1772534476308999000,10.9499990234375,0.38196855783462524,0.1990952491760254,0.09698747098445892
1772534476319016000,10.960015869140625,0.3224450945854187,0.19272539019584656,0.5312063097953796
1772534476329032000,10.970031982421874,0.2839334011077881,-0.0824318677186966,0.8299927115440369
1772534476339049000,10.980049072265626,0.309883713722229,-0.30104532837867737,0.9053528308868408
1772534476349064700,10.990064697265625,0.3433934450149536,-0.364773690700531,0.7790462970733643
1772534476359082000,11.00008203125,0.3251495063304901,-0.2849915623664856,0.542596161365509
1772534476369098000,11.010097900390624,0.2952991724014282,-0.1899481564760208,0.2545391023159027
1772534476379114000,11.020114013671876,0.28664201498031616,-0.1307687908411026,-0.060173749923706055
1772534476389130800,11.030130859375,0.28393569588661194,-0.11856139451265335,-0.3461085557937622
1772534476399147000,11.04014697265625,0.27507656812667847,-0.14657486975193024,-0.5556703209877014
1772534476409164000,11.0501640625,0.24997200071811676,-0.2182234823703766,-0.6950162649154663
1772534476419180000,11.060179931640626,0.18758340179920197,-0.3039323091506958,-0.7194611430168152
1772534476429196800,11.07019677734375,0.09111678600311279,-0.33589690923690796,-0.5939250588417053
1772534476439212800,11.080212890625,-0.026372799649834633,-0.34823548793792725,-0.3702951967716217
1772534476449230000,11.09022998046875,-0.15660856664180756,-0.42278245091438293,-0.12951266765594482
