time,seconds_elapsed,z,y,x
1772534465406087400,0.04708740234375,-0.6935822367668152,-0.28156882524490356,-0.1872047781944275
1772534465416104400,0.0571044921875,-0.7054939866065979,-0.24181582033634186,-0.17241305112838745
1772534465426120400,0.067120361328125,-0.7008239030838013,-0.22456014156341553,-0.13945989310741425
1772534465436137500,0.077137451171875,-0.6882684230804443,-0.2433127909898758,-0.10042300820350647
1772534465446153500,0.087153564453125,-0.6607536673545837,-0.2662583291530609,-0.05805531516671181
1772534465456170500,0.09717041015625,-0.6299699544906616,-0.2651935815811157,-0.02184884063899517
1772534465466186500,0.1071865234375,-0.5965698957443237,-0.25195395946502686,0.0016828514635562897
1772534465476203500,0.11720361328125,-0.5561708211898804,-0.25985822081565857,0.031320106238126755
1772534465486219500,0.127219482421875,-0.5222863554954529,-0.2769887149333954,0.09358987212181091
1772534465496236500,0.137236572265625,-0.4964619576931,-0.28675293922424316,0.19014091789722443
1772534465506252500,0.14725244140625,-0.47797295451164246,-0.29499197006225586,0.31957292556762695
1772534465516268500,0.1572685546875,-0.4699379503726959,-0.3183167278766632,0.4394764304161072
1772534465526285800,0.167285888671875,-0.46146324276924133,-0.3518563210964203,0.5235748291015625
1772534465536301800,0.1773017578125,-0.45151498913764954,-0.38631975650787354,0.5651808381080627
1772534465546319000,0.187319091796875,-0.4500366747379303,-0.4148523211479187,0.5706900954246521
1772534465556334800,0.1973349609375,-0.46332770586013794,-0.3910926580429077,0.5047105550765991
1772534465566352000,0.207351806640625,-0.47284024953842163,-0.3089658319950104,0.40759706497192383
1772534465576367900,0.217367919921875,-0.39407140016555786,-0.25560060143470764,0.3132396638393402
1772534465586385000,0.227385009765625,-0.2835398316383362,-0.2243899554014206,0.22861719131469727
1772534465596401000,0.23740087890625,-0.21052314341068268,-0.22304347157478333,0.18082010746002197
1772534465606418000,0.24741796875,-0.17164498567581177,-0.2801363170146942,0.17216084897518158
1772534465616434000,0.257433837890625,-0.14806057512760162,-0.3706268072128296,0.18801544606685638
1772534465626450000,0.267449951171875,-0.13807904720306396,-0.47691407799720764,0.21793232858181
1772534465636467000,0.277467041015625,-0.13917359709739685,-0.6043972373008728,0.2527819275856018
1772534465646483000,0.28748291015625,-0.14734311401844025,-0.7294531464576721,0.292066752910614
1772534465656500000,0.2975,-0.1711251437664032,-0.8104310631752014,0.3412571847438812
1772534465666515700,0.307515625,-0.18778294324874878,-0.8338005542755127,0.39515796303749084
1772534465676533000,0.317532958984375,-0.19956663250923157,-0.8157491683959961,0.4560072124004364
1772534465686549000,0.327549072265625,-0.23524367809295654,-0.7623993754386902,0.5014018416404724
1772534465696565800,0.337565673828125,-0.2921767234802246,-0.6876199245452881,0.5227742791175842
1772534465706581800,0.347581787109375,-0.3765227794647217,-0.5959946513175964,0.4894658327102661
1772534465716599000,0.35759912109375,-0.47435319423675537,-0.521238386631012,0.38087198138237
1772534465726615000,0.367614990234375,-0.5632191300392151,-0.4989546835422516,0.2092408388853073
1772534465736631000,0.377631103515625,-0.6281353235244751,-0.5057287216186523,0.0179973766207695
1772534465746647800,0.387647705078125,-0.6717099547386169,-0.5445272326469421,-0.16009007394313812
1772534465756663800,0.397663818359375,-0.6849618554115295,-0.5797046422958374,-0.32286274433135986
1772534465766680800,0.407680908203125,-0.6727232933044434,-0.6100809574127197,-0.48078739643096924
1772534465776696800,0.41769677734375,-0.6582540273666382,-0.6484099626541138,-0.6239147186279297
1772534465786713900,0.4277138671875,-0.6555376052856445,-0.684040367603302,-0.7388977408409119
1772534465796729900,0.437729736328125,-0.6651407480239868,-0.7035222053527832,-0.798509418964386
1772534465806747000,0.447746826171875,-0.6863732933998108,-0.6893757581710815,-0.7918350100517273
1772534465816763000,0.457762939453125,-0.7309365272521973,-0.6299792528152466,-0.7200095653533936
1772534465826779000,0.46777880859375,-0.792523205280304,-0.5859441757202148,-0.6069080233573914
1772534465836796000,0.4777958984375,-0.8738012313842773,-0.5537883639335632,-0.47170600295066833
1772534465846812000,0.48781201171875,-0.9784062504768372,-0.5211180448532104,-0.3326250910758972
1772534465856829000,0.497828857421875,-1.0991957187652588,-0.5144351124763489,-0.20558351278305054
1772534465866845000,0.507844970703125,-1.2244855165481567,-0.4995831847190857,-0.10500285029411316
1772534465876861700,0.51786181640625,-1.3416794538497925,-0.47092702984809875,-0.047334227710962296
1772534465886878000,0.5278779296875,-1.4308769702911377,-0.47746244072914124,-0.035890888422727585
1772534465896895000,0.53789501953125,-1.4905563592910767,-0.4937428832054138,-0.0670221745967865
1772534465906911000,0.547910888671875,-1.5007508993148804,-0.548128068447113,-0.10868600010871887
1772534465916927700,0.557927734375,-1.433547854423523,-0.6503309011459351,-0.16750191152095795
1772534465926944000,0.567944091796875,-1.30314040184021,-0.7244381308555603,-0.24269360303878784
1772534465936960000,0.5779599609375,-1.16019868850708,-0.7022603750228882,-0.3056347370147705
1772534465946977000,0.58797705078125,-1.0598899126052856,-0.5291333794593811,-0.31773748993873596
1772534465956992800,0.59799267578125,-1.0173983573913574,-0.24344994127750397,-0.2982335686683655
1772534465967010000,0.608010009765625,-1.0265250205993652,0.0256907157599926,-0.2779724895954132
1772534465977026000,0.618026123046875,-1.0598267316818237,0.17337071895599365,-0.2710624039173126
1772534465987042800,0.628042724609375,-1.1047207117080688,0.20859688520431519,-0.25772422552108765
1772534465997058800,0.638058837890625,-1.1407607793807983,0.18781410157680511,-0.208684504032135
1772534466007076000,0.648076171875,-1.1342885494232178,0.13292263448238373,-0.13751737773418427
1772534466017092000,0.658092041015625,-1.0907950401306152,-0.028550950810313225,-0.04896567761898041
1772534466027108900,0.66810888671875,-1.0302790403366089,-0.2785019278526306,0.0492708757519722
1772534466037124900,0.678124755859375,-0.981702446937561,-0.5112563371658325,0.1328754872083664
1772534466047140900,0.688140869140625,-0.9827727675437927,-0.6730045080184937,0.18158257007598877
1772534466057158000,0.698157958984375,-1.0757112503051758,-0.7345014214515686,0.15181882679462433
1772534466067174000,0.708173828125,-1.2071155309677124,-0.7875369191169739,0.045642584562301636
1772534466077191000,0.71819091796875,-1.3041212558746338,-0.8169712424278259,-0.09318480640649796
1772534466087207000,0.72820703125,-1.3505829572677612,-0.7901966571807861,-0.22218354046344757
1772534466097224000,0.738223876953125,-1.3733456134796143,-0.7031312584877014,-0.31939584016799927
1772534466107240000,0.748239990234375,-1.384121298789978,-0.5628681182861328,-0.36186447739601135
1772534466117257000,0.758257080078125,-1.391081690788269,-0.35637834668159485,-0.33942732214927673
1772534466127273000,0.76827294921875,-1.4126644134521484,-0.1344939023256302,-0.29586175084114075
1772534466137290000,0.7782900390625,-1.4461276531219482,0.023981232196092606,-0.27360889315605164
1772534466147306000,0.788305908203125,-1.452359676361084,0.08424457162618637,-0.28282397985458374
1772534466157322000,0.798322021484375,-1.4208766222000122,0.07387609034776688,-0.3213937282562256
1772534466167338800,0.8083388671875,-1.3628792762756348,0.02781059220433235,-0.38632747530937195
1772534466177354800,0.818354736328125,-1.2753835916519165,0.0062158177606761456,-0.4657679498195648
1772534466187372000,0.8283720703125,-1.1447787284851074,-0.030951790511608124,-0.5558046698570251
1772534466197388000,0.838387939453125,-1.0612212419509888,-0.12157090753316879,-0.6327012777328491
1772534466207404800,0.84840478515625,-1.0298517942428589,-0.14426183700561523,-0.6789126992225647
1772534466217420800,0.8584208984375,-1.0234402418136597,-0.12758725881576538,-0.6802717447280884
1772534466227438000,0.86843798828125,-1.0341442823410034,-0.10156098008155823,-0.6609070897102356
1772534466237453800,0.878453857421875,-1.0454936027526855,-0.08664274960756302,-0.6301619410514832
1772534466247470800,0.888470947265625,-1.042676568031311,-0.06204153224825859,-0.579514741897583
1772534466257486800,0.89848681640625,-1.0194047689437866,-0.10162542760372162,-0.5492114424705505
1772534466267503000,0.908503173828125,-0.9672417044639587,-0.12151151895523071,-0.5139732956886292
1772534466277520000,0.918519775390625,-0.9184291958808899,-0.1692526787519455,-0.46436581015586853
1772534466287535900,0.928535888671875,-0.8909304141998291,-0.22436518967151642,-0.3826373815536499
1772534466297553000,0.938552978515625,-0.9033037424087524,-0.21640047430992126,-0.2828458249568939
1772534466307569200,0.948569091796875,-0.942788302898407,-0.19602303206920624,-0.19495217502117157
1772534466317586000,0.9585859375,-0.9697427153587341,-0.24991156160831451,-0.18102385103702545
1772534466327602000,0.968601806640625,-0.9721297025680542,-0.3549570143222809,-0.2241385579109192
1772534466337619000,0.978618896484375,-0.9505330324172974,-0.42700111865997314,-0.2688905894756317
1772534466347635000,0.988635009765625,-0.9293819665908813,-0.45960915088653564,-0.28439950942993164
1772534466357652000,0.99865185546875,-0.9166586995124817,-0.4303841292858124,-0.27062857151031494
1772534466367668000,1.00866796875,-0.9085088968276978,-0.308957040309906,-0.24822258949279785
1772534466377684000,1.01868408203125,-0.9203906059265137,-0.10615839064121246,-0.2338804006576538
1772534466387700700,1.02870068359375,-0.960347592830658,0.08480676263570786,-0.20234538614749908
1772534466397717000,1.038717041015625,-1.0043747425079346,0.2817627191543579,-0.12236958742141724
1772534466407734000,1.048734130859375,-1.0259513854980469,0.4544524550437927,-0.025107484310865402
1772534466417749800,1.058749755859375,-0.9946480393409729,0.5667353272438049,0.04332270473241806
1772534466427766800,1.068766845703125,-0.8973244428634644,0.6492874622344971,0.0779629722237587
1772534466437783000,1.078782958984375,-0.7534535527229309,0.7381033301353455,0.10864711552858353
1772534466447799800,1.0887998046875,-0.6013460159301758,0.8084323406219482,0.14401470124721527
1772534466457815800,1.09881591796875,-0.4713438153266907,0.7837712168693542,0.19019444286823273
1772534466467831800,1.108831787109375,-0.3743749260902405,0.6414867639541626,0.23184947669506073
1772534466477849000,1.11884912109375,-0.308098167181015,0.37570783495903015,0.27382993698120117
1772534466487865000,1.128864990234375,-0.2604507505893707,0.06757025420665741,0.3320764899253845
1772534466497881900,1.1388818359375,-0.20415526628494263,-0.15498079359531403,0.4083821773529053
1772534466507897900,1.14889794921875,-0.15485988557338715,-0.2883172929286957,0.4878530204296112
1772534466517915100,1.1589150390625,-0.12313444912433624,-0.37867382168769836,0.5476828217506409
1772534466527930000,1.16893017578125,-0.10069278627634048,-0.41746196150779724,0.5667499899864197
1772534466537947000,1.17894677734375,-0.09756197780370712,-0.44442218542099,0.5478196740150452
1772534466547963100,1.188963134765625,-0.10833445936441422,-0.5049987435340881,0.49086877703666687
1772534466557980200,1.198980224609375,-0.1310078203678131,-0.5584545135498047,0.4168805778026581
1772534466567996000,1.208995849609375,-0.17324741184711456,-0.5970090627670288,0.3388718068599701
1772534466578012000,1.219011962890625,-0.2351938784122467,-0.615149199962616,0.27520787715911865
1772534466588029200,1.229029296875,-0.30364829301834106,-0.6218885779380798,0.2342391312122345
1772534466598045200,1.239045166015625,-0.3703272044658661,-0.6310562491416931,0.20280636847019196
1772534466608062000,1.24906201171875,-0.430450439453125,-0.6220057606697083,0.17339442670345306
1772534466618078000,1.259077880859375,-0.49563905596733093,-0.568524181842804,0.1418335735797882
1772534466628095200,1.26909521484375,-0.5671699643135071,-0.5198855400085449,0.10170186311006546
1772534466638111200,1.279111328125,-0.6475825309753418,-0.5001131296157837,0.04669426754117012
1772534466648128000,1.2891279296875,-0.7206990718841553,-0.4569489061832428,-0.024818530306220055
1772534466658144000,1.29914404296875,-0.7824846506118774,-0.4031112492084503,-0.09632280468940735
1772534466668161300,1.309161376953125,-0.8245684504508972,-0.33602648973464966,-0.15589985251426697
1772534466678177000,1.319177001953125,-0.8473880290985107,-0.2427375465631485,-0.19922681152820587
1772534466688193000,1.329193115234375,-0.8577423691749573,-0.1402692198753357,-0.22481180727481842
1772534466698210000,1.3392099609375,-0.8539186120033264,-0.03941771388053894,-0.22929790616035461
1772534466708226000,1.34922607421875,-0.8387788534164429,0.05126265436410904,-0.21705055236816406
1772534466718243000,1.3592431640625,-0.8141211271286011,0.1104428842663765,-0.19066715240478516
1772534466728259000,1.369259033203125,-0.7778273224830627,0.1506611406803131,-0.1655607372522354
1772534466738276000,1.379276123046875,-0.7291101217269897,0.17147907614707947,-0.16103495657444
1772534466748292000,1.3892919921875,-0.6730045080184937,0.14473988115787506,-0.17990052700042725
1772534466758309000,1.39930908203125,-0.6171255111694336,0.08570478111505508,-0.22217793762683868
1772534466768325000,1.4093251953125,-0.5719913244247437,0.029524335637688637,-0.28029024600982666
1772534466778341000,1.419341064453125,-0.536630392074585,-0.06053018942475319,-0.3364968001842499
1772534466788358000,1.42935791015625,-0.5015438199043274,-0.20988719165325165,-0.3678070306777954
1772534466798374000,1.439373779296875,-0.4457548260688782,-0.3627116084098816,-0.35908547043800354
1772534466808391200,1.44939111328125,-0.37468865513801575,-0.43412214517593384,-0.3047899901866913
1772534466818407200,1.4594072265625,-0.3070715367794037,-0.45049580931663513,-0.2260238081216812
1772534466828424000,1.469423828125,-0.2542072534561157,-0.43574240803718567,-0.1570761650800705
1772534466838440000,1.47943994140625,-0.22984331846237183,-0.40246301889419556,-0.12471263855695724
1772534466848457200,1.489457275390625,-0.2503318190574646,-0.33896368741989136,-0.12154773622751236
1772534466858473000,1.499472900390625,-0.31098878383636475,-0.2393350899219513,-0.13130661845207214
1772534466868490000,1.509489990234375,-0.3876390755176544,-0.13611069321632385,-0.13639086484909058
1772534466878506000,1.519506103515625,-0.4642387628555298,-0.0805068239569664,-0.12531158328056335
1772534466888523000,1.52952294921875,-0.5351760387420654,-0.027697142213582993,-0.10479246079921722
1772534466898539000,1.5395390625,-0.6012908816337585,0.03880731761455536,-0.093686543405056
1772534466908555000,1.549554931640625,-0.6696246862411499,0.12118474394083023,-0.10384197533130646
1772534466918572000,1.559572021484375,-0.732760488986969,0.18084675073623657,-0.12811295688152313
1772534466928588000,1.569588134765625,-0.7815592288970947,0.18175488710403442,-0.15064117312431335
1772534466938605000,1.57960498046875,-0.8101863265037537,0.13482865691184998,-0.16311967372894287
1772534466948621000,1.58962109375,-0.8207604289054871,0.059304866939783096,-0.1619846373796463
1772534466958638000,1.59963818359375,-0.8187404274940491,-0.036796096712350845,-0.1292344182729721
1772534466968654000,1.609654052734375,-0.8074323534965515,-0.14718864858150482,-0.08095557242631912
1772534466978671000,1.619671142578125,-0.783042848110199,-0.2423814833164215,-0.02991022914648056
1772534466988687000,1.62968701171875,-0.7647575736045837,-0.27848783135414124,-0.005379319190979004
1772534466998703000,1.639703125,-0.7849496603012085,-0.30496230721473694,-0.018753448501229286
1772534467008720000,1.649719970703125,-0.827186644077301,-0.33127912878990173,-0.04998407140374184
1772534467018736000,1.659736083984375,-0.8654759526252747,-0.31926295161247253,-0.06380987167358398
1772534467028753200,1.669753173828125,-0.9036933779716492,-0.28019675612449646,-0.051850948482751846
1772534467038769000,1.679768798828125,-0.9412937760353088,-0.24058730900287628,-0.006416620220988989
1772534467048786000,1.689785888671875,-0.9638528227806091,-0.18587613105773926,0.0637906938791275
1772534467058802200,1.69980224609375,-0.967289924621582,-0.09226388484239578,0.16051724553108215
1772534467068819000,1.70981884765625,-0.9748322367668152,0.04387451335787773,0.24001845717430115
1772534467078835000,1.7198349609375,-0.9932863712310791,0.17203061282634735,0.2714104652404785
1772534467088852000,1.72985205078125,-1.0019723176956177,0.2948603928089142,0.2521129250526428
1772534467098868200,1.7398681640625,-0.9904453158378601,0.4009793698787689,0.21259163320064545
1772534467108884200,1.74988427734375,-0.9539536237716675,0.4598647952079773,0.16800205409526825
1772534467118901000,1.75990087890625,-0.8984285593032837,0.4423513114452362,0.12564101815223694
1772534467128917000,1.7699169921875,-0.8441802263259888,0.36701875925064087,0.07905992865562439
1772534467138934000,1.77993408203125,-0.8041630387306213,0.24662789702415466,0.03280961140990257
1772534467148950000,1.789949951171875,-0.787379264831543,0.05426749959588051,0.018188059329986572
1772534467158967000,1.799967041015625,-0.7840599417686462,-0.15904584527015686,0.04339860752224922
1772534467168983000,1.809983154296875,-0.7964223027229309,-0.32689183950424194,0.08634340763092041
1772534467179000000,1.82,-0.8443706631660461,-0.4569217264652252,0.10920318961143494
1772534467189016000,1.83001611328125,-0.9211764931678772,-0.5362303853034973,0.10349602997303009
1772534467199033000,1.840033203125,-0.9962083697319031,-0.5319075584411621,0.07298659533262253
1772534467209049000,1.850049072265625,-1.066057562828064,-0.45116105675697327,0.007415305823087692
1772534467219064800,1.86006494140625,-1.1202152967453003,-0.29681676626205444,-0.07656561583280563
1772534467229082000,1.87008203125,-1.1454745531082153,-0.08581797033548355,-0.16595807671546936
1772534467239098000,1.88009814453125,-1.135629415512085,0.07866418361663818,-0.24202860891819
1772534467249115000,1.890114990234375,-1.0909394025802612,0.18413175642490387,-0.2794010043144226
1772534467259131000,1.900130859375,-1.0149147510528564,0.2287950962781906,-0.2746957540512085
1772534467269148200,1.910148193359375,-0.9106402397155762,0.19484831392765045,-0.2553691864013672
1772534467279164200,1.9201640625,-0.7878208160400391,0.07583671063184738,-0.24483078718185425
1772534467289181000,1.930180908203125,-0.653337299823761,-0.0836123377084732,-0.24031539261341095
1772534467299197000,1.940197021484375,-0.519050121307373,-0.250451922416687,-0.23483994603157043
1772534467309214200,1.950214111328125,-0.39328205585479736,-0.4009183943271637,-0.2234107106924057
1772534467319230000,1.96022998046875,-0.28736573457717896,-0.5055249333381653,-0.20961235463619232
1772534467329246000,1.970245849609375,-0.21496877074241638,-0.53938889503479,-0.17729462683200836
1772534467339263000,1.980262939453125,-0.16539216041564941,-0.5320838689804077,-0.13334819674491882
1772534467349279000,1.990279052734375,-0.13853177428245544,-0.4768664240837097,-0.09937026351690292
1772534467359296000,2.0002958984375,-0.12938275933265686,-0.3553551733493805,-0.09165801107883453
1772534467369312000,2.01031201171875,-0.13257934153079987,-0.18652646243572235,-0.10762473195791245
1772534467379329000,2.0203291015625,-0.15769508481025696,-0.0033241575583815575,-0.14207537472248077
1772534467389345000,2.030344970703125,-0.2066463828086853,0.1665029674768448,-0.18425746262073517
1772534467399362000,2.040362060546875,-0.26596349477767944,0.2926936447620392,-0.22482405602931976
1772534467409378000,2.0503779296875,-0.3119664192199707,0.3681652545928955,-0.2588571310043335
1772534467419395000,2.06039501953125,-0.33031851053237915,0.38820740580558777,-0.28074005246162415
1772534467429410800,2.070410888671875,-0.3126135766506195,0.3170834183692932,-0.3088822066783905
1772534467439427000,2.080427001953125,-0.27025172114372253,0.23357680439949036,-0.32323530316352844
1772534467449444000,2.090444091796875,-0.21590833365917206,0.12489532679319382,-0.2810276746749878
1772534467459460000,2.100460205078125,-0.14866884052753448,0.0022309301421046257,-0.19114519655704498
1772534467469476900,2.110476806640625,-0.0841582864522934,-0.09434328228235245,-0.08265093713998795
1772534467479493000,2.1204931640625,-0.04308595135807991,-0.19289489090442657,0.024890702217817307
1772534467489510100,2.13051025390625,-0.030761640518903732,-0.25139522552490234,0.1270197331905365
1772534467499526100,2.140526123046875,-0.04024196043610573,-0.2589695155620575,0.19763344526290894
1772534467509543000,2.15054296875,-0.06531748920679092,-0.25113263726234436,0.2210298478603363
1772534467519559200,2.16055908203125,-0.09121459722518921,-0.21434292197227478,0.21038466691970825
1772534467529576000,2.170575927734375,-0.11810613423585892,-0.1422404944896698,0.18220175802707672
1772534467539592200,2.18059228515625,-0.1438719481229782,-0.06461095064878464,0.1537988781929016
1772534467549608200,2.190608154296875,-0.1696486920118332,0.013410081155598164,0.12754571437835693
1772534467559625200,2.200625244140625,-0.19913440942764282,0.06716012954711914,0.07890786230564117
1772534467569641200,2.21064111328125,-0.2341477870941162,0.09372062981128693,0.008243815042078495
1772534467579658200,2.220658203125,-0.27337029576301575,0.11102186143398285,-0.05776343122124672
1772534467589674200,2.23067431640625,-0.30832934379577637,0.13095349073410034,-0.08679960668087006
1772534467599691300,2.240691162109375,-0.32522231340408325,0.1575334370136261,-0.08353351056575775
1772534467609707000,2.25070703125,-0.3097727596759796,0.15762051939964294,-0.06036800146102905
1772534467619724300,2.260724365234375,-0.26141294836997986,0.14386050403118134,-0.016985641792416573
1772534467629740300,2.270740234375,-0.19755861163139343,0.12884612381458282,0.030943268910050392
1772534467639756300,2.28075634765625,-0.1274932473897934,0.10221026092767715,0.057203102856874466
1772534467649773000,2.29077294921875,-0.059834837913513184,0.0651576966047287,0.05389785394072533
1772534467659789000,2.3007890625,0.006837932392954826,0.026763437315821648,0.02954297885298729
1772534467669806300,2.310806396484375,0.06805708259344101,-0.002910036128014326,-0.0010420948965474963
1772534467679822000,2.320822021484375,0.12325987964868546,-0.01877608522772789,-0.028970930725336075
1772534467689839000,2.330839111328125,0.17609061300754547,-0.018941467627882957,-0.045470546931028366
1772534467699855000,2.340855224609375,0.23919421434402466,-0.03292492777109146,-0.03976579010486603
1772534467709872000,2.3508720703125,0.30397453904151917,-0.024923458695411682,-0.011895541101694107
1772534467719888100,2.36088818359375,0.36984676122665405,-0.012046809308230877,0.040115196257829666
1772534467729905200,2.3709052734375,0.438221275806427,0.018368087708950043,0.11384773999452591
1772534467739921200,2.380921142578125,0.5052269697189331,0.06855855137109756,0.2016010284423828
1772534467749937200,2.390937255859375,0.5522993803024292,0.0964389219880104,0.2917972207069397
1772534467759954200,2.4009541015625,0.5761831402778625,0.09490307420492172,0.35267311334609985
1772534467769970200,2.41097021484375,0.5931919813156128,0.07028321921825409,0.3642567992210388
1772534467779987200,2.4209873046875,0.6135987043380737,0.013587447814643383,0.31719687581062317
1772534467790003000,2.4310029296875,0.6332440376281738,-0.08256758004426956,0.24576956033706665
1772534467800020200,2.441020263671875,0.6385365128517151,-0.26834145188331604,0.1591547727584839
1772534467810036200,2.4510361328125,0.6236417293548584,-0.5688099265098572,0.03702406585216522
1772534467820053000,2.461052978515625,0.5844916701316833,-0.9051855206489563,-0.10204114764928818
1772534467830069000,2.471069091796875,0.5156497955322266,-1.1347638368606567,-0.18749719858169556
1772534467840086300,2.481086181640625,0.4171018898487091,-1.1956839561462402,-0.18798135221004486
1772534467850102300,2.491102294921875,0.3009318709373474,-1.1287102699279785,-0.13424009084701538
1772534467860118300,2.5011181640625,0.1765635907649994,-0.9443444013595581,-0.05545739829540253
1772534467870135000,2.511135009765625,0.07662739604711533,-0.6610642075538635,0.030969101935625076
1772534467880151300,2.5211513671875,0.009565009735524654,-0.32489046454429626,0.1075562834739685
1772534467890168000,2.53116796875,-0.012085158377885818,0.02774534374475479,0.13695891201496124
1772534467900184000,2.54118408203125,0.009475260972976685,0.3292154371738434,0.11265597492456436
1772534467910201000,2.551201171875,0.04391445964574814,0.5303986072540283,0.04945569857954979
1772534467920217300,2.56121728515625,0.06347591429948807,0.6267557740211487,-0.030710775405168533
1772534467930234000,2.571234130859375,0.06395740807056427,0.5887618064880371,-0.10016308724880219
1772534467940250000,2.58125,0.060874003916978836,0.41261711716651917,-0.15428251028060913
1772534467950267100,2.59126708984375,0.05705183371901512,0.12822960317134857,-0.19364136457443237
1772534467960283400,2.601283447265625,0.05270368978381157,-0.2195105254650116,-0.21876563131809235
1772534467970299100,2.611299072265625,0.028147481381893158,-0.5699992775917053,-0.24143153429031372
1772534467980316200,2.621316162109375,-0.01420610025525093,-0.9226455092430115,-0.26423776149749756
1772534467990332200,2.631332275390625,-0.07567531615495682,-1.1819214820861816,-0.2733953297138214
1772534468000349200,2.64134912109375,-0.16005678474903107,-1.2754610776901245,-0.25202158093452454
1772534468010365200,2.651365234375,-0.27254897356033325,-1.178602695465088,-0.21033193171024323
1772534468020382200,2.66138232421875,-0.39975857734680176,-0.9350952506065369,-0.17821180820465088
1772534468030398200,2.671398193359375,-0.5173339247703552,-0.6018040776252747,-0.20248812437057495
1772534468040415000,2.6814150390625,-0.610146164894104,-0.23377227783203125,-0.285047709941864
1772534468050431200,2.69143115234375,-0.6778668761253357,0.12678271532058716,-0.40415334701538086
1772534468060447200,2.701447265625,-0.7408634424209595,0.42891860008239746,-0.5297583937644958
1772534468070464300,2.71146435546875,-0.7932230830192566,0.6238630414009094,-0.6454157829284668
1772534468080480000,2.72147998046875,-0.8171393275260925,0.6990033388137817,-0.708992063999176
1772534468090497300,2.731497314453125,-0.8179169297218323,0.6438884139060974,-0.7059760093688965
1772534468100513300,2.74151318359375,-0.7997368574142456,0.47163277864456177,-0.6448679566383362
1772534468110530000,2.751530029296875,-0.7893651723861694,0.27201712131500244,-0.5385425686836243
1772534468120546000,2.761546142578125,-0.7798630595207214,0.07962532341480255,-0.4073547124862671
1772534468130563300,2.771563232421875,-0.748665988445282,-0.10035962611436844,-0.288407564163208
1772534468140579300,2.781579345703125,-0.7073292136192322,-0.27992913126945496,-0.19286400079727173
1772534468150596000,2.79159619140625,-0.6408018469810486,-0.4517357647418976,-0.11528558284044266
1772534468160612000,2.801612060546875,-0.5131799578666687,-0.511214554309845,-0.08785342425107956
1772534468170628000,2.811628173828125,-0.3234313130378723,-0.4677269756793976,-0.12603436410427094
1772534468180645000,2.82164501953125,-0.11524456739425659,-0.3660823702812195,-0.18852703273296356
1772534468190661000,2.8316611328125,0.061523281037807465,-0.23653823137283325,-0.23380157351493835
1772534468200678100,2.84167822265625,0.1860598772764206,-0.1065237820148468,-0.25469380617141724
1772534468210694100,2.851694091796875,0.23265108466148376,-0.03155047073960304,-0.24196070432662964
1772534468220711200,2.861711181640625,0.20286177098751068,-0.014125406742095947,-0.1905720829963684
1772534468230727200,2.87172705078125,0.11844222247600555,-0.01780616119503975,-0.11159683763980865
1772534468240744200,2.881744140625,0.006209426559507847,0.02285737916827202,-0.03941372036933899
1772534468250760200,2.89176025390625,-0.08804304152727127,0.09457790106534958,-0.015014369040727615
1772534468260777200,2.901777099609375,-0.14584775269031525,0.15399302542209625,-0.07184862345457077
1772534468270793200,2.911793212890625,-0.17042019963264465,0.22428689897060394,-0.18170109391212463
1772534468280809200,2.921809326171875,-0.17068251967430115,0.31560882925987244,-0.31225642561912537
1772534468290826000,2.931825927734375,-0.1723472625017166,0.3584042191505432,-0.40397489070892334
1772534468300842000,2.941842041015625,-0.18552032113075256,0.34058713912963867,-0.4170246720314026
1772534468310859300,2.951859375,-0.21222810447216034,0.27626514434814453,-0.34606313705444336
1772534468320875300,2.961875244140625,-0.24821460247039795,0.16834187507629395,-0.22314360737800598
1772534468330892000,2.97189208984375,-0.2888166308403015,0.03067908249795437,-0.07611261308193207
1772534468340908000,2.981907958984375,-0.33697110414505005,-0.11837750673294067,0.0782892107963562
1772534468350925300,2.99192529296875,-0.41905638575553894,-0.23816010355949402,0.20533904433250427
1772534468360941000,3.001941162109375,-0.5390427112579346,-0.30527177453041077,0.286762535572052
1772534468370958000,3.0119580078125,-0.6653289794921875,-0.3242904543876648,0.3111205995082855
1772534468380974000,3.02197412109375,-0.7860400080680847,-0.25466665625572205,0.2913447618484497
1772534468390990300,3.031990234375,-0.8938362002372742,-0.10675361007452011,0.2573830783367157
1772534468401007000,3.042007080078125,-0.9805495142936707,0.0819353461265564,0.22715485095977783
1772534468411023000,3.052023193359375,-1.05051851272583,0.26092401146888733,0.21812301874160767
1772534468421040000,3.0620400390625,-1.1077765226364136,0.4327636659145355,0.24920237064361572
1772534468431056400,3.072056396484375,-1.1408464908599854,0.5456968545913696,0.31044840812683105
1772534468441073200,3.0820732421875,-1.1367849111557007,0.6176363229751587,0.36722221970558167
1772534468451089200,3.092089111328125,-1.0994168519973755,0.6284818053245544,0.4047650694847107
1772534468461106200,3.102106201171875,-1.0318007469177246,0.5607101917266846,0.4084237217903137
1772534468471122200,3.1121220703125,-0.9388135671615601,0.4177495837211609,0.3856568932533264
1772534468481139200,3.12213916015625,-0.8371402025222778,0.24061447381973267,0.35872992873191833
1772534468491155200,3.1321552734375,-0.7516332864761353,0.07013780623674393,0.3172551989555359
1772534468501171200,3.142171142578125,-0.6862396001815796,-0.06355740129947662,0.2482723891735077
1772534468511188200,3.152188232421875,-0.6411272883415222,-0.12144839763641357,0.15585936605930328
1772534468521204200,3.162204345703125,-0.619331955909729,-0.11014461517333984,0.0704382136464119
1772534468531221800,3.1722216796875,-0.628439724445343,-0.04934704303741455,0.018274344503879547
1772534468541237800,3.18223779296875,-0.6499519348144531,0.030482009053230286,-0.0033784860279411077
1772534468551254800,3.1922548828125,-0.6730308532714844,0.11436811834573746,0.0026636936236172915
1772534468561270800,3.202270751953125,-0.696513295173645,0.19263708591461182,0.024419056251645088
1772534468571287800,3.212287841796875,-0.6939175128936768,0.26633819937705994,0.041609227657318115
1772534468581303800,3.2223037109375,-0.6478523015975952,0.3529071807861328,0.053222209215164185
1772534468591320800,3.23232080078125,-0.5606973767280579,0.4309956133365631,0.05613064765930176
1772534468601336800,3.2423369140625,-0.4472467303276062,0.46691766381263733,0.04603087529540062
1772534468611352600,3.2523525390625,-0.32516875863075256,0.4086388945579529,0.0285916980355978
1772534468621369900,3.262369873046875,-0.20854628086090088,0.22667574882507324,0.011807125061750412
1772534468631385900,3.2723857421875,-0.11070387810468674,-0.02196255698800087,0.00890960544347763
1772534468641402600,3.282402587890625,-0.03453986719250679,-0.2031959891319275,0.022351378574967384
1772534468651418600,3.292418701171875,0.00626002624630928,-0.31837716698646545,0.027710722759366035
1772534468661436000,3.302435791015625,0.01823466457426548,-0.36896976828575134,0.01793026365339756
1772534468671452000,3.312451904296875,0.008796154521405697,-0.32090505957603455,-0.019710853695869446
1772534468681468700,3.32246875,-0.01762693002820015,-0.16509494185447693,-0.08619267493486404
1772534468691484700,3.332484619140625,-0.07270029932260513,0.05281154811382294,-0.16399265825748444
1772534468701502000,3.342501953125,-0.13941115140914917,0.2621663808822632,-0.23679496347904205
1772534468711517700,3.352517578125,-0.19692717492580414,0.43899786472320557,-0.2878621518611908
1772534468721533700,3.36253369140625,-0.22810479998588562,0.5860024690628052,-0.2989637851715088
1772534468731550700,3.37255078125,-0.23233896493911743,0.6741771101951599,-0.28377845883369446
1772534468741567000,3.38256689453125,-0.2147091031074524,0.6976672410964966,-0.258482426404953
1772534468751583700,3.392583740234375,-0.18356557190418243,0.687544584274292,-0.20418348908424377
1772534468761599700,3.402599853515625,-0.129823237657547,0.6280511617660522,-0.12232644110918045
1772534468771616800,3.41261669921875,-0.05570347607135773,0.509942889213562,-0.04120495915412903
1772534468781633000,3.422633056640625,0.04067312926054001,0.33594658970832825,0.032530512660741806
1772534468791649800,3.43264990234375,0.1383698582649231,0.18128563463687897,0.09378214925527573
1772534468801665800,3.442665771484375,0.21984155476093292,0.09449294954538345,0.14134860038757324
1772534468811682800,3.452682861328125,0.2701486647129059,0.0443434976041317,0.16719964146614075
1772534468821698800,3.46269873046875,0.2909082770347595,0.008176969364285469,0.1809956133365631
1772534468831714800,3.47271484375,0.29697760939598083,-0.025965021923184395,0.18896380066871643
1772534468841731800,3.48273193359375,0.2939075231552124,-0.043705135583877563,0.19357186555862427
1772534468851747800,3.492747802734375,0.27992725372314453,-0.06374062597751617,0.18950654566287994
1772534468861764900,3.502764892578125,0.2696474492549896,-0.08145171403884888,0.17784562706947327
1772534468871780900,3.51278076171875,0.25102928280830383,-0.10788625478744507,0.17200824618339539
1772534468881798000,3.5227978515625,0.20976202189922333,-0.09465406835079193,0.1877259612083435
1772534468891813600,3.532813720703125,0.14542590081691742,-0.048947833478450775,0.2029150277376175
1772534468901830700,3.54283056640625,0.07832516729831696,-0.00935328844934702,0.19647710025310516
1772534468911847000,3.552846923828125,0.021873606368899345,0.012062255293130875,0.16457243263721466
1772534468921863700,3.56286376953125,-0.007157777901738882,0.0232296884059906,0.1128929927945137
1772534468931879700,3.572879638671875,-0.008234228007495403,0.008451009169220924,0.048762477934360504
1772534468941895700,3.582895751953125,0.01684742234647274,-0.02339933253824711,-0.005675462540239096
1772534468951913000,3.592912841796875,0.06664667278528214,-0.0797417014837265,-0.040833715349435806
1772534468961929000,3.602928955078125,0.11770452558994293,-0.15475896000862122,-0.057140517979860306
1772534468971945700,3.61294580078125,0.15617522597312927,-0.22264638543128967,-0.06271983683109283
1772534468981961700,3.622961669921875,0.18512484431266785,-0.27132338285446167,-0.07363879680633545
1772534468991979000,3.63297900390625,0.20903737843036652,-0.3164626359939575,-0.09441385418176651
1772534469001994800,3.642994873046875,0.23293711245059967,-0.33484402298927307,-0.11672502011060715
1772534469012011800,3.65301171875,0.2558296322822571,-0.3157494366168976,-0.1251549869775772
1772534469022027800,3.66302783203125,0.2812689542770386,-0.24014948308467865,-0.11468157172203064
1772534469032044800,3.673044921875,0.3099440038204193,-0.12048166990280151,-0.07642180472612381
1772534469042060800,3.683060791015625,0.33775168657302856,0.03946378454566002,-0.002385925967246294
1772534469052076800,3.693076904296875,0.36694765090942383,0.2086578756570816,0.0875125378370285
1772534469062093800,3.70309375,0.40236741304397583,0.3295576572418213,0.15566310286521912
1772534469072109800,3.71310986328125,0.4573150873184204,0.39028891921043396,0.1769300401210785
1772534469082126800,3.723126953125,0.5273160338401794,0.4085318446159363,0.16575168073177338
1772534469092142800,3.733142822265625,0.583323061466217,0.3708478510379791,0.1429784595966339
1772534469102159600,3.74315966796875,0.6095895767211914,0.26736778020858765,0.11532232910394669
1772534469112175600,3.753175537109375,0.5959981083869934,0.10331679880619049,0.06970158219337463
1772534469122193000,3.76319287109375,0.5456521511077881,-0.07400977611541748,0.008384696207940578
1772534469132209000,3.773208984375,0.4601300358772278,-0.22100694477558136,-0.055878978222608566
1772534469142225700,3.7832255859375,0.3482399880886078,-0.3178991377353668,-0.09941500425338745
1772534469152241700,3.79324169921875,0.22195902466773987,-0.34693798422813416,-0.11448822915554047
1772534469162257700,3.803257568359375,0.1045149564743042,-0.28470975160598755,-0.09564875811338425
1772534469172275000,3.81327490234375,0.009067530743777752,-0.15617388486862183,-0.06677796691656113
1772534469182290700,3.823290771484375,-0.04550383612513542,0.005921538453549147,-0.0429203025996685
1772534469192307700,3.8333076171875,-0.04819842055439949,0.16169914603233337,-0.027397269383072853
1772534469202323700,3.84332373046875,-0.011601528152823448,0.27020618319511414,-0.004058391321450472
1772534469212340700,3.8533408203125,0.045689456164836884,0.3013659715652466,0.02316097915172577
1772534469222356700,3.863356689453125,0.09300024807453156,0.25485625863075256,0.04815101623535156
1772534469232373800,3.873373779296875,0.12698538601398468,0.13346697390079498,0.06836148351430893
1772534469242389800,3.8833896484375,0.13961195945739746,-0.026217754930257797,0.07529795169830322
1772534469252406800,3.89340673828125,0.1327947974205017,-0.21182116866111755,0.057736534625291824
1772534469262422800,3.9034228515625,0.10633309930562973,-0.39021193981170654,0.0207686610519886
1772534469272438800,3.913438720703125,0.05831710249185562,-0.5394922494888306,-0.03551032394170761
1772534469282455800,3.923455810546875,-0.0062278020195662975,-0.6357580423355103,-0.09714652597904205
1772534469292471800,3.933471923828125,-0.08512341976165771,-0.6463657021522522,-0.13752271234989166
1772534469302488800,3.94348876953125,-0.15962614119052887,-0.5850517749786377,-0.16289277374744415
1772534469312504800,3.9535048828125,-0.2101638913154602,-0.4529419243335724,-0.18944476544857025
1772534469322521600,3.963521484375,-0.24086108803749084,-0.2888832092285156,-0.207454651594162
1772534469332537900,3.973537841796875,-0.25858867168426514,-0.09429507702589035,-0.20111286640167236
1772534469342555000,3.983554931640625,-0.2618691623210907,0.13158279657363892,-0.17644959688186646
1772534469352571000,3.99357080078125,-0.24930277466773987,0.32349470257759094,-0.1583923101425171
1772534469362587600,4.003587646484375,-0.2223433256149292,0.45458588004112244,-0.1612733155488968
1772534469372604000,4.01360400390625,-0.18323293328285217,0.5136092305183411,-0.17466261982917786
1772534469382620000,4.023619873046875,-0.13256363570690155,0.5056456327438354,-0.1894434243440628
1772534469392636700,4.03363671875,-0.06919052451848984,0.4229259490966797,-0.18955102562904358
1772534469402652700,4.043652587890625,0.005017395596951246,0.3034014105796814,-0.16069860756397247
1772534469412670000,4.053669921875,0.09759633243083954,0.17438805103302002,-0.11969736963510513
1772534469422686000,4.06368603515625,0.1974472999572754,0.045941926538944244,-0.08918926119804382
1772534469432702700,4.07370263671875,0.2912534177303314,-0.06462852656841278,-0.08704328536987305
1772534469442718700,4.08371875,0.35870835185050964,-0.13059769570827484,-0.12497282773256302
1772534469452736000,4.093736083984375,0.39125537872314453,-0.13619326055049896,-0.18663379549980164
1772534469462751700,4.103751708984375,0.38983723521232605,-0.10965166240930557,-0.2545936703681946
1772534469472768800,4.113768798828125,0.3701346516609192,-0.07278099656105042,-0.3044317960739136
1772534469482784800,4.12378466796875,0.3295004069805145,-0.03755829483270645,-0.330328106880188
1772534469492800800,4.13380078125,0.2782396078109741,-0.036987580358982086,-0.3583477735519409
1772534469502817800,4.14381787109375,0.22547759115695953,-0.04860508814454079,-0.38085681200027466
1772534469512833800,4.153833740234375,0.18481245636940002,-0.0452476404607296,-0.3900766670703888
1772534469522850800,4.163850830078125,0.1651303619146347,-0.0403631366789341,-0.37706127762794495
1772534469532866800,4.17386669921875,0.1595345288515091,-0.01372300274670124,-0.3578343093395233
1772534469542883800,4.1838837890625,0.15442712604999542,0.004317516926676035,-0.33179178833961487
1772534469552899800,4.19389990234375,0.15010960400104523,0.009575662203133106,-0.2847052216529846
1772534469562916900,4.203916748046875,0.14556331932544708,0.011745339259505272,-0.21858960390090942
1772534469572932600,4.2139326171875,0.13939251005649567,0.006529804784804583,-0.14454439282417297
1772534469582950000,4.223949951171875,0.12608203291893005,-0.005276521202176809,-0.0682019591331482
1772534469592966000,4.2339658203125,0.1079256683588028,-0.0282145943492651,0.007031544111669064
1772534469602982000,4.24398193359375,0.08806434273719788,-0.06137014925479889,0.07950281351804733
1772534469612998700,4.25399853515625,0.07354345917701721,-0.07920028269290924,0.1426682025194168
1772534469623015000,4.264014892578125,0.06238827481865883,-0.10208269208669662,0.1798965334892273
1772534469633032000,4.274031982421875,0.05566299706697464,-0.14636093378067017,0.1940821260213852
1772534469643048000,4.2840478515625,0.04559784382581711,-0.18274079263210297,0.19018591940402985
1772534469653064700,4.294064697265625,0.02196655236184597,-0.19399583339691162,0.17572389543056488
1772534469663081000,4.3040810546875,-0.006653375457972288,-0.18256555497646332,0.16674025356769562
1772534469673097700,4.31409765625,-0.06424716114997864,-0.14494360983371735,0.18419088423252106
1772534469683113700,4.32411376953125,-0.1626885086297989,-0.08070070296525955,0.21731527149677277
1772534469693130800,4.334130859375,-0.28344130516052246,-0.00532525684684515,0.23285934329032898
1772534469703147000,4.34414697265625,-0.3951561152935028,0.02196095883846283,0.2180764079093933
1772534469713163000,4.3541630859375,-0.4711739122867584,0.03050091676414013,0.1880228966474533
1772534469723179800,4.3641796875,-0.5110435485839844,0.038839541375637054,0.16647100448608398
1772534469733195800,4.37419580078125,-0.529821515083313,0.04911880940198898,0.16359105706214905
1772534469743213000,4.384213134765625,-0.5577479600906372,0.027227094396948814,0.17527781426906586
1772534469753228800,4.394228759765625,-0.5840014219284058,-0.03574095293879509,0.20420266687870026
1772534469763245800,4.404245849609375,-0.6071522831916809,-0.1193583533167839,0.2667827010154724
1772534469773261800,4.41426171875,-0.6076153516769409,-0.18048030138015747,0.3476647734642029
1772534469783278800,4.42427880859375,-0.583474338054657,-0.23931671679019928,0.36809971928596497
1772534469793294800,4.434294921875,-0.5512509346008301,-0.2777178883552551,0.2666820287704468
1772534469803311900,4.444311767578125,-0.536624014377594,-0.2821289002895355,0.05354604870080948
1772534469813328000,4.454327880859375,-0.5689369440078735,-0.24263527989387512,-0.2080029994249344
1772534469823343900,4.46434375,-0.642193615436554,-0.13204991817474365,-0.4164712429046631
1772534469833361000,4.47436083984375,-0.7096676826477051,0.046550724655389786,-0.49938610196113586
1772534469843377000,4.484376953125,-0.7189610600471497,0.2568989098072052,-0.44920870661735535
1772534469853394000,4.494393798828125,-0.644743025302887,0.48104944825172424,-0.3303733766078949
1772534469863409700,4.50440966796875,-0.48585832118988037,0.6707914471626282,-0.21402813494205475
1772534469873427000,4.514427001953125,-0.2621610462665558,0.7588027715682983,-0.1226593405008316
1772534469883443000,4.52444287109375,0.01107715256512165,0.7422006130218506,-0.035832833498716354
1772534469893459700,4.534459716796875,0.2985092103481293,0.6227802038192749,0.05721108987927437
1772534469903475700,4.544475830078125,0.5628417730331421,0.4049738645553589,0.14151158928871155
1772534469913493000,4.554492919921875,0.7980870604515076,0.10531523823738098,0.2130366414785385
1772534469923509000,4.564509033203125,0.9870332479476929,-0.2210460901260376,0.27469176054000854
1772534469933524700,4.574524658203125,1.1117725372314453,-0.5160380601882935,0.3136138617992401
1772534469943541800,4.584541748046875,1.1532539129257202,-0.7466220259666443,0.3125552535057068
1772534469953557800,4.594557861328125,1.1178189516067505,-0.9191069602966309,0.274770587682724
1772534469963574800,4.60457470703125,1.0096291303634644,-1.0065488815307617,0.21472933888435364
1772534469973590800,4.6145908203125,0.8351444005966187,-0.9855525493621826,0.13667182624340057
1772534469983607800,4.62460791015625,0.6142826080322266,-0.8350400328636169,0.048053812235593796
1772534469993623800,4.634623779296875,0.3888081908226013,-0.5644506216049194,-0.0524621419608593
1772534470003640800,4.644640869140625,0.19298064708709717,-0.22064821422100067,-0.1529828906059265
1772534470013656800,4.65465673828125,0.051233891397714615,0.11785313487052917,-0.24174845218658447
1772534470023673900,4.664673828125,-0.030544327571988106,0.37684687972068787,-0.2912571430206299
1772534470033689900,4.67468994140625,-0.05353885889053345,0.5134060382843018,-0.2894810736179352
1772534470043705900,4.684705810546875,-0.014426875859498978,0.5622119307518005,-0.2388450652360916
1772534470053723000,4.694722900390625,0.0568651482462883,0.5409063696861267,-0.1525900810956955
1772534470063739000,4.70473876953125,0.1367751657962799,0.4582962095737457,-0.05572531372308731
1772534470073755600,4.714755615234375,0.20360372960567474,0.34214696288108826,0.026165558025240898
1772534470083772000,4.72477197265625,0.23923414945602417,0.2158755660057068,0.09871698915958405
1772534470093789000,4.734788818359375,0.23892922699451447,0.10445210337638855,0.15541648864746094
1772534470103805000,4.744804931640625,0.21943701803684235,0.05060778185725212,0.19124719500541687
1772534470113821700,4.75482177734375,0.19983668625354767,0.053591322153806686,0.20637953281402588
1772534470123838000,4.764837890625,0.20329692959785461,0.0839710682630539,0.20564104616641998
1772534470133855000,4.77485498046875,0.22094357013702393,0.12010137736797333,0.19129006564617157
1772534470143870700,4.78487060546875,0.24230371415615082,0.16115213930606842,0.16727980971336365
1772534470153886700,4.79488671875,0.2642063498497009,0.18604762852191925,0.15448784828186035
1772534470163903700,4.80490380859375,0.2908121347427368,0.17897693812847137,0.1731819063425064
1772534470173920000,4.814919921875,0.3102995455265045,0.14615081250667572,0.19385655224323273
1772534470183936800,4.824936767578125,0.33359262347221375,0.116819828748703,0.1931430995464325
1772534470193952800,4.834952880859375,0.3536432981491089,0.08548960089683533,0.1723022609949112
1772534470203969800,4.8449697265625,0.36690396070480347,0.05805318430066109,0.14969441294670105
1772534470213985800,4.85498583984375,0.37142202258110046,0.05273005738854408,0.11793942004442215
1772534470224002800,4.8650029296875,0.365074098110199,0.04813796654343605,0.08106289803981781
1772534470234018800,4.875018798828125,0.3366493880748749,0.07146698981523514,0.037333790212869644
1772534470244035800,4.885035888671875,0.294086754322052,0.14881983399391174,-0.03358885273337364
1772534470254051800,4.8950517578125,0.2468864768743515,0.22917300462722778,-0.13460788130760193
1772534470264067800,4.90506787109375,0.20401251316070557,0.27212953567504883,-0.24422092735767365
1772534470274084900,4.9150849609375,0.19014863669872284,0.26440873742103577,-0.33001387119293213
1772534470284100900,4.925100830078125,0.20976442098617554,0.2000017911195755,-0.3552750051021576
1772534470294118000,4.935117919921875,0.2548368275165558,0.08656977862119675,-0.30139127373695374
1772534470304134000,4.9451337890625,0.32013219594955444,-0.030831415206193924,-0.1756538450717926
1772534470314151000,4.95515087890625,0.406691312789917,-0.06138532981276512,-0.005922870244830847
1772534470324166700,4.965166748046875,0.5090850591659546,0.01756248250603676,0.17427405714988708
1772534470334184000,4.975183837890625,0.6327707767486572,0.19831149280071259,0.32336634397506714
1772534470344200000,4.985199951171875,0.7602648138999939,0.4392649829387665,0.45296135544776917
1772534470354216700,4.995216796875,0.8765946626663208,0.7067131996154785,0.5538567900657654
1772534470364232700,5.005232666015625,0.9560614824295044,0.908932089805603,0.6069554686546326
1772534470374248700,5.015248779296875,1.0040687322616577,0.9727166295051575,0.5956814885139465
1772534470384266000,5.025265869140625,1.0478646755218506,0.9006557464599609,0.5463941097259521
1772534470394282000,5.035281982421875,1.1009249687194824,0.755761444568634,0.5245530009269714
1772534470404298800,5.045298828125,1.1538515090942383,0.519954264163971,0.5446707606315613
1772534470414314800,5.055314697265625,1.2226595878601074,0.2106480449438095,0.5849145650863647
1772534470424331800,5.065331787109375,1.322412371635437,-0.10858799517154694,0.5964934825897217
1772534470434347800,5.07534765625,1.4080244302749634,-0.4125444293022156,0.5689550638198853
1772534470444364800,5.08536474609375,1.4292043447494507,-0.6428788304328918,0.5307006239891052
1772534470454380800,5.095380859375,1.3799997568130493,-0.7451724410057068,0.5159499049186707
1772534470464397800,5.105397705078125,1.2561150789260864,-0.7273457646369934,0.522196352481842
1772534470474413800,5.115413818359375,1.0827568769454956,-0.6223351955413818,0.4974135160446167
1772534470484429800,5.125429931640625,0.8937419652938843,-0.41024452447891235,0.411395788192749
1772534470494446800,5.13544677734375,0.7112136483192444,-0.117951400578022,0.2717319130897522
1772534470504462600,5.145462646484375,0.5744582414627075,0.1830076277256012,0.10293862968683243
1772534470514479900,5.15547998046875,0.5061857104301453,0.4227304756641388,-0.051417384296655655
1772534470524496000,5.165495849609375,0.5087396502494812,0.5436606407165527,-0.1560726910829544
1772534470534512600,5.1755126953125,0.5540922284126282,0.5274670124053955,-0.2024790644645691
1772534470544528600,5.185528564453125,0.6239429712295532,0.394284725189209,-0.18617652356624603
1772534470554545700,5.195545654296875,0.7053864002227783,0.18986846506595612,-0.11326264590024948
1772534470564561700,5.205561767578125,0.7970156669616699,-0.06337843835353851,-0.008876049891114235
1772534470574578700,5.21557861328125,0.8796109557151794,-0.3025982081890106,0.08600997924804688
1772534470584594700,5.2255947265625,0.9445872902870178,-0.4629974663257599,0.1527053862810135
1772534470594610700,5.235610595703125,0.9832957983016968,-0.502689778804779,0.1999538540840149
1772534470604627700,5.245627685546875,0.9715813398361206,-0.4285217821598053,0.2400466799736023
1772534470614643500,5.2556435546875,0.9096090793609619,-0.2596752345561981,0.26811373233795166
1772534470624660700,5.26566064453125,0.8031068444252014,-0.04086274281144142,0.26297491788864136
1772534470634676700,5.2756767578125,0.6647878289222717,0.20358002185821533,0.2166430950164795
1772534470644693500,5.285693603515625,0.5207664966583252,0.4567675292491913,0.14586426317691803
1772534470654709500,5.29570947265625,0.3906268775463104,0.6637609601020813,0.06996124237775803
1772534470664726800,5.305726806640625,0.28588342666625977,0.8326213359832764,-0.013408749364316463
1772534470674742800,5.31574267578125,0.2083667814731598,0.9326786994934082,-0.1008182242512703
1772534470685384700,5.326384765625,0.17355181276798248,0.9546340703964233,-0.17728103697299957
1772534470695401700,5.336401611328125,0.18426650762557983,0.8981457352638245,-0.21865031123161316
1772534470705417700,5.346417724609375,0.2340468466281891,0.7940699458122253,-0.23010031878948212
1772534470715434500,5.3564345703125,0.30046209692955017,0.6771497130393982,-0.20991754531860352
1772534470725450800,5.36645068359375,0.36746615171432495,0.5747256278991699,-0.17055575549602509
1772534470735467800,5.3764677734375,0.4258647561073303,0.47563549876213074,-0.12249342352151871
1772534470745483500,5.3864833984375,0.4843254089355469,0.38215163350105286,-0.07671688497066498
1772534470755500500,5.39650048828125,0.5488183498382568,0.275669664144516,-0.037160418927669525
1772534470765516800,5.406516845703125,0.6030189990997314,0.14541685581207275,0.005813680589199066
1772534470775533600,5.416533447265625,0.655125081539154,0.016352608799934387,0.046436209231615067
1772534470785549600,5.426549560546875,0.7119305729866028,-0.07979709655046463,0.07882051169872284
1772534470795565600,5.436565673828125,0.7643296122550964,-0.13550163805484772,0.10881463438272476
1772534470805582800,5.446582763671875,0.789541482925415,-0.1523943394422531,0.14940626919269562
1772534470815598800,5.456598876953125,0.7608925700187683,-0.15278129279613495,0.1983511745929718
1772534470825615600,5.46661572265625,0.6766905784606934,-0.11697935312986374,0.24067918956279755
1772534470835631600,5.476631591796875,0.5648559331893921,-0.06558965891599655,0.2629120647907257
1772534470845648600,5.486648681640625,0.4650763273239136,-0.0048826392740011215,0.26136767864227295
1772534470855664600,5.49666455078125,0.3799510598182678,0.07758454233407974,0.2215491682291031
1772534470865681700,5.506681640625,0.33848297595977783,0.15481248497962952,0.13892991840839386
1772534470875697700,5.51669775390625,0.3480874001979828,0.21526198089122772,0.05607738345861435
1772534470885714700,5.526714599609375,0.3789033591747284,0.2575337886810303,0.020784107968211174
1772534470895730700,5.536730712890625,0.39479073882102966,0.2812468409538269,0.04615071788430214
1772534470905746700,5.54674658203125,0.38994696736335754,0.24311837553977966,0.12057754397392273
1772534470915763700,5.556763671875,0.3734569549560547,0.17055043578147888,0.21926124393939972
1772534470925779500,5.566779541015625,0.36031079292297363,0.12259116023778915,0.30460357666015625
1772534470935796700,5.576796630859375,0.35008183121681213,0.11574417352676392,0.3402526378631592
1772534470945812700,5.586812744140625,0.35445740818977356,0.13480842113494873,0.3357106149196625
1772534470955829500,5.59682958984375,0.37042945623397827,0.15912680327892303,0.3062360882759094
1772534470965845500,5.606845458984375,0.39066174626350403,0.20816119015216827,0.27115774154663086
1772534470975862800,5.61686279296875,0.3876611888408661,0.24702922999858856,0.23476697504520416
1772534470985878800,5.626878662109375,0.3611624538898468,0.20248280465602875,0.1800459325313568
1772534470995895600,5.6368955078125,0.3215588629245758,0.07167232036590576,0.113588348031044
1772534471005911600,5.64691162109375,0.2786974012851715,-0.06796946376562119,0.06555477529764175
1772534471015927600,5.656927490234375,0.2429138422012329,-0.1950717568397522,0.047165647149086
1772534471025944800,5.66694482421875,0.20732656121253967,-0.34559229016304016,0.06030967831611633
1772534471035961600,5.676961669921875,0.17671164870262146,-0.5048258900642395,0.09706929326057434
1772534471045977600,5.6869775390625,0.13795973360538483,-0.6495479345321655,0.12386921048164368
1772534471055993600,5.69699365234375,0.09393208473920822,-0.7110554575920105,0.11079149693250656
1772534471066010600,5.7070107421875,0.047694019973278046,-0.6310349702835083,0.08696099370718002
1772534471076026600,5.717026611328125,-0.024225445464253426,-0.41311541199684143,0.059550944715738297
1772534471086043600,5.727043701171875,-0.11637694388628006,-0.12333524972200394,0.01666712760925293
1772534471096059600,5.7370595703125,-0.2115122526884079,0.17256830632686615,-0.041732266545295715
1772534471106076700,5.74707666015625,-0.2945008873939514,0.39160212874412537,-0.10403212904930115
1772534471116092700,5.7570927734375,-0.32454371452331543,0.5116531848907471,-0.14582857489585876
1772534471126109700,5.767109619140625,-0.28426554799079895,0.5552102327346802,-0.14453721046447754
1772534471136125400,5.77712548828125,-0.169199138879776,0.5266520977020264,-0.09884268790483475
1772534471146142700,5.787142822265625,-0.016042882576584816,0.40089842677116394,-0.03871463984251022
1772534471156158700,5.79715869140625,0.14697666466236115,0.14246366918087006,0.006464290898293257
1772534471166174700,5.8071748046875,0.29725298285484314,-0.16081763803958893,0.06332171708345413
1772534471176191500,5.81719140625,0.40222492814064026,-0.3888063430786133,0.1385706663131714
1772534471186207700,5.827207763671875,0.4443367123603821,-0.5105146765708923,0.19438013434410095
1772534471196224800,5.837224853515625,0.435680091381073,-0.5212336182594299,0.20877717435359955
1772534471206240800,5.84724072265625,0.3988483250141144,-0.40201321244239807,0.18317754566669464
1772534471216257500,5.857257568359375,0.34214454889297485,-0.1632602959871292,0.11663420498371124
1772534471226273800,5.867273681640625,0.27939727902412415,0.11672315746545792,0.01196957752108574
1772534471236290800,5.877290771484375,0.22739534080028534,0.39200320839881897,-0.11206874996423721
1772534471246306600,5.887306640625,0.18878643214702606,0.6204888224601746,-0.21472908556461334
1772534471256323600,5.897323486328125,0.1731075942516327,0.7671922445297241,-0.27066317200660706
1772534471266339800,5.90733984375,0.17540563642978668,0.8353979587554932,-0.27983590960502625
1772534471276355800,5.91735595703125,0.19561903178691864,0.8515465259552002,-0.2635842263698578
1772534471286372600,5.92737255859375,0.23428361117839813,0.8071357011795044,-0.24195484817028046
1772534471296388600,5.937388671875,0.28339841961860657,0.721253514289856,-0.220885768532753
1772534471306406000,5.947406005859375,0.3294498026371002,0.6024901270866394,-0.19132335484027863
1772534471316421600,5.957421630859375,0.37373629212379456,0.44039976596832275,-0.1378934234380722
1772534471326438700,5.967438720703125,0.43106138706207275,0.2776918113231659,-0.06160157918930054
1772534471336454700,5.97745458984375,0.5281503796577454,0.14824512600898743,0.023488547652959824
1772534471346471400,5.987471435546875,0.6592953205108643,0.09693346917629242,0.10999441146850586
1772534471356487700,5.99748779296875,0.7914310097694397,0.07571712881326675,0.16854001581668854
1772534471366504700,6.007504638671875,0.8995572328567505,0.061168815940618515,0.19534659385681152
1772534471376520700,6.017520751953125,0.9602327942848206,0.05282912775874138,0.19596605002880096
1772534471386536700,6.02753662109375,0.9741979241371155,0.013938452117145061,0.1905590295791626
1772534471396553700,6.0375537109375,0.9638440608978271,-0.016983777284622192,0.1940767914056778
1772534471406569700,6.04756982421875,0.9343596696853638,-0.025074193254113197,0.22144636511802673
1772534471416586800,6.057586669921875,0.8945052027702332,0.0023166837636381388,0.2688642144203186
1772534471426602500,6.0676025390625,0.8444481492042542,0.060986921191215515,0.29737335443496704
1772534471436619800,6.077619873046875,0.7919663190841675,0.12943574786186218,0.2758009433746338
1772534471446635800,6.0876357421875,0.7374463677406311,0.2151743620634079,0.20174004137516022
1772534471456652500,6.097652587890625,0.6874390840530396,0.29738667607307434,0.11158378422260284
1772534471466668500,6.10766845703125,0.6596298217773438,0.37057194113731384,0.034684475511312485
1772534471476685800,6.117685791015625,0.6527876257896423,0.41110071539878845,-0.008036620914936066
1772534471486701800,6.127701904296875,0.6666496992111206,0.4318605959415436,-0.011381551623344421
1772534471496717600,6.137717529296875,0.7049046754837036,0.43004244565963745,0.005738845560699701
1772534471506734600,6.147734619140625,0.7555720806121826,0.3863719403743744,0.02263740263879299
1772534471516750600,6.15775048828125,0.8022050857543945,0.31998172402381897,0.029083317145705223
1772534471526767600,6.167767578125,0.8409764766693115,0.2558160722255707,0.041730403900146484
1772534471536783000,6.177783203125,0.8665952682495117,0.22049029171466827,0.068030446767807
1772534471546800000,6.187800048828125,0.8900177478790283,0.2009645253419876,0.10890331119298935
1772534471556816100,6.197816162109375,0.9148845076560974,0.20587939023971558,0.15742690861225128
1772534471566833200,6.207833251953125,0.9329596757888794,0.2298252135515213,0.19876769185066223
1772534471576849200,6.21784912109375,0.9509745836257935,0.2984149158000946,0.22899377346038818
1772534471586866200,6.2278662109375,0.9531692862510681,0.36723580956459045,0.24492160975933075
1772534471596882200,6.237882080078125,0.9478893280029297,0.43939733505249023,0.23586685955524445
1772534471606899200,6.247899169921875,0.9320701360702515,0.5386013984680176,0.18811078369617462
1772534471616915200,6.257915283203125,0.9163711071014404,0.6366438269615173,0.11544643342494965
1772534471626931200,6.26793115234375,0.9031698107719421,0.6985759139060974,0.04820534586906433
1772534471636948200,6.2779482421875,0.9043706059455872,0.7250903248786926,0.014192517846822739
1772534471646964000,6.2879638671875,0.91013103723526,0.7295413017272949,-0.0006114617572166026
1772534471656981200,6.297981201171875,0.9205788969993591,0.6809788346290588,-0.024296285584568977
1772534471666997200,6.307997314453125,0.9400455355644226,0.5599637031555176,-0.07221107929944992
1772534471677014000,6.318013916015625,0.9791977405548096,0.3760303556919098,-0.13406911492347717
1772534471687030000,6.328030029296875,1.0306047201156616,0.19439397752285004,-0.1822587549686432
1772534471697047300,6.33804736328125,1.071457028388977,0.03752633556723595,-0.22682568430900574
1772534471707063300,6.348063232421875,1.0712664127349854,-0.12400157004594803,-0.28377366065979004
1772534471717080000,6.358080078125,1.0182486772537231,-0.22576655447483063,-0.33815380930900574
1772534471727096000,6.368095947265625,0.9088785648345947,-0.18985515832901,-0.3577165901660919
1772534471737112300,6.3781123046875,0.768314003944397,-0.02255777269601822,-0.34462103247642517
1772534471747129000,6.388129150390625,0.6494296789169312,0.22319845855236053,-0.34168916940689087
1772534471757145000,6.39814501953125,0.5844274759292603,0.4820188283920288,-0.3907589614391327
1772534471767162000,6.408162109375,0.5896946787834167,0.675436794757843,-0.5078291296958923
1772534471777178000,6.41817822265625,0.6351447105407715,0.7864626049995422,-0.5975824594497681
1772534471787195100,6.428195068359375,0.6981332898139954,0.8644434213638306,-0.5812152028083801
1772534471797211100,6.438211181640625,0.7704147100448608,0.935532808303833,-0.4598570764064789
1772534471807228200,6.448228271484375,0.8536326289176941,0.9919971227645874,-0.30453911423683167
1772534471817244200,6.458244140625,0.9485223889350891,1.0125389099121094,-0.17687037587165833
1772534471827261200,6.46826123046875,1.048892855644226,1.0050979852676392,-0.07192292809486389
1772534471837277200,6.478277099609375,1.1474642753601074,1.014052391052246,0.016936106607317924
1772534471847294200,6.488294189453125,1.2375065088272095,1.049100399017334,0.0640261173248291
1772534471857310000,6.49831005859375,1.3165147304534912,1.0864174365997314,0.037521809339523315
1772534471867326200,6.508326171875,1.3962583541870117,1.0806471109390259,-0.0580582432448864
1772534471877343200,6.51834326171875,1.4694854021072388,1.0339610576629639,-0.20128516852855682
1772534471887359200,6.528359130859375,1.5491688251495361,0.908260703086853,-0.3543170690536499
1772534471897376000,6.5383759765625,1.6495283842086792,0.6954712271690369,-0.46617409586906433
1772534471907392300,6.548392333984375,1.7606754302978516,0.4013623297214508,-0.5075761079788208
1772534471917409300,6.5584091796875,1.8775016069412231,0.06662749499082565,-0.4968041777610779
1772534471927425000,6.568425048828125,1.9888217449188232,-0.2846008241176605,-0.442548930644989
1772534471937442000,6.578442138671875,2.0581367015838623,-0.5679761171340942,-0.33560729026794434
1772534471947458300,6.588458251953125,2.0769612789154053,-0.7300773859024048,-0.17745068669319153
1772534471957475000,6.59847509765625,2.0242326259613037,-0.778550922870636,-0.01986531727015972
1772534471967491000,6.608490966796875,1.8931394815444946,-0.732674777507782,0.08335854113101959
1772534471977507000,6.618507080078125,1.7232506275177002,-0.6230763792991638,0.10645027458667755
1772534471987524400,6.6285244140625,1.5204124450683594,-0.47169163823127747,0.07093888521194458
1772534471997540400,6.638540283203125,1.278570294380188,-0.24573174118995667,0.004624845460057259
1772534472007557000,6.64855712890625,1.0335358381271362,-0.012939234264194965,-0.09148410707712173
1772534472017573000,6.658572998046875,0.8098206520080566,0.11962360143661499,-0.20108410716056824
1772534472027590400,6.66859033203125,0.6254414916038513,0.22051826119422913,-0.2771359980106354
1772534472037606100,6.678606201171875,0.4940912127494812,0.302753210067749,-0.2988892197608948
1772534472047623200,6.688623046875,0.42432305216789246,0.34206652641296387,-0.2733931839466095
1772534472057639200,6.69863916015625,0.4082266390323639,0.3170871436595917,-0.2143130898475647
1772534472067656200,6.70865625,0.43028587102890015,0.24102672934532166,-0.12598562240600586
1772534472077672200,6.718672119140625,0.4716000258922577,0.14160586893558502,-0.01937023550271988
1772534472087688200,6.728688232421875,0.5185933709144592,0.05023973435163498,0.10575758665800095
1772534472097705200,6.738705322265625,0.5469115376472473,0.010361294262111187,0.2253417819738388
1772534472107721200,6.74872119140625,0.5457770228385925,-0.00427304208278656,0.28809598088264465
1772534472117738200,6.75873828125,0.5165459513664246,-0.009236108511686325,0.2854325473308563
1772534472127754200,6.768754150390625,0.4699579179286957,0.023422768339514732,0.22694766521453857
1772534472137771000,6.77877099609375,0.41540199518203735,0.08192895352840424,0.13360439240932465
1772534472147787000,6.788787109375,0.3606330156326294,0.13125549256801605,0.04475522041320801
1772534472157804300,6.79880419921875,0.30012813210487366,0.12942589819431305,-0.021280521526932716
1772534472167820300,6.8088203125,0.2482963651418686,0.10237190872430801,-0.04483484849333763
1772534472177837000,6.818837158203125,0.21326221525669098,0.09778115153312683,-0.022904517129063606
1772534472187853000,6.82885302734375,0.19495616853237152,0.0958825871348381,0.00515907583758235
1772534472197869000,6.838869140625,0.18754619359970093,0.09581440687179565,0.007333812769502401
1772534472207886300,6.84888623046875,0.1973562091588974,0.09868236631155014,-0.01690335012972355
1772534472217902000,6.858902099609375,0.22986063361167908,0.08126955479383469,-0.05192817747592926
1772534472227919000,6.868919189453125,0.28061729669570923,0.039920251816511154,-0.06245512142777443
1772534472237935000,6.87893505859375,0.3502102196216583,-0.037036314606666565,-0.06631111353635788
1772534472247952100,6.8889521484375,0.41153934597969055,-0.1649351567029953,-0.04397225007414818
1772534472257968000,6.898968017578125,0.4272826313972473,-0.2241486757993698,0.006668821442872286
1772534472267985200,6.908985107421875,0.41030070185661316,-0.2447247952222824,0.058943476527929306
1772534472278001200,6.919001220703125,0.3773789703845978,-0.26204147934913635,0.09774413704872131
1772534472288018200,6.92901806640625,0.3419109880924225,-0.26160895824432373,0.09934362769126892
1772534472298034200,6.9390341796875,0.30169886350631714,-0.2759951055049896,0.04962694272398949
1772534472308050200,6.94905029296875,0.26152002811431885,-0.31207960844039917,-0.028741100803017616
1772534472318067200,6.959067138671875,0.2130611389875412,-0.3506956994533539,-0.10475330799818039
1772534472328083200,6.969083251953125,0.1340201199054718,-0.39401015639305115,-0.14896045625209808
1772534472338100200,6.979100341796875,0.04765886440873146,-0.396075963973999,-0.1502789855003357
1772534472348116200,6.9891162109375,-0.02635783702135086,-0.3747752010822296,-0.11693301051855087
1772534472358133000,6.999133056640625,-0.08108792454004288,-0.34162259101867676,-0.07478608936071396
1772534472368149200,7.009149169921875,-0.11157899349927902,-0.3136466145515442,-0.0589221715927124
1772534472378166300,7.019166259765625,-0.13104164600372314,-0.28151342272758484,-0.07423295080661774
1772534472388182300,7.029182373046875,-0.15052026510238647,-0.23403087258338928,-0.10854298621416092
1772534472398199000,7.039198974609375,-0.18369713425636292,-0.19905664026737213,-0.13565583527088165
1772534472408215000,7.049215087890625,-0.23690974712371826,-0.1896412968635559,-0.14038613438606262
1772534472418231300,7.059231201171875,-0.3190504312515259,-0.1764993965625763,-0.12744183838367462
1772534472428248000,7.069248046875,-0.4059312641620636,-0.14759185910224915,-0.12918807566165924
1772534472438264000,7.07926416015625,-0.4697307348251343,-0.13311411440372467,-0.13795733451843262
1772534472448281000,7.089281005859375,-0.49060192704200745,-0.12949886918067932,-0.12692731618881226
1772534472458297300,7.09929736328125,-0.48281484842300415,-0.14734311401844025,-0.09177546203136444
1772534472468314000,7.109314208984375,-0.45774999260902405,-0.15349794924259186,-0.0268918015062809
1772534472478330000,7.119330078125,-0.42425087094306946,-0.14870691299438477,0.044915277510881424
1772534472488347100,7.12934716796875,-0.40887007117271423,-0.1402612328529358,0.09686076641082764
1772534472498363100,7.139363037109375,-0.4128195345401764,-0.12271260470151901,0.11218219995498657
1772534472508380200,7.149380126953125,-0.4172808527946472,-0.09462131559848785,0.10396873950958252
1772534472518396200,7.159396240234375,-0.4201861023902893,-0.06994392722845078,0.10996139049530029
1772534472528413200,7.1694130859375,-0.426894873380661,-0.0365992896258831,0.1403627097606659
1772534472538429200,7.17942919921875,-0.4283018112182617,0.0017797905020415783,0.1862122118473053
1772534472548445200,7.189445068359375,-0.42610231041908264,0.04677150025963783,0.22827018797397614
1772534472558462500,7.19946240234375,-0.40603724122047424,0.06689275056123734,0.2507973313331604
1772534472568478500,7.209478515625,-0.3958272337913513,0.05752960592508316,0.2585918605327606
1772534472578495200,7.2194951171875,-0.406350702047348,0.021799305453896523,0.2718474864959717
1772534472588511200,7.22951123046875,-0.4118160605430603,0.015423963777720928,0.3058896064758301
1772534472598528500,7.239528564453125,-0.40148723125457764,0.05330609902739525,0.34277066588401794
1772534472608544300,7.249544189453125,-0.36950719356536865,0.07318020612001419,0.359319269657135
1772534472618561300,7.259561279296875,-0.3419701159000397,0.07286914438009262,0.34966638684272766
1772534472628577300,7.269577392578125,-0.33411166071891785,0.04603646695613861,0.33463791012763977
1772534472638593500,7.279593505859375,-0.3529311716556549,0.021950839087367058,0.3223609924316406
1772534472648610300,7.2896103515625,-0.3876049816608429,0.00868962798267603,0.30838021636009216
1772534472658626300,7.299626220703125,-0.4145923852920532,0.027544809505343437,0.28203994035720825
1772534472668643300,7.309643310546875,-0.4249134659767151,0.06484024971723557,0.24543826282024384
1772534472678659300,7.319659423828125,-0.4243486225605011,0.0943233072757721,0.203939288854599
1772534472688676400,7.32967626953125,-0.41747552156448364,0.10420363396406174,0.1622759848833084
1772534472698692400,7.3396923828125,-0.43029147386550903,0.0950535461306572,0.12025903165340424
1772534472708709000,7.349709228515625,-0.46495917439460754,0.07308193296194077,0.07707081735134125
1772534472718725400,7.359725341796875,-0.5055531859397888,0.06069637089967728,0.04453923925757408
1772534472728742400,7.369742431640625,-0.537972629070282,0.05398174375295639,0.014702779240906239
1772534472738758400,7.37975830078125,-0.560157299041748,0.038664571940898895,-0.009847304783761501
1772534472748775200,7.389775146484375,-0.559483528137207,0.04794462397694588,-0.013311011716723442
1772534472758791400,7.39979150390625,-0.5466731786727905,0.07356929033994675,0.0016447682864964008
1772534472768807400,7.409807373046875,-0.5267128348350525,0.1152525544166565,0.025706961750984192
1772534472778824400,7.419824462890625,-0.5034248232841492,0.13341984152793884,0.037266410887241364
1772534472788840200,7.429840087890625,-0.48108646273612976,0.12485990673303604,0.03453640639781952
1772534472798857500,7.439857421875,-0.46051353216171265,0.11558225750923157,0.007051251363009214
1772534472808873500,7.44987353515625,-0.44261735677719116,0.10679808259010315,-0.030650055035948753
1772534472818890200,7.45989013671875,-0.4162808358669281,0.10561324656009674,-0.06978627294301987
1772534472828906200,7.46990625,-0.374034583568573,0.09653506428003311,-0.10427926480770111
1772534472838923300,7.47992333984375,-0.32105979323387146,0.047456465661525726,-0.1202012449502945
1772534472848939500,7.489939453125,-0.2605447769165039,-0.035584624856710434,-0.11023968458175659
1772534472858956300,7.499956298828125,-0.20953777432441711,-0.14624962210655212,-0.04104889929294586
1772534472868972300,7.50997216796875,-0.18964795768260956,-0.21684975922107697,0.09467671066522598
1772534472878988300,7.51998828125,-0.20007076859474182,-0.24777650833129883,0.22845394909381866
1772534472889005300,7.53000537109375,-0.2271636426448822,-0.29162198305130005,0.2981877624988556
1772534472899021300,7.540021240234375,-0.24319879710674286,-0.30490636825561523,0.31137678027153015
1772534472909038300,7.550038330078125,-0.2404664009809494,-0.24893924593925476,0.28531190752983093
1772534472919054300,7.560054443359375,-0.21956618130207062,-0.1476168930530548,0.22306503355503082
1772534472929071400,7.5700712890625,-0.19210578501224518,-0.04944291710853577,0.12756648659706116
1772534472939087400,7.58008740234375,-0.1567605882883072,0.05078248679637909,0.03753752261400223
1772534472949104400,7.5901044921875,-0.1265811175107956,0.17735746502876282,-0.018606441095471382
1772534472959120400,7.600120361328125,-0.06282663345336914,0.28537634015083313,-0.03440377861261368
1772534472969137400,7.610137451171875,0.04980723559856415,0.3379066586494446,-0.013406086713075638
1772534472979153400,7.6201533203125,0.2099127471446991,0.329507052898407,0.030176278203725815
1772534472989169400,7.63016943359375,0.3842078447341919,0.2571958601474762,0.10360202193260193
1772534472999186200,7.640186279296875,0.5383366942405701,0.18212932348251343,0.19989021122455597
1772534473009202200,7.6502021484375,0.6539565324783325,0.12825916707515717,0.2833835184574127
1772534473019219500,7.660219482421875,0.7308342456817627,0.10785616189241409,0.34009578824043274
1772534473029235500,7.6702353515625,0.7616211771965027,0.17846454679965973,0.3789273500442505
1772534473039252200,7.680252197265625,0.7347749471664429,0.31437018513679504,0.374746710062027
1772534473049268200,7.690268310546875,0.6800901293754578,0.4255952537059784,0.2867899537086487
1772534473059285500,7.700285400390625,0.6287142634391785,0.5232592225074768,0.1851099282503128
1772534473069301200,7.71030126953125,0.5892555713653564,0.6318946480751038,0.11831945180892944
1772534473079318300,7.720318359375,0.5625629425048828,0.7039227485656738,0.07920347899198532
1772534473089334300,7.730334228515625,0.560151219367981,0.7087484002113342,0.04512220248579979
1772534473099350300,7.740350341796875,0.5783387422561646,0.6348866820335388,-0.0002759034978225827
1772534473109367300,7.7503671875,0.6015290021896362,0.5211470723152161,-0.04706258326768875
1772534473119383300,7.76038330078125,0.6125398278236389,0.3910210132598877,-0.08756206929683685
1772534473129400300,7.770400390625,0.617911159992218,0.23281167447566986,-0.12105638533830643
1772534473139416300,7.780416259765625,0.6224156022071838,0.041306961327791214,-0.159502312541008
1772534473149433300,7.790433349609375,0.6276892423629761,-0.1218356266617775,-0.18997925519943237
1772534473159449300,7.800449462890625,0.6335676312446594,-0.22844569385051727,-0.20436085760593414
1772534473169466400,7.81046630859375,0.6276301145553589,-0.22731544077396393,-0.19858020544052124
1772534473179482000,7.820482177734375,0.6112458109855652,-0.11607120931148529,-0.2018393725156784
1772534473189499400,7.83049951171875,0.5971829891204834,0.06223514303565025,-0.20258426666259766
1772534473199515400,7.840515380859375,0.6019987463951111,0.2578973174095154,-0.18216314911842346
1772534473209531400,7.850531494140625,0.6300855278968811,0.45087581872940063,-0.1357109546661377
1772534473219548200,7.860548095703125,0.6691789031028748,0.5858035683631897,-0.08127141743898392
1772534473229564400,7.870564453125,0.7118858695030212,0.642936110496521,-0.03985793516039848
1772534473239581400,7.88058154296875,0.7539395689964294,0.6300192475318909,-0.010704043321311474
1772534473249597200,7.89059716796875,0.799619197845459,0.5370240211486816,0.012803945690393448
1772534473259614200,7.9006142578125,0.8515039682388306,0.3828592300415039,0.04655791446566582
1772534473269630500,7.91063037109375,0.913421094417572,0.21767133474349976,0.07218338549137115
1772534473279647200,7.920647216796875,0.9725238084793091,0.03909946605563164,0.08370981365442276
1772534473289663200,7.930663330078125,1.012649416923523,-0.11647547781467438,0.08154332637786865
1772534473299680300,7.94068017578125,1.0163415670394897,-0.23183056712150574,0.062429022043943405
1772534473309696500,7.950696533203125,0.9805314540863037,-0.31097519397735596,0.02317056618630886
1772534473319712500,7.96071240234375,0.9094881415367126,-0.3463675379753113,-0.024235831573605537
1772534473329729300,7.970729248046875,0.8091703057289124,-0.3246539831161499,-0.05042322725057602
1772534473339745300,7.980745361328125,0.676271915435791,-0.2391798198223114,-0.056238770484924316
1772534473349762600,7.990762451171875,0.5243284702301025,-0.10656079649925232,-0.07090506702661514
1772534473359778300,8.0007783203125,0.37854811549186707,0.02401798404753208,-0.10944367200136185
1772534473369795300,8.01079541015625,0.2522498369216919,0.13731898367404938,-0.1671501100063324
1772534473379811300,8.020811279296876,0.1588927060365677,0.2063036412000656,-0.22216889262199402
1772534473389828400,8.030828369140625,0.10173781216144562,0.2453003078699112,-0.24180729687213898
1772534473399844400,8.04084423828125,0.09225722402334213,0.26399675011634827,-0.2255399078130722
1772534473409861400,8.050861328125,0.1270519644021988,0.2425077110528946,-0.1960131824016571
1772534473419877400,8.06087744140625,0.19337426126003265,0.21520419418811798,-0.15979446470737457
1772534473429894400,8.070894287109375,0.27086132764816284,0.16811497509479523,-0.13051779568195343
1772534473439910400,8.080910400390625,0.3510408401489258,0.09432916343212128,-0.09637899696826935
1772534473449926400,8.090926513671874,0.42143991589546204,0.015426892787218094,-0.06108785420656204
1772534473459943200,8.100943115234376,0.4677557349205017,-0.046664439141750336,-0.032220255583524704
1772534473469959200,8.110959228515625,0.48558560013771057,-0.09763840585947037,-0.010036388412117958
1772534473479976400,8.1209765625,0.4857637882232666,-0.1256261020898819,-0.00851412583142519
1772534473489992400,8.130992431640625,0.469108909368515,-0.14931118488311768,-0.027305390685796738
1772534473500009200,8.14100927734375,0.43573442101478577,-0.1670481115579605,-0.059353072196245193
1772534473510025200,8.151025146484375,0.39196670055389404,-0.17558567225933075,-0.07948577404022217
1772534473520042500,8.16104248046875,0.3512563109397888,-0.14732606709003448,-0.07501618564128876
1772534473530058500,8.17105859375,0.31483596563339233,-0.10696399956941605,-0.05543316528201103
1772534473540074000,8.181073974609374,0.29466837644577026,-0.06565198302268982,-0.02189517952501774
1772534473550091000,8.191091064453126,0.27436259388923645,0.005063201766461134,0.02623240277171135
1772534473560107000,8.20110693359375,0.24693521857261658,0.0916295200586319,0.06172381713986397
1772534473570124000,8.2111240234375,0.21564467251300812,0.1530396193265915,0.05952351540327072
1772534473580139800,8.221139892578124,0.18348194658756256,0.17010462284088135,0.031086547300219536
1772534473590157000,8.231156982421876,0.1508592814207077,0.14021383225917816,0.002813629573211074
1772534473600173000,8.241173095703125,0.12859392166137695,0.07692594081163406,-0.007774033583700657
1772534473610189800,8.25118994140625,0.12260208278894424,-0.014308098703622818,-0.0044176517985761166
1772534473620205800,8.261205810546874,0.14744244515895844,-0.12694570422172546,-0.0007459514308720827
1772534473630222800,8.271222900390624,0.20016425848007202,-0.2307959347963333,0.019629094749689102
1772534473640239000,8.281239013671875,0.24282783269882202,-0.3404774069786072,0.05276520922780037
1772534473650254800,8.2912548828125,0.24304726719856262,-0.41635406017303467,0.11069376021623611
1772534473660271900,8.30127197265625,0.2050096094608307,-0.40479063987731934,0.1671501100063324
1772534473670288000,8.311287841796876,0.12692731618881226,-0.3364983797073364,0.17801021039485931
1772534473680305000,8.321304931640626,0.030000776052474976,-0.2497698813676834,0.1346619427204132
1772534473690321000,8.33132080078125,-0.0629693791270256,-0.1437089592218399,0.06889757513999939
1772534473700338000,8.341337890625,-0.1452392190694809,-0.047145675867795944,0.012328038923442364
1772534473710354000,8.35135400390625,-0.22049935162067413,0.026253174990415573,-0.027273433282971382
1772534473720371000,8.361370849609376,-0.2810138165950775,0.05071244388818741,-0.05368932709097862
1772534473730387000,8.371386962890625,-0.3325244188308716,0.022709572687745094,-0.07244810461997986
1772534473740404000,8.381404052734375,-0.37592142820358276,-0.027696875855326653,-0.07991587370634079
1772534473750420000,8.391419921875,-0.40100735425949097,-0.07043129205703735,-0.08091695606708527
1772534473760435700,8.401435791015626,-0.41978156566619873,-0.11606242507696152,-0.08014117181301117
1772534473770453000,8.411452880859375,-0.4216740131378174,-0.15607322752475739,-0.08863586187362671
1772534473780469000,8.421468994140625,-0.4142525792121887,-0.20629724860191345,-0.09843043237924576
1772534473790485800,8.43148583984375,-0.3962911367416382,-0.202687069773674,-0.09523144364356995
1772534473800501800,8.441501708984376,-0.37297359108924866,-0.1628408432006836,-0.07924502342939377
1772534473810519000,8.45151904296875,-0.34394752979278564,-0.12934893369674683,-0.06434623152017593
1772534473820535000,8.46153515625,-0.30857595801353455,-0.12321780622005463,-0.04156661778688431
1772534473830551800,8.4715517578125,-0.27808088064193726,-0.14129267632961273,-0.00968644954264164
1772534473840567800,8.48156787109375,-0.248694509267807,-0.16884468495845795,0.04559917747974396
1772534473850585000,8.491585205078126,-0.2261042445898056,-0.1630677431821823,0.11548611521720886
1772534473860600800,8.501600830078125,-0.21201026439666748,-0.13221582770347595,0.17216616868972778
1772534473870616800,8.511616943359375,-0.21115778386592865,-0.07957711815834045,0.1988862007856369
1772534473880633900,8.5216337890625,-0.2240528017282486,-0.029957367107272148,0.19096648693084717
1772534473890650000,8.531650146484376,-0.24058863520622253,-0.02004348300397396,0.17536409199237823
1772534473900667000,8.5416669921875,-0.2569577693939209,-0.014007428660988808,0.17241810262203217
1772534473910683000,8.551682861328125,-0.278354674577713,-0.00555135915055871,0.1731797754764557
1772534473920700000,8.561699951171875,-0.3102782368659973,0.007202785462141037,0.1704271286725998
1772534473930716000,8.5717158203125,-0.3482040464878082,0.007632619701325893,0.17249560356140137
1772534473940733000,8.58173291015625,-0.38073962926864624,0.002225603675469756,0.18450166285037994
1772534473950749000,8.5917490234375,-0.4028435945510864,-0.022107964381575584,0.19390209019184113
1772534473960766000,8.601765869140625,-0.41255268454551697,-0.0638066753745079,0.19023865461349487
1772534473970781700,8.61178173828125,-0.41875171661376953,-0.09886559098958969,0.16512317955493927
1772534473980798000,8.6217978515625,-0.4263249635696411,-0.12090218812227249,0.12450437992811203
1772534473990815000,8.63181494140625,-0.4391176998615265,-0.13593626022338867,0.07700716704130173
1772534474000831000,8.6418310546875,-0.4579406678676605,-0.1490587294101715,0.026273149996995926
1772534474010847700,8.65184765625,-0.5025296807289124,-0.1696164608001709,-0.01624501682817936
1772534474020864000,8.661864013671876,-0.5663318634033203,-0.194638192653656,-0.03630181401968002
1772534474030881000,8.671881103515625,-0.6248050332069397,-0.17205512523651123,-0.04638800397515297
1772534474040896800,8.681896728515625,-0.6675833463668823,-0.13682974874973297,-0.06588713824748993
1772534474050913800,8.691913818359374,-0.6768050789833069,-0.10809584707021713,-0.10664388537406921
1772534474060930000,8.701929931640626,-0.6699879169464111,-0.055450741201639175,-0.15907379984855652
1772534474070946800,8.71194677734375,-0.6565871834754944,0.011562912724912167,-0.21083234250545502
1772534474080962800,8.721962890625,-0.6446397304534912,0.07082117348909378,-0.2587122619152069
1772534474090978800,8.731978759765624,-0.6982174515724182,0.2700309455394745,-0.33323389291763306
1772534474100996000,8.74199609375,-0.6870012879371643,0.33452045917510986,-0.4479817748069763
1772534474111012000,8.75201220703125,-0.6090359091758728,0.2525070905685425,-0.5596420168876648
1772534474121028900,8.76202880859375,-0.5369718074798584,0.15447984635829926,-0.6119435429573059
1772534474131044900,8.772044921875,-0.4986816942691803,0.08226930350065231,-0.6012381911277771
1772534474141062100,8.782062255859374,-0.48898592591285706,0.019543606787919998,-0.5398144721984863
1772534474151078000,8.792077880859376,-0.48335495591163635,-0.04204358905553818,-0.42607036232948303
1772534474161095000,8.802094970703125,-0.47208496928215027,-0.06368762999773026,-0.2856839597225189
1772534474171111000,8.81211083984375,-0.43350350856781006,-0.060503024607896805,-0.1484224945306778
1772534474181128000,8.8221279296875,-0.37540292739868164,-0.08582302927970886,-0.04090642184019089
1772534474191144000,8.83214404296875,-0.2945525348186493,-0.1105843037366867,0.04885249584913254
1772534474201160000,8.842159912109375,-0.21186432242393494,-0.06602908670902252,0.18283000588417053
1772534474211177000,8.852177001953125,-0.10474798083305359,-0.05504700541496277,0.27989768981933594
1772534474221193000,8.86219287109375,-0.014879613183438778,-0.03238190710544586,0.3365601897239685
1772534474231210000,8.8722099609375,0.041438519954681396,-0.07472749799489975,0.2714701294898987
1772534474241226000,8.88222607421875,0.06115070730447769,-0.1297856867313385,0.13275671005249023
1772534474251242800,8.89224267578125,0.06256218254566193,-0.21132555603981018,-0.06353263556957245
1772534474261258800,8.9022587890625,0.07575201988220215,-0.2623400092124939,-0.18009281158447266
1772534474271276000,8.912276123046874,0.0915035530924797,-0.4340182840824127,-0.22892558574676514
1772534474281292000,8.9222919921875,0.09161646664142609,-0.5836501121520996,-0.19341419637203217
1772534474291308800,8.932308837890625,0.08138087391853333,-0.6729597449302673,-0.07857896387577057
1772534474301324800,8.94232470703125,0.08472154289484024,-0.63271164894104,0.06328442692756653
1772534474311342000,8.952342041015624,0.09532997757196426,-0.5099151730537415,0.19865690171718597
1772534474321358000,8.962358154296876,0.11102638393640518,-0.43519461154937744,0.28636306524276733
1772534474331373800,8.972373779296875,0.1282578408718109,-0.40669533610343933,0.2905103862285614
1772534474341390800,8.982390869140625,0.1435350626707077,-0.40441805124282837,0.20991088449954987
1772534474351406800,8.99240673828125,0.1677676886320114,-0.40834754705429077,0.053404901176691055
1772534474361424000,9.002423828125,0.18078495562076569,-0.4082213044166565,-0.14684750139713287
1772534474371439900,9.01243994140625,0.1633492410182953,-0.444862961769104,-0.3591325879096985
1772534474381457000,9.022456787109375,0.10615520179271698,-0.4937295615673065,-0.5327456593513489
1772534474391473000,9.032472900390625,0.02840500883758068,-0.39361679553985596,-0.6104173064231873
1772534474401490000,9.042489990234374,-0.019416840746998787,-0.20976734161376953,-0.567627489566803
1772534474411506000,9.052505859375,0.008472580462694168,-0.04178180173039436,-0.4413236081600189
1772534474421523000,9.06252294921875,0.10766281187534332,0.15016819536685944,-0.2722514867782593
1772534474431539000,9.0725390625,0.2575550973415375,0.3458245098590851,-0.10449844598770142
1772534474441555000,9.082554931640624,0.4016105532646179,0.5126600861549377,0.03267166018486023
1772534474451572000,9.092572021484376,0.5098078846931458,0.593697726726532,0.11705019325017929
1772534474461588000,9.102587890625,0.5661214590072632,0.5887833833694458,0.12682053446769714
1772534474471604700,9.112604736328125,0.5949469804763794,0.5119035243988037,0.08248075842857361
1772534474481621000,9.12262109375,0.6239094138145447,0.36529701948165894,0.00589650496840477
1772534474491638000,9.132637939453126,0.6639785170555115,0.15812838077545166,-0.08325840532779694
1772534474501654000,9.142654052734375,0.7034713625907898,-0.09668713063001633,-0.19346347451210022
1772534474511670800,9.1526708984375,0.7656958103179932,-0.40792569518089294,-0.3103967607021332
1772534474521687000,9.16268701171875,0.8371356725692749,-0.7228420972824097,-0.38499802350997925
1772534474531704000,9.1727041015625,0.8864209055900574,-0.8668943643569946,-0.3758849501609802
1772534474541720000,9.182719970703126,0.9037402272224426,-0.8579453229904175,-0.28939586877822876
1772534474551736000,9.192736083984375,0.8773384690284729,-0.7282837629318237,-0.14452309906482697
1772534474561753300,9.20275341796875,0.8301723003387451,-0.5217185616493225,0.002027997048571706
1772534474571769300,9.212769287109374,0.7827273011207581,-0.26424816250801086,0.10305554419755936
1772534474581786000,9.2227861328125,0.7495371103286743,-0.00222001108340919,0.16191619634628296
1772534474591802000,9.232802001953125,0.7365246415138245,0.21755681931972504,0.18863676488399506
1772534474601819400,9.2428193359375,0.7242775559425354,0.3277786672115326,0.1977599561214447
1772534474611835100,9.252835205078124,0.689270555973053,0.38757702708244324,0.17903073132038116
1772534474621852200,9.26285205078125,0.6343694925308228,0.40207287669181824,0.1406165063381195
1772534474631868200,9.2728681640625,0.5903261303901672,0.3420729339122772,0.08564619719982147
1772534474641885200,9.28288525390625,0.575478732585907,0.2737162411212921,0.010513360612094402
1772534474651901200,9.292901123046875,0.5984967350959778,0.21645507216453552,-0.06893805414438248
1772534474661917200,9.302917236328126,0.6412314176559448,0.18192000687122345,-0.13809874653816223
1772534474671934200,9.312934326171876,0.6868335008621216,0.13913312554359436,-0.18034367263317108
1772534474682636300,9.32363623046875,0.7256479859352112,0.07913076877593994,-0.1902650147676468
1772534474692593200,9.33359326171875,0.761067807674408,0.0038988678716123104,-0.15673235058784485
1772534474702609200,9.343609130859376,0.7841891050338745,-0.08104798197746277,-0.0939595177769661
1772534474712626200,9.353626220703125,0.7828271389007568,-0.11924570053815842,-0.021403025835752487
1772534474722642200,9.36364208984375,0.7420623898506165,-0.10303637385368347,0.034802719950675964
1772534474732658200,9.373658203125,0.6715565323829651,-0.08880870044231415,0.05082456395030022
1772534474742675000,9.383675048828126,0.5805595517158508,-0.10287338495254517,0.04879869893193245
1772534474752691200,9.393691162109375,0.4774933159351349,-0.09211687743663788,0.0502365380525589
1772534474762708200,9.403708251953125,0.3771914839744568,-0.06001140549778938,0.05276574194431305
1772534474772724200,9.41372412109375,0.29581087827682495,-0.01866023615002632,0.04000866785645485
1772534474782741000,9.423740966796874,0.251423716545105,0.02538605034351349,0.010944526642560959
1772534474792757200,9.43375732421875,0.24343635141849518,0.06711459159851074,-0.02828250452876091
1772534474802774300,9.443774169921875,0.2670583426952362,0.11986967921257019,-0.06975484639406204
1772534474812790300,9.453790283203125,0.293152779340744,0.15600770711898804,-0.11643926054239273
1772534474822807000,9.46380712890625,0.3243860602378845,0.15132960677146912,-0.1825314611196518
1772534474832823300,9.4738232421875,0.34867650270462036,0.13085389137268066,-0.2544304132461548
1772534474842839300,9.48383935546875,0.3627033531665802,0.10487421602010727,-0.3136844336986542
1772534474852856000,9.49385595703125,0.36881905794143677,0.0672815665602684,-0.3468932509422302
1772534474862872000,9.5038720703125,0.35653334856033325,0.03512869402766228,-0.34554407000541687
1772534474872889300,9.513889404296876,0.3404979407787323,-0.01318238116800785,-0.29871824383735657
1772534474882905300,9.5239052734375,0.32255035638809204,-0.062079351395368576,-0.194416344165802
1772534474892922000,9.533922119140625,0.3078947067260742,-0.08715194463729858,-0.05705529823899269
1772534474902938000,9.543938232421874,0.2949589490890503,-0.09021591395139694,0.09175335615873337
1772534474912955100,9.553955078125,0.27460387349128723,-0.05186240002512932,0.2408006340265274
1772534474922971100,9.56397119140625,0.254077285528183,0.019088206812739372,0.349157452583313
1772534474932988200,9.57398828125,0.24572348594665527,0.08976823836565018,0.3789507746696472
1772534474943004200,9.584004150390625,0.2486787885427475,0.12586233019828796,0.3198773264884949
1772534474953020200,9.594020263671876,0.25761687755584717,0.1333838850259781,0.1882340908050537
1772534474963037200,9.604037109375,0.2569681406021118,0.11138058453798294,0.024152474477887154
1772534474973053200,9.61405322265625,0.25118401646614075,0.051117245107889175,-0.11993466317653656
1772534474983070200,9.6240703125,0.24486275017261505,-0.04380633682012558,-0.20147931575775146
1772534474993086200,9.634086181640624,0.22463923692703247,-0.1331053227186203,-0.21921677887439728
1772534475003103200,9.644103271484376,0.18551206588745117,-0.21090903878211975,-0.18191467225551605
1772534475013119200,9.654119140625,0.13223446905612946,-0.30154573917388916,-0.08101548999547958
1772534475023136300,9.66413623046875,0.05758526548743248,-0.33959725499153137,0.06484344601631165
1772534475033152000,9.674152099609374,-0.03804219141602516,-0.31588178873062134,0.21406009793281555
1772534475043169300,9.684169189453126,-0.13323502242565155,-0.2906142473220825,0.3314895033836365
1772534475053185300,9.694185302734375,-0.22682541608810425,-0.27628910541534424,0.38892483711242676
1772534475063201300,9.704201171875,-0.3051769435405731,-0.24990038573741913,0.37885355949401855
1772534475073218000,9.714218017578125,-0.3565421402454376,-0.18139135837554932,0.3038853108882904
1772534475083234000,9.724234130859376,-0.3837343454360962,-0.06951143592596054,0.204426109790802
1772534475093251300,9.734251220703126,-0.37983042001724243,0.06082020699977875,0.10145232081413269
1772534475103267000,9.74426708984375,-0.3609006702899933,0.2014915645122528,0.0076123797334730625
1772534475113284000,9.7542841796875,-0.3427256643772125,0.33470475673675537,-0.06256431341171265
1772534475123300000,9.764300048828124,-0.3249341547489166,0.42795002460479736,-0.10831821709871292
1772534475133317000,9.774317138671876,-0.3062707185745239,0.46992969512939453,-0.13512639701366425
1772534475143333000,9.7843330078125,-0.2760552763938904,0.4536338150501251,-0.1541626751422882
1772534475153350100,9.79435009765625,-0.23071949183940887,0.3912127614021301,-0.16456018388271332
1772534475163366100,9.8043662109375,-0.17527461051940918,0.287958025932312,-0.1706436425447464
1772534475173383200,9.814383056640626,-0.13569551706314087,0.13480281829833984,-0.1929904967546463
1772534475183399200,9.824399169921875,-0.12518134713172913,-0.03154540807008743,-0.24650564789772034
1772534475193415200,9.834415283203125,-0.12887302041053772,-0.16905906796455383,-0.31751111149787903
1772534475203432200,9.84443212890625,-0.13559910655021667,-0.26208940148353577,-0.3811801075935364
1772534475213448000,9.854447998046876,-0.13725292682647705,-0.34331899881362915,-0.4307953417301178
1772534475223465200,9.86446533203125,-0.12315095961093903,-0.41420385241508484,-0.4508867561817169
1772534475233481200,9.874481201171875,-0.09113230556249619,-0.42700672149658203,-0.4069584310054779
1772534475243498000,9.884498046875,-0.05119394510984421,-0.38340306282043457,-0.30614954233169556
1772534475253514000,9.894513916015624,-0.02105947956442833,-0.29237833619117737,-0.16590774059295654
1772534475263531300,9.90453125,-0.025666747242212296,-0.19767072796821594,-0.019218701869249344
1772534475273547300,9.91454736328125,-0.053816359490156174,-0.1565600484609604,0.09617553651332855
1772534475283564000,9.92456396484375,-0.10432320833206177,-0.12231818586587906,0.18694990873336792
1772534475293580000,9.934580078125,-0.15714088082313538,-0.02961541712284088,0.2652897238731384
1772534475303596300,9.94459619140625,-0.21822501718997955,0.1073903739452362,0.3488282859325409
1772534475313613000,9.954613037109375,-0.2980082631111145,0.2519877552986145,0.3997783064842224
1772534475323629000,9.964629150390625,-0.408328652381897,0.34036529064178467,0.39279574155807495
1772534475333646000,9.97464599609375,-0.5162026286125183,0.34026461839675903,0.3363282084465027
1772534475343662300,9.984662353515626,-0.5922774076461792,0.27681055665016174,0.2477504163980484
1772534475353679000,9.99467919921875,-0.6318988800048828,0.22490288317203522,0.154122993350029
1772534475363695000,10.004695068359375,-0.6514022946357727,0.21048825979232788,0.07121239602565765
1772534475373712100,10.014712158203125,-0.6554479002952576,0.22123092412948608,0.006518619135022163
1772534475383728400,10.024728271484374,-0.6483718752861023,0.23019805550575256,-0.032525986433029175
1772534475393745200,10.0347451171875,-0.6392531991004944,0.23134614527225494,-0.05531678348779678
1772534475403761200,10.04476123046875,-0.6261901259422302,0.23767061531543732,-0.07587239146232605
1772534475413777200,10.054777099609375,-0.6081317663192749,0.24717490375041962,-0.09327961504459381
1772534475423794200,10.064794189453124,-0.5865731835365295,0.23834119737148285,-0.1031586080789566
1772534475433810200,10.07481005859375,-0.5701793432235718,0.22420912981033325,-0.09693000465631485
1772534475443827200,10.0848271484375,-0.5639768242835999,0.2318073958158493,-0.08842626959085464
1772534475453843200,10.09484326171875,-0.5602508187294006,0.23005077242851257,-0.10074205696582794
1772534475463860200,10.104860107421874,-0.5245679020881653,0.1937902420759201,-0.1449127197265625
1772534475473876200,10.114876220703126,-0.45383405685424805,0.16471731662750244,-0.21014311909675598
1772534475483893200,10.124893310546875,-0.3627108335494995,0.17771567404270172,-0.2755378484725952
1772534475493909200,10.1349091796875,-0.2814420759677887,0.23175573348999023,-0.32257938385009766
1772534475503926300,10.14492626953125,-0.22790665924549103,0.2907615303993225,-0.3513500392436981
1772534475513942300,10.1549423828125,-0.18819546699523926,0.32062673568725586,-0.36169588565826416
1772534475523958300,10.164958251953125,-0.14439712464809418,0.325576514005661,-0.3441355228424072
1772534475533975000,10.17497509765625,-0.09285110980272293,0.32792752981185913,-0.2957395017147064
1772534475543991800,10.18499169921875,-0.04476694017648697,0.32299163937568665,-0.22114117443561554
1772534475554009000,10.195009033203124,-0.012548282742500305,0.2865907549858093,-0.14545440673828125
1772534475564024800,10.20502490234375,0.0005917543894611299,0.22467519342899323,-0.0869828388094902
1772534475574041900,10.215041748046875,0.005086104851216078,0.18076978623867035,-0.05006023868918419
1772534475584057900,10.225057861328125,0.010061688721179962,0.15795022249221802,-0.03826909139752388
1772534475594075000,10.235074951171875,0.017467407509684563,0.14339284598827362,-0.043536558747291565
1772534475604091000,10.2450908203125,0.04319141432642937,0.12070191651582718,-0.05236067622900009
1772534475614108000,10.25510791015625,0.08300380408763885,0.08019629865884781,-0.05926278978586197
1772534475624124000,10.2651240234375,0.12131337821483612,0.051233626902103424,-0.05814079940319061
1772534475634140000,10.275139892578125,0.150573268532753,0.042696066200733185,-0.05319051817059517
1772534475644157000,10.285156982421874,0.1638200879096985,0.07099588215351105,-0.04632408916950226
1772534475654173000,10.2951728515625,0.1630041003227234,0.1071898341178894,-0.05114654079079628
1772534475664189700,10.305189697265625,0.14865738153457642,0.13488458096981049,-0.060500361025333405
1772534475674206000,10.3152060546875,0.14288152754306793,0.14437128603458405,-0.06368497014045715
1772534475684223000,10.325222900390624,0.15512247383594513,0.1440945863723755,-0.03876310959458351
1772534475694239000,10.335239013671876,0.17152461409568787,0.14500220119953156,0.015740081667900085
1772534475704255700,10.345255859375,0.18422150611877441,0.11273427307605743,0.0727280005812645
1772534475714272000,10.35527197265625,0.19197210669517517,0.014932876452803612,0.09780379384756088
1772534475724289000,10.3652890625,0.20873136818408966,-0.12286333739757538,0.09580589085817337
1772534475734305000,10.375304931640626,0.22483843564987183,-0.24072232842445374,0.06988507509231567
1772534475744320800,10.38532080078125,0.22958685457706451,-0.28709542751312256,0.0232350155711174
1772534475754338000,10.395338134765625,0.21670354902744293,-0.2813318073749542,-0.04934864118695259
1772534475764354000,10.40535400390625,0.19343417882919312,-0.24792218208312988,-0.13886280357837677
1772534475774370800,10.415370849609374,0.18227019906044006,-0.1856154054403305,-0.22005140781402588
1772534475784386800,10.42538671875,0.2023824006319046,-0.09392756223678589,-0.24055269360542297
1772534475794404000,10.435404052734375,0.2333911806344986,0.041009217500686646,-0.1981636881828308
1772534475804420000,10.445420166015625,0.24416659772396088,0.19062161445617676,-0.12231206148862839
1772534475814436900,10.455436767578124,0.22787630558013916,0.31289932131767273,-0.0355774350464344
1772534475824452900,10.465452880859376,0.20900994539260864,0.3878404200077057,0.03279709443449974
1772534475834470100,10.47547021484375,0.21864604949951172,0.4151412844657898,0.05946465954184532
1772534475844486000,10.48548583984375,0.25761982798576355,0.42481252551078796,0.0496533066034317
1772534475854503000,10.4955029296875,0.3158367872238159,0.42124950885772705,0.026698987931013107
1772534475864519000,10.505518798828126,0.36845871806144714,0.39346206188201904,0.0014892396284267306
1772534475874535000,10.515534912109375,0.4119603931903839,0.3350040912628174,-0.019883692264556885
1772534475884552000,10.525552001953125,0.4630211889743805,0.2240418940782547,-0.03994821384549141
1772534475894568000,10.53556787109375,0.5110028386116028,0.07819759845733643,-0.0561562143266201
1772534475904585000,10.5455849609375,0.5485643148422241,-0.08552955090999603,-0.07351469993591309
1772534475914601000,10.55560107421875,0.5694629549980164,-0.21403959393501282,-0.10306007415056229
1772534475924618000,10.565617919921875,0.5744345188140869,-0.25207751989364624,-0.1259414255619049
1772534475934634000,10.575634033203125,0.5798854827880859,-0.22904197871685028,-0.11441019922494888
1772534475944651000,10.585651123046874,0.5853457450866699,-0.15686124563217163,-0.06380214542150497
1772534475954666800,10.595666748046876,0.5827686190605164,-0.045220740139484406,0.016140088438987732
1772534475964684000,10.60568408203125,0.5643510222434998,0.10242410749197006,0.09025905281305313
1772534475974700000,10.615699951171875,0.5306100845336914,0.24710139632225037,0.13204778730869293
1772534475984716000,10.625716064453124,0.5059910416603088,0.3222217261791229,0.1299329698085785
1772534475994732800,10.63573291015625,0.4998742640018463,0.34209954738616943,0.09095946699380875
1772534476004748800,10.645748779296875,0.5059435963630676,0.3573581278324127,0.04369182139635086
1772534476014766000,10.65576611328125,0.5317227244377136,0.3517071604728699,0.0010572749888524413
1772534476024781800,10.66578173828125,0.5705894231796265,0.30388903617858887,-0.02538551762700081
1772534476034798800,10.675798828125,0.6179162263870239,0.20725837349891663,-0.04739521071314812
1772534476044814800,10.68581494140625,0.6737408638000488,0.08060509711503983,-0.05914800986647606
1772534476054831900,10.695831787109375,0.7232553958892822,-0.04272695630788803,-0.05838394910097122
1772534476064848000,10.705847900390625,0.7413066029548645,-0.14241600036621094,-0.042937081307172775
1772534476074865000,10.715864990234374,0.72109055519104,-0.21661566197872162,-0.027812989428639412
1772534476084881000,10.725880859375,0.6667700409889221,-0.2660844027996063,-0.019279155880212784
1772534476094897200,10.735897216796875,0.6108995676040649,-0.30136170983314514,-0.0102004399523139
1772534476104914000,10.745913818359375,0.5742291808128357,-0.317476749420166,-0.004229898564517498
1772534476114930000,10.755929931640624,0.5501270294189453,-0.2937980592250824,-0.011062238365411758
1772534476124947000,10.765947021484376,0.5180468559265137,-0.22294679284095764,-0.03622405230998993
1772534476134962700,10.775962646484375,0.465633749961853,-0.1488315612077713,-0.08123520016670227
1772534476144980000,10.78597998046875,0.4082101285457611,-0.059732306748628616,-0.1329178363084793
1772534476154996000,10.795995849609374,0.35568326711654663,0.047511324286460876,-0.1696460247039795
1772534476165012700,10.8060126953125,0.3167835474014282,0.14557823538780212,-0.19581398367881775
1772534476175028700,10.81602880859375,0.2978564500808716,0.21091702580451965,-0.2107657641172409
1772534476185046000,10.8260458984375,0.29416850209236145,0.2406400442123413,-0.2152678370475769
1772534476195062000,10.83606201171875,0.2964298129081726,0.2516591250896454,-0.23982058465480804
1772534476205077800,10.846077880859376,0.32093408703804016,0.2727905213832855,-0.27649977803230286
1772534476215094800,10.8560947265625,0.3583986163139343,0.2916523516178131,-0.3027132749557495
1772534476225111000,10.866111083984375,0.37649455666542053,0.31435659527778625,-0.3334951400756836
1772534476235127800,10.8761279296875,0.3713306784629822,0.31794628500938416,-0.37016206979751587
1772534476245143800,10.886143798828124,0.35431042313575745,0.2799176573753357,-0.3832578957080841
1772534476255160800,10.896160888671876,0.3411024510860443,0.2014971673488617,-0.36822623014450073
1772534476265177000,10.906177001953125,0.3396771252155304,0.10304488986730576,-0.3329761028289795
1772534476275193900,10.91619384765625,0.3548358380794525,0.03864086791872978,-0.29907113313674927
1772534476285209900,10.9262099609375,0.38483476638793945,0.012582104653120041,-0.27564170956611633
1772534476295227000,10.936226806640626,0.41247785091400146,0.015538745559751987,-0.24258440732955933
1772534476305243100,10.9462431640625,0.3993050456047058,0.11994078755378723,-0.060135774314403534
1772534476315260000,10.956260009765625,0.34257254004478455,0.2475285679101944,0.37412646412849426
1772534476325276000,10.96627587890625,0.2927706241607666,0.026822293177247047,0.7365403175354004
1772534476335292000,10.9762919921875,0.2920584976673126,-0.2308976650238037,0.9037516713142395
1772534476345309000,10.986308837890626,0.33673062920570374,-0.36153316497802734,0.8378046154975891
1772534476355325000,10.996324951171875,0.3359215557575226,-0.32006803154945374,0.6361165046691895
1772534476365342000,11.006342041015625,0.30485737323760986,-0.21983622014522552,0.3640618324279785
1772534476375358000,11.01635791015625,0.2880224585533142,-0.14726987481117249,0.05511758103966713
1772534476385375000,11.026375,0.28327271342277527,-0.11526001244783401,-0.24957095086574554
1772534476395391000,11.036390869140625,0.278585821390152,-0.12756408751010895,-0.4907849133014679
1772534476405408000,11.046407958984375,0.26200711727142334,-0.18493150174617767,-0.6575352549552917
1772534476415423700,11.056423828125,0.2148934006690979,-0.2715257704257965,-0.7308326363563538
1772534476425441000,11.06644091796875,0.13060568273067474,-0.32857975363731384,-0.6626783609390259
1772534476435457000,11.07645703125,0.0206363033503294,-0.3362238109111786,-0.4632968008518219
1772534476445473000,11.08647314453125,-0.10792913287878036,-0.3841862976551056,-0.22312922775745392
