time,seconds_elapsed,z,y,x
1772534674605453000,0.032453125,-0.9990081787109375,-0.093963623046875,-0.0726318359375
1772534674615470000,0.042469970703125,-0.9827423095703125,-0.0709381103515625,-0.07330322265625
1772534674625487000,0.052487060546875,-0.978668212890625,-0.0681610107421875,-0.070892333984375
1772534674635504000,0.062504150390625,-0.9730682373046875,-0.074462890625,-0.0770263671875
1772534674645521200,0.072521240234375,-0.94927978515625,-0.0684967041015625,-0.0928192138671875
1772534674655537200,0.082537109375,-0.9800567626953125,-0.0739288330078125,-0.062591552734375
1772534674665554000,0.092553955078125,-0.969512939453125,-0.076995849609375,-0.0704803466796875
1772534674675571200,0.1025712890625,-0.9790802001953125,-0.08599853515625,-0.0893096923828125
1772534674685588200,0.112588134765625,-1.00848388671875,-0.0986785888671875,-0.096923828125
1772534674695605000,0.12260498046875,-1.016448974609375,-0.1061553955078125,-0.0990142822265625
1772534674705622300,0.132622314453125,-0.9968109130859375,-0.0992279052734375,-0.1033935546875
1772534674715639000,0.14263916015625,-0.9935302734375,-0.0852813720703125,-0.113311767578125
1772534674725655600,0.152655517578125,-1.0052337646484375,-0.072296142578125,-0.11663818359375
1772534674735672600,0.162672607421875,-1.00146484375,-0.0719757080078125,-0.10784912109375
1772534674745689300,0.172689453125,-0.995941162109375,-0.0784912109375,-0.0919952392578125
1772534674755706600,0.18270654296875,-0.9858551025390625,-0.0900115966796875,-0.0868988037109375
1772534674765723400,0.192723388671875,-0.970916748046875,-0.0988006591796875,-0.087554931640625
1772534674775740700,0.20274072265625,-0.96820068359375,-0.09381103515625,-0.081024169921875
1772534674785756700,0.212756591796875,-0.9698486328125,-0.08795166015625,-0.09552001953125
1772534674795773400,0.2227734375,-0.971405029296875,-0.0895233154296875,-0.092926025390625
1772534674805790500,0.23279052734375,-0.9688873291015625,-0.09466552734375,-0.0944671630859375
1772534674815807500,0.242807373046875,-0.981842041015625,-0.1005096435546875,-0.0977020263671875
1772534674825824500,0.252824462890625,-0.9935455322265625,-0.1066436767578125,-0.108856201171875
1772534674835841500,0.262841552734375,-0.9826202392578125,-0.1129150390625,-0.137664794921875
1772534674845858600,0.272858642578125,-0.9503173828125,-0.114166259765625,-0.1087188720703125
1772534674855874600,0.28287451171875,-0.9652862548828125,-0.123504638671875,-0.1201324462890625
1772534674865891600,0.2928916015625,-0.9689178466796875,-0.1114044189453125,-0.12457275390625
1772534674875908600,0.30290869140625,-0.975128173828125,-0.10400390625,-0.1054840087890625
1772534674885925600,0.312925537109375,-0.9922332763671875,-0.1241302490234375,-0.1039276123046875
1772534674895942400,0.3229423828125,-1.0042572021484375,-0.1392059326171875,-0.111480712890625
1772534674905959700,0.332959716796875,-0.9926910400390625,-0.134613037109375,-0.120513916015625
1772534674915975700,0.3429755859375,-0.9647064208984375,-0.11077880859375,-0.13238525390625
1772534674925992400,0.352992431640625,-0.9498291015625,-0.078155517578125,-0.13604736328125
1772534674936009500,0.363009521484375,-0.959075927734375,-0.086151123046875,-0.1489410400390625
1772534674946026500,0.373026611328125,-0.95684814453125,-0.1197509765625,-0.157318115234375
1772534674956043500,0.38304345703125,-0.9537811279296875,-0.1386260986328125,-0.1461944580078125
1772534674966060300,0.393060302734375,-0.9545745849609375,-0.133880615234375,-0.140869140625
1772534674976077600,0.40307763671875,-0.954071044921875,-0.1313934326171875,-0.1490631103515625
1772534674986093600,0.413093505859375,-0.948150634765625,-0.1404266357421875,-0.1560516357421875
1772534674996110300,0.4231103515625,-0.9421234130859375,-0.1455078125,-0.1555938720703125
1772534675006127600,0.433127685546875,-0.947235107421875,-0.1493377685546875,-0.1574554443359375
1772534675016144600,0.44314453125,-0.9620819091796875,-0.156158447265625,-0.1572265625
1772534675026161400,0.453161376953125,-0.9616851806640625,-0.1586761474609375,-0.163787841796875
1772534675036178700,0.4631787109375,-0.949310302734375,-0.157257080078125,-0.1708984375
1772534675046195500,0.473195556640625,-0.94256591796875,-0.1455535888671875,-0.1712188720703125
1772534675056211500,0.48321142578125,-0.957672119140625,-0.1275634765625,-0.14703369140625
1772534675066228700,0.493228759765625,-0.9829864501953125,-0.143524169921875,-0.1268157958984375
1772534675076245500,0.50324560546875,-0.99224853515625,-0.1426239013671875,-0.1174468994140625
1772534675086262500,0.513262451171875,-0.9804840087890625,-0.133148193359375,-0.107421875
1772534675096279600,0.523279541015625,-0.9681854248046875,-0.1286163330078125,-0.110870361328125
1772534675106296600,0.533296630859375,-0.9766082763671875,-0.1239776611328125,-0.129425048828125
1772534675116312600,0.5433125,-0.98260498046875,-0.1194915771484375,-0.1398162841796875
1772534675126329300,0.553329345703125,-0.9790802001953125,-0.1189422607421875,-0.1458587646484375
1772534675136346600,0.5633466796875,-0.9971160888671875,-0.1069793701171875,-0.137786865234375
1772534675146363400,0.57336328125,-1.006134033203125,-0.125213623046875,-0.149505615234375
1772534675156380400,0.58338037109375,-1.013671875,-0.1493072509765625,-0.1633758544921875
1772534675166397700,0.593397705078125,-1.0180206298828125,-0.154693603515625,-0.1638031005859375
1772534675176414500,0.60341455078125,-1.0055999755859375,-0.16180419921875,-0.1690826416015625
1772534675186430500,0.613430419921875,-0.9908905029296875,-0.1730804443359375,-0.1661224365234375
1772534675196447500,0.623447509765625,-1.0092315673828125,-0.1812591552734375,-0.1499481201171875
1772534675206464500,0.633464599609375,-1.00445556640625,-0.1900634765625,-0.1395111083984375
1772534675216481500,0.6434814453125,-0.981048583984375,-0.19061279296875,-0.1440582275390625
1772534675226498600,0.65349853515625,-0.960418701171875,-0.1827392578125,-0.1479034423828125
1772534675236515600,0.663515625,-0.9305419921875,-0.1795654296875,-0.1358642578125
1772534675246531600,0.673531494140625,-0.91534423828125,-0.1897735595703125,-0.113861083984375
1772534675256548400,0.68354833984375,-0.910064697265625,-0.2065582275390625,-0.10418701171875
1772534675266565600,0.693565673828125,-0.902069091796875,-0.2139892578125,-0.101715087890625
1772534675276582400,0.70358251953125,-0.8933563232421875,-0.213531494140625,-0.0988922119140625
1772534675286599400,0.713599365234375,-0.892120361328125,-0.2000732421875,-0.0937957763671875
1772534675296616400,0.723616455078125,-0.9170074462890625,-0.1967620849609375,-0.0990142822265625
1772534675306632400,0.733632568359375,-0.9481964111328125,-0.211883544921875,-0.1121368408203125
1772534675316649500,0.7436494140625,-0.96514892578125,-0.2222747802734375,-0.1302337646484375
1772534675326666500,0.75366650390625,-0.976348876953125,-0.225555419921875,-0.158599853515625
1772534675336683500,0.76368359375,-0.9866485595703125,-0.2188720703125,-0.160247802734375
1772534675346700500,0.773700439453125,-1.00323486328125,-0.217559814453125,-0.1441497802734375
1772534675356717600,0.783717529296875,-1.03289794921875,-0.2235107421875,-0.1304168701171875
1772534675366734600,0.793734619140625,-1.063262939453125,-0.2348480224609375,-0.1198883056640625
1772534675376750600,0.80375048828125,-1.05804443359375,-0.239501953125,-0.1301727294921875
1772534675386767600,0.813767578125,-1.0384674072265625,-0.2312469482421875,-0.146728515625
1772534675396784600,0.82378466796875,-1.00927734375,-0.225860595703125,-0.147308349609375
1772534675406801400,0.833801513671875,-0.94610595703125,-0.2217864990234375,-0.1435394287109375
1772534675416818700,0.843818603515625,-0.940643310546875,-0.230255126953125,-0.1258544921875
1772534675426835500,0.85383544921875,-0.9258880615234375,-0.2216949462890625,-0.092437744140625
1772534675436851500,0.8638515625,-0.917938232421875,-0.2142333984375,-0.081787109375
1772534675446868500,0.873868408203125,-0.931976318359375,-0.206298828125,-0.093719482421875
1772534675456885500,0.883885498046875,-0.946807861328125,-0.196441650390625,-0.1049957275390625
1772534675466902500,0.893902587890625,-0.9757232666015625,-0.1855926513671875,-0.096099853515625
1772534675476919300,0.903919189453125,-0.9994049072265625,-0.1688995361328125,-0.0782012939453125
1772534675486936600,0.9139365234375,-1.020355224609375,-0.1580047607421875,-0.0795745849609375
1772534675496953600,0.92395361328125,-1.035888671875,-0.1588897705078125,-0.09197998046875
1772534675506969300,0.93396923828125,-1.041839599609375,-0.1711273193359375,-0.113128662109375
1772534675516986600,0.943986572265625,-1.060089111328125,-0.1778717041015625,-0.1379547119140625
1772534675527003600,0.954003662109375,-1.0526580810546875,-0.186553955078125,-0.1574554443359375
1772534675537020400,0.9640205078125,-1.031890869140625,-0.1837158203125,-0.1764373779296875
1772534675547037700,0.97403759765625,-1.0298614501953125,-0.1833648681640625,-0.188873291015625
1772534675557054500,0.984054443359375,-1.013336181640625,-0.1927490234375,-0.1872100830078125
1772534675567070500,0.994070556640625,-0.99566650390625,-0.1954498291015625,-0.186126708984375
1772534675577087500,1.00408740234375,-0.9869232177734375,-0.179443359375,-0.19195556640625
1772534675587104500,1.0141044921875,-0.9870147705078125,-0.172027587890625,-0.1954345703125
1772534675597121500,1.02412158203125,-0.9980010986328125,-0.1767425537109375,-0.2004547119140625
1772534675607138300,1.03413818359375,-0.9906005859375,-0.184814453125,-0.2226715087890625
1772534675617155600,1.044155517578125,-0.988250732421875,-0.1806640625,-0.238311767578125
1772534675627171600,1.054171630859375,-1.0016021728515625,-0.18017578125,-0.2439727783203125
1772534675637188400,1.064188232421875,-1.021270751953125,-0.1864776611328125,-0.2443084716796875
1772534675647205600,1.07420556640625,-1.026336669921875,-0.1973876953125,-0.2490081787109375
1772534675657222400,1.084222412109375,-1.02520751953125,-0.1930694580078125,-0.25616455078125
1772534675667239400,1.094239501953125,-1.0534820556640625,-0.19451904296875,-0.2652130126953125
1772534675677256700,1.104256591796875,-1.062652587890625,-0.2124176025390625,-0.259857177734375
1772534675687273500,1.1142734375,-1.079071044921875,-0.2155914306640625,-0.2495269775390625
1772534675697289500,1.12428955078125,-1.0973358154296875,-0.2055816650390625,-0.2502899169921875
1772534675707306500,1.134306396484375,-1.100189208984375,-0.1953887939453125,-0.2410125732421875
1772534675717323500,1.144323486328125,-1.0980682373046875,-0.183349609375,-0.2213592529296875
1772534675727340800,1.1543408203125,-1.0870819091796875,-0.172637939453125,-0.1999664306640625
1772534675737357600,1.164357666015625,-1.0767669677734375,-0.1535797119140625,-0.188018798828125
1772534675747374800,1.174374755859375,-1.0653533935546875,-0.1359710693359375,-0.1979217529296875
1772534675757390800,1.184390869140625,-1.041748046875,-0.1335601806640625,-0.2069244384765625
1772534675767407600,1.19440771484375,-1.022857666015625,-0.1363983154296875,-0.209228515625
1772534675777425000,1.2044248046875,-0.9993133544921875,-0.1370697021484375,-0.2152557373046875
1772534675787441700,1.214441650390625,-0.9799652099609375,-0.1319732666015625,-0.2205047607421875
1772534675797458700,1.224458740234375,-0.9748687744140625,-0.125946044921875,-0.218353271484375
1772534675807475700,1.234475830078125,-0.99615478515625,-0.1240234375,-0.1979827880859375
1772534675817491700,1.24449169921875,-1.0270843505859375,-0.1266021728515625,-0.1690826416015625
1772534675827508700,1.2545087890625,-1.0541839599609375,-0.123565673828125,-0.152313232421875
1772534675837525500,1.264525390625,-1.060943603515625,-0.1194610595703125,-0.1432952880859375
1772534675847542800,1.274542724609375,-1.0609283447265625,-0.122283935546875,-0.13909912109375
1772534675857559800,1.284559814453125,-1.047882080078125,-0.12762451171875,-0.1476593017578125
1772534675867576600,1.29457666015625,-1.0414886474609375,-0.1302032470703125,-0.1517181396484375
1772534675877592800,1.3045927734375,-1.0218963623046875,-0.131591796875,-0.1510009765625
1772534675887609600,1.314609619140625,-1.0048828125,-0.1304931640625,-0.16607666015625
1772534675897626600,1.324626708984375,-0.976837158203125,-0.1363983154296875,-0.1820831298828125
1772534675907644000,1.334643798828125,-0.955596923828125,-0.138458251953125,-0.181793212890625
1772534675917660700,1.34466064453125,-0.9322662353515625,-0.13018798828125,-0.1742095947265625
1772534675927677700,1.354677734375,-0.9126129150390625,-0.1257476806640625,-0.1644287109375
1772534675937694700,1.36469482421875,-0.8954620361328125,-0.121368408203125,-0.1567230224609375
1772534675947710700,1.374710693359375,-0.8818359375,-0.1141204833984375,-0.15216064453125
1772534675957727700,1.384727783203125,-0.8667144775390625,-0.1103515625,-0.1458892822265625
1772534675967744800,1.394744873046875,-0.8561859130859375,-0.1188201904296875,-0.145050048828125
1772534675977761800,1.40476171875,-0.8523406982421875,-0.1381683349609375,-0.15924072265625
1772534675987778600,1.414778564453125,-0.85797119140625,-0.1537322998046875,-0.1735687255859375
1772534675997795800,1.4247958984375,-0.871978759765625,-0.161407470703125,-0.184967041015625
1772534676007811800,1.434811767578125,-0.8887481689453125,-0.173583984375,-0.1949615478515625
1772534676017828600,1.44482861328125,-0.9051055908203125,-0.1783905029296875,-0.20184326171875
1772534676027845600,1.454845703125,-0.9074859619140625,-0.1827850341796875,-0.2116241455078125
1772534676037862700,1.464862548828125,-0.896331787109375,-0.195068359375,-0.2257080078125
1772534676047879700,1.474879638671875,-0.8881072998046875,-0.2108001708984375,-0.2368316650390625
1772534676057896700,1.484896728515625,-0.8904876708984375,-0.2266693115234375,-0.2324066162109375
1772534676067912700,1.49491259765625,-0.889617919921875,-0.23748779296875,-0.2238616943359375
1772534676077929700,1.5049296875,-0.907073974609375,-0.2437744140625,-0.216156005859375
1772534676087946800,1.51494677734375,-0.9222412109375,-0.2454681396484375,-0.1950836181640625
1772534676097963800,1.5249638671875,-0.9369964599609375,-0.247711181640625,-0.1735992431640625
1772534676107980800,1.534980712890625,-0.9502716064453125,-0.2459259033203125,-0.167327880859375
1772534676117997600,1.54499755859375,-0.9472198486328125,-0.2476654052734375,-0.1734161376953125
1772534676128013600,1.555013671875,-0.939605712890625,-0.2509765625,-0.1750946044921875
1772534676138030800,1.56503076171875,-0.920257568359375,-0.24755859375,-0.170928955078125
1772534676148047600,1.575047607421875,-0.893768310546875,-0.241973876953125,-0.16094970703125
1772534676158064600,1.585064697265625,-0.876495361328125,-0.238067626953125,-0.1488189697265625
1772534676168081700,1.59508154296875,-0.858673095703125,-0.2308502197265625,-0.1326446533203125
1772534676178098700,1.6050986328125,-0.8509521484375,-0.2238006591796875,-0.1190338134765625
1772534676188114700,1.61511474609375,-0.8580169677734375,-0.2209625244140625,-0.1073150634765625
1772534676198131700,1.625131591796875,-0.8623046875,-0.2288818359375,-0.1045074462890625
1772534676208148700,1.635148681640625,-0.854339599609375,-0.237457275390625,-0.1108856201171875
1772534676218165800,1.645165771484375,-0.8451690673828125,-0.2438201904296875,-0.1159515380859375
1772534676228182800,1.655182861328125,-0.8347930908203125,-0.248931884765625,-0.1193695068359375
1772534676238199800,1.66519970703125,-0.83331298828125,-0.25927734375,-0.1225128173828125
1772534676248216600,1.675216552734375,-0.828033447265625,-0.27532958984375,-0.127471923828125
1772534676258232800,1.68523291015625,-0.818603515625,-0.2861480712890625,-0.1442108154296875
1772534676268249900,1.695249755859375,-0.8078155517578125,-0.2957763671875,-0.171051025390625
1772534676278266600,1.7052666015625,-0.8145751953125,-0.31036376953125,-0.196441650390625
1772534676288284000,1.715283935546875,-0.8109893798828125,-0.330078125,-0.211669921875
1772534676298300700,1.72530078125,-0.8148956298828125,-0.33990478515625,-0.2224273681640625
1772534676308317700,1.735317626953125,-0.82891845703125,-0.346160888671875,-0.2150726318359375
1772534676318333700,1.745333740234375,-0.8507232666015625,-0.351226806640625,-0.2028045654296875
1772534676328350700,1.755350830078125,-0.86053466796875,-0.353057861328125,-0.19830322265625
1772534676338367700,1.76536767578125,-0.87030029296875,-0.3435211181640625,-0.1979522705078125
1772534676348384500,1.775384521484375,-0.8811187744140625,-0.3334503173828125,-0.1946563720703125
1772534676358401800,1.78540185546875,-0.9030303955078125,-0.329254150390625,-0.1925506591796875
1772534676368418800,1.795418701171875,-0.92535400390625,-0.3324737548828125,-0.190460205078125
1772534676378434600,1.8054345703125,-0.94219970703125,-0.33203125,-0.1890106201171875
1772534676388451800,1.815451904296875,-0.955902099609375,-0.3260650634765625,-0.19537353515625
1772534676398468600,1.825468505859375,-0.97064208984375,-0.326019287109375,-0.20172119140625
1772534676408485600,1.835485595703125,-0.986846923828125,-0.328826904296875,-0.199493408203125
1772534676418503000,1.8455029296875,-1.00958251953125,-0.3253936767578125,-0.1929931640625
1772534676428519700,1.855519775390625,-1.0355987548828125,-0.324310302734375,-0.174407958984375
1772534676438535700,1.86553564453125,-1.057891845703125,-0.320526123046875,-0.1542205810546875
1772534676448552700,1.875552734375,-1.08905029296875,-0.3133544921875,-0.1425323486328125
1772534676458569700,1.88556982421875,-1.1119232177734375,-0.306365966796875,-0.1528472900390625
1772534676468586800,1.895586669921875,-1.1297607421875,-0.304168701171875,-0.1559600830078125
1772534676478603500,1.905603515625,-1.1453094482421875,-0.300506591796875,-0.1411590576171875
1772534676488620800,1.915620849609375,-1.1319427490234375,-0.295440673828125,-0.121063232421875
1772534676498636800,1.92563671875,-1.109527587890625,-0.2884521484375,-0.1004638671875
1772534676508653600,1.935653564453125,-1.0848541259765625,-0.2791595458984375,-0.077178955078125
1772534676518670800,1.9456708984375,-1.0633544921875,-0.2711639404296875,-0.0601043701171875
1772534676528687600,1.9556875,-1.0647735595703125,-0.2696075439453125,-0.0536346435546875
1772534676538704600,1.96570458984375,-1.086456298828125,-0.27398681640625,-0.0687408447265625
1772534676548721700,1.9757216796875,-1.104583740234375,-0.282745361328125,-0.08856201171875
1772534676558737700,1.985737548828125,-1.116668701171875,-0.285491943359375,-0.089996337890625
1772534676568754700,1.995754638671875,-1.1257781982421875,-0.25909423828125,-0.0795440673828125
1772534676578771700,2.005771728515625,-1.1335906982421875,-0.2443084716796875,-0.05902099609375
1772534676588788700,2.015788818359375,-1.137939453125,-0.2413177490234375,-0.0352783203125
1772534676598805800,2.0258056640625,-1.147735595703125,-0.2276763916015625,-0.0247039794921875
1772534676608822800,2.03582275390625,-1.1529693603515625,-0.203765869140625,-0.02386474609375
1772534676618838800,2.0458388671875,-1.1427764892578125,-0.1907806396484375,-0.0379486083984375
1772534676628855800,2.055855712890625,-1.125274658203125,-0.181060791015625,-0.04425048828125
1772534676638872600,2.06587255859375,-1.1035919189453125,-0.164764404296875,-0.0290679931640625
1772534676648889900,2.075889892578125,-1.071075439453125,-0.1435394287109375,-0.0060577392578125
1772534676658906600,2.08590673828125,-1.0271453857421875,-0.12310791015625,0.0088043212890625
1772534676668923600,2.095923583984375,-0.9759521484375,-0.1034393310546875,0.0196075439453125
1772534676678940000,2.10593994140625,-0.92877197265625,-0.082916259765625,0.02764892578125
1772534676688956700,2.115956787109375,-0.898040771484375,-0.0738677978515625,0.0316009521484375
1772534676698973700,2.1259736328125,-0.871826171875,-0.0767974853515625,0.041259765625
1772534676708990700,2.13599072265625,-0.863037109375,-0.0708770751953125,0.0448455810546875
1772534676719007700,2.1460078125,-0.8688507080078125,-0.0623626708984375,0.0362091064453125
1772534676729024000,2.15602392578125,-0.871551513671875,-0.0565185546875,0.0083160400390625
1772534676739040000,2.1660400390625,-0.880126953125,-0.0624542236328125,-0.01654052734375
1772534676749057000,2.17605712890625,-0.896820068359375,-0.066864013671875,-0.0418548583984375
1772534676759074000,2.186073974609375,-0.9149017333984375,-0.0692901611328125,-0.072784423828125
1772534676769090800,2.1960908203125,-0.9210205078125,-0.0830535888671875,-0.10833740234375
1772534676779108000,2.206108154296875,-0.930938720703125,-0.0950927734375,-0.141021728515625
1772534676789124900,2.216124755859375,-0.93072509765625,-0.105499267578125,-0.1602935791015625
1772534676799140900,2.226140869140625,-0.918914794921875,-0.1150360107421875,-0.1574859619140625
1772534676809158100,2.236158203125,-0.90704345703125,-0.1219482421875,-0.14697265625
1772534676819175000,2.2461748046875,-0.9005889892578125,-0.1222381591796875,-0.132568359375
1772534676829192000,2.25619189453125,-0.902618408203125,-0.1216888427734375,-0.1089019775390625
1772534676839209000,2.266208984375,-0.902587890625,-0.1216583251953125,-0.0874786376953125
1772534676849226000,2.27622607421875,-0.896942138671875,-0.1132659912109375,-0.0669403076171875
1772534676859242000,2.286241943359375,-0.88690185546875,-0.0986480712890625,-0.04180908203125
1772534676869259000,2.296259033203125,-0.8876190185546875,-0.0884552001953125,-0.0239715576171875
1772534676879276000,2.306276123046875,-0.899871826171875,-0.0931549072265625,-0.011688232421875
1772534676889293000,2.31629296875,-0.8895111083984375,-0.1067047119140625,-0.0003814697265625
1772534676899309800,2.326309814453125,-0.8946533203125,-0.115814208984375,0.0043182373046875
1772534676909327000,2.3363271484375,-0.896759033203125,-0.12548828125,0.00225830078125
1772534676919343000,2.346343017578125,-0.903350830078125,-0.1452789306640625,-0.003173828125
1772534676929360000,2.35635986328125,-0.911651611328125,-0.161651611328125,-0.006500244140625
1772534676939377200,2.366377197265625,-0.9207611083984375,-0.175628662109375,-0.0134735107421875
1772534676949394000,2.376393798828125,-0.9481964111328125,-0.186981201171875,-0.021575927734375
1772534676959411000,2.386410888671875,-0.97711181640625,-0.2041015625,-0.034820556640625
1772534676969428000,2.396427978515625,-0.9941558837890625,-0.2184906005859375,-0.055816650390625
1772534676979444000,2.40644384765625,-1.0035858154296875,-0.2250518798828125,-0.0695953369140625
1772534676989461000,2.4164609375,-0.9906005859375,-0.231475830078125,-0.0756988525390625
1772534676999477800,2.426477783203125,-0.9743499755859375,-0.229400634765625,-0.069183349609375
1772534677009495000,2.4364951171875,-0.9527587890625,-0.22784423828125,-0.051300048828125
1772534677019512000,2.446511962890625,-0.93157958984375,-0.224090576171875,-0.032623291015625
1772534677029528800,2.45652880859375,-0.925323486328125,-0.2188720703125,-0.0199127197265625
1772534677039545000,2.466545166015625,-0.9293670654296875,-0.2200164794921875,-0.020263671875
1772534677049561900,2.476561767578125,-0.9467926025390625,-0.2227630615234375,-0.0272674560546875
1772534677059579000,2.486578857421875,-0.968170166015625,-0.222930908203125,-0.0289154052734375
1772534677069596200,2.49659619140625,-1.0084381103515625,-0.2152557373046875,-0.0317535400390625
1772534677079613000,2.506613037109375,-1.0393218994140625,-0.2119293212890625,-0.038604736328125
1772534677089630000,2.5166298828125,-1.0604095458984375,-0.2084197998046875,-0.0460205078125
1772534677099646000,2.52664599609375,-1.081512451171875,-0.2023468017578125,-0.056793212890625
1772534677109663000,2.5366630859375,-1.1109161376953125,-0.189910888671875,-0.0719757080078125
1772534677119680000,2.546679931640625,-1.139434814453125,-0.1865692138671875,-0.091064453125
1772534677129697000,2.556697021484375,-1.1391754150390625,-0.192138671875,-0.105438232421875
1772534677139714000,2.566714111328125,-1.1337890625,-0.1887054443359375,-0.1243438720703125
1772534677149730800,2.576730712890625,-1.125701904296875,-0.1769256591796875,-0.1525421142578125
1772534677159746800,2.586746826171875,-1.10467529296875,-0.1644134521484375,-0.210845947265625
1772534677169764000,2.59676416015625,-1.062835693359375,-0.1664276123046875,-0.2628936767578125
1772534677179780900,2.60678076171875,-1.0411529541015625,-0.1783294677734375,-0.2822723388671875
1772534677189798000,2.6167978515625,-1.04296875,-0.1932830810546875,-0.273223876953125
1772534677199815000,2.62681494140625,-1.039642333984375,-0.21392822265625,-0.251373291015625
1772534677209832000,2.63683203125,-1.0315399169921875,-0.2251434326171875,-0.22845458984375
1772534677219848000,2.646847900390625,-1.051849365234375,-0.2181854248046875,-0.1952362060546875
1772534677229865000,2.656864990234375,-1.0895233154296875,-0.2307281494140625,-0.165191650390625
1772534677239882000,2.666882080078125,-1.125030517578125,-0.236236572265625,-0.1496124267578125
1772534677249899000,2.67689892578125,-1.1474761962890625,-0.2160797119140625,-0.1294097900390625
1772534677259916000,2.686916015625,-1.163909912109375,-0.1950225830078125,-0.09765625
1772534677269933000,2.69693310546875,-1.1617889404296875,-0.1893463134765625,-0.0748138427734375
1772534677279949000,2.706948974609375,-1.15570068359375,-0.1862945556640625,-0.0753631591796875
1772534677289965800,2.7169658203125,-1.14599609375,-0.1808929443359375,-0.07733154296875
1772534677299983000,2.726983154296875,-1.1323394775390625,-0.17279052734375,-0.0784759521484375
1772534677309999900,2.736999755859375,-1.102874755859375,-0.1686553955078125,-0.080963134765625
1772534677320017000,2.747016845703125,-1.0500335693359375,-0.16693115234375,-0.087249755859375
1772534677330033200,2.757033203125,-0.995147705078125,-0.1601409912109375,-0.09954833984375
1772534677340050000,2.7670498046875,-0.94976806640625,-0.15594482421875,-0.10791015625
1772534677350067000,2.77706689453125,-0.914093017578125,-0.1541900634765625,-0.1102142333984375
1772534677360084000,2.787083984375,-0.879547119140625,-0.15203857421875,-0.1120758056640625
1772534677370101000,2.79710107421875,-0.8757171630859375,-0.1458740234375,-0.1138458251953125
1772534677380118000,2.807117919921875,-0.8775787353515625,-0.1461334228515625,-0.1136474609375
1772534677390133800,2.8171337890625,-0.870513916015625,-0.156951904296875,-0.1246337890625
1772534677400151000,2.827151123046875,-0.8711700439453125,-0.165557861328125,-0.1459808349609375
1772534677410167800,2.837167724609375,-0.8681488037109375,-0.17724609375,-0.164794921875
1772534677420184800,2.847184814453125,-0.8820037841796875,-0.1938629150390625,-0.17138671875
1772534677430202000,2.8572021484375,-0.9028778076171875,-0.2114715576171875,-0.166107177734375
1772534677440219000,2.867218994140625,-0.912445068359375,-0.22528076171875,-0.1669464111328125
1772534677450235000,2.87723486328125,-0.923492431640625,-0.235015869140625,-0.17425537109375
1772534677460252200,2.887252197265625,-0.9320831298828125,-0.2471466064453125,-0.1684112548828125
1772534677470269000,2.89726904296875,-0.9351348876953125,-0.25933837890625,-0.1515960693359375
1772534677480286000,2.907285888671875,-0.9409027099609375,-0.252777099609375,-0.1380767822265625
1772534677490303000,2.917302978515625,-0.93682861328125,-0.240081787109375,-0.1231231689453125
1772534677500320000,2.927320068359375,-0.9251708984375,-0.237274169921875,-0.1089935302734375
1772534677510336000,2.9373359375,-0.9107208251953125,-0.2339935302734375,-0.1013641357421875
1772534677520353000,2.94735302734375,-0.891754150390625,-0.233978271484375,-0.0929107666015625
1772534677530370000,2.9573701171875,-0.873870849609375,-0.233367919921875,-0.082305908203125
1772534677540386800,2.96738671875,-0.8988800048828125,-0.222869873046875,-0.07891845703125
1772534677550404000,2.977404052734375,-0.9324493408203125,-0.233428955078125,-0.08270263671875
1772534677560420900,2.9874208984375,-0.92901611328125,-0.2626495361328125,-0.0886077880859375
1772534677570436900,2.997436767578125,-0.9169769287109375,-0.26873779296875,-0.09417724609375
1772534677580454000,3.007453857421875,-0.891143798828125,-0.2611846923828125,-0.0958404541015625
1772534677590471000,3.017470947265625,-0.8485870361328125,-0.2621917724609375,-0.089508056640625
1772534677600488000,3.027488037109375,-0.8128662109375,-0.2708282470703125,-0.08795166015625
1772534677610505000,3.0375048828125,-0.7785186767578125,-0.27764892578125,-0.0994720458984375
1772534677620522000,3.04752197265625,-0.7479400634765625,-0.2812957763671875,-0.109161376953125
1772534677630538000,3.0575380859375,-0.7336883544921875,-0.286529541015625,-0.110931396484375
1772534677640555000,3.067554931640625,-0.7305908203125,-0.2957611083984375,-0.106536865234375
1772534677650572000,3.077572021484375,-0.743011474609375,-0.30487060546875,-0.098419189453125
1772534677660589000,3.087589111328125,-0.7831573486328125,-0.309906005859375,-0.0903167724609375
1772534677670605800,3.097605712890625,-0.848052978515625,-0.317535400390625,-0.0870819091796875
1772534677680621800,3.107621826171875,-0.890594482421875,-0.3351898193359375,-0.0966796875
1772534677690639000,3.11763916015625,-0.8984222412109375,-0.346160888671875,-0.105865478515625
1772534677700655900,3.12765576171875,-0.8929290771484375,-0.351226806640625,-0.1057281494140625
1772534677710673000,3.1376728515625,-0.8865814208984375,-0.3553466796875,-0.0964202880859375
1772534677720690000,3.14768994140625,-0.8841400146484375,-0.35009765625,-0.078887939453125
1772534677730706700,3.157706787109375,-0.8917694091796875,-0.3445587158203125,-0.0651092529296875
1772534677740722700,3.16772265625,-0.91796875,-0.337554931640625,-0.065948486328125
1772534677750739700,3.17773974609375,-0.94818115234375,-0.3299713134765625,-0.0702362060546875
1772534677760756700,3.1877568359375,-0.9935150146484375,-0.3182830810546875,-0.081298828125
1772534677770773800,3.197773681640625,-1.0448455810546875,-0.3076324462890625,-0.0915374755859375
1772534677780790800,3.207790771484375,-1.1035614013671875,-0.302398681640625,-0.096038818359375
1772534677790807800,3.217807861328125,-1.1339874267578125,-0.3075103759765625,-0.0997467041015625
1772534677800823800,3.22782373046875,-1.14471435546875,-0.2929534912109375,-0.1029052734375
1772534677810840600,3.237840576171875,-1.1489105224609375,-0.2722625732421875,-0.103546142578125
1772534677820857900,3.24785791015625,-1.1432037353515625,-0.2607421875,-0.1031646728515625
1772534677830874600,3.25787451171875,-1.121307373046875,-0.251129150390625,-0.1060333251953125
1772534677840891600,3.2678916015625,-1.091400146484375,-0.2301025390625,-0.1102447509765625
1772534677850908700,3.27790869140625,-1.0565338134765625,-0.219940185546875,-0.1013336181640625
1772534677860924700,3.287924560546875,-1.0282135009765625,-0.217987060546875,-0.0853118896484375
1772534677870941700,3.297941650390625,-1.0124359130859375,-0.2085723876953125,-0.072906494140625
1772534677880958700,3.307958740234375,-1.00103759765625,-0.19775390625,-0.066253662109375
1772534677890975700,3.317975830078125,-1.0195465087890625,-0.1868743896484375,-0.06427001953125
1772534677900992500,3.327992431640625,-1.05975341796875,-0.1827392578125,-0.069732666015625
1772534677911008800,3.3380087890625,-1.1016845703125,-0.1903839111328125,-0.080902099609375
1772534677921025800,3.34802587890625,-1.133636474609375,-0.1964111328125,-0.087677001953125
1772534677931042600,3.35804248046875,-1.140655517578125,-0.191009521484375,-0.0926971435546875
1772534677941059800,3.368059814453125,-1.1294403076171875,-0.1850738525390625,-0.0947265625
1772534677951076900,3.378076904296875,-1.0976715087890625,-0.1803131103515625,-0.0890960693359375
1772534677961093600,3.38809375,-1.0623321533203125,-0.1781768798828125,-0.0804901123046875
1772534677971109600,3.398109619140625,-1.0323028564453125,-0.1660003662109375,-0.06494140625
1772534677981127000,3.408126953125,-1.0050048828125,-0.1470794677734375,-0.04327392578125
1772534677991143700,3.418143798828125,-0.995880126953125,-0.1296844482421875,-0.015594482421875
1772534678001160700,3.42816064453125,-1.000152587890625,-0.1203765869140625,0.01983642578125
1772534678011177700,3.438177734375,-1.0028076171875,-0.111328125,0.0426483154296875
1772534678021194800,3.44819482421875,-1.0001220703125,-0.1015777587890625,0.0496063232421875
1772534678031210800,3.458210693359375,-0.99432373046875,-0.09527587890625,0.04754638671875
1772534678041227800,3.468227783203125,-0.9822540283203125,-0.0869903564453125,0.04327392578125
1772534678051244800,3.478244873046875,-0.98358154296875,-0.0842742919921875,0.03076171875
1772534678061261600,3.488261474609375,-0.9671478271484375,-0.1049957275390625,0.013824462890625
1772534678071278800,3.49827880859375,-0.956756591796875,-0.1204376220703125,-0.0087432861328125
1772534678081295600,3.508295654296875,-0.9465789794921875,-0.129852294921875,-0.038665771484375
1772534678091311600,3.5183115234375,-0.9368438720703125,-0.14813232421875,-0.0635833740234375
1772534678101328600,3.52832861328125,-0.9315643310546875,-0.16650390625,-0.081634521484375
1772534678111345700,3.538345703125,-0.9339447021484375,-0.1764373779296875,-0.1024322509765625
1772534678121362700,3.54836279296875,-0.9433441162109375,-0.1864013671875,-0.12176513671875
1772534678131379700,3.558379638671875,-0.9442901611328125,-0.200714111328125,-0.127105712890625
1772534678141395700,3.568395751953125,-0.923828125,-0.2041778564453125,-0.119293212890625
1772534678151412700,3.578412841796875,-0.9196929931640625,-0.1994781494140625,-0.1053009033203125
1772534678161429800,3.5884296875,-0.9132537841796875,-0.2063140869140625,-0.0822296142578125
1772534678171446800,3.59844677734375,-0.893280029296875,-0.2086181640625,-0.056671142578125
1772534678181463800,3.6084638671875,-0.87957763671875,-0.1983642578125,-0.03704833984375
1772534678191480600,3.61848046875,-0.8613128662109375,-0.198822021484375,-0.026031494140625
1772534678201496600,3.62849658203125,-0.8541259765625,-0.2051544189453125,-0.0225830078125
1772534678211513900,3.638513916015625,-0.855377197265625,-0.20977783203125,-0.0179901123046875
1772534678221530600,3.648530517578125,-0.86724853515625,-0.211700439453125,-0.0220947265625
1772534678231548000,3.6585478515625,-0.8749847412109375,-0.2236328125,-0.030670166015625
1772534678241564700,3.668564697265625,-0.879913330078125,-0.2375335693359375,-0.0435638427734375
1772534678251581700,3.678581787109375,-0.89398193359375,-0.24652099609375,-0.0556182861328125
1772534678261597700,3.68859765625,-0.9011383056640625,-0.2524261474609375,-0.0662841796875
1772534678271614700,3.69861474609375,-0.9069061279296875,-0.25531005859375,-0.0764312744140625
1772534678281631700,3.7086318359375,-0.913726806640625,-0.257720947265625,-0.0882110595703125
1772534678291648500,3.7186484375,-0.9305572509765625,-0.25762939453125,-0.1048431396484375
1772534678301665800,3.728665771484375,-0.952606201171875,-0.2630767822265625,-0.1181640625
1772534678311681800,3.738681884765625,-0.9654693603515625,-0.2682037353515625,-0.1290130615234375
1772534678321698600,3.748698486328125,-0.981048583984375,-0.263427734375,-0.135589599609375
1772534678331715800,3.7587158203125,-0.987457275390625,-0.2573089599609375,-0.1413116455078125
1772534678341732900,3.76873291015625,-0.9744110107421875,-0.257293701171875,-0.1444549560546875
1772534678351749600,3.77874951171875,-0.9664764404296875,-0.249603271484375,-0.1420135498046875
1772534678361767000,3.788766845703125,-0.963409423828125,-0.2398681640625,-0.1384429931640625
1772534678371782700,3.79878271484375,-0.97027587890625,-0.233673095703125,-0.1397247314453125
1772534678381799700,3.808799560546875,-0.9778594970703125,-0.2277984619140625,-0.1484375
1772534678391816700,3.818816650390625,-0.99462890625,-0.2177734375,-0.157470703125
1772534678401833700,3.828833740234375,-1.007354736328125,-0.2155609130859375,-0.170135498046875
1772534678411850800,3.838850830078125,-1.0240478515625,-0.219451904296875,-0.1793365478515625
1772534678421867500,3.848867431640625,-1.044342041015625,-0.216278076171875,-0.182037353515625
1772534678431883800,3.8588837890625,-1.0630645751953125,-0.2105712890625,-0.1793212890625
1772534678441900800,3.86890087890625,-1.0887451171875,-0.2146759033203125,-0.1761474609375
1772534678451917600,3.87891748046875,-1.0930938720703125,-0.2269744873046875,-0.181732177734375
1772534678461934800,3.888934814453125,-1.0956268310546875,-0.2261810302734375,-0.18927001953125
1772534678471951600,3.89895166015625,-1.0943145751953125,-0.2139129638671875,-0.191162109375
1772534678481967600,3.908967529296875,-1.0936279296875,-0.2008514404296875,-0.1875762939453125
1772534678491984600,3.918984619140625,-1.0826568603515625,-0.1933746337890625,-0.173187255859375
1772534678502001700,3.929001708984375,-1.074127197265625,-0.1873626708984375,-0.155609130859375
1772534678512018700,3.939018798828125,-1.07373046875,-0.18280029296875,-0.14208984375
1772534678522035700,3.94903564453125,-1.0587615966796875,-0.1792449951171875,-0.1358795166015625
1772534678532052700,3.959052734375,-1.05206298828125,-0.17425537109375,-0.1324005126953125
1772534678542068700,3.96906884765625,-1.0403900146484375,-0.174652099609375,-0.125213623046875
1772534678552085800,3.979085693359375,-1.0474700927734375,-0.181549072265625,-0.1119842529296875
1772534678562102800,3.989102783203125,-1.053192138671875,-0.184326171875,-0.098052978515625
1772534678572119800,3.999119873046875,-1.0657501220703125,-0.177978515625,-0.0992584228515625
1772534678582136600,4.009136474609375,-1.08319091796875,-0.1776275634765625,-0.100799560546875
1772534678592152800,4.01915283203125,-1.095947265625,-0.1759033203125,-0.1038360595703125
1772534678602169900,4.029169921875,-1.1136627197265625,-0.1665496826171875,-0.108489990234375
1772534678612186600,4.0391865234375,-1.11700439453125,-0.167236328125,-0.1098785400390625
1772534678622204000,4.049203857421875,-1.1082305908203125,-0.1666717529296875,-0.1146392822265625
1772534678632220700,4.059220703125,-1.083160400390625,-0.1640625,-0.1288909912109375
1772534678642237700,4.06923779296875,-1.0506439208984375,-0.1636962890625,-0.1424713134765625
1772534678652253700,4.079253662109375,-1.0183563232421875,-0.1582794189453125,-0.1461334228515625
1772534678662270700,4.089270751953125,-0.97393798828125,-0.148223876953125,-0.1501922607421875
1772534678672287700,4.099287841796875,-0.944793701171875,-0.13482666015625,-0.15447998046875
1772534678682304500,4.109304443359375,-0.9248046875,-0.1226806640625,-0.151702880859375
1772534678692321800,4.11932177734375,-0.9149169921875,-0.1083831787109375,-0.148468017578125
1772534678702338800,4.1293388671875,-0.9012451171875,-0.096832275390625,-0.1449737548828125
1772534678712354600,4.1393544921875,-0.889495849609375,-0.0885162353515625,-0.1446380615234375
1772534678722372400,4.149372314453125,-0.8819580078125,-0.085205078125,-0.1511688232421875
1772534678732389000,4.15938916015625,-0.886016845703125,-0.0935821533203125,-0.1541900634765625
1772534678742406100,4.16940625,-0.8912506103515625,-0.099639892578125,-0.1568145751953125
1772534678752423200,4.179423095703125,-0.90155029296875,-0.10693359375,-0.16748046875
1772534678762439200,4.189439208984375,-0.906280517578125,-0.1246795654296875,-0.1805572509765625
1772534678772456200,4.199456298828125,-0.90875244140625,-0.145904541015625,-0.1867523193359375
1772534678782473200,4.20947314453125,-0.9070281982421875,-0.1637725830078125,-0.1939544677734375
1772534678792490200,4.219490234375,-0.904754638671875,-0.178955078125,-0.2052459716796875
1772534678802507300,4.22950732421875,-0.898773193359375,-0.2000579833984375,-0.204315185546875
1772534678812524300,4.239524169921875,-0.8919219970703125,-0.2199249267578125,-0.1886444091796875
1772534678822540300,4.249540283203125,-0.8875274658203125,-0.2295379638671875,-0.1698150634765625
1772534678832557300,4.259557373046875,-0.8828277587890625,-0.238067626953125,-0.1495819091796875
1772534678842574000,4.269573974609375,-0.8741302490234375,-0.2488555908203125,-0.1251068115234375
1772534678852591400,4.27959130859375,-0.867706298828125,-0.2525177001953125,-0.1090850830078125
1772534678862608100,4.289608154296875,-0.8639984130859375,-0.25189208984375,-0.1058807373046875
1772534678872624000,4.2996240234375,-0.8658447265625,-0.25201416015625,-0.1016387939453125
1772534678882641400,4.309641357421875,-0.8544769287109375,-0.25994873046875,-0.0979461669921875
1772534678892658200,4.319658203125,-0.85015869140625,-0.267578125,-0.0940093994140625
1772534678902675200,4.32967529296875,-0.839019775390625,-0.2790679931640625,-0.094268798828125
1772534678912692200,4.339692138671875,-0.8137054443359375,-0.2916412353515625,-0.101593017578125
1772534678922709200,4.349709228515625,-0.797882080078125,-0.3013153076171875,-0.11016845703125
1772534678932725200,4.359725341796875,-0.7791900634765625,-0.313262939453125,-0.11126708984375
1772534678942742000,4.369741943359375,-0.7614898681640625,-0.32611083984375,-0.109130859375
1772534678952759300,4.37975927734375,-0.7610931396484375,-0.3353118896484375,-0.1074066162109375
1772534678962776000,4.389776123046875,-0.7743377685546875,-0.3389129638671875,-0.1075439453125
1772534678972793000,4.39979296875,-0.7884368896484375,-0.3499755859375,-0.1108551025390625
1772534678982809300,4.409809326171875,-0.80523681640625,-0.3622894287109375,-0.1055450439453125
1772534678992826000,4.419826171875,-0.819671630859375,-0.36456298828125,-0.097686767578125
1772534679002843100,4.429843017578125,-0.8388519287109375,-0.3641357421875,-0.09722900390625
1772534679012860400,4.4398603515625,-0.8663482666015625,-0.36962890625,-0.090301513671875
1772534679022877200,4.449877197265625,-0.896209716796875,-0.3815155029296875,-0.0811920166015625
1772534679032894200,4.459894287109375,-0.9105224609375,-0.384735107421875,-0.0906219482421875
1772534679042910200,4.46991015625,-0.9207916259765625,-0.3806610107421875,-0.09625244140625
1772534679052927200,4.47992724609375,-0.9470977783203125,-0.3728179931640625,-0.0897674560546875
1772534679062944300,4.4899443359375,-0.98211669921875,-0.366912841796875,-0.0796966552734375
1772534679072961300,4.499961181640625,-0.997711181640625,-0.368072509765625,-0.0722808837890625
1772534679082978300,4.509978271484375,-1.0154876708984375,-0.359375,-0.069061279296875
1772534679092994300,4.519994384765625,-1.0338897705078125,-0.3436279296875,-0.06494140625
1772534679103011000,4.530010986328125,-1.054473876953125,-0.3279266357421875,-0.0623779296875
1772534679113028400,4.5400283203125,-1.078704833984375,-0.314544677734375,-0.0684051513671875
1772534679123045000,4.550045166015625,-1.102203369140625,-0.3109283447265625,-0.088348388671875
1772534679133062100,4.560062255859375,-1.1195068359375,-0.3118743896484375,-0.114410400390625
1772534679143079200,4.5700791015625,-1.1352081298828125,-0.30975341796875,-0.1318359375
1772534679153095200,4.58009521484375,-1.140838623046875,-0.3023529052734375,-0.141998291015625
1772534679163112200,4.5901123046875,-1.1373291015625,-0.2924041748046875,-0.1398773193359375
1772534679173129200,4.600129150390625,-1.1359405517578125,-0.285125732421875,-0.128265380859375
1772534679183146200,4.610146240234375,-1.124969482421875,-0.275848388671875,-0.126708984375
1772534679193163300,4.620163330078125,-1.112884521484375,-0.260467529296875,-0.133087158203125
1772534679203179000,4.630178955078125,-1.1053466796875,-0.2470245361328125,-0.1288604736328125
1772534679213196300,4.6401962890625,-1.1038360595703125,-0.2374114990234375,-0.119384765625
1772534679223213300,4.65021337890625,-1.1147308349609375,-0.231903076171875,-0.107147216796875
1772534679233230000,4.66022998046875,-1.1365966796875,-0.227386474609375,-0.0987091064453125
1772534679243247400,4.670247314453125,-1.1527099609375,-0.2238616943359375,-0.095428466796875
1772534679253264100,4.68026416015625,-1.1694793701171875,-0.220306396484375,-0.090179443359375
1772534679263280000,4.690280029296875,-1.1766815185546875,-0.2140045166015625,-0.090240478515625
1772534679273297400,4.70029736328125,-1.1677703857421875,-0.2076263427734375,-0.101104736328125
1772534679283314200,4.710314208984375,-1.1491851806640625,-0.1942138671875,-0.1164703369140625
1772534679293331200,4.720331298828125,-1.1224822998046875,-0.1731109619140625,-0.128143310546875
1772534679303348200,4.73034814453125,-1.084014892578125,-0.15130615234375,-0.1340179443359375
1772534679313364200,4.7403642578125,-1.0488433837890625,-0.129852294921875,-0.1347503662109375
1772534679323381200,4.75038134765625,-1.012054443359375,-0.1171722412109375,-0.1420745849609375
1772534679333398000,4.76039794921875,-0.9809417724609375,-0.112274169921875,-0.149810791015625
1772534679343415300,4.770415283203125,-0.9618072509765625,-0.109893798828125,-0.1403350830078125
1772534679353432000,4.78043212890625,-0.9488067626953125,-0.107177734375,-0.126220703125
1772534679363449300,4.790449462890625,-0.931060791015625,-0.1070098876953125,-0.10760498046875
1772534679373465300,4.80046533203125,-0.9210357666015625,-0.0913848876953125,-0.0907135009765625
1772534679383482000,4.810482177734375,-0.91790771484375,-0.0807037353515625,-0.0806732177734375
1772534679393499100,4.8204990234375,-0.92425537109375,-0.074798583984375,-0.0749664306640625
1772534679403516400,4.830516357421875,-0.9320526123046875,-0.0768890380859375,-0.07293701171875
1772534679413533200,4.840533203125,-0.93505859375,-0.078643798828125,-0.080596923828125
1772534679423549200,4.850549072265625,-0.9449920654296875,-0.07952880859375,-0.0947265625
1772534679433566200,4.860566162109375,-0.953216552734375,-0.0946044921875,-0.1097869873046875
1772534679443583200,4.870583251953125,-0.9637451171875,-0.11083984375,-0.1205902099609375
1772534679453600300,4.880600341796875,-0.96484375,-0.1263580322265625,-0.1304931640625
1772534679463617300,4.8906171875,-0.961639404296875,-0.13934326171875,-0.138519287109375
1772534679473633300,4.90063330078125,-0.947906494140625,-0.147857666015625,-0.1369171142578125
1772534679483650300,4.910650390625,-0.9389801025390625,-0.152740478515625,-0.130645751953125
1772534679493667000,4.9206669921875,-0.9241485595703125,-0.159332275390625,-0.1223297119140625
1772534679503684400,4.930684326171875,-0.902313232421875,-0.1605682373046875,-0.1151123046875
1772534679513701000,4.940701171875,-0.88336181640625,-0.159881591796875,-0.1019439697265625
1772534679523718100,4.95071826171875,-0.8657073974609375,-0.1611328125,-0.0882720947265625
1772534679533734400,4.960734375,-0.8521728515625,-0.16302490234375,-0.0796356201171875
1772534679543751200,4.970751220703125,-0.8364410400390625,-0.1639251708984375,-0.0682220458984375
1772534679553768200,4.980768310546875,-0.82305908203125,-0.16339111328125,-0.0620574951171875
1772534679563785200,4.99078515625,-0.8244781494140625,-0.1639862060546875,-0.0633087158203125
1772534679573802200,5.00080224609375,-0.8219451904296875,-0.17840576171875,-0.0707855224609375
1772534679583818200,5.010818359375,-0.8190765380859375,-0.1931915283203125,-0.0853271484375
1772534679593835000,5.0208349609375,-0.8249053955078125,-0.2046966552734375,-0.0960540771484375
1772534679603852300,5.030852294921875,-0.8351898193359375,-0.2133331298828125,-0.1103057861328125
1772534679613869300,5.040869384765625,-0.8468170166015625,-0.226806640625,-0.129608154296875
1772534679623886000,5.050885986328125,-0.8614959716796875,-0.245208740234375,-0.1442413330078125
1772534679633902300,5.06090234375,-0.8765411376953125,-0.2577056884765625,-0.1479644775390625
1772534679643919000,5.070919189453125,-0.8958892822265625,-0.26507568359375,-0.149139404296875
1772534679653936000,5.08093603515625,-0.9063720703125,-0.2736358642578125,-0.1403656005859375
1772534679663953400,5.090953369140625,-0.9233551025390625,-0.277099609375,-0.1240386962890625
1772534679673970200,5.10097021484375,-0.94488525390625,-0.2732391357421875,-0.109954833984375
1772534679683987200,5.1109873046875,-0.9703826904296875,-0.2637939453125,-0.1113128662109375
1772534679694003200,5.121003173828125,-0.9842376708984375,-0.262054443359375,-0.1175079345703125
1772534679704020200,5.131020263671875,-0.9961395263671875,-0.2619781494140625,-0.1194610595703125
1772534679714037200,5.141037353515625,-1.0051422119140625,-0.2542724609375,-0.11309814453125
1772534679724054300,5.15105419921875,-1.00262451171875,-0.2512054443359375,-0.1053009033203125
1772534679734071300,5.1610712890625,-1.0098876953125,-0.2480621337890625,-0.1077728271484375
1772534679744087600,5.171087646484375,-1.026397705078125,-0.246002197265625,-0.1173553466796875
1772534679754104300,5.181104248046875,-1.0662078857421875,-0.2497100830078125,-0.130279541015625
1772534679764121300,5.191121337890625,-1.080780029296875,-0.259552001953125,-0.140350341796875
1772534679774138400,5.201138427734375,-1.0937042236328125,-0.2657012939453125,-0.141998291015625
1772534679784155400,5.2111552734375,-1.0954437255859375,-0.265380859375,-0.1466064453125
1772534679794171400,5.22117138671875,-1.0819549560546875,-0.271026611328125,-0.155609130859375
1772534679804188200,5.231188232421875,-1.0751953125,-0.2743377685546875,-0.1666107177734375
1772534679814205400,5.241205322265625,-1.0755462646484375,-0.264678955078125,-0.1759796142578125
1772534679824222200,5.25122216796875,-1.070465087890625,-0.2555694580078125,-0.1767730712890625
1772534679834239200,5.2612392578125,-1.0643157958984375,-0.2457733154296875,-0.1844024658203125
1772534679844256500,5.271256591796875,-1.045928955078125,-0.2322540283203125,-0.194580078125
1772534679854272300,5.281272216796875,-1.015289306640625,-0.2157135009765625,-0.1949920654296875
1772534679864289300,5.291289306640625,-0.986083984375,-0.2009429931640625,-0.1850128173828125
1772534679874306600,5.301306640625,-0.962188720703125,-0.1925048828125,-0.1743011474609375
1772534679884995600,5.31199560546875,-0.951263427734375,-0.18414306640625,-0.1671600341796875
1772534679894965500,5.321965576171875,-0.96295166015625,-0.1736297607421875,-0.1641387939453125
1772534679904982300,5.331982177734375,-0.997528076171875,-0.1778106689453125,-0.1627044677734375
1772534679914999300,5.341999267578125,-1.02783203125,-0.1935577392578125,-0.1536407470703125
1772534679925016300,5.352016357421875,-1.0686492919921875,-0.20263671875,-0.1474761962890625
1772534679935033300,5.362033447265625,-1.094940185546875,-0.21368408203125,-0.153350830078125
1772534679945049300,5.37204931640625,-1.109161376953125,-0.219085693359375,-0.165618896484375
1772534679955066400,5.38206640625,-1.093902587890625,-0.218536376953125,-0.1811676025390625
1772534679965083400,5.39208349609375,-1.067169189453125,-0.209564208984375,-0.193572998046875
1772534679975100200,5.40210009765625,-1.025421142578125,-0.1977081298828125,-0.201751708984375
1772534679985117400,5.412117431640625,-0.9846038818359375,-0.183868408203125,-0.20513916015625
1772534679995133400,5.422133544921875,-0.9425811767578125,-0.171356201171875,-0.201141357421875
1772534680005150200,5.432150146484375,-0.9133148193359375,-0.1620941162109375,-0.19085693359375
1772534680015167200,5.442167236328125,-0.908935546875,-0.152313232421875,-0.1915130615234375
1772534680025184500,5.4521845703125,-0.91485595703125,-0.157745361328125,-0.1951446533203125
1772534680035201300,5.462201171875,-0.923614501953125,-0.17138671875,-0.1984405517578125
1772534680045217300,5.47221728515625,-0.9430389404296875,-0.1783294677734375,-0.202484130859375
1772534680055234600,5.482234619140625,-0.95721435546875,-0.187652587890625,-0.209197998046875
1772534680065251300,5.492251220703125,-0.9576873779296875,-0.19989013671875,-0.2153778076171875
1772534680075268400,5.502268310546875,-0.9573211669921875,-0.2105560302734375,-0.22161865234375
1772534680085285400,5.512285400390625,-0.9515838623046875,-0.217620849609375,-0.2329559326171875
1772534680095302400,5.522302490234375,-0.9484100341796875,-0.2287750244140625,-0.235809326171875
1772534680105318400,5.532318359375,-0.9485321044921875,-0.2451019287109375,-0.229278564453125
1772534680115335200,5.542335205078125,-0.9403533935546875,-0.2609100341796875,-0.2198333740234375
1772534680125352400,5.5523525390625,-0.9422760009765625,-0.27447509765625,-0.2094879150390625
1772534680135369200,5.562369140625,-0.9521331787109375,-0.2828521728515625,-0.202178955078125
1772534680145386500,5.572386474609375,-0.948486328125,-0.2837982177734375,-0.2091064453125
1772534680155402500,5.582402587890625,-0.9283599853515625,-0.2917938232421875,-0.218414306640625
1772534680165419300,5.592419189453125,-0.9005279541015625,-0.297027587890625,-0.2305145263671875
1772534680175436300,5.602436279296875,-0.861968994140625,-0.2947998046875,-0.24261474609375
1772534680185453300,5.612453369140625,-0.8222503662109375,-0.2945098876953125,-0.2421112060546875
1772534680195470300,5.62247021484375,-0.794158935546875,-0.298614501953125,-0.2309417724609375
1772534680205486300,5.632486328125,-0.770965576171875,-0.308135986328125,-0.2283782958984375
1772534680215503400,5.64250341796875,-0.748199462890625,-0.3156890869140625,-0.233734130859375
1772534680225520400,5.652520263671875,-0.7258758544921875,-0.3204193115234375,-0.23028564453125
1772534680235537400,5.662537353515625,-0.7078094482421875,-0.3236083984375,-0.2125244140625
1772534680245554400,5.672554443359375,-0.7020263671875,-0.319061279296875,-0.192138671875
1772534680255571500,5.682571533203125,-0.7111663818359375,-0.3099517822265625,-0.1705474853515625
1772534680265588200,5.692588134765625,-0.712158203125,-0.312469482421875,-0.144073486328125
1772534680275604200,5.702604248046875,-0.7332763671875,-0.3157196044921875,-0.110565185546875
1772534680285621500,5.71262158203125,-0.77276611328125,-0.3118133544921875,-0.077972412109375
1772534680295638300,5.72263818359375,-0.8187103271484375,-0.3076934814453125,-0.0552978515625
1772534680305655300,5.7326552734375,-0.85101318359375,-0.3202667236328125,-0.0402679443359375
1772534680315672300,5.74267236328125,-0.865447998046875,-0.335296630859375,-0.02874755859375
1772534680325688300,5.752688232421875,-0.87567138671875,-0.342681884765625,-0.0167999267578125
1772534680335705300,5.762705322265625,-0.8868408203125,-0.345916748046875,0.001708984375
1772534680345722400,5.772722412109375,-0.886688232421875,-0.3516693115234375,0.0160064697265625
1772534680355739400,5.782739501953125,-0.89373779296875,-0.356536865234375,0.0241546630859375
1772534680365756200,5.792756103515625,-0.9097747802734375,-0.358856201171875,0.0333251953125
1772534680375773400,5.8027734375,-0.9221343994140625,-0.351593017578125,0.038604736328125
1772534680385789400,5.81278955078125,-0.9498138427734375,-0.3378448486328125,0.031005859375
1772534680395806200,5.82280615234375,-0.9896240234375,-0.3308563232421875,0.0206146240234375
1772534680405823200,5.8328232421875,-1.0400848388671875,-0.3336334228515625,0.0018463134765625
1772534680415840500,5.842840576171875,-1.09454345703125,-0.33734130859375,-0.017852783203125
1772534680425857300,5.852857177734375,-1.1423797607421875,-0.3394927978515625,-0.0357666015625
1772534680435873300,5.862873291015625,-1.1845855712890625,-0.342041015625,-0.0477294921875
1772534680445890300,5.872890380859375,-1.2152252197265625,-0.342681884765625,-0.050689697265625
1772534680455907300,5.8829072265625,-1.2370758056640625,-0.3377227783203125,-0.0581207275390625
1772534680465924400,5.89292431640625,-1.2330169677734375,-0.3292236328125,-0.0813446044921875
1772534680475941400,5.90294140625,-1.2116546630859375,-0.3171539306640625,-0.1059722900390625
1772534680485957400,5.912957275390625,-1.17620849609375,-0.2977142333984375,-0.113983154296875
1772534680495974400,5.922974365234375,-1.131378173828125,-0.280242919921875,-0.10845947265625
1772534680505991400,5.932991455078125,-1.078857421875,-0.2619171142578125,-0.09710693359375
1772534680516008400,5.943008544921875,-1.030364990234375,-0.23663330078125,-0.082427978515625
1772534680526025200,5.953025146484375,-0.991973876953125,-0.21630859375,-0.0728759765625
1772534680536041200,5.963041259765625,-0.9788360595703125,-0.205322265625,-0.061981201171875
1772534680546058500,5.97305859375,-0.983917236328125,-0.2030487060546875,-0.0497283935546875
1772534680556075300,5.9830751953125,-0.999359130859375,-0.202423095703125,-0.0431671142578125
1772534680566092300,5.99309228515625,-1.0219879150390625,-0.196441650390625,-0.0446929931640625
1772534680576109300,6.003109375,-1.059967041015625,-0.18707275390625,-0.0512542724609375
1772534680586126300,6.013126220703125,-1.1014404296875,-0.1837615966796875,-0.0633697509765625
1772534680596142300,6.023142333984375,-1.1260223388671875,-0.187164306640625,-0.0875701904296875
1772534680606159400,6.033159423828125,-1.127960205078125,-0.18341064453125,-0.1141510009765625
1772534680616176400,6.04317626953125,-1.112396240234375,-0.1742401123046875,-0.1444854736328125
1772534680626193400,6.053193359375,-1.071807861328125,-0.1644134521484375,-0.1603851318359375
1772534680636210400,6.06321044921875,-1.033905029296875,-0.15826416015625,-0.1587677001953125
1772534680646226400,6.073226318359375,-0.9980926513671875,-0.150848388671875,-0.1414031982421875
1772534680656243200,6.0832431640625,-0.96405029296875,-0.142364501953125,-0.1175994873046875
1772534680666260200,6.09326025390625,-0.9530792236328125,-0.12811279296875,-0.0975494384765625
1772534680676277500,6.103277587890625,-0.9533843994140625,-0.117462158203125,-0.085662841796875
1772534680686294300,6.113294189453125,-0.9569091796875,-0.1128692626953125,-0.0787811279296875
1772534680696310300,6.123310302734375,-0.9579620361328125,-0.1110076904296875,-0.0770111083984375
1772534680706327600,6.13332763671875,-0.9564666748046875,-0.10882568359375,-0.0758056640625
1772534680716344300,6.14334423828125,-0.95257568359375,-0.1082916259765625,-0.0797119140625
1772534680726361900,6.15336181640625,-0.94952392578125,-0.11627197265625,-0.0869598388671875
1772534680736378600,6.163378662109375,-0.9486083984375,-0.13018798828125,-0.097015380859375
1772534680746394600,6.17339453125,-0.9457244873046875,-0.1408538818359375,-0.113922119140625
1772534680756411600,6.18341162109375,-0.91314697265625,-0.1048126220703125,-0.17034912109375
1772534680766428700,6.1934287109375,-0.9046478271484375,-0.1229095458984375,-0.1906280517578125
1772534680776445700,6.20344580078125,-0.9273223876953125,-0.1984100341796875,-0.1496124267578125
1772534680786462500,6.21346240234375,-0.91375732421875,-0.218536376953125,-0.1396636962890625
1772534680796478700,6.223478759765625,-0.8770294189453125,-0.1978912353515625,-0.1459197998046875
1772534680806495700,6.233495849609375,-0.8671875,-0.1663055419921875,-0.14422607421875
1772534680816512500,6.243512451171875,-0.8743896484375,-0.1463775634765625,-0.13323974609375
1772534680826529800,6.25352978515625,-0.8908843994140625,-0.1490325927734375,-0.114227294921875
1772534680836546600,6.263546630859375,-0.9013824462890625,-0.15264892578125,-0.0933685302734375
1772534680846563600,6.2735634765625,-0.9075469970703125,-0.1425628662109375,-0.0870208740234375
1772534680856579600,6.28357958984375,-0.899627685546875,-0.1308135986328125,-0.086456298828125
1772534680866596600,6.2935966796875,-0.893829345703125,-0.12103271484375,-0.0765838623046875
1772534680876613600,6.303613525390625,-0.9010009765625,-0.117706298828125,-0.0677337646484375
1772534680886630700,6.313630615234375,-0.9014892578125,-0.12908935546875,-0.05975341796875
1772534680896647700,6.323647705078125,-0.8929595947265625,-0.1403961181640625,-0.0578765869140625
1772534680906663700,6.33366357421875,-0.8760986328125,-0.14959716796875,-0.06329345703125
1772534680916680400,6.343680419921875,-0.8636474609375,-0.15972900390625,-0.07354736328125
1772534680926697700,6.35369775390625,-0.8558197021484375,-0.1669921875,-0.0872650146484375
1772534680936714800,6.36371484375,-0.85162353515625,-0.1738128662109375,-0.102203369140625
1772534680946731500,6.3737314453125,-0.8475799560546875,-0.17828369140625,-0.1154327392578125
1772534680956747500,6.38374755859375,-0.8462677001953125,-0.1883544921875,-0.126708984375
1772534680966764800,6.393764892578125,-0.8533935546875,-0.2003021240234375,-0.1337890625
1772534680976781600,6.403781494140625,-0.86346435546875,-0.2059783935546875,-0.1274261474609375
1772534680986798600,6.413798583984375,-0.8701171875,-0.2067413330078125,-0.1164398193359375
1772534680996815600,6.423815673828125,-0.8774566650390625,-0.20184326171875,-0.1108245849609375
1772534681006831600,6.43383154296875,-0.8787994384765625,-0.1956787109375,-0.109039306640625
1772534681016848600,6.4438486328125,-0.8733673095703125,-0.187835693359375,-0.10687255859375
1772534681026865700,6.45386572265625,-0.87548828125,-0.18304443359375,-0.1017913818359375
1772534681036882700,6.463882568359375,-0.8840484619140625,-0.18670654296875,-0.0952606201171875
1772534681046899500,6.4738994140625,-0.8874664306640625,-0.19305419921875,-0.0899505615234375
1772534681056915500,6.48391552734375,-0.8848724365234375,-0.1995849609375,-0.0963287353515625
1772534681066932700,6.4939326171875,-0.8864898681640625,-0.2029571533203125,-0.111083984375
1772534681076949500,6.503949462890625,-0.9116973876953125,-0.210479736328125,-0.1334686279296875
1772534681086966800,6.513966796875,-0.9340972900390625,-0.2152862548828125,-0.157989501953125
1772534681096983600,6.523983642578125,-0.953369140625,-0.220001220703125,-0.17633056640625
1772534681107000600,6.53400048828125,-0.9910736083984375,-0.224151611328125,-0.18243408203125
1772534681117016600,6.5440166015625,-1.0317230224609375,-0.229644775390625,-0.184906005859375
1772534681127033600,6.55403369140625,-1.05450439453125,-0.237274169921875,-0.1867523193359375
1772534681137050600,6.564050537109375,-1.0691070556640625,-0.2407073974609375,-0.1835784912109375
1772534681147067600,6.574067626953125,-1.0763397216796875,-0.23773193359375,-0.188873291015625
1772534681157084700,6.584084716796875,-1.0796966552734375,-0.2262420654296875,-0.1963348388671875
1772534681167100700,6.5941005859375,-1.089630126953125,-0.2001495361328125,-0.228240966796875
1772534681177117700,6.60411767578125,-1.0710906982421875,-0.1725921630859375,-0.2475128173828125
1772534681187134700,6.614134765625,-1.055572509765625,-0.1482696533203125,-0.2593994140625
1772534681197151700,6.62415185546875,-1.0485382080078125,-0.129730224609375,-0.259735107421875
1772534681207168500,6.63416845703125,-1.0467987060546875,-0.1189727783203125,-0.2600860595703125
1772534681217184500,6.6441845703125,-1.04449462890625,-0.110626220703125,-0.264404296875
1772534681227201800,6.654201904296875,-1.0460205078125,-0.1127471923828125,-0.265716552734375
1772534681237218600,6.664218505859375,-1.05706787109375,-0.117431640625,-0.2707672119140625
1772534681247235600,6.674235595703125,-1.082550048828125,-0.123626708984375,-0.2744598388671875
1772534681257252600,6.684252685546875,-1.111480712890625,-0.1359710693359375,-0.271209716796875
1772534681267268600,6.6942685546875,-1.135009765625,-0.15435791015625,-0.276214599609375
1772534681277285600,6.70428564453125,-1.1649932861328125,-0.1710357666015625,-0.277679443359375
1772534681287302700,6.714302734375,-1.1964569091796875,-0.176300048828125,-0.27252197265625
1772534681297319700,6.724319580078125,-1.2039031982421875,-0.1647186279296875,-0.2391510009765625
1772534681307336400,6.73433642578125,-1.213836669921875,-0.1458892822265625,-0.1922607421875
1772534681317352400,6.7443525390625,-1.20208740234375,-0.123870849609375,-0.13775634765625
1772534681327369700,6.75436962890625,-1.1649169921875,-0.104827880859375,-0.0939788818359375
1772534681337386500,6.764386474609375,-1.1182708740234375,-0.0848846435546875,-0.0729522705078125
1772534681347403500,6.774403564453125,-1.0720977783203125,-0.0626220703125,-0.0789794921875
1772534681357420800,6.7844208984375,-1.024139404296875,-0.0420074462890625,-0.1096954345703125
1772534681367436500,6.7944365234375,-0.98187255859375,-0.0305633544921875,-0.130645751953125
1772534681377453600,6.80445361328125,-0.9648284912109375,-0.034271240234375,-0.1275177001953125
1772534681387470800,6.814470947265625,-0.963409423828125,-0.0457763671875,-0.1131439208984375
1772534681397487600,6.824487548828125,-0.97979736328125,-0.061065673828125,-0.104156494140625
1772534681407504600,6.834504638671875,-0.993377685546875,-0.0716094970703125,-0.0975494384765625
1772534681417520600,6.844520751953125,-1.0116424560546875,-0.078582763671875,-0.1010284423828125
1772534681427537700,6.85453759765625,-1.0398101806640625,-0.0842132568359375,-0.14337158203125
1772534681437554700,6.8645546875,-1.0464630126953125,-0.0917816162109375,-0.2086181640625
1772534681447571500,6.874571533203125,-1.0554351806640625,-0.1048431396484375,-0.2680511474609375
1772534681457588700,6.884588623046875,-1.0625152587890625,-0.12542724609375,-0.31591796875
1772534681467604700,6.894604736328125,-1.0366973876953125,-0.14306640625,-0.346038818359375
1772534681477621500,6.90462158203125,-1.0000762939453125,-0.1533355712890625,-0.336639404296875
1772534681487638800,6.914638671875,-0.97344970703125,-0.16888427734375,-0.2910919189453125
1772534681497655600,6.924655517578125,-0.9400634765625,-0.1833953857421875,-0.2227325439453125
1772534681507672600,6.934672607421875,-0.9041595458984375,-0.191009521484375,-0.1578826904296875
1772534681517688800,6.944688720703125,-0.868804931640625,-0.19293212890625,-0.1131591796875
1772534681527705600,6.95470556640625,-0.8404998779296875,-0.1896209716796875,-0.084136962890625
1772534681537722600,6.96472265625,-0.831787109375,-0.1872406005859375,-0.0668487548828125
1772534681547739600,6.97473974609375,-0.8236846923828125,-0.1861724853515625,-0.059112548828125
1772534681557756700,6.984756591796875,-0.80584716796875,-0.19091796875,-0.0581207275390625
1772534681567772700,6.994772705078125,-0.7906341552734375,-0.1939239501953125,-0.0645599365234375
1772534681577789400,7.00478955078125,-0.7899932861328125,-0.1962432861328125,-0.0742950439453125
1772534681587806700,7.014806640625,-0.7879180908203125,-0.198638916015625,-0.0870361328125
1772534681597823700,7.02482373046875,-0.777191162109375,-0.199249267578125,-0.1010894775390625
1772534681607840500,7.034840576171875,-0.7802276611328125,-0.21014404296875,-0.1138153076171875
1772534681617856800,7.044856689453125,-0.7933502197265625,-0.2288665771484375,-0.1194915771484375
1772534681627873500,7.05487353515625,-0.8130950927734375,-0.24481201171875,-0.1325836181640625
1772534681637890600,7.064890625,-0.8233795166015625,-0.2557830810546875,-0.146820068359375
1772534681647907800,7.074907958984375,-0.8262176513671875,-0.264617919921875,-0.1500701904296875
1772534681657924600,7.084924560546875,-0.833770751953125,-0.2738037109375,-0.1562652587890625
1772534681667940600,7.094940673828125,-0.84161376953125,-0.2817840576171875,-0.1616363525390625
1772534681677957600,7.10495751953125,-0.8632049560546875,-0.291015625,-0.164398193359375
1772534681687974700,7.114974609375,-0.8951873779296875,-0.299652099609375,-0.17193603515625
1772534681697991700,7.12499169921875,-0.927337646484375,-0.302734375,-0.1820526123046875
1772534681708008400,7.135008544921875,-0.956573486328125,-0.2928619384765625,-0.188934326171875
1772534681718024700,7.145024658203125,-0.984588623046875,-0.28277587890625,-0.1855926513671875
1772534681728041200,7.155041259765625,-1.01171875,-0.2760467529296875,-0.17816162109375
1772534681738058200,7.165058349609375,-1.0421295166015625,-0.2744598388671875,-0.1628875732421875
1772534681748075300,7.1750751953125,-1.0746612548828125,-0.271636962890625,-0.14501953125
1772534681758092300,7.18509228515625,-1.1125030517578125,-0.2659149169921875,-0.1399078369140625
1772534681768108000,7.19510791015625,-1.1406097412109375,-0.252105712890625,-0.153076171875
1772534681778125300,7.205125244140625,-1.150726318359375,-0.2312164306640625,-0.17510986328125
1772534681788142000,7.21514208984375,-1.158538818359375,-0.21588134765625,-0.1953125
1772534681798159000,7.2251591796875,-1.1648101806640625,-0.2113189697265625,-0.20599365234375
1772534681808176400,7.23517626953125,-1.1639404296875,-0.2202606201171875,-0.208038330078125
1772534681818192100,7.245192138671875,-1.1495208740234375,-0.2412109375,-0.2049560546875
1772534681828209200,7.255209228515625,-1.10418701171875,-0.297637939453125,-0.22601318359375
1772534681838226400,7.265226318359375,-1.087860107421875,-0.33892822265625,-0.2513580322265625
1772534681848243200,7.2752431640625,-1.165496826171875,-0.2996673583984375,-0.2198028564453125
1772534681858260200,7.28526025390625,-1.2780303955078125,-0.2234649658203125,-0.14007568359375
1772534681868276200,7.295276123046875,-1.34307861328125,-0.132110595703125,-0.068572998046875
1772534681878293200,7.305293212890625,-1.3459930419921875,-0.0643768310546875,-0.0269927978515625
1772534681888310300,7.315310302734375,-1.3015289306640625,-0.042449951171875,0.003753662109375
1772534681898327000,7.3253271484375,-1.2475433349609375,-0.0555267333984375,0.0081634521484375
1772534681908344300,7.33534423828125,-1.2052001953125,-0.0680084228515625,-0.0006256103515625
1772534681918360300,7.3453603515625,-1.1624603271484375,-0.051177978515625,-0.0186309814453125
1772534681928377000,7.355377197265625,-1.127899169921875,-0.02362060546875,-0.0446319580078125
1772534681938394400,7.365394287109375,-1.093017578125,-0.0141448974609375,-0.0608062744140625
1772534681948411100,7.3754111328125,-1.04888916015625,-0.039520263671875,-0.05938720703125
1772534681958428200,7.38542822265625,-0.9878692626953125,-0.0895843505859375,-0.0324554443359375
1772534681968444200,7.395444091796875,-0.933868408203125,-0.1230621337890625,-0.0024261474609375
1772534681978461200,7.405461181640625,-0.876190185546875,-0.124114990234375,0.00958251953125
1772534681988478200,7.415478271484375,-0.825042724609375,-0.1085357666015625,0.0095672607421875
1772534681998495000,7.425494873046875,-0.79833984375,-0.0903167724609375,0.0058135986328125
1772534682008512300,7.43551220703125,-0.8031463623046875,-0.07879638671875,-0.0010833740234375
1772534682018528300,7.4455283203125,-0.821929931640625,-0.078033447265625,-0.0077667236328125
1772534682028545000,7.455544921875,-0.8387451171875,-0.0811004638671875,-0.0147705078125
1772534682038562300,7.465562255859375,-0.8610076904296875,-0.0841064453125,-0.029632568359375
1772534682048579300,7.475579345703125,-0.8849334716796875,-0.089813232421875,-0.05157470703125
1772534682058596000,7.48559619140625,-0.8932952880859375,-0.085845947265625,-0.0730743408203125
1772534682068612400,7.4956123046875,-0.8950958251953125,-0.0752410888671875,-0.09661865234375
1772534682078629400,7.50562939453125,-0.907562255859375,-0.0673980712890625,-0.117950439453125
1772534682088646100,7.515646240234375,-0.922332763671875,-0.065887451171875,-0.132049560546875
1772534682098663400,7.525663330078125,-0.900360107421875,-0.0629119873046875,-0.1292572021484375
1772534682108680200,7.53568017578125,-0.88018798828125,-0.0545654296875,-0.119293212890625
1772534682118696200,7.5456962890625,-0.8804473876953125,-0.053680419921875,-0.0958251953125
1772534682128713200,7.555713134765625,-0.87652587890625,-0.05828857421875,-0.0615234375
1772534682138730200,7.565730224609375,-0.865570068359375,-0.063995361328125,-0.0299835205078125
1772534682148747300,7.575747314453125,-0.8544769287109375,-0.0660858154296875,-0.0049591064453125
1772534682158764000,7.585763916015625,-0.8475799560546875,-0.0680999755859375,0.0040283203125
1772534682168780300,7.5957802734375,-0.8435516357421875,-0.071502685546875,0.009918212890625
1772534682178797300,7.60579736328125,-0.84466552734375,-0.073944091796875,0.0135040283203125
1772534682188814000,7.61581396484375,-0.8693389892578125,-0.080352783203125,0.0137481689453125
1772534682198831400,7.625831298828125,-0.8914947509765625,-0.0918121337890625,0.020538330078125
1772534682208848100,7.63584814453125,-0.90631103515625,-0.0989837646484375,0.0243682861328125
1772534682218864000,7.645864013671875,-0.9172821044921875,-0.0991668701171875,0.0174407958984375
1772534682228881200,7.655881103515625,-0.926971435546875,-0.0994720458984375,0.00531005859375
1772534682238898200,7.665898193359375,-0.9349822998046875,-0.099578857421875,-0.005096435546875
1772534682248915200,7.675915283203125,-0.94256591796875,-0.106842041015625,-0.0153656005859375
1772534682258932200,7.68593212890625,-0.9527587890625,-0.1213226318359375,-0.02447509765625
1772534682268948200,7.6959482421875,-0.962890625,-0.135162353515625,-0.0280609130859375
1772534682278965200,7.70596533203125,-0.97650146484375,-0.144561767578125,-0.0328216552734375
1772534682288982300,7.715982177734375,-0.99139404296875,-0.1462860107421875,-0.0410919189453125
1772534682298999300,7.725999267578125,-0.993133544921875,-0.146820068359375,-0.053253173828125
1772534682309016300,7.736016357421875,-1.004119873046875,-0.147613525390625,-0.060394287109375
1772534682319032300,7.7460322265625,-1.0202178955078125,-0.15057373046875,-0.0640106201171875
1772534682329049000,7.756049072265625,-1.0332183837890625,-0.154876708984375,-0.060760498046875
1772534682339066400,7.76606640625,-1.0439300537109375,-0.1577606201171875,-0.05755615234375
1772534682349083100,7.776083251953125,-1.062957763671875,-0.15850830078125,-0.0593109130859375
1772534682359100200,7.78610009765625,-1.0781097412109375,-0.1558685302734375,-0.0703277587890625
1772534682369116400,7.796116455078125,-1.095001220703125,-0.1537017822265625,-0.085693359375
1772534682379133200,7.80613330078125,-1.115753173828125,-0.1565399169921875,-0.0895843505859375
1772534682389150200,7.816150146484375,-1.1402435302734375,-0.159820556640625,-0.0958099365234375
1772534682399167200,7.826167236328125,-1.1632537841796875,-0.1681060791015625,-0.1128997802734375
1772534682409183200,7.836183349609375,-1.1843719482421875,-0.179779052734375,-0.133514404296875
1772534682419200300,7.8462001953125,-1.2064971923828125,-0.189605712890625,-0.150360107421875
1772534682429217000,7.856217041015625,-1.2113800048828125,-0.1954498291015625,-0.1643218994140625
1772534682439234300,7.866234375,-1.2079620361328125,-0.1992950439453125,-0.1696624755859375
1772534682449251000,7.8762509765625,-1.2097320556640625,-0.2002716064453125,-0.1577301025390625
1772534682459267000,7.88626708984375,-1.2045440673828125,-0.197296142578125,-0.12945556640625
1772534682469284400,7.896284423828125,-1.2001190185546875,-0.1929779052734375,-0.101959228515625
1772534682479301000,7.906301025390625,-1.19500732421875,-0.1872711181640625,-0.086700439453125
1772534682489318100,7.916318115234375,-1.17755126953125,-0.178192138671875,-0.084014892578125
1772534682499335200,7.926335205078125,-1.154296875,-0.1656036376953125,-0.094451904296875
1772534682509351200,7.93635107421875,-1.1464996337890625,-0.1637115478515625,-0.10406494140625
1772534682519368200,7.9463681640625,-1.1425628662109375,-0.1721649169921875,-0.11077880859375
1772534682529385200,7.95638525390625,-1.1278839111328125,-0.182281494140625,-0.117462158203125
1772534682539402200,7.96640234375,-1.1128692626953125,-0.1839752197265625,-0.12445068359375
1772534682549419300,7.976419189453125,-1.09674072265625,-0.1768035888671875,-0.1327972412109375
1772534682559435000,7.98643505859375,-1.0856475830078125,-0.154876708984375,-0.1389312744140625
1772534682569452300,7.996452392578125,-1.083404541015625,-0.13739013671875,-0.1488189697265625
1772534682579469300,8.00646923828125,-1.0609283447265625,-0.1180419921875,-0.1550445556640625
1772534682589486000,8.016486083984375,-1.0269012451171875,-0.0946502685546875,-0.1622161865234375
1772534682599503400,8.02650341796875,-1.0002899169921875,-0.068572998046875,-0.16741943359375
1772534682609519400,8.036519287109375,-0.97418212890625,-0.0470733642578125,-0.172149658203125
1772534682619536100,8.0465361328125,-0.9417724609375,-0.032958984375,-0.17022705078125
1772534682629553400,8.056553466796874,-0.9070892333984375,-0.023681640625,-0.1697540283203125
1772534682639570200,8.066570068359376,-0.8826751708984375,-0.0183258056640625,-0.1620941162109375
1772534682649587200,8.076587158203125,-0.871368408203125,-0.0130615234375,-0.155426025390625
1772534682659603200,8.086603271484375,-0.8689117431640625,-0.010650634765625,-0.1520233154296875
1772534682669620200,8.0966201171875,-0.8627777099609375,-0.0177764892578125,-0.151214599609375
1772534682679637200,8.10663720703125,-0.863128662109375,-0.027984619140625,-0.1562042236328125
1772534682689654000,8.116654052734376,-0.8740997314453125,-0.0390625,-0.164276123046875
1772534682699671300,8.12667138671875,-0.874969482421875,-0.05047607421875,-0.1774444580078125
1772534682709687300,8.136687255859375,-0.8773040771484375,-0.0659637451171875,-0.1914825439453125
1772534682719704000,8.1467041015625,-0.8820953369140625,-0.0853271484375,-0.198455810546875
1772534682729721000,8.15672119140625,-0.890899658203125,-0.1078338623046875,-0.1969451904296875
1772534682739738000,8.166738037109376,-0.89874267578125,-0.1250457763671875,-0.1893463134765625
1772534682749754000,8.176754150390625,-0.8990936279296875,-0.13739013671875,-0.1789093017578125
1772534682759771100,8.186771240234375,-0.903839111328125,-0.1439208984375,-0.165863037109375
1772534682769788000,8.196787841796874,-0.9059906005859375,-0.1495208740234375,-0.1501922607421875
1772534682779805200,8.20680517578125,-0.902679443359375,-0.1559906005859375,-0.136627197265625
1772534682789822200,8.216822265625,-0.894775390625,-0.160003662109375,-0.1205596923828125
1772534682799838000,8.226837890625,-0.8777618408203125,-0.1685791015625,-0.1061248779296875
1772534682809855200,8.236855224609375,-0.857879638671875,-0.178680419921875,-0.0934600830078125
1772534682819872300,8.246872314453125,-0.854339599609375,-0.186553955078125,-0.0822601318359375
1772534682829889000,8.256888916015624,-0.8621978759765625,-0.193084716796875,-0.0780181884765625
1772534682839906300,8.26690625,-0.8494720458984375,-0.1932373046875,-0.077239990234375
1772534682849922300,8.27692236328125,-0.837554931640625,-0.1904144287109375,-0.0739898681640625
1772534682859939000,8.28693896484375,-0.8212890625,-0.19091796875,-0.0691680908203125
1772534682869956000,8.2969560546875,-0.8009033203125,-0.197998046875,-0.0705108642578125
1772534682879973000,8.30697314453125,-0.784088134765625,-0.2100982666015625,-0.06982421875
1772534682889990100,8.316990234375,-0.7812652587890625,-0.22900390625,-0.0659027099609375
1772534682900006100,8.327006103515625,-0.789337158203125,-0.2495574951171875,-0.0650482177734375
1772534682910023200,8.337023193359375,-0.794769287109375,-0.2675323486328125,-0.057159423828125
1772534682920040200,8.347040283203125,-0.7957763671875,-0.2829132080078125,-0.06195068359375
1772534682930057000,8.357056884765624,-0.8086395263671875,-0.2968597412109375,-0.0701446533203125
1772534682940074200,8.36707421875,-0.8202667236328125,-0.2971038818359375,-0.0798797607421875
1772534682950090200,8.37709033203125,-0.8318939208984375,-0.3043060302734375,-0.090972900390625
1772534682960107000,8.38710693359375,-0.852874755859375,-0.3143157958984375,-0.0931549072265625
1772534682970124300,8.397124267578125,-0.8729248046875,-0.3168487548828125,-0.0919189453125
1772534682980141000,8.40714111328125,-0.8950958251953125,-0.3124542236328125,-0.0860595703125
1772534682990158000,8.417157958984374,-0.93988037109375,-0.314544677734375,-0.080596923828125
1772534683000174000,8.427174072265625,-0.984771728515625,-0.322998046875,-0.076446533203125
1772534683010191000,8.437191162109375,-1.0308685302734375,-0.3200225830078125,-0.0756683349609375
1772534683020208000,8.4472080078125,-1.0626678466796875,-0.31378173828125,-0.0905914306640625
1772534683030225200,8.45722509765625,-1.0752105712890625,-0.3005218505859375,-0.1070404052734375
1772534683040241200,8.4672412109375,-1.0914459228515625,-0.2914276123046875,-0.1157073974609375
1772534683050258200,8.477258056640625,-1.1158294677734375,-0.2945404052734375,-0.1116790771484375
1772534683060275200,8.487275146484375,-1.130950927734375,-0.294219970703125,-0.11090087890625
1772534683070292200,8.497292236328125,-1.1446533203125,-0.28228759765625,-0.1236419677734375
1772534683080309200,8.507309326171875,-1.1459503173828125,-0.263702392578125,-0.1422576904296875
1772534683090325000,8.517324951171876,-1.1285400390625,-0.237396240234375,-0.156890869140625
1772534683100342000,8.527342041015626,-1.121368408203125,-0.214447021484375,-0.1595306396484375
1772534683110359300,8.537359375,-1.1340484619140625,-0.2073211669921875,-0.1448974609375
1772534683120376000,8.5473759765625,-1.1497344970703125,-0.21331787109375,-0.1157379150390625
1772534683130393000,8.55739306640625,-1.1692657470703125,-0.2178802490234375,-0.10748291015625
1772534683140409300,8.567409423828124,-1.1724853515625,-0.2128143310546875,-0.123138427734375
1772534683150426000,8.577426025390626,-1.16412353515625,-0.201934814453125,-0.1383209228515625
1772534683160443100,8.587443115234375,-1.1641845703125,-0.2014007568359375,-0.139434814453125
1772534683170460200,8.597460205078125,-1.1696319580078125,-0.21380615234375,-0.1264190673828125
1772534683180477200,8.607477294921875,-1.1732025146484375,-0.2275848388671875,-0.10528564453125
1772534683190493200,8.6174931640625,-1.1663055419921875,-0.23651123046875,-0.07806396484375
1772534683200510000,8.627510009765626,-1.1497344970703125,-0.239013671875,-0.0540924072265625
1772534683210527200,8.63752734375,-1.1310272216796875,-0.223297119140625,-0.0377197265625
1772534683220544000,8.6475439453125,-1.114715576171875,-0.196533203125,-0.0275421142578125
1772534683230561000,8.65756103515625,-1.098114013671875,-0.1725006103515625,-0.024169921875
1772534683240577300,8.667577392578124,-1.066650390625,-0.1520538330078125,-0.0211944580078125
1772534683250594000,8.677593994140626,-1.028900146484375,-0.135589599609375,-0.0218505859375
1772534683260611000,8.687611083984375,-0.9948272705078125,-0.122589111328125,-0.0286712646484375
1772534683270628000,8.697628173828125,-0.9699249267578125,-0.1092681884765625,-0.0324249267578125
1772534683280644000,8.70764404296875,-0.941558837890625,-0.0982513427734375,-0.0294036865234375
1772534683290661000,8.7176611328125,-0.913482666015625,-0.0891876220703125,-0.01971435546875
1772534683300678100,8.72767822265625,-0.894256591796875,-0.081878662109375,-0.0086669921875
1772534683310695200,8.737695068359375,-0.88177490234375,-0.0743255615234375,-0.00689697265625
1772534683320712200,8.747712158203125,-0.868499755859375,-0.0662689208984375,-0.016998291015625
1772534683330728000,8.75772802734375,-0.850494384765625,-0.0618438720703125,-0.0413970947265625
1772534683340745200,8.7677451171875,-0.844085693359375,-0.0658721923828125,-0.07440185546875
1772534683350762200,8.77776220703125,-0.8578033447265625,-0.076141357421875,-0.1054534912109375
1772534683360779000,8.787779052734376,-0.874359130859375,-0.0840301513671875,-0.136322021484375
1772534683370796300,8.79779638671875,-0.8912811279296875,-0.093048095703125,-0.1664886474609375
1772534683380812300,8.807812255859375,-0.9181976318359375,-0.1026153564453125,-0.197174072265625
1772534683390829000,8.8178291015625,-0.937286376953125,-0.1085662841796875,-0.2230224609375
1772534683400846300,8.827846435546874,-0.951873779296875,-0.1202850341796875,-0.2368316650390625
1772534683410863000,8.837863037109376,-0.9664154052734375,-0.136688232421875,-0.2477569580078125
1772534683420880100,8.847880126953125,-0.9558868408203125,-0.148345947265625,-0.2524871826171875
1772534683430896000,8.857896240234375,-0.9418792724609375,-0.1492156982421875,-0.2461700439453125
1772534683440913200,8.8679130859375,-0.9454193115234375,-0.1395111083984375,-0.2326202392578125
1772534683450930200,8.87793017578125,-0.94818115234375,-0.1263427734375,-0.2103729248046875
1772534683460947000,8.887947021484376,-0.9286346435546875,-0.1118927001953125,-0.1781768798828125
1772534683470963200,8.897963134765625,-0.9049530029296875,-0.0975341796875,-0.148651123046875
1772534683480980200,8.907980224609375,-0.8968505859375,-0.0855865478515625,-0.121734619140625
1772534683490997000,8.9179970703125,-0.8955230712890625,-0.0758819580078125,-0.1011505126953125
1772534683501014300,8.92801416015625,-0.8943634033203125,-0.0662384033203125,-0.0840606689453125
1772534683511031000,8.938031005859376,-0.9023590087890625,-0.0643157958984375,-0.072357177734375
1772534683521047000,8.948047119140625,-0.9120635986328125,-0.0643310546875,-0.06304931640625
1772534683531064000,8.95806396484375,-0.9172515869140625,-0.06182861328125,-0.0635223388671875
1772534683541081000,8.9680810546875,-0.9083099365234375,-0.0551910400390625,-0.0667724609375
1772534683551098000,8.97809814453125,-0.91156005859375,-0.0474853515625,-0.06964111328125
1772534683561115100,8.988115234375,-0.9226837158203125,-0.043426513671875,-0.0740814208984375
1772534683571131100,8.998131103515625,-0.9210357666015625,-0.048309326171875,-0.0815887451171875
1772534683581148200,9.008148193359375,-0.9076690673828125,-0.0564117431640625,-0.0914459228515625
1772534683591165200,9.018165283203125,-0.9018707275390625,-0.0607452392578125,-0.095947265625
1772534683601182200,9.02818212890625,-0.903472900390625,-0.062042236328125,-0.091339111328125
1772534683611198200,9.0381982421875,-0.8930816650390625,-0.06207275390625,-0.0841522216796875
1772534683621215200,9.04821533203125,-0.871307373046875,-0.065643310546875,-0.0798797607421875
1772534683631232000,9.05823193359375,-0.86865234375,-0.0800018310546875,-0.07757568359375
1772534683641249300,9.068249267578125,-0.8778228759765625,-0.0921173095703125,-0.077392578125
1772534683651266000,9.07826611328125,-0.8845672607421875,-0.0983428955078125,-0.08367919921875
1772534683661282000,9.088281982421876,-0.8957366943359375,-0.0988922119140625,-0.093505859375
1772534683671299300,9.09829931640625,-0.9251556396484375,-0.091400146484375,-0.10260009765625
1772534683681316000,9.108316162109375,-0.96978759765625,-0.080810546875,-0.10736083984375
1772534683691333000,9.1183330078125,-1.003570556640625,-0.0816650390625,-0.10601806640625
1772534683701350100,9.12835009765625,-1.028900146484375,-0.084747314453125,-0.10565185546875
1772534683711366100,9.1383662109375,-1.05615234375,-0.0828094482421875,-0.1069488525390625
1772534683721383200,9.148383056640625,-1.0825653076171875,-0.080657958984375,-0.1056671142578125
1772534683731400400,9.158400390625,-1.1082305908203125,-0.0817108154296875,-0.109283447265625
1772534683741417500,9.16841748046875,-1.15179443359375,-0.0913543701171875,-0.119354248046875
1772534683751433500,9.17843359375,-1.1820068359375,-0.1013946533203125,-0.13153076171875
1772534683761450500,9.188450439453124,-1.198486328125,-0.106964111328125,-0.138885498046875
1772534683771467500,9.198467529296876,-1.2181243896484375,-0.1129302978515625,-0.1510009765625
1772534683781484300,9.208484375,-1.2272186279296875,-0.1231536865234375,-0.161102294921875
1772534683791501600,9.21850146484375,-1.2333984375,-0.1341400146484375,-0.170989990234375
1772534683801517600,9.228517578125,-1.2363433837890625,-0.137847900390625,-0.1896820068359375
1772534683811534300,9.238534423828124,-1.236724853515625,-0.1364898681640625,-0.208587646484375
1772534683821551600,9.248551513671876,-1.2335052490234375,-0.1356964111328125,-0.220611572265625
1772534683831568400,9.258568359375,-1.2317047119140625,-0.1417083740234375,-0.2182769775390625
1772534683841585400,9.26858544921875,-1.2267303466796875,-0.1542816162109375,-0.211761474609375
1772534683851601400,9.278601318359375,-1.207489013671875,-0.159942626953125,-0.2100372314453125
1772534683861618400,9.288618408203124,-1.192169189453125,-0.1653289794921875,-0.195068359375
1772534683871635500,9.298635498046876,-1.201263427734375,-0.1717681884765625,-0.177001953125
1772534683885408500,9.312408447265625,-1.19921875,-0.1822967529296875,-0.18212890625
1772534683895425500,9.322425537109375,-1.19580078125,-0.180633544921875,-0.1919097900390625
1772534683905441500,9.332441650390624,-1.18157958984375,-0.169647216796875,-0.1961669921875
1772534683915458600,9.34245849609375,-1.1554718017578125,-0.1486968994140625,-0.20654296875
1772534683925475300,9.352475341796875,-1.120574951171875,-0.1282501220703125,-0.2172393798828125
1772534683935492600,9.36249267578125,-1.0942840576171875,-0.116668701171875,-0.2230377197265625
1772534683945508600,9.372508544921875,-1.0592498779296875,-0.1087188720703125,-0.23223876953125
1772534683955525400,9.382525390625,-1.0157318115234375,-0.104461669921875,-0.2422943115234375
1772534683965542700,9.392542724609376,-0.983673095703125,-0.09454345703125,-0.2435455322265625
1772534683975559400,9.402559326171875,-0.9559173583984375,-0.081573486328125,-0.2486572265625
1772534683985576400,9.412576416015625,-0.925048828125,-0.0691070556640625,-0.2496490478515625
1772534683995592400,9.422592529296875,-0.9022369384765625,-0.0628662109375,-0.252166748046875
1772534684005609500,9.432609375,-0.8732147216796875,-0.0513763427734375,-0.242462158203125
1772534684015626500,9.44262646484375,-0.8383331298828125,-0.0370025634765625,-0.21636962890625
1772534684025643500,9.4526435546875,-0.8287506103515625,-0.022247314453125,-0.1832427978515625
1772534684035660500,9.46266064453125,-0.8438720703125,-0.011688232421875,-0.169281005859375
1772534684045676500,9.472676513671875,-0.8383331298828125,-0.0029296875,-0.1689605712890625
1772534684055693300,9.482693359375,-0.825653076171875,-0.0057373046875,-0.1788177490234375
1772534684065710600,9.492710693359374,-0.8255767822265625,-0.02020263671875,-0.1922149658203125
1772534684075727400,9.502727294921876,-0.822235107421875,-0.033538818359375,-0.1799163818359375
1772534684085743400,9.512743408203125,-0.84576416015625,-0.0389862060546875,-0.1590118408203125
1772534684095760600,9.5227607421875,-0.8646392822265625,-0.0400390625,-0.147735595703125
1772534684105777400,9.53277734375,-0.8575592041015625,-0.0393829345703125,-0.15740966796875
1772534684115794400,9.54279443359375,-0.8542633056640625,-0.068878173828125,-0.1866302490234375
1772534684125811500,9.5528115234375,-0.83258056640625,-0.0833892822265625,-0.1847991943359375
1772534684135827500,9.562827392578125,-0.835205078125,-0.085235595703125,-0.18115234375
1772534684145844500,9.572844482421875,-0.850494384765625,-0.0976715087890625,-0.191253662109375
1772534684155861500,9.582861572265625,-0.842193603515625,-0.10699462890625,-0.1909942626953125
1772534684165878500,9.59287841796875,-0.8160247802734375,-0.114593505859375,-0.17852783203125
1772534684175895600,9.6028955078125,-0.8066864013671875,-0.11102294921875,-0.1638031005859375
1772534684185911300,9.612911376953125,-0.822265625,-0.102752685546875,-0.149627685546875
1772534684195928600,9.622928466796875,-0.832733154296875,-0.0975341796875,-0.1362457275390625
1772534684205945600,9.632945556640625,-0.8197174072265625,-0.0977935791015625,-0.127044677734375
1772534684215962400,9.64296240234375,-0.8049163818359375,-0.098785400390625,-0.119964599609375
1772534684225978400,9.652978271484375,-0.7934112548828125,-0.105712890625,-0.111053466796875
1772534684235996400,9.662996337890625,-0.7846527099609375,-0.1143035888671875,-0.0955657958984375
1772534684246012400,9.673012451171875,-0.7876129150390625,-0.1287384033203125,-0.0844879150390625
1772534684256029400,9.683029541015625,-0.7876739501953125,-0.148406982421875,-0.0773162841796875
1772534684266046500,9.69304638671875,-0.7826995849609375,-0.163299560546875,-0.074462890625
1772534684276063500,9.7030634765625,-0.794921875,-0.1859130859375,-0.0855865478515625
1772534684286079500,9.71307958984375,-0.8014984130859375,-0.210418701171875,-0.1012115478515625
1772534684296096500,9.723096435546875,-0.80108642578125,-0.2279815673828125,-0.1080780029296875
1772534684306113500,9.733113525390625,-0.803863525390625,-0.23944091796875,-0.112884521484375
1772534684316130300,9.74313037109375,-0.8117523193359375,-0.255889892578125,-0.11761474609375
1772534684326147600,9.753147705078124,-0.827545166015625,-0.273468017578125,-0.1267242431640625
1772534684336163600,9.76316357421875,-0.8461456298828125,-0.281951904296875,-0.130218505859375
1772534684346180400,9.773180419921875,-0.8790740966796875,-0.2841339111328125,-0.139801025390625
1772534684356197400,9.783197265625,-0.9141845703125,-0.2846221923828125,-0.1536865234375
1772534684366214400,9.79321435546875,-0.94635009765625,-0.286651611328125,-0.158660888671875
1772534684376231400,9.8032314453125,-0.992584228515625,-0.2871551513671875,-0.1527557373046875
1772534684386247400,9.813247314453125,-1.056732177734375,-0.2853546142578125,-0.14288330078125
1772534684396264400,9.823264404296875,-1.120361328125,-0.2796173095703125,-0.13287353515625
1772534684406281500,9.833281494140625,-1.156097412109375,-0.2678680419921875,-0.13262939453125
1772534684416298500,9.843298583984375,-1.170440673828125,-0.2517242431640625,-0.1383056640625
1772534684426314200,9.853314208984376,-1.1833953857421875,-0.24066162109375,-0.148834228515625
1772534684436331500,9.86333154296875,-1.1970367431640625,-0.235076904296875,-0.16082763671875
1772534684446348500,9.8733486328125,-1.2177581787109375,-0.2156829833984375,-0.1738739013671875
1772534684456365600,9.883365478515625,-1.2502899169921875,-0.1865081787109375,-0.1892242431640625
1772534684466382600,9.893382568359375,-1.2744903564453125,-0.147674560546875,-0.202117919921875
1772534684476398600,9.903398681640626,-1.2878875732421875,-0.1056365966796875,-0.195587158203125
1772534684486415400,9.913415283203125,-1.291534423828125,-0.08135986328125,-0.168701171875
1772534684496432600,9.9234326171875,-1.2910614013671875,-0.0973358154296875,-0.136871337890625
1772534684506449400,9.933449462890625,-1.27752685546875,-0.1318359375,-0.111724853515625
1772534684516466400,9.943466552734375,-1.2437896728515625,-0.1555633544921875,-0.0987701416015625
1772534684526482700,9.953482666015624,-1.2238616943359375,-0.1618499755859375,-0.088653564453125
1772534684536499500,9.96349951171875,-1.2197418212890625,-0.1567230224609375,-0.07061767578125
1772534684546516500,9.9735166015625,-1.2140655517578125,-0.1389007568359375,-0.0461578369140625
1772534684556533500,9.983533447265625,-1.209075927734375,-0.1238250732421875,-0.02227783203125
1772534684566549500,9.993549560546874,-1.1988983154296875,-0.1175384521484375,-0.0084686279296875
1772534684576566500,10.00356640625,-1.1804351806640625,-0.1077880859375,-0.007598876953125
1772534684586583300,10.013583251953126,-1.1548004150390625,-0.0955657958984375,-0.0285491943359375
1772534684596600600,10.0236005859375,-1.1038360595703125,-0.079620361328125,-0.0587310791015625
1772534684606617300,10.033617431640625,-1.04168701171875,-0.062713623046875,-0.077880859375
1772534684616633300,10.04363330078125,-1.0056304931640625,-0.0549468994140625,-0.0751953125
1772534684626650600,10.053650634765624,-0.9806671142578125,-0.0511474609375,-0.062713623046875
1772534684636667400,10.06366748046875,-0.946929931640625,-0.0360107421875,-0.0479583740234375
1772534684646684400,10.073684326171875,-0.9137420654296875,-0.019317626953125,-0.0339508056640625
1772534684656700400,10.083700439453125,-0.889984130859375,-0.0172576904296875,-0.026611328125
1772534684666717400,10.093717529296875,-0.871490478515625,-0.0248260498046875,-0.029205322265625
1772534684676734500,10.103734375,-0.8457794189453125,-0.038177490234375,-0.02410888671875
1772534684686751500,10.11375146484375,-0.826873779296875,-0.0494232177734375,-0.028167724609375
1772534684696768500,10.1237685546875,-0.83465576171875,-0.0478363037109375,-0.0409088134765625
1772534684706784500,10.133784423828125,-0.862701416015625,-0.040374755859375,-0.0599822998046875
1772534684716801300,10.14380126953125,-0.8941802978515625,-0.031707763671875,-0.079193115234375
1772534684726818600,10.153818603515624,-0.9139862060546875,-0.0248565673828125,-0.0983734130859375
1772534684736835000,10.1638349609375,-0.9326019287109375,-0.020904541015625,-0.1194305419921875
1772534684746851800,10.173851806640625,-0.942962646484375,-0.0207672119140625,-0.139739990234375
1772534684756867800,10.183867919921875,-0.9420623779296875,-0.0286102294921875,-0.1464385986328125
1772534684766885000,10.193885009765625,-0.93682861328125,-0.0424652099609375,-0.1408843994140625
1772534684776902000,10.20390185546875,-0.9381866455078125,-0.054046630859375,-0.131103515625
1772534684786919000,10.2139189453125,-0.9417877197265625,-0.0577545166015625,-0.1209716796875
1772534684796935200,10.22393505859375,-0.9199676513671875,-0.0596771240234375,-0.11126708984375
1772534684806952000,10.233951904296875,-0.889678955078125,-0.0566864013671875,-0.1008453369140625
1772534684816969000,10.243968994140625,-0.871795654296875,-0.0511932373046875,-0.079345703125
1772534684826986000,10.253986083984374,-0.871307373046875,-0.051605224609375,-0.051177978515625
1772534684837003000,10.2640029296875,-0.88250732421875,-0.059967041015625,-0.0323028564453125
1772534684847019000,10.27401904296875,-0.8869171142578125,-0.0635528564453125,-0.0238800048828125
1772534684857035800,10.284035888671875,-0.8975830078125,-0.0523834228515625,-0.0242462158203125
1772534684867053000,10.294052978515625,-0.90936279296875,-0.0416259765625,-0.0270843505859375
1772534684877069800,10.30406982421875,-0.913909912109375,-0.03143310546875,-0.0267486572265625
1772534684887086800,10.3140869140625,-0.8997802734375,-0.0283050537109375,-0.030029296875
1772534684897103000,10.32410302734375,-0.8783721923828125,-0.03387451171875,-0.0315093994140625
1772534684907119900,10.334119873046875,-0.859130859375,-0.045196533203125,-0.0319671630859375
1772534684917137000,10.344136962890625,-0.83929443359375,-0.0541839599609375,-0.0355377197265625
1772534684927154200,10.354154296875,-0.8280181884765625,-0.0705718994140625,-0.0455780029296875
1772534684937170000,10.364169921875,-0.8363189697265625,-0.0885009765625,-0.0569610595703125
1772534684947187000,10.37418701171875,-0.8388519287109375,-0.0943603515625,-0.06072998046875
1772534684957204000,10.384203857421875,-0.8487701416015625,-0.090972900390625,-0.0611419677734375
1772534684967221000,10.394220947265625,-0.8749542236328125,-0.08929443359375,-0.0628204345703125
1772534684977238000,10.404238037109375,-0.905487060546875,-0.0894012451171875,-0.0674896240234375
1772534684987254000,10.41425390625,-0.9480438232421875,-0.09381103515625,-0.077850341796875
1772534684997271000,10.42427099609375,-0.9846954345703125,-0.088226318359375,-0.0853424072265625
1772534685007288000,10.4342880859375,-1.0123138427734375,-0.076171875,-0.0977630615234375
1772534685017304800,10.444304931640625,-1.045654296875,-0.0603790283203125,-0.1044769287109375
1772534685027320800,10.45432080078125,-1.0697479248046875,-0.0402679443359375,-0.098052978515625
1772534685037338000,10.464338134765624,-1.1004180908203125,-0.0302734375,-0.085693359375
1772534685047355000,10.47435498046875,-1.1242828369140625,-0.0338897705078125,-0.09307861328125
1772534685057372000,10.484371826171875,-1.127349853515625,-0.0376129150390625,-0.115966796875
1772534685067389000,10.494388916015625,-1.1214447021484375,-0.037078857421875,-0.1350860595703125
1772534685077405000,10.504405029296874,-1.111297607421875,-0.037506103515625,-0.144500732421875
1772534685087422000,10.514421875,-1.10791015625,-0.03790283203125,-0.1386566162109375
1772534685097439000,10.52443896484375,-1.1064453125,-0.03546142578125,-0.128662109375
1772534685107456000,10.5344560546875,-1.118621826171875,-0.029998779296875,-0.1229248046875
1772534685117472000,10.544471923828125,-1.1569366455078125,-0.0131683349609375,-0.118133544921875
1772534685127488800,10.55448876953125,-1.19549560546875,0.001251220703125,-0.1198883056640625
1772534685137506000,10.564506103515624,-1.203338623046875,0.007110595703125,-0.121612548828125
1772534685147522800,10.574522705078126,-1.21893310546875,-0.003173828125,-0.115142822265625
1772534685157540000,10.5845400390625,-1.21649169921875,-0.016021728515625,-0.1039886474609375
1772534685167556000,10.59455615234375,-1.1851348876953125,-0.022308349609375,-0.09149169921875
1772534685177572900,10.60457275390625,-1.1567840576171875,-0.0323486328125,-0.082000732421875
1772534685187590000,10.61458984375,-1.1302337646484375,-0.05096435546875,-0.0755462646484375
1772534685197607200,10.624607177734376,-1.1072998046875,-0.0553131103515625,-0.0838470458984375
1772534685207624000,10.6346240234375,-1.0904541015625,-0.0422515869140625,-0.1045684814453125
1772534685217640000,10.644639892578125,-1.082855224609375,-0.0303955078125,-0.12371826171875
1772534685227657000,10.654656982421875,-1.084014892578125,-0.025970458984375,-0.1384735107421875
1772534685237674000,10.664674072265624,-1.1039886474609375,-0.03009033203125,-0.133758544921875
1772534685247691000,10.67469091796875,-1.127166748046875,-0.0324859619140625,-0.113800048828125
1772534685257707000,10.68470703125,-1.1254119873046875,-0.0211181640625,-0.1016998291015625
1772534685267724000,10.69472412109375,-1.1181488037109375,0.000762939453125,-0.1019287109375
1772534685277741000,10.704740966796875,-1.1251220703125,0.014617919921875,-0.1074676513671875
1772534685287757800,10.7147578125,-1.112213134765625,0.0202789306640625,-0.1309967041015625
1772534685297775000,10.724775146484374,-1.080108642578125,0.0260467529296875,-0.1584625244140625
1772534685307791000,10.734791015625,-1.0618743896484375,0.027099609375,-0.1770172119140625
1772534685317807900,10.744807861328125,-1.052703857421875,0.020233154296875,-0.171661376953125
1772534685327825200,10.7548251953125,-1.0342254638671875,0.018402099609375,-0.1593170166015625
1772534685337842000,10.764842041015624,-0.99609375,0.0119781494140625,-0.1612091064453125
1772534685347858000,10.77485791015625,-0.9456024169921875,0.0005035400390625,-0.1789703369140625
1772534685357875000,10.784875,-0.900970458984375,-0.00445556640625,-0.2054595947265625
1772534685367892000,10.79489208984375,-0.8906707763671875,-0.0097808837890625,-0.224639892578125
1772534685377909000,10.804908935546875,-0.8998565673828125,-0.0236663818359375,-0.227874755859375
1772534685387925800,10.81492578125,-0.9134979248046875,-0.0372467041015625,-0.2153167724609375
1772534685397942000,10.82494189453125,-0.9359283447265625,-0.0533294677734375,-0.195404052734375
1772534685407959000,10.834958984375,-0.9468994140625,-0.064178466796875,-0.18310546875
1772534685417975800,10.844975830078125,-0.9630126953125,-0.069854736328125,-0.178314208984375
1772534685427993000,10.8549931640625,-0.9892578125,-0.07037353515625,-0.1865234375
1772534685438009000,10.865009033203124,-0.986480712890625,-0.0635986328125,-0.1926116943359375
1772534685448025900,10.87502587890625,-0.969696044921875,-0.06097412109375,-0.185821533203125
1772534685458043000,10.88504296875,-0.97344970703125,-0.078887939453125,-0.169830322265625
1772534685468060000,10.895059814453125,-0.9833984375,-0.1060028076171875,-0.150299072265625
1772534685478077000,10.905076904296875,-0.965576171875,-0.1228179931640625,-0.12982177734375
1772534685488093000,10.915093017578124,-0.9384918212890625,-0.128387451171875,-0.1172637939453125
1772534685498110000,10.92510986328125,-1.00396728515625,-0.1451568603515625,-0.0931549072265625
1772534685508127000,10.935126953125,-0.9876861572265625,-0.16192626953125,-0.0845489501953125
1772534685518144000,10.94514404296875,-0.8868560791015625,-0.1696929931640625,-0.097808837890625
1772534685528159700,10.95515966796875,-0.823944091796875,-0.1735076904296875,-0.108245849609375
1772534685538177000,10.965177001953125,-0.8060455322265625,-0.1739501953125,-0.0952606201171875
1772534685548194000,10.975194091796874,-0.777984619140625,-0.17852783203125,-0.072418212890625
1772534685558210800,10.9852109375,-0.740447998046875,-0.1817169189453125,-0.062286376953125
1772534685568228000,10.99522802734375,-0.7117767333984375,-0.177032470703125,-0.0587158203125
