time,seconds_elapsed,z,y,x
1772571893262659000,0.1086591796875,0.0010652330238372087,0.0021304660476744175,0.0031956990715116262
1772571893322511400,0.168511474609375,0.0031956990715116262,0.0010652330238372087,0.0031956990715116262
1772571893352359700,0.198359619140625,0.0021304660476744175,0.0010652330238372087,0.0021304660476744175
1772571893362301000,0.208301025390625,0.0010652330238372087,0.0021304660476744175,0.0010652330238372087
1772571893372229000,0.21822900390625,0.0021304660476744175,0.0010652330238372087,0.0010652330238372087
1772571893382165000,0.2281650390625,0.0021304660476744175,0.0010652330238372087,0.0010652330238372087
1772571893392091400,0.23809130859375,0.0021304660476744175,0,0.0031956990715116262
1772571893402023400,0.2480234375,0.0031956990715116262,0,0.0021304660476744175
1772571893411951400,0.257951416015625,0.0021304660476744175,0,0.0021304660476744175
1772571893421881900,0.2678818359375,0.0010652330238372087,0,0.0021304660476744175
1772571893431829000,0.2778291015625,0.004260932095348835,0.0021304660476744175,0.0021304660476744175
1772571893441766100,0.28776611328125,0.0021304660476744175,0.0010652330238372087,0.0021304660476744175
1772571893451699700,0.29769970703125,0.0021304660476744175,0.0010652330238372087,0.0021304660476744175
1772571893461635300,0.30763525390625,0.0021304660476744175,0.0010652330238372087,0.0021304660476744175
1772571893471564300,0.317564208984375,0.0021304660476744175,0,0.0031956990715116262
1772571893481497300,0.327497314453125,0.0021304660476744175,0.0010652330238372087,0.0010652330238372087
1772571893491412500,0.33741259765625,0.0010652330238372087,0.0010652330238372087,0.0021304660476744175
1772571893501338400,0.34733837890625,0.0010652330238372087,0,0.0031956990715116262
1772571893511279400,0.357279296875,0.0021304660476744175,0,0.0021304660476744175
1772571893521211400,0.36721142578125,0.0021304660476744175,0,0.0010652330238372087
1772571893531139000,0.37713916015625,0.0021304660476744175,-0.0010652330238372087,0.0010652330238372087
1772571893541069300,0.3870693359375,0.0010652330238372087,0.0010652330238372087,0.004260932095348835
1772571893551011600,0.397011474609375,0.0021304660476744175,0,0.0021304660476744175
1772571893560946700,0.40694677734375,0.0021304660476744175,0.0010652330238372087,0.0021304660476744175
1772571893570872800,0.416872802734375,0.0010652330238372087,0.0010652330238372087,0.0031956990715116262
1772571893580804600,0.4268046875,0.0021304660476744175,0.0010652330238372087,0.0031956990715116262
1772571893590737400,0.4367373046875,0.0021304660476744175,0,0.0031956990715116262
1772571893600669700,0.446669677734375,0.0010652330238372087,0.0010652330238372087,0.0021304660476744175
1772571893610602800,0.456602783203125,0.0031956990715116262,0.0021304660476744175,0.0031956990715116262
1772571893620535300,0.466535400390625,0.0021304660476744175,0.0010652330238372087,0.0021304660476744175
1772571893630466300,0.47646630859375,0.0021304660476744175,0.0010652330238372087,0.0021304660476744175
1772571893640398300,0.4863984375,0.0021304660476744175,0.0010652330238372087,0.0031956990715116262
1772571893650334000,0.496333984375,0.0021304660476744175,0.0010652330238372087,0.0010652330238372087
1772571893660267300,0.506267333984375,0.0031956990715116262,0,0.004260932095348835
1772571893670205400,0.516205322265625,0.0031956990715116262,0,0.0031956990715116262
1772571893680139300,0.52613916015625,0.0021304660476744175,0.0010652330238372087,0.0021304660476744175
1772571893690063400,0.5360634765625,0,0.0010652330238372087,0.0031956990715116262
1772571893699996200,0.54599609375,0.0021304660476744175,0.0010652330238372087,0.0031956990715116262
1772571893709937400,0.5559375,0.0021304660476744175,0.0021304660476744175,0.0021304660476744175
1772571893719871200,0.565871337890625,0.0021304660476744175,0,0.004260932095348835
1772571893729797400,0.57579736328125,0.0021304660476744175,0,0.004260932095348835
1772571893739730400,0.58573046875,0.0021304660476744175,0.0010652330238372087,0.0031956990715116262
1772571893749665300,0.595665283203125,0.0021304660476744175,0.0021304660476744175,0.0021304660476744175
1772571893759598600,0.6055986328125,0.0031956990715116262,0.0010652330238372087,0.0031956990715116262
1772571893769539300,0.615539306640625,0.0021304660476744175,0.0010652330238372087,0.0010652330238372087
1772571893779473400,0.625473388671875,0.0021304660476744175,0.0010652330238372087,0.0010652330238372087
1772571893789386800,0.63538671875,0.0010652330238372087,0,0.0021304660476744175
1772571893799318500,0.645318603515625,0.0021304660476744175,0,0.0031956990715116262
1772571893809250600,0.65525048828125,0.0021304660476744175,0.0021304660476744175,0.004260932095348835
1772571893819182600,0.6651826171875,0.0021304660476744175,0.0010652330238372087,0.0021304660476744175
1772571893829117400,0.675117431640625,0.0010652330238372087,0.0010652330238372087,0.0031956990715116262
1772571893839049700,0.6850498046875,0.0010652330238372087,0.0010652330238372087,0.004260932095348835
1772571893848962000,0.694962158203125,0.0021304660476744175,0.0010652330238372087,0.0031956990715116262
1772571893858892300,0.704892333984375,0.0010652330238372087,0.0021304660476744175,0.004260932095348835
1772571893868847000,0.71484716796875,0.0010652330238372087,0.0010652330238372087,0.0021304660476744175
1772571893878780000,0.72477978515625,0.0021304660476744175,0.0010652330238372087,0.0010652330238372087
1772571893888687400,0.734687255859375,0.0021304660476744175,0.0010652330238372087,0.0031956990715116262
1772571893898617600,0.74461767578125,0.0021304660476744175,0,0.0031956990715116262
1772571893908571600,0.754571533203125,0.0021304660476744175,0,0.0031956990715116262
1772571893918504400,0.76450439453125,0.0021304660476744175,0.0010652330238372087,0.0021304660476744175
1772571893928439600,0.774439453125,0.0010652330238372087,0.0021304660476744175,0.0010652330238372087
1772571893938372400,0.784372314453125,0.0010652330238372087,0.0010652330238372087,0.0021304660476744175
1772571893948305200,0.79430517578125,0.0021304660476744175,0.0021304660476744175,0.004260932095348835
1772571893958238000,0.804238037109375,0.0010652330238372087,0.0010652330238372087,0.0021304660476744175
1772571893968161000,0.8141611328125,0.0010652330238372087,0.0021304660476744175,0.0021304660476744175
1772571893978092800,0.8240927734375,0.0021304660476744175,0,0.0010652330238372087
1772571893988042800,0.834042724609375,0.0021304660476744175,0.0010652330238372087,0.0031956990715116262
1772571893997976600,0.8439765625,0.0031956990715116262,-0.0010652330238372087,0.0031956990715116262
1772571894007873500,0.85387353515625,0.0031956990715116262,0,0.0021304660476744175
1772571894017803500,0.863803466796875,0.0031956990715116262,0.0010652330238372087,0.0021304660476744175
1772571894027741000,0.873740966796875,0.0031956990715116262,0,0.0031956990715116262
1772571894037671700,0.883671630859375,0.0021304660476744175,0.0010652330238372087,0.0010652330238372087
1772571894047604500,0.8936044921875,0.0010652330238372087,0.0010652330238372087,0.0021304660476744175
1772571894057535500,0.903535400390625,0.0021304660476744175,0.0010652330238372087,0.0021304660476744175
1772571894067485200,0.913485107421875,0.0021304660476744175,0,0.0021304660476744175
1772571894077418200,0.923418212890625,0.0021304660476744175,0.0010652330238372087,0.0021304660476744175
1772571894087363300,0.93336328125,0.0031956990715116262,0,0.0010652330238372087
1772571894097297700,0.943297607421875,0.0031956990715116262,0,0.0021304660476744175
1772571894107220500,0.953220458984375,0.0021304660476744175,0,0.004260932095348835
1772571894117153300,0.9631533203125,0.0010652330238372087,0,0.0021304660476744175
1772571894127036400,0.973036376953125,0.0021304660476744175,0.0053261648863554,0.0021304660476744175
1772571894136964600,0.982964599609375,0.0010652330238372087,0.012782796286046505,-0.0010652330238372087
1772571894146929700,0.9929296875,0.0010652330238372087,0.0031956990715116262,0.0021304660476744175
1772571894156861400,1.002861328125,0.0021304660476744175,0.007456631399691105,0
1772571894166828800,1.012828857421875,0.0031956990715116262,0.004260932095348835,0.0010652330238372087
1772571894176764200,1.02276416015625,0.0021304660476744175,-0.0010652330238372087,0.004260932095348835
1772571894186661000,1.0326611328125,0.0021304660476744175,-0.004260932095348835,0.004260932095348835
1772571894196592600,1.042592529296875,0.0021304660476744175,-0.0063913981430232525,0.0031956990715116262
1772571894206560300,1.052560302734375,0.0021304660476744175,-0.0053261648863554,0.0053261648863554
1772571894216495400,1.062495361328125,0.0021304660476744175,0,0.0031956990715116262
1772571894226387200,1.07238720703125,0.0010652330238372087,0.0021304660476744175,0.0021304660476744175
1772571894236318000,1.08231787109375,0.0010652330238372087,0.0010652330238372087,0.0021304660476744175
1772571894246246700,1.09224658203125,0.0021304660476744175,0.0010652330238372087,0.0010652330238372087
1772571894266154800,1.11215478515625,0.0010652330238372087,0,0.0021304660476744175
1772571894285982700,1.131982666015625,0.0021304660476744175,0,0.0010652330238372087
1772571894295913700,1.141913818359375,0.0021304660476744175,0,0.0010652330238372087
1772571894305882400,1.15188232421875,0.0010652330238372087,0.0021304660476744175,0.0021304660476744175
1772571894315817200,1.161817138671875,0.0021304660476744175,0.0021304660476744175,0.0031956990715116262
1772571894325719000,1.171718994140625,0.0010652330238372087,0.0010652330238372087,0.0031956990715116262
1772571894335650600,1.181650634765625,0,0.0021304660476744175,0.0021304660476744175
1772571894345581300,1.191581298828125,0.0010652330238372087,0.0021304660476744175,0.0031956990715116262
1772571894355512600,1.2015126953125,0.0021304660476744175,0,0.0021304660476744175
1772571894365451800,1.21145166015625,0.0021304660476744175,0,0.0031956990715116262
1772571894375383800,1.2213837890625,0.0010652330238372087,0,0.0021304660476744175
1772571894385329400,1.231329345703125,0.0031956990715116262,0,0.0010652330238372087
1772571894395263000,1.241262939453125,0.0021304660476744175,0.0021304660476744175,0.0021304660476744175
1772571894405182500,1.251182373046875,0.0010652330238372087,0.0010652330238372087,0.0021304660476744175
1772571894415114500,1.261114501953125,0.0010652330238372087,0.0021304660476744175,0.0031956990715116262
1772571894425058800,1.271058837890625,0.0021304660476744175,0.0010652330238372087,0.0021304660476744175
1772571894434992000,1.2809921875,0.0031956990715116262,0.0010652330238372087,0.0010652330238372087
1772571894444935200,1.29093505859375,0.0021304660476744175,0.0010652330238372087,0.0021304660476744175
1772571894454869500,1.300869384765625,0.0021304660476744175,0,0.0021304660476744175
1772571894464787700,1.31078759765625,0.0031956990715116262,0.0010652330238372087,0.0031956990715116262
1772571894474720300,1.32072021484375,0.0031956990715116262,0,0.0031956990715116262
1772571894484654300,1.330654296875,0.0031956990715116262,0,0.0031956990715116262
1772571894494587100,1.340587158203125,0.0031956990715116262,0,0.0021304660476744175
1772571894504523300,1.350523193359375,0.0021304660476744175,0.0021304660476744175,0.0021304660476744175
1772571894514456600,1.36045654296875,0.0010652330238372087,0,0.0021304660476744175
1772571894524385800,1.3703857421875,0.0031956990715116262,0,0.0010652330238372087
1772571894534318600,1.380318603515625,0.0021304660476744175,0.0021304660476744175,0.0021304660476744175
1772571894544250600,1.390250732421875,0.0010652330238372087,0.0021304660476744175,0.0031956990715116262
1772571894554183200,1.40018310546875,0.004260932095348835,-0.0010652330238372087,0.0021304660476744175
1772571894564126700,1.410126708984375,0.0031956990715116262,0,0.004260932095348835
1772571894574060500,1.420060546875,0.0021304660476744175,0,0.0031956990715116262
1772571894583990800,1.42999072265625,0.0021304660476744175,0,0.0010652330238372087
1772571894593924000,1.439924072265625,0.0010652330238372087,0,0.0031956990715116262
1772571894603857200,1.449857177734375,0.0021304660476744175,-0.0010652330238372087,0.0021304660476744175
1772571894613790700,1.459790771484375,0.0010652330238372087,0.0010652330238372087,0.0010652330238372087
1772571894623711700,1.469711669921875,0.0010652330238372087,0.0010652330238372087,0.0031956990715116262
1772571894633644000,1.47964404296875,0.0031956990715116262,0.0021304660476744175,0.0031956990715116262
1772571894643586000,1.4895859375,0.004260932095348835,0.0010652330238372087,0.0021304660476744175
1772571894653519400,1.499519287109375,0.0031956990715116262,0.0010652330238372087,0.0021304660476744175
1772571894663441000,1.50944091796875,0.0021304660476744175,0.0010652330238372087,0.0031956990715116262
1772571894673373000,1.519373046875,0.0010652330238372087,0.0010652330238372087,0.0031956990715116262
1772571894683302400,1.529302490234375,0.0021304660476744175,0.0010652330238372087,0.0021304660476744175
1772571894693234200,1.539234130859375,0.0021304660476744175,0.0010652330238372087,0.0031956990715116262
1772571894703169300,1.549169189453125,0.0031956990715116262,0.0010652330238372087,0.0031956990715116262
1772571894713101300,1.559101318359375,0.0021304660476744175,0.0010652330238372087,0.004260932095348835
1772571894723011000,1.569010986328125,0.0021304660476744175,0,0.004260932095348835
1772571894732940800,1.57894091796875,0.0010652330238372087,0.0010652330238372087,0.004260932095348835
1772571894742904000,1.588904052734375,0.0021304660476744175,0.0010652330238372087,0.0031956990715116262
1772571894752837000,1.598837158203125,0.0010652330238372087,0.0010652330238372087,0.0021304660476744175
1772571894762741200,1.6087412109375,0.0031956990715116262,0.0010652330238372087,0.0010652330238372087
1772571894772671500,1.61867138671875,0.0031956990715116262,0.0010652330238372087,0.0021304660476744175
1772571894782629400,1.62862939453125,0.0010652330238372087,0.0021304660476744175,0.0021304660476744175
1772571894792562400,1.6385625,0.0021304660476744175,0.0010652330238372087,0.0010652330238372087
1772571894802482200,1.648482177734375,0.0021304660476744175,0,0.004260932095348835
1772571894812413700,1.65841357421875,0.0010652330238372087,0,0.004260932095348835
1772571894822364200,1.6683642578125,0.0010652330238372087,0.0010652330238372087,0.0021304660476744175
1772571894832297700,1.678297607421875,0.0031956990715116262,0.0010652330238372087,0.0021304660476744175
1772571894842229000,1.68822900390625,0.0031956990715116262,0.0010652330238372087,0.0010652330238372087
1772571894852162600,1.69816259765625,0.0010652330238372087,0.0010652330238372087,0.0031956990715116262
1772571894862092500,1.708092529296875,0.0021304660476744175,0,0.0031956990715116262
1772571894872025600,1.718025634765625,0.0021304660476744175,0,0.0021304660476744175
1772571894881954800,1.727954833984375,0.0021304660476744175,0.0010652330238372087,0.0021304660476744175
1772571894891887600,1.7378876953125,0.0010652330238372087,0.0010652330238372087,0.0021304660476744175
1772571894901823200,1.7478232421875,0.0031956990715116262,0,0.0010652330238372087
1772571894911756300,1.75775634765625,0.0021304660476744175,0.0021304660476744175,0.0010652330238372087
1772571894921660400,1.767660400390625,0.0031956990715116262,0.0010652330238372087,0.0021304660476744175
1772571894931590400,1.77759033203125,0.0031956990715116262,0,0.0010652330238372087
1772571894941525800,1.78752587890625,0.0021304660476744175,0.0010652330238372087,0.0021304660476744175
1772571894951465500,1.797465576171875,0.0010652330238372087,0.0021304660476744175,0.004260932095348835
1772571894971367000,1.817366943359375,0.0021304660476744175,0,0.0031956990715116262
1772571894981301000,1.827301025390625,0.0021304660476744175,0.0021304660476744175,0.0031956990715116262
1772571894991209700,1.837209716796875,0,0,0.0021304660476744175
1772571895001141200,1.847141357421875,0.0010652330238372087,0.0010652330238372087,0.0021304660476744175
1772571895011075800,1.857075927734375,0.0010652330238372087,0.0010652330238372087,0.0010652330238372087
1772571895021007600,1.867007568359375,0.0021304660476744175,0.0021304660476744175,0.0021304660476744175
1772571895030940200,1.876940185546875,0.0031956990715116262,0.0010652330238372087,0.0021304660476744175
1772571895040872000,1.886871826171875,0.0021304660476744175,0.0021304660476744175,0.0031956990715116262
1772571895050809900,1.896809814453125,0.0010652330238372087,0,0.0031956990715116262
1772571895060742400,1.906742431640625,0.0021304660476744175,0,0.0031956990715116262
1772571895070673200,1.916673095703125,0.0021304660476744175,0.0010652330238372087,0.0021304660476744175
1772571895080605400,1.92660546875,0.0021304660476744175,0.0010652330238372087,0.0010652330238372087
1772571895090536200,1.9365361328125,0.0021304660476744175,0.0021304660476744175,0.0021304660476744175
1772571895100468500,1.946468505859375,0.0021304660476744175,0.0010652330238372087,0.0031956990715116262
1772571895110377700,1.956377685546875,0.0031956990715116262,0.0010652330238372087,0.0031956990715116262
1772571895120307700,1.9663076171875,0.0021304660476744175,0.0021304660476744175,0.004260932095348835
1772571895130272500,1.9762724609375,0.0021304660476744175,0.0010652330238372087,0.0021304660476744175
1772571895140205800,1.986205810546875,0.0021304660476744175,0.0010652330238372087,0.0021304660476744175
1772571895150136800,1.99613671875,0.0021304660476744175,0,0.0021304660476744175
1772571895160070000,2.00606982421875,0.0021304660476744175,0,0.0021304660476744175
1772571895169995300,2.015995361328125,0.0021304660476744175,0,0.0031956990715116262
1772571895179927800,2.025927734375,0.0021304660476744175,0.0010652330238372087,0.0021304660476744175
1772571895189861400,2.035861328125,0.004260932095348835,0,0.0021304660476744175
1772571895199794000,2.0457939453125,0.0010652330238372087,0,0.0021304660476744175
1772571895209726500,2.0557265625,0.0021304660476744175,0.0010652330238372087,0.0021304660476744175
1772571895219659000,2.065658935546875,0.0021304660476744175,0.0010652330238372087,0.0021304660476744175
1772571895229601300,2.075601318359375,0.0031956990715116262,0,0.0031956990715116262
1772571895239534600,2.08553466796875,0.0021304660476744175,0.0021304660476744175,0.0021304660476744175
1772571895249430500,2.095430419921875,0.0021304660476744175,0,0.0021304660476744175
1772571895259360300,2.1053603515625,0.0010652330238372087,0,0
1772571895269323000,2.115322998046875,0.0031956990715116262,0,0.0031956990715116262
1772571895279256000,2.125256103515625,0.0031956990715116262,0.0010652330238372087,0.0010652330238372087
1772571895289159700,2.13515966796875,0.0031956990715116262,0.0010652330238372087,0.0021304660476744175
1772571895299089700,2.145089599609375,0.0021304660476744175,0.0031956990715116262,0.0031956990715116262
1772571895309047800,2.1550478515625,0.0031956990715116262,0.0010652330238372087,0.0031956990715116262
1772571895318980900,2.16498095703125,0.0031956990715116262,0.0010652330238372087,0.0031956990715116262
1772571895328897300,2.174897216796875,0.0021304660476744175,0.0010652330238372087,0.0031956990715116262
1772571895338828500,2.18482861328125,0.0031956990715116262,0.0010652330238372087,0.0010652330238372087
1772571895348783900,2.194783935546875,0.0021304660476744175,0,0.0021304660476744175
1772571895358717400,2.204717529296875,0.0021304660476744175,0,0.0021304660476744175
1772571895368649500,2.2146494140625,0.0021304660476744175,0.0010652330238372087,0.0010652330238372087
1772571895378582800,2.224582763671875,0.0021304660476744175,0.0021304660476744175,0.0021304660476744175
1772571895388485000,2.234485107421875,0.0031956990715116262,0.0021304660476744175,0.0021304660476744175
1772571895398415600,2.24441552734375,0.0021304660476744175,0.0010652330238372087,0.0021304660476744175
1772571895408351200,2.254351318359375,0.0031956990715116262,0,0.0021304660476744175
1772571895418282200,2.2642822265625,0.0021304660476744175,0,0.0021304660476744175
1772571895428221200,2.27422119140625,0.0021304660476744175,0,0.0021304660476744175
1772571895438153000,2.284153076171875,0.0021304660476744175,0.0010652330238372087,0.0021304660476744175
1772571895448092700,2.2940927734375,0.0021304660476744175,0.0010652330238372087,0.0010652330238372087
1772571895458025200,2.304025146484375,0.0021304660476744175,0.0010652330238372087,0.0021304660476744175
1772571895467981000,2.31398095703125,0.0021304660476744175,-0.0010652330238372087,0.0021304660476744175
1772571895477916200,2.323916259765625,0.0031956990715116262,-0.0010652330238372087,0.0021304660476744175
1772571895487816200,2.333816162109375,0.0031956990715116262,-0.0010652330238372087,0.0010652330238372087
1772571895497747500,2.34374755859375,0.0031956990715116262,0,0.0010652330238372087
1772571895507711700,2.353711669921875,0.0021304660476744175,0,0.0031956990715116262
1772571895517646300,2.363646240234375,0.0031956990715116262,0.0010652330238372087,0.0031956990715116262
1772571895527547100,2.373547119140625,0.0021304660476744175,0.0010652330238372087,0.0021304660476744175
1772571895547420200,2.393420166015625,0.0021304660476744175,0.0010652330238372087,0.0021304660476744175
1772571895557352400,2.4033525390625,0.0021304660476744175,0,0.0010652330238372087
1772571895567306500,2.413306396484375,0.0010652330238372087,0.0021304660476744175,0.0021304660476744175
1772571895577241000,2.423240966796875,0.0010652330238372087,0.0010652330238372087,0
1772571895587165200,2.433165283203125,0.0021304660476744175,0.0010652330238372087,0.0010652330238372087
1772571895597098500,2.443098388671875,0.0031956990715116262,0,0.0021304660476744175
1772571895607031300,2.45303125,0.0021304660476744175,0.0010652330238372087,0.0010652330238372087
1772571895616964900,2.46296484375,0.0010652330238372087,0.0031956990715116262,0.0021304660476744175
1772571895626921500,2.47292138671875,0.0010652330238372087,0.0010652330238372087,0.0031956990715116262
1772571895636857000,2.482857177734375,0.0010652330238372087,0.0021304660476744175,0.0021304660476744175
1772571895646729700,2.492729736328125,0.0021304660476744175,0.0010652330238372087,0.0010652330238372087
1772571895656659200,2.5026591796875,0.0031956990715116262,0,0.0010652330238372087
1772571895666622500,2.51262255859375,0.0021304660476744175,0.0010652330238372087,0.0010652330238372087
1772571895676555300,2.52255517578125,0.0031956990715116262,0,0.0021304660476744175
1772571895686483700,2.532483642578125,0.0021304660476744175,0,0.0031956990715116262
1772571895696416000,2.542416015625,0.0010652330238372087,0,0.0021304660476744175
1772571895706349300,2.552349365234375,0.0021304660476744175,0.0010652330238372087,0.0010652330238372087
1772571895716281900,2.56228173828125,0.0021304660476744175,0.0021304660476744175,0.0031956990715116262
1772571895726217000,2.572217041015625,0.0021304660476744175,0.0010652330238372087,0.0021304660476744175
1772571895736149800,2.582149658203125,0.0021304660476744175,0,0.0021304660476744175
1772571895746084000,2.592083984375,0.0021304660476744175,0.0010652330238372087,0.0031956990715116262
1772571895756017200,2.60201708984375,0.0021304660476744175,0.0010652330238372087,0.0031956990715116262
1772571895765945300,2.6119453125,0.0010652330238372087,0.0021304660476744175,0.0021304660476744175
1772571895775878000,2.6218779296875,0.0010652330238372087,0.0010652330238372087,0.0010652330238372087
1772571895785812000,2.63181201171875,0.0010652330238372087,0.0010652330238372087,0.0021304660476744175
1772571895795744800,2.641744873046875,0.0021304660476744175,0,0.0031956990715116262
1772571895805649200,2.651649169921875,0.0031956990715116262,0.0010652330238372087,0.0031956990715116262
1772571895815579000,2.661578857421875,0.004260932095348835,0.0010652330238372087,0.0031956990715116262
1772571895825540400,2.671540283203125,0.0010652330238372087,0.0010652330238372087,0.0021304660476744175
1772571895835473400,2.681473388671875,0.0010652330238372087,0,0.0021304660476744175
1772571895845414400,2.691414306640625,0.0010652330238372087,0.0010652330238372087,0.0021304660476744175
1772571895855348000,2.701347900390625,0.0021304660476744175,-0.0010652330238372087,0.0021304660476744175
1772571895865268500,2.7112685546875,0.0031956990715116262,0,0.0031956990715116262
1772571895875200800,2.72120068359375,0.0021304660476744175,-0.0010652330238372087,0.0010652330238372087
1772571895885136100,2.73113623046875,0.0021304660476744175,0,0.0010652330238372087
1772571895895069000,2.74106884765625,0.0031956990715116262,0.0010652330238372087,0.0031956990715116262
1772571895904975400,2.750975341796875,0.0031956990715116262,0.0010652330238372087,0.0031956990715116262
1772571895914905600,2.760905517578125,0.0031956990715116262,0,0.0021304660476744175
1772571895924863000,2.770863037109375,0.004260932095348835,0.0010652330238372087,0.0021304660476744175
1772571895934796000,2.780796142578125,0.0010652330238372087,0.0021304660476744175,0.0031956990715116262
1772571895944736500,2.790736572265625,0.0021304660476744175,0.0010652330238372087,0.004260932095348835
1772571895954670000,2.800670166015625,0.0021304660476744175,0.0010652330238372087,0.0021304660476744175
1772571895964576000,2.810575927734375,0.0021304660476744175,0.0031956990715116262,0.0031956990715116262
1772571895974506800,2.8205068359375,0.0021304660476744175,0.0010652330238372087,0.0021304660476744175
1772571895984436200,2.830436279296875,0.0021304660476744175,0.0021304660476744175,0.0010652330238372087
1772571895994367000,2.840366943359375,0.0021304660476744175,0,0.0010652330238372087
1772571896004323300,2.8503232421875,0.0010652330238372087,0.0010652330238372087,0.0010652330238372087
1772571896014257000,2.8602568359375,0.0031956990715116262,0.0010652330238372087,0.0010652330238372087
1772571896024190200,2.870190185546875,0.0031956990715116262,0.0010652330238372087,0.0021304660476744175
1772571896034123500,2.88012353515625,0.0021304660476744175,0.0010652330238372087,0.0021304660476744175
1772571896044028000,2.89002783203125,0.0021304660476744175,0.0010652330238372087,0.0010652330238372087
1772571896053958400,2.89995849609375,0.0031956990715116262,0.0010652330238372087,0.0021304660476744175
1772571896063922200,2.909922119140625,0.0021304660476744175,0,0.0021304660476744175
1772571896073855700,2.919855712890625,0.0010652330238372087,0.0021304660476744175,0.0021304660476744175
1772571896083785500,2.929785400390625,0.0010652330238372087,0.0021304660476744175,0.0031956990715116262
1772571896093718800,2.93971875,0.0010652330238372087,0,0.0021304660476744175
1772571896103651000,2.949651123046875,0.0021304660476744175,0.0010652330238372087,0.0021304660476744175
1772571896113584000,2.959584228515625,0.0021304660476744175,0,0.0031956990715116262
1772571896123514000,2.96951416015625,0.0010652330238372087,0.0010652330238372087,0.004260932095348835
1772571896133447000,2.979447021484375,0.0021304660476744175,0.0010652330238372087,0.0031956990715116262
1772571896143384000,2.989384033203125,0.0021304660476744175,0.0010652330238372087,0.0021304660476744175
1772571896153317400,2.9993173828125,0.0021304660476744175,0.0010652330238372087,0
1772571896163251500,3.00925146484375,0.0010652330238372087,0,0.0021304660476744175
1772571896173184800,3.019184814453125,0.0021304660476744175,0,0.004260932095348835
1772571896183107000,3.029107177734375,0.0021304660476744175,-0.0010652330238372087,0.0031956990715116262
1772571896193039400,3.039039306640625,0.0031956990715116262,0,0.0010652330238372087
1772571896202980900,3.04898095703125,0.0031956990715116262,0.0010652330238372087,0.0021304660476744175
1772571896212914200,3.0589140625,0.0021304660476744175,0.0010652330238372087,0.0031956990715116262
1772571896222813200,3.068813232421875,0.0021304660476744175,0,0.0021304660476744175
1772571896232743000,3.078742919921875,0.0031956990715116262,0.0010652330238372087,0.0021304660476744175
1772571896242708200,3.088708251953125,0.0021304660476744175,0,0.0021304660476744175
1772571896252641800,3.098641845703125,0.0021304660476744175,0,0.0021304660476744175
1772571896262570500,3.108570556640625,0.0010652330238372087,0.0010652330238372087,0.0021304660476744175
1772571896272503300,3.11850341796875,0.0021304660476744175,0.0021304660476744175,0.0010652330238372087
1772571896282435300,3.128435302734375,0.0021304660476744175,0.0021304660476744175,0.0010652330238372087
1772571896292368100,3.1383681640625,0.0031956990715116262,0.0010652330238372087,0.0021304660476744175
1772571896302285300,3.148285400390625,0.0010652330238372087,0.0010652330238372087,0.004260932095348835
1772571896312216600,3.158216552734375,0.0021304660476744175,0.0021304660476744175,0.0031956990715116262
1772571896322167800,3.168167724609375,0.0010652330238372087,0.0010652330238372087,0.0021304660476744175
1772571896332101000,3.17810107421875,0,0,0.0031956990715116262
1772571896342011100,3.18801123046875,0.0021304660476744175,0.0010652330238372087,0.0021304660476744175
1772571896351942100,3.197942138671875,0.0031956990715116262,0.0010652330238372087,0.0010652330238372087
1772571896361901800,3.20790185546875,0.0021304660476744175,0,0.0021304660476744175
1772571896371835600,3.217835693359375,0.0010652330238372087,0.0010652330238372087,0.0021304660476744175
1772571896381760000,3.227760009765625,0.0021304660476744175,0.0010652330238372087,0.0031956990715116262
1772571896391692800,3.23769287109375,0.0021304660476744175,0.0010652330238372087,0.0021304660476744175
1772571896401622800,3.247622802734375,0.0010652330238372087,0.0021304660476744175,0.0031956990715116262
1772571896411555300,3.257555419921875,0.0010652330238372087,0.0010652330238372087,0.0031956990715116262
1772571896421501000,3.2675009765625,0.0021304660476744175,0,0.0031956990715116262
1772571896431435000,3.27743505859375,0.0021304660476744175,0,0.0021304660476744175
1772571896441348000,3.28734814453125,0.0021304660476744175,0,0.0031956990715116262
1772571896451280000,3.29727978515625,0.0021304660476744175,0.0010652330238372087,0.0031956990715116262
1772571896461218600,3.307218505859375,0.0021304660476744175,0.0010652330238372087,0.0021304660476744175
1772571896471151000,3.317151123046875,0.0021304660476744175,0.0010652330238372087,0.0021304660476744175
1772571896481086000,3.3270859375,0.0021304660476744175,0,0.0010652330238372087
1772571896491018800,3.337018798828125,0.0010652330238372087,0.0010652330238372087,0.0021304660476744175
1772571896500946700,3.34694677734375,0.0010652330238372087,0.0010652330238372087,0.0031956990715116262
1772571896510879000,3.35687890625,0.0021304660476744175,0,0.0031956990715116262
1772571896520825300,3.366825439453125,0.0010652330238372087,0,0.0031956990715116262
1772571896530759200,3.37675927734375,0.0021304660476744175,0.0010652330238372087,0.0021304660476744175
1772571896540681000,3.386680908203125,0.0021304660476744175,0.0021304660476744175,0.0021304660476744175
1772571896550613200,3.39661328125,0.0021304660476744175,0.0010652330238372087,0.0021304660476744175
1772571896560552200,3.40655224609375,0.0021304660476744175,0.0021304660476744175,0.0021304660476744175
1772571896570485200,3.4164853515625,0.0031956990715116262,0.0010652330238372087,0.0031956990715116262
1772571896580385300,3.42638525390625,0.0021304660476744175,0.0010652330238372087,0.0031956990715116262
1772571896590315000,3.43631494140625,0.0031956990715116262,0,0.0021304660476744175
1772571896600256800,3.4462568359375,0.0031956990715116262,0,0.0031956990715116262
1772571896610187800,3.456187744140625,0.0021304660476744175,0.0010652330238372087,0.0031956990715116262
1772571896620121000,3.46612109375,0.0021304660476744175,0.0021304660476744175,0.0021304660476744175
1772571896630052400,3.47605224609375,0.0031956990715116262,0.0021304660476744175,0.0031956990715116262
1772571896640013800,3.486013916015625,0.0010652330238372087,0.0010652330238372087,0.0031956990715116262
1772571896649948200,3.4959482421875,0.0021304660476744175,0,0.0031956990715116262
1772571896659846400,3.505846435546875,0.0021304660476744175,0.0010652330238372087,0.004260932095348835
1772571896669777200,3.515777099609375,0.0031956990715116262,0.0010652330238372087,0.0031956990715116262
1772571896679708400,3.52570849609375,0.0021304660476744175,0.0010652330238372087,0.0010652330238372087
1772571896689639200,3.53563916015625,0.0010652330238372087,0.0021304660476744175,0.0031956990715116262
1772571896699580000,3.545579833984375,0,0.0021304660476744175,0.004260932095348835
1772571896709511700,3.55551171875,0.0021304660476744175,0.0010652330238372087,0.0021304660476744175
1772571896719452400,3.565452392578125,0.0031956990715116262,0,0.0010652330238372087
1772571896729385000,3.575385009765625,0.0031956990715116262,0.0021304660476744175,0.0021304660476744175
1772571896739309800,3.585309814453125,0.0021304660476744175,0.0021304660476744175,0.0031956990715116262
1772571896749241900,3.595241943359375,0.0021304660476744175,0,0.0031956990715116262
1772571896759173000,3.605173095703125,0.0010652330238372087,0,0.0031956990715116262
1772571896769105000,3.61510498046875,0.0010652330238372087,0.0010652330238372087,0.004260932095348835
1772571896779041000,3.625041015625,0.0010652330238372087,0.0010652330238372087,0.0010652330238372087
1772571896788973300,3.634973388671875,0.0021304660476744175,0.0010652330238372087,0
1772571896798929200,3.64492919921875,0.0021304660476744175,0.0010652330238372087,0.0021304660476744175
1772571896808863700,3.65486376953125,0.0010652330238372087,0.0021304660476744175,0.0021304660476744175
1772571896818798300,3.66479833984375,0.0021304660476744175,0.0010652330238372087,0.0021304660476744175
1772571896828733000,3.67473291015625,0.0021304660476744175,0.0010652330238372087,0.0010652330238372087
1772571896838656000,3.684656005859375,0.0010652330238372087,0.0010652330238372087,0.0021304660476744175
1772571896848589300,3.69458935546875,0.0010652330238372087,0.0010652330238372087,0.0021304660476744175
1772571896858525400,3.704525390625,0.0021304660476744175,0.0010652330238372087,0.0031956990715116262
1772571896868459300,3.714459228515625,0.0031956990715116262,0.0021304660476744175,0.0031956990715116262
1772571896878388700,3.724388671875,0.0031956990715116262,0,0.0021304660476744175
1772571896888322000,3.734322021484375,0.0010652330238372087,-0.0010652330238372087,0.0021304660476744175
1772571896898262300,3.74426220703125,0,0.0010652330238372087,0.0021304660476744175
1772571896908196400,3.7541962890625,0.0021304660476744175,0.0010652330238372087,0.0031956990715116262
1772571896918118000,3.764117919921875,0.0021304660476744175,0.0010652330238372087,0.0021304660476744175
1772571896928050700,3.77405078125,0.0021304660476744175,0.0010652330238372087,0.0021304660476744175
1772571896937982700,3.783982666015625,0.0010652330238372087,0,0.0021304660476744175
1772571896947915300,3.793915283203125,0.0010652330238372087,0,0.0021304660476744175
1772571896957843200,3.80384326171875,0.0031956990715116262,0,0.0021304660476744175
1772571896967775200,3.813775146484375,0.004260932095348835,0.0021304660476744175,0.0021304660476744175
1772571896977696800,3.82369677734375,0.0021304660476744175,0.0010652330238372087,0.0021304660476744175
1772571896987628000,3.8336279296875,0.0021304660476744175,0,0.0031956990715116262
1772571896997577000,3.843576904296875,0.0021304660476744175,0.0010652330238372087,0.0031956990715116262
1772571897007510000,3.853510009765625,0.0021304660476744175,0.0010652330238372087,0.0010652330238372087
1772571897017443800,3.86344384765625,0.0031956990715116262,0,0.0021304660476744175
1772571897027377000,3.873376953125,0.0031956990715116262,0.0010652330238372087,0.0031956990715116262
1772571897037303600,3.883303466796875,0.0031956990715116262,0.0010652330238372087,0.0021304660476744175
1772571897047235800,3.89323583984375,0.0021304660476744175,0.0010652330238372087,0.0053261648863554
1772571897057169000,3.9031689453125,0.0021304660476744175,0.0010652330238372087,0.004260932095348835
1772571897067101200,3.91310107421875,0.0021304660476744175,0.0010652330238372087,0.0031956990715116262
1772571897077034500,3.923034423828125,0.0021304660476744175,0.0010652330238372087,0.0021304660476744175
1772571897086967000,3.932967041015625,0.0021304660476744175,0.0010652330238372087,0.004260932095348835
1772571897096912000,3.942911865234375,0.0031956990715116262,0.0021304660476744175,0.0031956990715116262
1772571897106845700,3.952845703125,0.0021304660476744175,0.0010652330238372087,0.0021304660476744175
1772571897116771600,3.962771484375,0.0021304660476744175,0.0021304660476744175,0.0031956990715116262
1772571897126704400,3.972704345703125,0.0021304660476744175,0,0.0021304660476744175
1772571897136637200,3.98263720703125,0.0021304660476744175,0.0010652330238372087,0.0021304660476744175
1772571897146570200,3.9925703125,0.0021304660476744175,0.0010652330238372087,0.0021304660476744175
1772571897156496400,4.002496337890625,0.0021304660476744175,0,0.0021304660476744175
1772571897166428700,4.0124287109375,0.0031956990715116262,0.0010652330238372087,0.0031956990715116262
1772571897176361000,4.02236083984375,0.004260932095348835,0.0021304660476744175,0.0021304660476744175
1772571897186293200,4.032293212890625,0.0031956990715116262,0,0.0031956990715116262
1772571897196234500,4.042234375,0.0021304660476744175,-0.0010652330238372087,0.0021304660476744175
1772571897206167600,4.05216748046875,0.0010652330238372087,0,0.0021304660476744175
1772571897216115500,4.062115478515625,0.0021304660476744175,0.0010652330238372087,0.0031956990715116262
1772571897226050000,4.072050048828125,0.0021304660476744175,0.0021304660476744175,0.0021304660476744175
1772571897235970800,4.081970703125,0.0010652330238372087,0.0010652330238372087,0.0021304660476744175
1772571897245904000,4.09190380859375,0.0010652330238372087,0.0010652330238372087,0.0031956990715116262
1772571897255820000,4.101820068359375,0.0021304660476744175,0.0010652330238372087,0.0021304660476744175
1772571897265708300,4.111708251953125,0.0031956990715116262,0.0010652330238372087,0.0021304660476744175
1772571897285623000,4.131623046875,0.0010652330238372087,0,0.0031956990715116262
1772571897295559000,4.141558837890625,0.0021304660476744175,-0.0010652330238372087,0.0010652330238372087
1772571897305483800,4.15148388671875,0.0021304660476744175,-0.0010652330238372087,0.0010652330238372087
1772571897315418400,4.16141845703125,0.0021304660476744175,0,0.0010652330238372087
1772571897325351200,4.17135107421875,0.0010652330238372087,0.0010652330238372087,0.0021304660476744175
1772571897335285800,4.18128564453125,0.0010652330238372087,0.0010652330238372087,0.0021304660476744175
1772571897345189000,4.191189208984375,0.0010652330238372087,0.0031956990715116262,0.0031956990715116262
1772571897355120600,4.20112060546875,0.0021304660476744175,0.0021304660476744175,0.0010652330238372087
1772571897365056000,4.211055908203125,0.0021304660476744175,0,0.0010652330238372087
1772571897374988000,4.220988037109375,0.0021304660476744175,0,0.0010652330238372087
1772571897384918800,4.230918701171875,0.0031956990715116262,0,0.0010652330238372087
1772571897394850600,4.2408505859375,0.0010652330238372087,0.0010652330238372087,0.0021304660476744175
1772571897404804000,4.25080419921875,0,0,0.0031956990715116262
1772571897414738200,4.26073828125,0.0010652330238372087,0.0021304660476744175,0.004260932095348835
1772571897424683000,4.27068310546875,0.0021304660476744175,0.0021304660476744175,0.0021304660476744175
1772571897434617900,4.280617919921875,0.0021304660476744175,0.0010652330238372087,0.0010652330238372087
1772571897444548900,4.290548828125,0.0031956990715116262,0,0.0021304660476744175
1772571897454483500,4.3004833984375,0.0021304660476744175,0,0.0021304660476744175
1772571897464406000,4.310406005859375,0.0010652330238372087,0.0010652330238372087,0.0021304660476744175
1772571897474339600,4.320339599609375,0.0021304660476744175,0,0.0010652330238372087
1772571897484265500,4.330265380859375,0.0031956990715116262,0.0010652330238372087,0.0021304660476744175
1772571897494198000,4.340197998046875,0.0021304660476744175,0,0.0021304660476744175
1772571897504137500,4.350137451171875,0.0021304660476744175,0,0.0010652330238372087
1772571897514070800,4.36007080078125,0.0031956990715116262,0,0.0021304660476744175
1772571897524001800,4.370001708984375,0.0031956990715116262,0.0010652330238372087,0.0031956990715116262
1772571897533934800,4.379934814453125,0.0031956990715116262,0.0010652330238372087,0.0031956990715116262
1772571897543871500,4.38987158203125,0.0021304660476744175,0.0010652330238372087,0.0021304660476744175
1772571897553805000,4.39980517578125,0.0021304660476744175,0,0.0021304660476744175
1772571897563734000,4.409734130859375,0.0021304660476744175,-0.0010652330238372087,0.0031956990715116262
1772571897573666800,4.419666748046875,0.0010652330238372087,0,0.0021304660476744175
1772571897583598600,4.4295986328125,0.0021304660476744175,0.0010652330238372087,0.0010652330238372087
1772571897593531600,4.43953173828125,0.0021304660476744175,0.0010652330238372087,0.0021304660476744175
1772571897603469800,4.4494697265625,0.004260932095348835,0.0010652330238372087,0.0010652330238372087
1772571897613403100,4.459403076171875,0.0021304660476744175,0,0.0021304660476744175
1772571897623324200,4.46932421875,0.0021304660476744175,0.0021304660476744175,0.0021304660476744175
1772571897633256400,4.47925634765625,0.0031956990715116262,0.0021304660476744175,0.0021304660476744175
1772571897643187700,4.489187744140625,0.0021304660476744175,0.0010652330238372087,0.0031956990715116262
1772571897653119700,4.49911962890625,0.0010652330238372087,0.0010652330238372087,0.0021304660476744175
1772571897663057200,4.50905712890625,0.0021304660476744175,0.0021304660476744175,0.0021304660476744175
1772571897672989700,4.51898974609375,0.0010652330238372087,0.0021304660476744175,0.0031956990715116262
1772571897682921700,4.528921630859375,0.0010652330238372087,0.0010652330238372087,0.0031956990715116262
1772571897692854300,4.538854248046875,0.0021304660476744175,0.0010652330238372087,0.0021304660476744175
1772571897702795800,4.548795654296875,0.0010652330238372087,0,0.0021304660476744175
1772571897712729000,4.55872900390625,0.0021304660476744175,0.0010652330238372087,0.0010652330238372087
1772571897722627300,4.56862744140625,0.0021304660476744175,0,0.0021304660476744175
1772571897732557300,4.578557373046875,0.0010652330238372087,0,0.0031956990715116262
1772571897742524200,4.588524169921875,0.0021304660476744175,0,0.0021304660476744175
1772571897752457700,4.598457763671875,0.0010652330238372087,0.0010652330238372087,0.0021304660476744175
1772571897762389200,4.60838916015625,0.0021304660476744175,0,0.0021304660476744175
1772571897772322600,4.618322509765625,0.0021304660476744175,0.0010652330238372087,0.0010652330238372087
1772571897782228000,4.62822802734375,0.0010652330238372087,0.0010652330238372087,0.0021304660476744175
1772571897792158700,4.63815869140625,0.0010652330238372087,0.0010652330238372087,0.0021304660476744175
1772571897802091300,4.64809130859375,0.0010652330238372087,0.0021304660476744175,0.0031956990715116262
1772571897812022000,4.65802197265625,0.0021304660476744175,0.0010652330238372087,0.0021304660476744175
1772571897821954600,4.66795458984375,0.0021304660476744175,0.0021304660476744175,0.004260932095348835
1772571897831885600,4.677885498046875,0.0010652330238372087,0.0021304660476744175,0.0031956990715116262
1772571897841816300,4.68781640625,0.0010652330238372087,0.0010652330238372087,0.0031956990715116262
1772571897851747300,4.697747314453125,0.0021304660476744175,0.0010652330238372087,0.0021304660476744175
1772571897861686300,4.707686279296875,0.0021304660476744175,0.0010652330238372087,0.0010652330238372087
1772571897871618000,4.7176181640625,0.0021304660476744175,0.0010652330238372087,0.0031956990715116262
1772571897881550000,4.727550048828125,0.0010652330238372087,0.0021304660476744175,0.0021304660476744175
1772571897891481900,4.73748193359375,0.0010652330238372087,0,0.0010652330238372087
1772571897901403600,4.747403564453125,0.0010652330238372087,0.0010652330238372087,0.0021304660476744175
1772571897911334400,4.75733447265625,0.0021304660476744175,0,0.0031956990715116262
1772571897921312500,4.7673125,0.0021304660476744175,0,0.0021304660476744175
1772571897931248000,4.777248046875,0.0031956990715116262,0,0.0010652330238372087
1772571897941146400,4.787146484375,0.0031956990715116262,0.0010652330238372087,0.0010652330238372087
1772571897951078100,4.797078125,0.0021304660476744175,0,0.0010652330238372087
1772571897961010200,4.80701025390625,0.0021304660476744175,0.0010652330238372087,0.0021304660476744175
1772571897970942000,4.81694189453125,0.0021304660476744175,0.0010652330238372087,0.0021304660476744175
1772571897980895700,4.826895751953125,0.0021304660476744175,0.0010652330238372087,0.0031956990715116262
1772571897990829800,4.836829833984375,0.0021304660476744175,0.0021304660476744175,0.0031956990715116262
1772571898000763000,4.846762939453125,0.0021304660476744175,0.0021304660476744175,0.0031956990715116262
1772571898010696700,4.85669677734375,0.0031956990715116262,0.0010652330238372087,0.0010652330238372087
1772571898020637000,4.866636962890625,0.0010652330238372087,0,0.0031956990715116262
1772571898030571500,4.876571533203125,0.0021304660476744175,0,0.0021304660476744175
1772571898040494600,4.88649462890625,0.0021304660476744175,0.0010652330238372087,0.0021304660476744175
1772571898050428000,4.896427978515625,0.0021304660476744175,0.0010652330238372087,0.004260932095348835
1772571898060358400,4.9063583984375,0.0021304660476744175,0.0010652330238372087,0.0031956990715116262
1772571898070291500,4.91629150390625,0.0021304660476744175,0,0.0031956990715116262
1772571898080228400,4.926228271484375,0.0031956990715116262,0.0010652330238372087,0.0031956990715116262
1772571898090162000,4.936161865234375,0.0021304660476744175,0,0.0031956990715116262
1772571898100088000,4.946088134765625,0.0031956990715116262,0.0010652330238372087,0.0031956990715116262
1772571898110020900,4.956020751953125,0.0010652330238372087,0.0021304660476744175,0.0031956990715116262
1772571898119953200,4.965953125,0.0021304660476744175,0.0010652330238372087,0.004260932095348835
1772571898129885700,4.9758857421875,0.0031956990715116262,0.0010652330238372087,0.0031956990715116262
1772571898139817700,4.985817626953125,0.0031956990715116262,0.0021304660476744175,0.0031956990715116262
1772571898149750300,4.995750244140625,0.0021304660476744175,0.0010652330238372087,0.0031956990715116262
1772571898159688700,5.005688720703125,0.0010652330238372087,0.0010652330238372087,0.0021304660476744175
1772571898169622000,5.0156220703125,0.0021304660476744175,0.0010652330238372087,0.0010652330238372087
1772571898179543300,5.025543212890625,0.0010652330238372087,0.0021304660476744175,0.0021304660476744175
1772571898189475300,5.035475341796875,0.0021304660476744175,0.0010652330238372087,0.0021304660476744175
1772571898199413200,5.045413330078125,0.0021304660476744175,0.0021304660476744175,0.0031956990715116262
1772571898209345800,5.055345703125,0.0031956990715116262,0.0021304660476744175,0.0031956990715116262
1772571898219285000,5.065284912109375,0.0031956990715116262,0.0010652330238372087,0.0021304660476744175
1772571898229218300,5.07521826171875,0.0021304660476744175,0.0010652330238372087,0.0021304660476744175
1772571898239139300,5.085139404296875,0.0021304660476744175,0,0.0021304660476744175
1772571898249071400,5.0950712890625,0.0021304660476744175,0.0010652330238372087,0.004260932095348835
1772571898258983200,5.104983154296875,0.0021304660476744175,0.0021304660476744175,0.0031956990715116262
1772571898268913200,5.1149130859375,0.0031956990715116262,0,0.004260932095348835
1772571898278880800,5.124880859375,0.0021304660476744175,0,0.0031956990715116262
1772571898288814600,5.134814697265625,0.0010652330238372087,-0.0010652330238372087,0.0010652330238372087
1772571898298713600,5.144713623046875,0.0010652330238372087,0.0010652330238372087,0.0021304660476744175
1772571898308644000,5.15464404296875,0.0021304660476744175,0.0010652330238372087,0.0021304660476744175
1772571898318614800,5.16461474609375,0.0031956990715116262,0,0.0021304660476744175
1772571898328549000,5.174549072265625,0.0021304660476744175,0.0021304660476744175,0.0031956990715116262
1772571898338471700,5.1844716796875,0.0010652330238372087,0.0031956990715116262,0.0053261648863554
1772571898348405000,5.194405029296875,0.0021304660476744175,0.0010652330238372087,0.004260932095348835
1772571898358337000,5.2043369140625,0.0021304660476744175,0,0.0021304660476744175
1772571898368270300,5.214270263671875,0.0021304660476744175,0.0010652330238372087,0.0031956990715116262
1772571898378207700,5.224207763671875,0.0021304660476744175,0,0.0021304660476744175
1772571898388141300,5.234141357421875,0.0031956990715116262,0,0.0031956990715116262
1772571898398074600,5.24407470703125,0.0021304660476744175,0,0.0010652330238372087
1772571898408008200,5.25400830078125,0.0031956990715116262,0.0010652330238372087,0.0021304660476744175
1772571898417932000,5.26393212890625,0.0021304660476744175,0.0021304660476744175,0.0021304660476744175
1772571898427864600,5.273864501953125,0.0010652330238372087,0,0.0010652330238372087
1772571898437790500,5.28379052734375,0.0021304660476744175,0.0010652330238372087,0.0010652330238372087
1772571898447722500,5.293722412109375,0.0021304660476744175,0.0010652330238372087,0.0031956990715116262
1772571898457660400,5.303660400390625,0.0031956990715116262,0,0.0031956990715116262
1772571898467593000,5.313593017578125,0.0031956990715116262,0.0010652330238372087,0.0031956990715116262
1772571898477522000,5.32352197265625,0.0021304660476744175,-0.0010652330238372087,0.0010652330238372087
1772571898487454000,5.333453857421875,0.0021304660476744175,0.0010652330238372087,0.0021304660476744175
1772571898497396200,5.343396240234375,0.0031956990715116262,0.0010652330238372087,0.0021304660476744175
1772571898507329300,5.353329345703125,0.0021304660476744175,0,0.0021304660476744175
1772571898517254700,5.363254638671875,0.0021304660476744175,0,0.0031956990715116262
1772571898527187000,5.37318701171875,0.0021304660476744175,0.0010652330238372087,0.0031956990715116262
1772571898537120300,5.383120361328125,0.0021304660476744175,-0.0010652330238372087,0.0010652330238372087
1772571898547052500,5.393052490234375,0.0010652330238372087,0,0.0021304660476744175
1772571898556987400,5.4029873046875,0.0021304660476744175,0.0010652330238372087,0.0021304660476744175
1772571898566920200,5.412920166015625,0.0010652330238372087,0.0010652330238372087,0.0031956990715116262
1772571898576851000,5.422850830078125,0.0010652330238372087,0,0.0031956990715116262
1772571898586783500,5.432783447265625,0.0021304660476744175,0,0.0031956990715116262
1772571898596719600,5.4427197265625,0.0021304660476744175,0.0010652330238372087,0.0031956990715116262
1772571898606652700,5.452652587890625,0.0021304660476744175,0.0010652330238372087,0.004260932095348835
1772571898616589600,5.462589599609375,0.0021304660476744175,0.0021304660476744175,0.0031956990715116262
1772571898626523100,5.472523193359375,0.0010652330238372087,0.0021304660476744175,0.0021304660476744175
1772571898636440600,5.482440673828125,0.0021304660476744175,0.0010652330238372087,0.0010652330238372087
1772571898646372400,5.492372314453125,0.0010652330238372087,0,0.0031956990715116262
1772571898656305400,5.502305419921875,0.0010652330238372087,0.0010652330238372087,0.0031956990715116262
1772571898666237200,5.5122373046875,0.0010652330238372087,0.0021304660476744175,0.0021304660476744175
1772571898676180200,5.52218017578125,0.0010652330238372087,0.0010652330238372087,0.0031956990715116262
1772571898686113300,5.53211328125,0.0031956990715116262,0.0010652330238372087,0.0021304660476744175
1772571898696014000,5.54201416015625,0.0021304660476744175,0.0010652330238372087,0.0031956990715116262
1772571898705943800,5.55194384765625,0.0010652330238372087,0,0.0031956990715116262
1772571898715910700,5.56191064453125,0.0010652330238372087,0,0.0031956990715116262
1772571898725844000,5.571843994140625,0.0010652330238372087,0,0.0031956990715116262
1772571898735771100,5.581771240234375,0.0021304660476744175,0.0021304660476744175,0.0031956990715116262
1772571898745704000,5.591703857421875,0.0021304660476744175,0.0021304660476744175,0.0010652330238372087
1772571898755639300,5.601639404296875,0.0021304660476744175,0.0010652330238372087,0.0021304660476744175
1772571898765572400,5.611572265625,0.0031956990715116262,0.0010652330238372087,0.0021304660476744175
1772571898775502600,5.621502685546875,0.0021304660476744175,0.0021304660476744175,0.0031956990715116262
1772571898785435400,5.631435302734375,0.0021304660476744175,0,0.0021304660476744175
1772571898795363300,5.64136328125,0.0010652330238372087,0.0010652330238372087,0.0021304660476744175
1772571898805295600,5.651295654296875,0.0021304660476744175,0.0010652330238372087,0.0010652330238372087
1772571898815227600,5.6612275390625,0.0021304660476744175,0.0021304660476744175,0.0021304660476744175
1772571898825160000,5.671159912109375,0.0021304660476744175,0.0021304660476744175,0.0021304660476744175
1772571898835134700,5.681134765625,0.0010652330238372087,0.0010652330238372087,0.0021304660476744175
1772571898845071400,5.6910712890625,0.0031956990715116262,0.0021304660476744175,0.0021304660476744175
1772571898854957300,5.700957275390625,0.0010652330238372087,0.0021304660476744175,0.0031956990715116262
1772571898864888800,5.710888916015625,0.0021304660476744175,-0.0010652330238372087,0.0021304660476744175
1772571898874804200,5.72080419921875,0.0010652330238372087,0.0010652330238372087,0.0031956990715116262
1772571898884734000,5.73073388671875,0.0010652330238372087,0.0021304660476744175,0.004260932095348835
1772571898894700500,5.740700439453125,0.0031956990715116262,0.0010652330238372087,0.0021304660476744175
1772571898904634000,5.750634033203125,0.0021304660476744175,0,0.0031956990715116262
1772571898914559000,5.76055908203125,0.0010652330238372087,0.0010652330238372087,0.0021304660476744175
1772571898924491500,5.770491455078125,0.0021304660476744175,0,0.0021304660476744175
1772571898934426600,5.780426513671875,0.0021304660476744175,0.0010652330238372087,0.0021304660476744175
1772571898944359400,5.790359375,0.0031956990715116262,0.0021304660476744175,0.0031956990715116262
1772571898954265900,5.800265869140625,0.0021304660476744175,0.0021304660476744175,0.0021304660476744175
1772571898964196000,5.810196044921875,0.0021304660476744175,0.0010652330238372087,0.0031956990715116262
1772571898974125800,5.820125732421875,0.0021304660476744175,0.0010652330238372087,0.004260932095348835
1772571898984056000,5.83005615234375,0.0010652330238372087,0.0021304660476744175,0.0010652330238372087
1772571898994003500,5.84000341796875,0.0010652330238372087,0.0010652330238372087,0.0021304660476744175
1772571899003935500,5.849935546875,0.0031956990715116262,0.0010652330238372087,0.0021304660476744175
1772571899013859800,5.85985986328125,0.004260932095348835,0,0.0021304660476744175
1772571899023791000,5.869791015625,0.0031956990715116262,0,0.0031956990715116262
1772571899033726500,5.8797265625,0.0031956990715116262,0.0010652330238372087,0.0031956990715116262
1772571899043658000,5.889657958984375,0.0021304660476744175,0.0021304660476744175,0.0031956990715116262
1772571899053631000,5.899630859375,0.0010652330238372087,0.0010652330238372087,0.0031956990715116262
1772571899063566800,5.90956689453125,0.0021304660476744175,0,0.0031956990715116262
1772571899073462000,5.9194619140625,0.0010652330238372087,0,0.0010652330238372087
1772571899083393800,5.929393798828125,0.0031956990715116262,0,0.0021304660476744175
1772571899093362400,5.939362548828125,0.0021304660476744175,0.0031956990715116262,0.0021304660476744175
1772571899103298000,5.949298095703125,0.0021304660476744175,0.0021304660476744175,0.0021304660476744175
1772571899113185500,5.959185546875,0.0031956990715116262,0,0.0021304660476744175
1772571899123116000,5.969115966796875,0.0021304660476744175,-0.0010652330238372087,0.0031956990715116262
1772571899133064200,5.979064208984375,0.0021304660476744175,0,0.0031956990715116262
1772571899142996700,5.988996826171875,0.0010652330238372087,0.0021304660476744175,0.0010652330238372087
1772571899152915200,5.998915283203125,0.0031956990715116262,0.0010652330238372087,0.0010652330238372087
1772571899162846200,6.00884619140625,0.0031956990715116262,0.0010652330238372087,0.0031956990715116262
1772571899172804600,6.0188046875,0.0021304660476744175,0.0010652330238372087,0.0021304660476744175
1772571899182738400,6.028738525390625,0.0031956990715116262,0.0010652330238372087,0.0021304660476744175
1772571899192672500,6.038672607421875,0.0021304660476744175,0.0010652330238372087,0.0031956990715116262
1772571899202606300,6.0486064453125,0.0031956990715116262,0,0.0021304660476744175
1772571899212535600,6.05853564453125,0.0021304660476744175,-0.0010652330238372087,0.0031956990715116262
1772571899222468900,6.06846875,0.0031956990715116262,0.0010652330238372087,0.0031956990715116262
1772571899232395000,6.07839501953125,0.0021304660476744175,0.0021304660476744175,0.0031956990715116262
1772571899242327800,6.088327880859375,0.0010652330238372087,0,0.0021304660476744175
1772571899252254200,6.098254150390625,0.0021304660476744175,0.0021304660476744175,0.0031956990715116262
1772571899262186000,6.10818603515625,0.0010652330238372087,0.0021304660476744175,0.004260932095348835
1772571899272118000,6.118117919921875,0.0010652330238372087,0,0.0021304660476744175
1772571899291943000,6.13794287109375,0.0021304660476744175,0.0010652330238372087,0.0021304660476744175
1772571899301938000,6.14793798828125,0.0021304660476744175,0.0010652330238372087,0.0021304660476744175
1772571899311874300,6.157874267578125,0.0021304660476744175,0.0010652330238372087,0.0021304660476744175
1772571899321790000,6.1677900390625,0.0010652330238372087,0.0021304660476744175,0.0031956990715116262
1772571899331724500,6.177724609375,0,0.0010652330238372087,0.0010652330238372087
1772571899341657300,6.1876572265625,0.0021304660476744175,0.0010652330238372087,0.0021304660476744175
1772571899351591700,6.197591796875,0.0021304660476744175,0,0.0021304660476744175
1772571899361496300,6.207496337890625,0.0021304660476744175,0.0010652330238372087,0.0010652330238372087
1772571899371427800,6.217427734375,0.0021304660476744175,0.0021304660476744175,0.0010652330238372087
1772571899381387800,6.2273876953125,0.0010652330238372087,0.0010652330238372087,0.004260932095348835
1772571899391321900,6.23732177734375,0.0010652330238372087,0,0.0031956990715116262
1772571899401236500,6.247236572265625,0.0021304660476744175,0,0.0010652330238372087
1772571899411168500,6.25716845703125,0.004260932095348835,0.0010652330238372087,0.0010652330238372087
1772571899421123800,6.267123779296875,0.0031956990715116262,0.0010652330238372087,0.0021304660476744175
1772571899431058200,6.27705810546875,0.0010652330238372087,0,0.0021304660476744175
1772571899440980000,6.28697998046875,0.0021304660476744175,0.0021304660476744175,0.0021304660476744175
1772571899450913000,6.2969130859375,0.0031956990715116262,0.0021304660476744175,0.0010652330238372087
1772571899460845800,6.306845703125,0.0031956990715116262,0,0.0021304660476744175
1772571899470779100,6.316779052734375,0.0031956990715116262,0,0.0021304660476744175
1772571899480715300,6.32671533203125,0.0021304660476744175,0.0021304660476744175,0.0031956990715116262
1772571899490648600,6.336648681640625,0.0021304660476744175,0.0010652330238372087,0.0021304660476744175
1772571899500577800,6.346577880859375,0.0010652330238372087,0.0021304660476744175,0.0021304660476744175
1772571899510510800,6.3565107421875,0.0021304660476744175,0.0021304660476744175,0.0031956990715116262
1772571899520452000,6.3664521484375,0.0010652330238372087,0.0010652330238372087,0.0021304660476744175
1772571899530386000,6.376385986328125,0.0021304660476744175,0,0.0021304660476744175
1772571899540325600,6.38632568359375,0.0010652330238372087,0,0.0021304660476744175
1772571899550260000,6.396260009765625,0.0031956990715116262,0.0010652330238372087,0.0021304660476744175
1772571899560185900,6.406185791015625,0.0021304660476744175,0.0010652330238372087,0.0031956990715116262
1772571899570119400,6.416119384765625,0.0021304660476744175,0.0010652330238372087,0.004260932095348835
1772571899580017700,6.426017578125,0.0021304660476744175,0,0.0021304660476744175
1772571899589947600,6.43594775390625,0.0031956990715116262,0,0.0031956990715116262
1772571899599913000,6.445912841796875,0.0010652330238372087,0,0.0021304660476744175
1772571899609846500,6.455846435546875,0.0021304660476744175,0.0010652330238372087,0.0021304660476744175
1772571899619775700,6.465775634765625,0.0031956990715116262,0.0010652330238372087,0.0010652330238372087
1772571899629708800,6.475708740234375,0.0031956990715116262,0.0010652330238372087,0.0021304660476744175
1772571899639635000,6.485635009765625,0.0021304660476744175,0.0010652330238372087,0.0031956990715116262
1772571899649567200,6.495567138671875,0.0010652330238372087,0.0031956990715116262,0.0031956990715116262
1772571899659473000,6.505472900390625,0.0010652330238372087,0.0021304660476744175,0.0021304660476744175
1772571899669402600,6.515402587890625,0.0021304660476744175,0.0010652330238372087,0.0021304660476744175
1772571899679362300,6.5253623046875,0.004260932095348835,0,0.0021304660476744175
1772571899689295000,6.535295166015625,0.0031956990715116262,0.0010652330238372087,0.0021304660476744175
1772571899699203000,6.545203125,0.0021304660476744175,0.0010652330238372087,0.0021304660476744175
1772571899709133300,6.55513330078125,0.0010652330238372087,0,0.0021304660476744175
1772571899719093800,6.56509375,0.0021304660476744175,0.0010652330238372087,0.0021304660476744175
1772571899729027000,6.575027099609375,0.0021304660476744175,0.0010652330238372087,0.0021304660476744175
1772571899738965200,6.58496533203125,0.0021304660476744175,0.0021304660476744175,0.0031956990715116262
1772571899748899000,6.594899169921875,0.0010652330238372087,0.0010652330238372087,0.0021304660476744175
1772571899758821400,6.6048212890625,0.0021304660476744175,0.0010652330238372087,0.0021304660476744175
1772571899768754200,6.614754150390625,0.0031956990715116262,0.0010652330238372087,0.0010652330238372087
1772571899778689800,6.624689697265625,0.0021304660476744175,0,0.0031956990715116262
1772571899788622800,6.634622802734375,0.0010652330238372087,0.0010652330238372087,0.0031956990715116262
1772571899798558500,6.644558349609375,0.0021304660476744175,0.0021304660476744175,0.0031956990715116262
1772571899808491800,6.65449169921875,0.0021304660476744175,0,0.0031956990715116262
1772571899818428400,6.664428466796875,0.0010652330238372087,0.0010652330238372087,0.0021304660476744175
1772571899828362000,6.674362060546875,0.0010652330238372087,0.0010652330238372087,0.0021304660476744175
1772571899838279400,6.684279541015625,0.0010652330238372087,0.0010652330238372087,0.0021304660476744175
1772571899848211500,6.69421142578125,0.0031956990715116262,0.0010652330238372087,0.0031956990715116262
1772571899858155000,6.704155029296875,0.0021304660476744175,0,0.0031956990715116262
1772571899868088000,6.714088134765625,0.0010652330238372087,0.0010652330238372087,0.0031956990715116262
1772571899878022000,6.72402197265625,0.0021304660476744175,0.0010652330238372087,0.0010652330238372087
1772571899887955000,6.733954833984375,0.0021304660476744175,0,0.0021304660476744175
1772571899897855700,6.743855712890625,0.0010652330238372087,0.0010652330238372087,0.0031956990715116262
1772571899907785500,6.753785400390625,0.0010652330238372087,0.0010652330238372087,0.0031956990715116262
1772571899917748500,6.76374853515625,0.0021304660476744175,0.0010652330238372087,0.0010652330238372087
1772571899927681800,6.773681884765625,0.0010652330238372087,0.0031956990715116262,0.0021304660476744175
1772571899937612500,6.783612548828125,0.0021304660476744175,0.0021304660476744175,0.0031956990715116262
1772571899947545600,6.793545654296875,0.0021304660476744175,-0.0010652330238372087,0.0021304660476744175
1772571899957476400,6.803476318359375,0.0010652330238372087,0.0010652330238372087,0.0021304660476744175
1772571899967409200,6.8134091796875,0.0010652330238372087,0.0031956990715116262,0.0031956990715116262
1772571899977321200,6.8233212890625,0.0010652330238372087,0,0.0021304660476744175
1772571899987252000,6.833251953125,0.0021304660476744175,0.0010652330238372087,0.0021304660476744175
1772571899997206500,6.84320654296875,0.0021304660476744175,0.0010652330238372087,0.0021304660476744175
1772571900007139600,6.8531396484375,0.0021304660476744175,0.0010652330238372087,0.0031956990715116262
1772571900017050000,6.863050048828125,0.0031956990715116262,0.0010652330238372087,0.0021304660476744175
1772571900026980900,6.87298095703125,0.0010652330238372087,0.0021304660476744175,0.0031956990715116262
1772571900036932000,6.88293212890625,0.0010652330238372087,0.0010652330238372087,0.0021304660476744175
1772571900046865000,6.892864990234375,0.0010652330238372087,0.0010652330238372087,0.0021304660476744175
1772571900056800000,6.902800048828125,0.0021304660476744175,0,0.0021304660476744175
1772571900066733000,6.912733154296875,0.0031956990715116262,0.0010652330238372087,0.0021304660476744175
1772571900076668000,6.92266796875,0.0021304660476744175,0.0010652330238372087,0.0031956990715116262
1772571900086601200,6.932601318359375,0.0010652330238372087,0.0010652330238372087,0.0031956990715116262
1772571900096507000,6.9425068359375,0.0031956990715116262,0.0010652330238372087,0.0053261648863554
1772571900106437400,6.952437255859375,0.0031956990715116262,0,0.0031956990715116262
1772571900116392400,6.962392333984375,0.0031956990715116262,0.0010652330238372087,0.0010652330238372087
1772571900126325200,6.9723251953125,0.0021304660476744175,0.0021304660476744175,0.0021304660476744175
1772571900136262100,6.98226220703125,0.0010652330238372087,0.0010652330238372087,0.004260932095348835
1772571900146195500,6.992195556640625,0.0031956990715116262,0.0010652330238372087,0.0010652330238372087
1772571900156105500,7.00210546875,0.0021304660476744175,0.0010652330238372087,0.0021304660476744175
1772571900166036700,7.01203662109375,0.0010652330238372087,0.0010652330238372087,0.004260932095348835
1772571900175974400,7.021974365234375,0.0031956990715116262,0.0010652330238372087,0.0021304660476744175
1772571900185906000,7.031906005859375,0.0031956990715116262,0,0.0010652330238372087
1772571900195833300,7.041833251953125,0.0010652330238372087,0.0010652330238372087,0.0010652330238372087
1772571900205764600,7.0517646484375,0.0010652330238372087,0.0010652330238372087,0.0021304660476744175
1772571900215701200,7.061701171875,0.0021304660476744175,0.0010652330238372087,0.0031956990715116262
1772571900225633000,7.071633056640625,0.0010652330238372087,0.0010652330238372087,0.0021304660476744175
1772571900235585500,7.08158544921875,0.0031956990715116262,0.0010652330238372087,0
1772571900245519400,7.091519287109375,0.0031956990715116262,0.0010652330238372087,0.0010652330238372087
1772571900255424300,7.10142431640625,0.0021304660476744175,0.0010652330238372087,0.0031956990715116262
1772571900275296000,7.1212958984375,0.0021304660476744175,0.0010652330238372087,0.0021304660476744175
1772571900285228000,7.13122802734375,0.0021304660476744175,0.0010652330238372087,0.0021304660476744175
1772571900295166700,7.141166748046875,0.0021304660476744175,0.0010652330238372087,0.004260932095348835
1772571900305099300,7.151099365234375,0.0021304660476744175,0.0021304660476744175,0.0021304660476744175
1772571900315020500,7.1610205078125,0.0010652330238372087,0.0021304660476744175,0.0021304660476744175
1772571900324952000,7.1709521484375,0.0010652330238372087,0,0.0021304660476744175
1772571900334911000,7.180910888671875,0.0010652330238372087,0.0010652330238372087,0.0031956990715116262
1772571900344845000,7.190844970703125,0.0010652330238372087,0.0031956990715116262,0.0031956990715116262
1772571900354773200,7.200773193359375,0.0021304660476744175,0.0010652330238372087,0.0021304660476744175
1772571900364706800,7.210706787109375,0,0.0010652330238372087,0.0031956990715116262
1772571900374657800,7.22065771484375,0.0010652330238372087,0,0.0021304660476744175
1772571900384593200,7.23059326171875,0.0010652330238372087,0.0010652330238372087,0.0021304660476744175
1772571900394511600,7.24051171875,0.0021304660476744175,0.0010652330238372087,0.004260932095348835
1772571900404445400,7.250445556640625,0.0031956990715116262,0.0010652330238372087,0.0021304660476744175
1772571900414378500,7.26037841796875,0.0021304660476744175,0.0010652330238372087,0.0021304660476744175
1772571900424312000,7.27031201171875,0.0010652330238372087,0.0021304660476744175,0.0031956990715116262
1772571900434233600,7.280233642578125,0.0021304660476744175,0.0010652330238372087,0.0021304660476744175
1772571900444166100,7.290166259765625,0.0010652330238372087,0.0021304660476744175,0.0031956990715116262
1772571900454104600,7.3001044921875,0.0010652330238372087,0.0021304660476744175,0.004260932095348835
1772571900464037600,7.31003759765625,0.0021304660476744175,0.0010652330238372087,0.0031956990715116262
1772571900473968000,7.319968017578125,0.0031956990715116262,0.0010652330238372087,0.0031956990715116262
1772571900483901000,7.32990087890625,0.0021304660476744175,0.0010652330238372087,0.0021304660476744175
1772571900493843200,7.33984326171875,0.0021304660476744175,0.0010652330238372087,0.0031956990715116262
1772571900503776800,7.34977685546875,0.0021304660476744175,0.0010652330238372087,0.0031956990715116262
1772571900513702400,7.359702392578125,0.0021304660476744175,0.0010652330238372087,0.0021304660476744175
1772571900523635500,7.369635498046875,0.0031956990715116262,0.0010652330238372087,0.0031956990715116262
1772571900533563000,7.37956298828125,0.0031956990715116262,0,0.004260932095348835
1772571900543495200,7.3894951171875,0.0021304660476744175,0.0010652330238372087,0.004260932095348835
1772571900553429500,7.399429443359375,0.0031956990715116262,0,0.0021304660476744175
1772571900563361800,7.40936181640625,0.004260932095348835,0,0.0010652330238372087
1772571900573291500,7.41929150390625,0.0031956990715116262,0.0010652330238372087,0.0031956990715116262
1772571900583223800,7.429223876953125,0.0021304660476744175,0.0021304660476744175,0.0021304660476744175
1772571900593162000,7.439161865234375,0.0010652330238372087,0.0021304660476744175,0.0031956990715116262
1772571900603095000,7.449094970703125,0.0021304660476744175,0.0010652330238372087,0.0021304660476744175
1772571900613030000,7.45902978515625,0.0021304660476744175,0.0010652330238372087,0.0021304660476744175
1772571900622963200,7.468963134765625,0.0010652330238372087,0.0021304660476744175,0.0021304660476744175
1772571900632886500,7.478886474609375,0.0021304660476744175,0,0.0010652330238372087
1772571900642818600,7.488818603515625,0.0010652330238372087,0,0.0010652330238372087
1772571900652737500,7.498737548828125,0.0021304660476744175,0.0021304660476744175,0.0031956990715116262
1772571900662668300,7.508668212890625,0.0031956990715116262,0.0010652330238372087,0.0031956990715116262
1772571900672623600,7.51862353515625,0.0021304660476744175,0,0.0021304660476744175
1772571900682557000,7.528556884765625,0.0021304660476744175,0.0010652330238372087,0.0021304660476744175
1772571900692488400,7.538488525390625,0.0021304660476744175,0,0.0021304660476744175
1772571900702421500,7.54842138671875,0.0021304660476744175,0.0010652330238372087,0.0031956990715116262
1772571900712325400,7.558325439453125,0.0021304660476744175,0,0.0021304660476744175
1772571900722255600,7.568255615234375,0.0031956990715116262,0.0010652330238372087,0.0021304660476744175
1772571900732214800,7.57821484375,0.0021304660476744175,0.0010652330238372087,0.0010652330238372087
1772571900742147800,7.58814794921875,0.0021304660476744175,0.0021304660476744175,0.0031956990715116262
1772571900752081200,7.5980810546875,0.0031956990715116262,0.0010652330238372087,0.0021304660476744175
1772571900762014200,7.60801416015625,0.0021304660476744175,0,0.0021304660476744175
1772571900771944000,7.61794384765625,0.0010652330238372087,0.0010652330238372087,0.0021304660476744175
1772571900781876700,7.627876708984375,0.0021304660476744175,0.0010652330238372087,0.0021304660476744175
1772571900791816200,7.637816162109375,0.0021304660476744175,0.0010652330238372087,0.0021304660476744175
1772571900801749500,7.64774951171875,0.0010652330238372087,-0.0010652330238372087,0.0021304660476744175
1772571900811677700,7.657677734375,0.0021304660476744175,0.0010652330238372087,0.0031956990715116262
1772571900821610500,7.667610595703125,0.0010652330238372087,0,0.0021304660476744175
1772571900831518700,7.677518798828125,0.0021304660476744175,0.0010652330238372087,0.0021304660476744175
1772571900841449200,7.68744921875,0.0021304660476744175,0,0.0021304660476744175
1772571900851420400,7.69742041015625,0.0010652330238372087,0.0010652330238372087,0.0031956990715116262
1772571900861355000,7.70735498046875,0.0021304660476744175,0,0.0031956990715116262
1772571900871282400,7.717282470703125,0.0031956990715116262,0.0010652330238372087,0.0031956990715116262
1772571900881216300,7.72721630859375,0.0021304660476744175,0.0021304660476744175,0.0031956990715116262
1772571900891152400,7.73715234375,0.0021304660476744175,0.0010652330238372087,0.0021304660476744175
1772571900901086500,7.74708642578125,0.0021304660476744175,0.0010652330238372087,0.0021304660476744175
1772571900911008800,7.7570087890625,0.0021304660476744175,0.0021304660476744175,0.0031956990715116262
1772571900920941600,7.766941650390625,0.0021304660476744175,0.0010652330238372087,0.004260932095348835
1772571900930873600,7.77687353515625,0.0031956990715116262,0.0010652330238372087,0.0021304660476744175
1772571900940806400,7.786806396484375,0.0031956990715116262,0.0010652330238372087,0.0031956990715116262
1772571900950739000,7.796739013671875,0.0021304660476744175,-0.0010652330238372087,0.0021304660476744175
1772571900960671700,7.806671630859375,0.0010652330238372087,0.0010652330238372087,0.0010652330238372087
1772571900970604800,7.816604736328125,0.0031956990715116262,0.0010652330238372087,0.0021304660476744175
1772571900980537600,7.82653759765625,0.0021304660476744175,0.0010652330238372087,0.0010652330238372087
1772571900990464500,7.836464599609375,0.0021304660476744175,0.0010652330238372087,0.0031956990715116262
1772571901000396500,7.846396484375,0.0021304660476744175,0.0010652330238372087,0.0021304660476744175
1772571901010331000,7.856330810546875,0.0021304660476744175,0.0010652330238372087,0.0021304660476744175
1772571901020263400,7.866263427734375,0.0031956990715116262,0.0010652330238372087,0.0021304660476744175
1772571901030202400,7.876202392578125,0.0031956990715116262,0.0010652330238372087,0.0021304660476744175
1772571901040135400,7.886135498046875,0.0021304660476744175,0,0.0010652330238372087
1772571901050060800,7.896060791015625,0.0031956990715116262,0.0010652330238372087,0.0010652330238372087
1772571901059993000,7.9059931640625,0.0031956990715116262,0,0.0010652330238372087
1772571901069923000,7.915923095703125,0.0031956990715116262,0.0010652330238372087,0.0010652330238372087
1772571901079855000,7.925855224609375,0.0031956990715116262,0,0.0021304660476744175
1772571901089793800,7.935793701171875,0.0021304660476744175,0.0010652330238372087,0.0021304660476744175
1772571901099726300,7.945726318359375,0.0021304660476744175,0.0010652330238372087,0.0021304660476744175
1772571901109655600,7.955655517578125,0.0021304660476744175,0.0010652330238372087,0.0031956990715116262
1772571901119588000,7.965588134765625,0.0010652330238372087,0.0010652330238372087,0.0031956990715116262
1772571901129518800,7.975518798828125,0.0021304660476744175,0.0010652330238372087,0.0021304660476744175
1772571901139451100,7.985451171875,0.0021304660476744175,0.0010652330238372087,0.0031956990715116262
1772571901149360600,7.995360595703125,0.0031956990715116262,0.0010652330238372087,0.0021304660476744175
1772571901159290600,8.00529052734375,0.0021304660476744175,0.0010652330238372087,0.0031956990715116262
1772571901169265000,8.015264892578125,0.0021304660476744175,0.0010652330238372087,0.0021304660476744175
1772571901179199500,8.025199462890624,0.0021304660476744175,0.0010652330238372087,0.0031956990715116262
1772571901189118700,8.03511865234375,0.0010652330238372087,0.0010652330238372087,0.0031956990715116262
1772571901199051500,8.045051513671876,0.0021304660476744175,0.0010652330238372087,0.004260932095348835
1772571901208983000,8.054983154296876,0.0021304660476744175,0,0.0021304660476744175
1772571901218915800,8.064915771484374,0.0031956990715116262,-0.0010652330238372087,0.0021304660476744175
1772571901228819000,8.07481884765625,0.0021304660476744175,0.0010652330238372087,0.0021304660476744175
1772571901238748700,8.084748779296875,0.0021304660476744175,0.0010652330238372087,0.0031956990715116262
1772571901248717600,8.094717529296876,0.0021304660476744175,0.0010652330238372087,0.004260932095348835
1772571901258651400,8.1046513671875,0,0.0010652330238372087,0.0031956990715116262
1772571901268576800,8.11457666015625,0.0010652330238372087,0.0010652330238372087,0.0021304660476744175
1772571901278459000,8.124458984375,0.0021304660476744175,0,0.0010652330238372087
1772571901298380300,8.14438037109375,0.0031956990715116262,0,0.004260932095348835
1772571901308319200,8.1543193359375,0.0031956990715116262,0.0010652330238372087,0.0031956990715116262
1772571901318234000,8.164234130859375,0.0010652330238372087,0,0.0031956990715116262
1772571901328170800,8.174170654296875,0.0021304660476744175,0.0010652330238372087,0.0031956990715116262
1772571901338080300,8.184080322265626,0.0031956990715116262,0.0010652330238372087,0.0010652330238372087
1772571901348014000,8.19401416015625,0.0031956990715116262,0.0010652330238372087,0.0021304660476744175
1772571901357943000,8.203943115234376,0.0021304660476744175,0.0010652330238372087,0.0031956990715116262
1772571901367876400,8.21387646484375,0.0021304660476744175,0.0010652330238372087,0.0031956990715116262
1772571901377821200,8.2238212890625,0.0021304660476744175,0,0.0010652330238372087
1772571901387755800,8.233755859375,0.0010652330238372087,0.0010652330238372087,0.0031956990715116262
1772571901397679600,8.2436796875,0.0010652330238372087,0.0010652330238372087,0.004260932095348835
1772571901407613200,8.25361328125,0.0021304660476744175,-0.0010652330238372087,0.0010652330238372087
1772571901417563600,8.263563720703125,0.0021304660476744175,0.0010652330238372087,0.0010652330238372087
1772571901427498800,8.273498779296874,0.0031956990715116262,0.0010652330238372087,0.0021304660476744175
1772571901437434600,8.2834345703125,0.0021304660476744175,0.0021304660476744175,0.0021304660476744175
1772571901447370000,8.293369873046874,0.0010652330238372087,0.0021304660476744175,0.0010652330238372087
1772571901457271600,8.303271484375,0.0021304660476744175,0,0.0021304660476744175
1772571901467203600,8.31320361328125,0.0010652330238372087,0.0010652330238372087,0.0021304660476744175
1772571901477168400,8.32316845703125,0.0010652330238372087,0.0021304660476744175,0.0021304660476744175
1772571901487103700,8.333103759765624,0.0021304660476744175,0.0010652330238372087,0.0021304660476744175
1772571901497001000,8.3430009765625,0.0021304660476744175,0.0010652330238372087,0.0031956990715116262
1772571901506932500,8.352932373046874,0.0021304660476744175,0,0.0031956990715116262
1772571901516896300,8.362896240234376,0.0031956990715116262,0.0010652330238372087,0.0031956990715116262
1772571901526831000,8.3728310546875,0.0021304660476744175,0.0010652330238372087,0.0031956990715116262
1772571901536756000,8.382755859375,0.0021304660476744175,0.0021304660476744175,0.0021304660476744175
1772571901546689500,8.392689453125,0.0021304660476744175,0.0010652330238372087,0.0031956990715116262
1772571901556618500,8.402618408203125,0.0021304660476744175,0.0010652330238372087,0.0021304660476744175
1772571901566551600,8.412551513671875,0.0021304660476744175,0.0021304660476744175,0.0031956990715116262
1772571901576483000,8.422483154296875,0.0021304660476744175,0.0010652330238372087,0.0031956990715116262
1772571901586416000,8.432416015625,0.0031956990715116262,0,0.0021304660476744175
1772571901596344800,8.4423447265625,0.0021304660476744175,0.0010652330238372087,0.0031956990715116262
1772571901606277400,8.45227734375,0.0010652330238372087,0.0010652330238372087,0.0031956990715116262
1772571901616213200,8.462213134765625,0.0021304660476744175,0.0010652330238372087,0.004260932095348835
1772571901626146300,8.472146240234375,0.0031956990715116262,0,0.0031956990715116262
1772571901636091000,8.4820908203125,0.0010652330238372087,0.0010652330238372087,0.0031956990715116262
1772571901646025200,8.492025146484375,0.0021304660476744175,0.0010652330238372087,0.0021304660476744175
1772571901655945200,8.5019453125,0.0031956990715116262,0.0010652330238372087,0.0010652330238372087
1772571901665877800,8.511877685546875,0.0031956990715116262,-0.0010652330238372087,0.0021304660476744175
1772571901675818000,8.52181787109375,0.0031956990715116262,0.0021304660476744175,0.0031956990715116262
1772571901685751600,8.53175146484375,0,0.0021304660476744175,0.0021304660476744175
1772571901695650800,8.54165087890625,0,0.0010652330238372087,0.0021304660476744175
1772571901705581000,8.5515810546875,0.0021304660476744175,0.0010652330238372087,0.0021304660476744175
1772571901715546000,8.561546142578125,0.0010652330238372087,0.0010652330238372087,0.0031956990715116262
1772571901725479700,8.571479736328126,0.0031956990715116262,0.0010652330238372087,0.0031956990715116262
1772571901735410000,8.581409912109375,0.0021304660476744175,0.0010652330238372087,0.0010652330238372087
1772571901745343200,8.59134326171875,0.0010652330238372087,0.0010652330238372087,0.0010652330238372087
1772571901755276300,8.6012763671875,0.0010652330238372087,0.0021304660476744175,0.0021304660476744175
1772571901765209600,8.611209716796875,0.0021304660476744175,0.0010652330238372087,0.0021304660476744175
1772571901775132200,8.621132080078125,0.0031956990715116262,0.0010652330238372087,0.004260932095348835
1772571901785064200,8.631064208984375,0.0021304660476744175,0.0010652330238372087,0.0031956990715116262
1772571901794998300,8.640998291015626,0.0021304660476744175,0,0
1772571901804930600,8.6509306640625,0.0031956990715116262,0,0.0010652330238372087
1772571901814864600,8.66086474609375,0.0031956990715116262,0.0021304660476744175,0.0021304660476744175
1772571901824797200,8.670797119140625,0.0031956990715116262,0.0010652330238372087,0.0010652330238372087
1772571901834735900,8.68073583984375,0.0031956990715116262,0.0010652330238372087,0.0021304660476744175
1772571901844669000,8.6906689453125,0.0021304660476744175,0.0010652330238372087,0.0031956990715116262
1772571901854582000,8.70058203125,0.0021304660476744175,0.0010652330238372087,0.0021304660476744175
1772571901864513300,8.71051318359375,0.0031956990715116262,0,0.0031956990715116262
1772571901874464500,8.720464599609375,0.0021304660476744175,0.0010652330238372087,0.0031956990715116262
1772571901884397800,8.730397705078126,0.0021304660476744175,0.0010652330238372087,0.0021304660476744175
1772571901894337500,8.740337646484376,0.0021304660476744175,0,0.0021304660476744175
1772571901904271400,8.750271240234374,0.0010652330238372087,0,0.0021304660476744175
1772571901914194000,8.76019384765625,0.0021304660476744175,-0.0021304660476744175,0.0031956990715116262
1772571901924126500,8.77012646484375,0.0021304660476744175,-0.0010652330238372087,0.0021304660476744175
1772571901934068000,8.78006787109375,0.0021304660476744175,0.0010652330238372087,0.0031956990715116262
1772571901944001500,8.79000146484375,0.0021304660476744175,0.0010652330238372087,0.0031956990715116262
1772571901953924000,8.799924072265625,0.0031956990715116262,0.0010652330238372087,0.0021304660476744175
1772571901963856600,8.809856689453126,0.0021304660476744175,0.0010652330238372087,0.0021304660476744175
1772571901973782300,8.8197822265625,0.0010652330238372087,0.0021304660476744175,0.0010652330238372087
1772571901983714000,8.829714111328125,0.0031956990715116262,0.0010652330238372087,0.0021304660476744175
1772571901993662200,8.839662109375,0.0010652330238372087,0.0010652330238372087,0.0010652330238372087
1772571902003595500,8.849595458984375,0.0021304660476744175,0,0.0021304660476744175
1772571902013529600,8.859529541015625,0.0021304660476744175,0,0.0031956990715116262
1772571902023463200,8.869463134765626,0.0010652330238372087,-0.0010652330238372087,0.0031956990715116262
1772571902033379000,8.879379150390625,0.0021304660476744175,0,0.0031956990715116262
1772571902043310600,8.889310546875,0.0021304660476744175,0.0010652330238372087,0.0031956990715116262
1772571902053249800,8.899249755859374,0.0021304660476744175,0,0.0021304660476744175
1772571902063182300,8.909182373046875,0.0010652330238372087,0.0010652330238372087,0.0021304660476744175
1772571902073086200,8.919086181640624,0.0010652330238372087,0.0010652330238372087,0.004260932095348835
1772571902083016000,8.929015869140626,0.0021304660476744175,0.0010652330238372087,0.0021304660476744175
1772571902092980500,8.93898046875,0.0021304660476744175,0.0010652330238372087,0.0031956990715116262
1772571902102913500,8.94891357421875,0.0010652330238372087,0.0010652330238372087,0.004260932095348835
1772571902112849000,8.958848876953125,0.0010652330238372087,0.0010652330238372087,0.0031956990715116262
1772571902122782200,8.9687822265625,0.0021304660476744175,0.0010652330238372087,0.0031956990715116262
1772571902132707300,8.978707275390626,0.0021304660476744175,0.0010652330238372087,0.0021304660476744175
1772571902142639900,8.988639892578124,0.0021304660476744175,0.0010652330238372087,0.0031956990715116262
1772571902152564200,8.998564208984375,0.0021304660476744175,0.0010652330238372087,0.0021304660476744175
1772571902162496000,9.00849609375,0.0031956990715116262,0.0021304660476744175,0.0010652330238372087
1772571902172437200,9.018437255859375,0.0021304660476744175,0.0010652330238372087,0.0010652330238372087
1772571902182370000,9.0283701171875,0.0021304660476744175,0.0021304660476744175,0.0021304660476744175
1772571902192307000,9.038306884765625,0.0021304660476744175,0.0010652330238372087,0.0021304660476744175
1772571902202240000,9.048239990234375,0.0021304660476744175,0.0010652330238372087,0.0021304660476744175
1772571902212168400,9.05816845703125,0.0021304660476744175,0.0010652330238372087,0.0010652330238372087
1772571902222101000,9.06810107421875,0.0010652330238372087,0.0031956990715116262,0.0031956990715116262
1772571902232031500,9.078031494140625,0.0010652330238372087,0.0010652330238372087,0.0031956990715116262
1772571902241964000,9.087964111328125,0.0021304660476744175,0.0010652330238372087,0.0021304660476744175
1772571902251877000,9.097877197265625,0.0031956990715116262,0.0010652330238372087,0.0010652330238372087
1772571902261807600,9.1078076171875,0.0021304660476744175,0.0021304660476744175,0.0021304660476744175
1772571902271768300,9.117768310546875,0.0021304660476744175,-0.0010652330238372087,0.0031956990715116262
1772571902281702000,9.127701904296876,0.0021304660476744175,0,0.0031956990715116262
1772571902291609900,9.13760986328125,0.0021304660476744175,0.0021304660476744175,0.0010652330238372087
1772571902301540600,9.14754052734375,0.0031956990715116262,0.0021304660476744175,0.0010652330238372087
1772571902311492900,9.157492919921875,0.0010652330238372087,0.0010652330238372087,0.0031956990715116262
1772571902321426000,9.167426025390625,0.0021304660476744175,0,0.0021304660476744175
1772571902331364600,9.177364501953125,0.0021304660476744175,0.0010652330238372087,0.0010652330238372087
1772571902341298200,9.187298095703126,0.0031956990715116262,0.0010652330238372087,0.0031956990715116262
1772571902351224300,9.197224365234375,0.0031956990715116262,0,0.0021304660476744175
1772571902361157000,9.2071572265625,0.0010652330238372087,0.0010652330238372087,0.0031956990715116262
1772571902371089000,9.2170888671875,0.0021304660476744175,0.0010652330238372087,0.0021304660476744175
1772571902381021400,9.227021484375,0.0021304660476744175,0.0010652330238372087,0.0021304660476744175
1772571902390963700,9.236963623046876,0.0021304660476744175,0,0.004260932095348835
1772571902400897500,9.2468974609375,0.0021304660476744175,0.0010652330238372087,0.0031956990715116262
1772571902410827800,9.256827880859374,0.0021304660476744175,-0.0010652330238372087,0.0031956990715116262
1772571902420761000,9.266760986328125,0.0031956990715116262,0.0010652330238372087,0.0010652330238372087
1772571902430665000,9.2766650390625,0.0021304660476744175,0,0.0010652330238372087
1772571902440595200,9.28659521484375,0.0031956990715116262,0.0010652330238372087,0.0021304660476744175
1772571902450549000,9.296549072265625,0.0021304660476744175,0.0010652330238372087,0.0031956990715116262
1772571902460481800,9.306481689453125,0.0010652330238372087,0,0.0021304660476744175
1772571902470413800,9.316413818359376,0.0010652330238372087,0,0.0010652330238372087
1772571902480346600,9.3263466796875,0.0031956990715116262,0.0010652330238372087,0.0021304660476744175
1772571902490285300,9.336285400390626,0.0031956990715116262,0.0021304660476744175,0.0021304660476744175
1772571902500219000,9.346218994140624,0.0021304660476744175,0.0021304660476744175,0.0021304660476744175
1772571902510144500,9.35614453125,0.0021304660476744175,0.0010652330238372087,0.0031956990715116262
1772571902520077000,9.3660771484375,0.0031956990715116262,0.0010652330238372087,0.0021304660476744175
1772571902529985300,9.3759853515625,0.0021304660476744175,0.0010652330238372087,0.0021304660476744175
1772571902539915300,9.385915283203126,0.0010652330238372087,0.0010652330238372087,0.0021304660476744175
1772571902549855200,9.395855224609376,0.0010652330238372087,0,0.0021304660476744175
1772571902559786500,9.405786376953126,0,0.0010652330238372087,0.0021304660476744175
1772571902569727000,9.41572705078125,0.0010652330238372087,0.0010652330238372087,0.0021304660476744175
1772571902579659000,9.425658935546876,0.0010652330238372087,0.0021304660476744175,0.0021304660476744175
1772571902589585200,9.435585205078125,0.0021304660476744175,0.0021304660476744175,0.0031956990715116262
1772571902599516700,9.4455166015625,0.0031956990715116262,0,0.0021304660476744175
1772571902609446400,9.4554462890625,0.0021304660476744175,0,0.0031956990715116262
1772571902619377700,9.465377685546875,0.0010652330238372087,0.0021304660476744175,0.0021304660476744175
1772571902629315600,9.475315673828124,0.0021304660476744175,0.0021304660476744175,0.0031956990715116262
1772571902639247600,9.48524755859375,0.0010652330238372087,0.01810896210372448,0.02023942768573761
1772571902649185000,9.49518505859375,0.0010652330238372087,0.01704372838139534,0.02982652559876442
1772571902659117600,9.50511767578125,0.0021304660476744175,0.0106523297727108,0.0213046595454216
1772571902669047800,9.5150478515625,0.0021304660476744175,0.0010652330238372087,0.00852186419069767
1772571902678980000,9.52497998046875,0.0010652330238372087,0.0010652330238372087,0.0031956990715116262
1772571902688912600,9.53491259765625,0.0021304660476744175,0.0010652330238372087,0.004260932095348835
1772571902698845000,9.544844970703124,0.004260932095348835,0.0031956990715116262,0.004260932095348835
1772571902708798000,9.5547978515625,0.0021304660476744175,-0.0031956990715116262,0
1772571902718732300,9.564732177734374,0.0010652330238372087,-0.007456631399691105,-0.004260932095348835
1772571902728671700,9.574671630859376,0.0021304660476744175,-0.012782796286046505,-0.012782796286046505
1772571902738606600,9.584606689453125,0.0010652330238372087,-0.009587096981704235,-0.007456631399691105
1772571902748501200,9.594501220703124,0.0021304660476744175,-0.0010652330238372087,-0.0010652330238372087
