time,seconds_elapsed,z,y,x
1772534304503244500,0.04524462890625,-1.0019989013671875,-0.145721435546875,0.0599822998046875
1772534304513260800,0.0552607421875,-1.003814697265625,-0.154998779296875,0.060821533203125
1772534304523276800,0.06527685546875,-0.99835205078125,-0.1609344482421875,0.0590057373046875
1772534304533293800,0.0752939453125,-0.9907989501953125,-0.1663360595703125,0.0564422607421875
1772534304543309600,0.0853095703125,-0.9848785400390625,-0.169281005859375,0.0556640625
1772534304553326800,0.095326904296875,-0.9893646240234375,-0.168426513671875,0.057891845703125
1772534304563342800,0.1053427734375,-0.998687744140625,-0.16778564453125,0.059600830078125
1772534304573358800,0.11535888671875,-1.0032501220703125,-0.167633056640625,0.06317138671875
1772534304583375600,0.125375732421875,-1.0092315673828125,-0.169647216796875,0.069793701171875
1772534304593391600,0.1353916015625,-1.0159454345703125,-0.1712799072265625,0.0758209228515625
1772534304603407600,0.14540771484375,-1.02423095703125,-0.1709747314453125,0.079925537109375
1772534304613425000,0.1554248046875,-1.0234527587890625,-0.1675262451171875,0.0792236328125
1772534304623440600,0.165440673828125,-1.0110321044921875,-0.165130615234375,0.077056884765625
1772534304633457700,0.175457763671875,-1.0013427734375,-0.1643829345703125,0.0697021484375
1772534304643473700,0.1854736328125,-0.9922637939453125,-0.1606597900390625,0.0630645751953125
1772534304653490000,0.195489990234375,-0.9800262451171875,-0.1633453369140625,0.0667572021484375
1772534304663506700,0.205506591796875,-0.9652099609375,-0.1792755126953125,0.079620361328125
1772534304673522700,0.215522705078125,-0.9517669677734375,-0.193359375,0.0867462158203125
1772534304683538700,0.22553857421875,-0.9412078857421875,-0.1988677978515625,0.0835418701171875
1772534304693555700,0.2355556640625,-0.9423370361328125,-0.196807861328125,0.0734710693359375
1772534304703571700,0.24557177734375,-0.9501495361328125,-0.1907806396484375,0.0606536865234375
1772534304713587700,0.255587646484375,-0.9591522216796875,-0.18145751953125,0.047515869140625
1772534304723604700,0.265604736328125,-0.9631195068359375,-0.1750030517578125,0.0399627685546875
1772534304733620700,0.275620849609375,-0.9688262939453125,-0.1737518310546875,0.043426513671875
1772534304743637800,0.2856376953125,-0.9744110107421875,-0.1794891357421875,0.04888916015625
1772534304753653800,0.29565380859375,-0.97564697265625,-0.183349609375,0.0514984130859375
1772534304763669800,0.305669677734375,-0.9801483154296875,-0.1800079345703125,0.0541534423828125
1772534304773686500,0.3156865234375,-0.9819793701171875,-0.1775665283203125,0.05841064453125
1772534304783702800,0.325702880859375,-0.973876953125,-0.17706298828125,0.0557098388671875
1772534304793718800,0.33571875,-0.9703521728515625,-0.1744384765625,0.0496063232421875
1772534304803735800,0.34573583984375,-0.9780426025390625,-0.1719207763671875,0.048095703125
1772534304813751800,0.355751708984375,-0.9792938232421875,-0.1645355224609375,0.0484161376953125
1772534304823768800,0.365768798828125,-0.9669036865234375,-0.1560516357421875,0.0533905029296875
1772534304833784800,0.375784912109375,-0.9546051025390625,-0.158935546875,0.0558624267578125
1772534304843800800,0.38580078125,-0.9439697265625,-0.1604461669921875,0.0597686767578125
1772534304853817600,0.395817626953125,-0.9356536865234375,-0.161224365234375,0.06439208984375
1772534304863833600,0.40583349609375,-0.93902587890625,-0.162933349609375,0.071197509765625
1772534304873849600,0.415849609375,-0.957855224609375,-0.1655731201171875,0.074188232421875
1772534304883867000,0.425866943359375,-0.983734130859375,-0.16412353515625,0.0785675048828125
1772534304893882600,0.435882568359375,-1.0095062255859375,-0.1622314453125,0.0819854736328125
1772534304903898600,0.445898681640625,-1.0386810302734375,-0.158843994140625,0.0811004638671875
1772534304913915600,0.45591552734375,-1.053070068359375,-0.158966064453125,0.08575439453125
1772534304923932000,0.465931884765625,-1.0594024658203125,-0.163818359375,0.094390869140625
1772534304933948700,0.47594873046875,-1.053070068359375,-0.17486572265625,0.0992584228515625
1772534304943964700,0.485964599609375,-1.033782958984375,-0.1767425537109375,0.095550537109375
1772534304953980700,0.495980712890625,-1.0299530029296875,-0.1730194091796875,0.107147216796875
1772534304963998000,0.505998046875,-1.0217742919921875,-0.1761322021484375,0.1059112548828125
1772534304974013700,0.516013671875,-0.998291015625,-0.171966552734375,0.090240478515625
1772534304984029700,0.52602978515625,-0.967010498046875,-0.169647216796875,0.080078125
1772534304994046700,0.536046630859375,-0.94464111328125,-0.1690216064453125,0.0666656494140625
1772534305004062700,0.546062744140625,-0.9392242431640625,-0.165435791015625,0.060791015625
1772534305014079700,0.556079833984375,-0.9446868896484375,-0.1627655029296875,0.0626220703125
1772534305024095700,0.566095703125,-0.954315185546875,-0.1663055419921875,0.0699920654296875
1772534305034111700,0.57611181640625,-0.9682159423828125,-0.172821044921875,0.078216552734375
1772534305044128800,0.586128662109375,-0.979217529296875,-0.1766510009765625,0.082061767578125
1772534305054144500,0.59614453125,-0.993255615234375,-0.177703857421875,0.0840301513671875
1772534305064160800,0.606160888671875,-0.9898529052734375,-0.176300048828125,0.0912933349609375
1772534305074177800,0.616177734375,-0.974578857421875,-0.17877197265625,0.0943450927734375
1772534305084193800,0.62619384765625,-0.964599609375,-0.1817169189453125,0.087066650390625
1772534305094209800,0.636209716796875,-0.9688262939453125,-0.17840576171875,0.080474853515625
1772534305104226800,0.646226806640625,-0.9716339111328125,-0.173492431640625,0.08197021484375
1772534305114242800,0.656242919921875,-0.974761962890625,-0.1763458251953125,0.085418701171875
1772534305124259600,0.666259521484375,-0.97821044921875,-0.179962158203125,0.0847015380859375
1772534305134275600,0.676275634765625,-0.9797515869140625,-0.18280029296875,0.0816802978515625
1772534305144291600,0.68629150390625,-0.9793243408203125,-0.177459716796875,0.07391357421875
1772534305154308900,0.696308837890625,-0.9739837646484375,-0.173065185546875,0.0683135986328125
1772534305164324900,0.706324951171875,-0.9766387939453125,-0.17462158203125,0.0709228515625
1772534305174340600,0.716340576171875,-0.9760284423828125,-0.1790313720703125,0.073516845703125
1772534305184357600,0.726357666015625,-0.9766998291015625,-0.1826934814453125,0.07330322265625
1772534305194374000,0.736373779296875,-0.9853668212890625,-0.1829833984375,0.076019287109375
1772534305204390700,0.746390625,-0.994354248046875,-0.182342529296875,0.0767822265625
1772534305214406700,0.75640673828125,-0.9924468994140625,-0.177734375,0.07415771484375
1772534305224422700,0.766422607421875,-0.9888153076171875,-0.176727294921875,0.071319580078125
1772534305234440000,0.77643994140625,-0.986572265625,-0.1770477294921875,0.0694580078125
1772534305244456000,0.7864560546875,-0.9831695556640625,-0.1757049560546875,0.066253662109375
1772534305254471700,0.7964716796875,-0.980682373046875,-0.174835205078125,0.061798095703125
1772534305264488700,0.80648876953125,-0.9742889404296875,-0.1730499267578125,0.061553955078125
1772534305274504700,0.816504638671875,-0.9703216552734375,-0.172637939453125,0.0620880126953125
1772534305284520700,0.826520751953125,-0.9676666259765625,-0.1734161376953125,0.0615386962890625
1772534305294537700,0.836537841796875,-0.9711456298828125,-0.175933837890625,0.0645599365234375
1772534305304553700,0.8465537109375,-0.9772186279296875,-0.1786651611328125,0.0716400146484375
1772534305314570800,0.85657080078125,-0.9757232666015625,-0.17926025390625,0.07916259765625
1772534305324586800,0.866586669921875,-0.97381591796875,-0.1795654296875,0.0804443359375
1772534305334602800,0.876602783203125,-0.97564697265625,-0.1752471923828125,0.076324462890625
1772534305344619800,0.886619873046875,-0.9748992919921875,-0.170654296875,0.070281982421875
1772534305354635800,0.8966357421875,-0.9774322509765625,-0.16693115234375,0.066497802734375
1772534305364651800,0.90665185546875,-0.996307373046875,-0.1658935546875,0.0675811767578125
1772534305374668800,0.916668701171875,-1.012725830078125,-0.16619873046875,0.071258544921875
1772534305384684000,0.92668408203125,-1.01312255859375,-0.167694091796875,0.074951171875
1772534305394700000,0.936699951171875,-1.0070343017578125,-0.1710357666015625,0.077545166015625
1772534305404717000,0.946717041015625,-0.9973907470703125,-0.1732330322265625,0.07733154296875
1772534305414733000,0.956733154296875,-0.996612548828125,-0.1725311279296875,0.084625244140625
1772534305424750000,0.96675,-0.9909210205078125,-0.1719818115234375,0.08953857421875
1772534305434766000,0.97676611328125,-0.9832305908203125,-0.1715545654296875,0.090850830078125
1772534305444782000,0.986781982421875,-0.97613525390625,-0.1720733642578125,0.0908355712890625
1772534305454798800,0.996798828125,-0.96856689453125,-0.1717071533203125,0.0880279541015625
1772534305464814800,1.00681494140625,-0.9629364013671875,-0.16998291015625,0.08502197265625
1772534305474831000,1.0168310546875,-0.9619293212890625,-0.1699981689453125,0.087738037109375
1772534305484848000,1.02684814453125,-0.9632415771484375,-0.170623779296875,0.0875091552734375
1772534305494864000,1.03686376953125,-0.9712982177734375,-0.174835205078125,0.087677001953125
1772534305504879900,1.0468798828125,-0.980438232421875,-0.17486572265625,0.0893402099609375
1772534305514897000,1.05689697265625,-0.988037109375,-0.173065185546875,0.0886993408203125
1772534305524913200,1.0669130859375,-0.997894287109375,-0.1739654541015625,0.087982177734375
1772534305534930000,1.076929931640625,-0.9934539794921875,-0.173065185546875,0.0897064208984375
1772534305544946000,1.08694580078125,-0.9788818359375,-0.175567626953125,0.090179443359375
1772534305554962000,1.0969619140625,-0.969146728515625,-0.1800384521484375,0.0836029052734375
1772534305564979200,1.106979248046875,-0.960906982421875,-0.1785430908203125,0.0795135498046875
1772534305574995000,1.116994873046875,-0.95855712890625,-0.171875,0.07562255859375
1772534305585011000,1.127010986328125,-0.9725341796875,-0.1654205322265625,0.0704803466796875
1772534305595028000,1.137028076171875,-0.9803466796875,-0.1607666015625,0.0695037841796875
1772534305605044000,1.1470439453125,-0.9842529296875,-0.1608428955078125,0.072174072265625
1772534305615060000,1.15706005859375,-0.98480224609375,-0.1688232421875,0.0765228271484375
1772534305625077000,1.167076904296875,-0.990142822265625,-0.1762542724609375,0.0794830322265625
1772534305635093000,1.177093017578125,-0.9952239990234375,-0.1819305419921875,0.08392333984375
1772534305645110000,1.187110107421875,-0.993621826171875,-0.1783905029296875,0.0811920166015625
1772534305655126000,1.1971259765625,-0.9901123046875,-0.170654296875,0.0725555419921875
1772534305665142000,1.20714208984375,-0.9827880859375,-0.1655120849609375,0.06060791015625
1772534305675159000,1.217158935546875,-0.972137451171875,-0.1638641357421875,0.055084228515625
1772534305685175000,1.227175048828125,-0.9670867919921875,-0.1641387939453125,0.0537109375
1772534305695190800,1.237190673828125,-0.9709930419921875,-0.1701202392578125,0.054962158203125
1772534305705208000,1.2472080078125,-0.9852447509765625,-0.1716156005859375,0.06024169921875
1772534305715224000,1.25722412109375,-0.9914093017578125,-0.170440673828125,0.0625762939453125
1772534305725240000,1.267239990234375,-1.0002288818359375,-0.168487548828125,0.0621185302734375
1772534305735256800,1.2772568359375,-1.0031890869140625,-0.1666717529296875,0.06304931640625
1772534305745272800,1.28727294921875,-0.996063232421875,-0.171112060546875,0.06573486328125
1772534305755289000,1.2972890625,-0.9886627197265625,-0.1734161376953125,0.06884765625
1772534305765306000,1.30730615234375,-0.9824371337890625,-0.1751251220703125,0.0733642578125
1772534305775321900,1.31732177734375,-0.9814910888671875,-0.173919677734375,0.07427978515625
1772534305785339000,1.3273388671875,-0.971893310546875,-0.1716156005859375,0.069122314453125
1772534305795355100,1.337355224609375,-0.97113037109375,-0.17352294921875,0.06402587890625
1772534305805371100,1.34737109375,-0.97845458984375,-0.1666717529296875,0.0610198974609375
1772534305815388000,1.357387939453125,-0.9718170166015625,-0.165679931640625,0.064361572265625
1772534305825404000,1.36740380859375,-0.974273681640625,-0.1694793701171875,0.06683349609375
1772534305835420000,1.377419921875,-0.9732513427734375,-0.1732177734375,0.0692138671875
1772534305845437000,1.38743701171875,-0.9729461669921875,-0.1739501953125,0.0731048583984375
1772534305855453000,1.397452880859375,-0.9745025634765625,-0.17510986328125,0.0739898681640625
1772534305865469000,1.407468994140625,-0.973419189453125,-0.175201416015625,0.0750732421875
1772534305875486000,1.41748583984375,-0.9756317138671875,-0.1737823486328125,0.0735321044921875
1772534305885502200,1.427502197265625,-0.98028564453125,-0.175140380859375,0.0746307373046875
1772534305895519000,1.43751904296875,-0.9806976318359375,-0.174163818359375,0.0755462646484375
1772534305905535000,1.447534912109375,-0.98004150390625,-0.171844482421875,0.0764312744140625
1772534305915551000,1.457551025390625,-0.98248291015625,-0.1733856201171875,0.0783538818359375
1772534305925568000,1.467568115234375,-0.9858245849609375,-0.1743316650390625,0.0776824951171875
1772534305935584000,1.477583984375,-0.993560791015625,-0.1739044189453125,0.0764923095703125
1772534305945600000,1.48760009765625,-0.9955902099609375,-0.168304443359375,0.076446533203125
1772534305955617000,1.497616943359375,-0.9902801513671875,-0.16912841796875,0.0749053955078125
1772534305965633000,1.507633056640625,-0.9814910888671875,-0.17364501953125,0.074432373046875
1772534305975648800,1.517648681640625,-0.9762115478515625,-0.1779327392578125,0.0762176513671875
1772534305985666000,1.527666015625,-0.9793548583984375,-0.176971435546875,0.07763671875
1772534305995682000,1.53768212890625,-0.9799957275390625,-0.1730499267578125,0.0778961181640625
1772534306005698000,1.547697998046875,-0.979736328125,-0.1734619140625,0.0754547119140625
1772534306015714800,1.55771484375,-0.9811248779296875,-0.1699676513671875,0.0708160400390625
1772534306025731000,1.56773095703125,-0.981719970703125,-0.163665771484375,0.071868896484375
1772534306035748000,1.577748046875,-0.975189208984375,-0.165985107421875,0.0727081298828125
1772534306045764000,1.58776416015625,-0.9813995361328125,-0.171478271484375,0.073272705078125
1772534306055779800,1.59777978515625,-0.9889068603515625,-0.17596435546875,0.0792999267578125
1772534306065797000,1.607797119140625,-0.9932861328125,-0.178924560546875,0.08563232421875
1772534306075813000,1.617813232421875,-0.99261474609375,-0.1791534423828125,0.0831298828125
1772534306085829000,1.6278291015625,-0.9844207763671875,-0.1758270263671875,0.0787811279296875
1772534306095846000,1.637845947265625,-0.9810333251953125,-0.171630859375,0.07135009765625
1772534306105862000,1.64786181640625,-0.982666015625,-0.16876220703125,0.0687713623046875
1772534306115878100,1.657878173828125,-0.9843292236328125,-0.1652374267578125,0.070068359375
1772534306125895000,1.66789501953125,-0.9783172607421875,-0.165924072265625,0.0711822509765625
1772534306135911000,1.677910888671875,-0.9687652587890625,-0.169586181640625,0.0691070556640625
1772534306145927000,1.687927001953125,-0.966796875,-0.17315673828125,0.069091796875
1772534306155944000,1.69794384765625,-0.974700927734375,-0.1726837158203125,0.0711212158203125
1772534306165960200,1.707960205078125,-0.991302490234375,-0.1736297607421875,0.0747528076171875
1772534306175977000,1.71797705078125,-0.997161865234375,-0.17364501953125,0.07525634765625
1772534306185993000,1.727992919921875,-0.9973907470703125,-0.1754302978515625,0.073974609375
1772534306196009000,1.738009033203125,-0.9941864013671875,-0.1759033203125,0.0703277587890625
1772534306206026000,1.74802587890625,-0.986236572265625,-0.1740264892578125,0.0673370361328125
1772534306216042000,1.7580419921875,-0.9757232666015625,-0.1720733642578125,0.0674285888671875
1772534306226058000,1.76805810546875,-0.9682769775390625,-0.16986083984375,0.067596435546875
1772534306236075000,1.778074951171875,-0.9744720458984375,-0.168304443359375,0.0629730224609375
1772534306246091000,1.788091064453125,-0.9832611083984375,-0.1636505126953125,0.062713623046875
1772534306256107000,1.79810693359375,-0.9854736328125,-0.16021728515625,0.0626983642578125
1772534306266124000,1.8081240234375,-0.9876861572265625,-0.1638336181640625,0.0649566650390625
1772534306276140000,1.81814013671875,-0.990142822265625,-0.1685943603515625,0.0673065185546875
1772534306286156800,1.82815673828125,-0.990478515625,-0.17095947265625,0.07562255859375
1772534306296173000,1.838173095703125,-0.9847259521484375,-0.1736297607421875,0.08056640625
1772534306306189000,1.84818896484375,-0.9838714599609375,-0.1744537353515625,0.08404541015625
1772534306316206000,1.8582060546875,-0.9895172119140625,-0.173126220703125,0.083343505859375
1772534306326221800,1.868221923828125,-0.993743896484375,-0.1681976318359375,0.0811614990234375
1772534306336237800,1.87823779296875,-0.9904632568359375,-0.165283203125,0.07916259765625
1772534306346255000,1.888255126953125,-0.97857666015625,-0.1638031005859375,0.0758514404296875
1772534306356271000,1.89827099609375,-0.9719390869140625,-0.165863037109375,0.0702667236328125
1772534306366287000,1.908287109375,-0.972686767578125,-0.1653900146484375,0.071319580078125
1772534306376303900,1.918303955078125,-0.9700775146484375,-0.1628875732421875,0.072540283203125
1772534306386320400,1.9283203125,-0.972503662109375,-0.1639556884765625,0.0740509033203125
1772534306396336400,1.93833642578125,-0.9795684814453125,-0.1677398681640625,0.0712738037109375
1772534306406353200,1.948353271484375,-0.991424560546875,-0.1661376953125,0.0716400146484375
1772534306416369400,1.958369384765625,-0.99041748046875,-0.164398193359375,0.073883056640625
1772534306426385400,1.968385498046875,-0.981658935546875,-0.164794921875,0.0711517333984375
1772534306436402400,1.97840234375,-0.9707183837890625,-0.166259765625,0.0679779052734375
1772534306446418200,1.988418212890625,-0.9731292724609375,-0.1680450439453125,0.0659332275390625
1772534306456435200,1.998435302734375,-0.980987548828125,-0.164703369140625,0.0630645751953125
1772534306466451500,2.008451416015625,-0.98565673828125,-0.160186767578125,0.0645599365234375
1772534306476467500,2.018467529296875,-0.9893646240234375,-0.160919189453125,0.06842041015625
1772534306486484200,2.028484130859375,-0.9903106689453125,-0.1650390625,0.0709991455078125
1772534306496500200,2.038500244140625,-0.986328125,-0.1668853759765625,0.0732574462890625
1772534306506516200,2.04851611328125,-0.9818572998046875,-0.1699371337890625,0.07269287109375
1772534306516533200,2.058533203125,-0.9748382568359375,-0.1688079833984375,0.0767669677734375
1772534306526549200,2.06854931640625,-0.971221923828125,-0.1668548583984375,0.076934814453125
1772534306536565200,2.078565185546875,-0.9761199951171875,-0.1613006591796875,0.069366455078125
1772534306546582300,2.088582275390625,-0.9845733642578125,-0.1605987548828125,0.0642547607421875
1772534306556598500,2.0985986328125,-0.99432373046875,-0.162139892578125,0.060760498046875
1772534306566614300,2.1086142578125,-1.0035400390625,-0.1636505126953125,0.0728607177734375
1772534306576631300,2.11863134765625,-0.9967803955078125,-0.1700897216796875,0.07672119140625
1772534306586647300,2.128647216796875,-0.993804931640625,-0.165374755859375,0.062835693359375
1772534306596663300,2.138663330078125,-0.96380615234375,-0.171173095703125,0.069183349609375
1772534306606680300,2.148680419921875,-0.9761962890625,-0.1657257080078125,0.0783233642578125
1772534306616696300,2.1586962890625,-0.970367431640625,-0.1648101806640625,0.07244873046875
1772534306626713300,2.16871337890625,-0.969696044921875,-0.16693115234375,0.0692901611328125
1772534306636729300,2.178729248046875,-0.9786529541015625,-0.1693267822265625,0.0660858154296875
1772534306646745000,2.1887451171875,-0.9814605712890625,-0.1702728271484375,0.06695556640625
1772534306656762400,2.198762451171875,-0.98309326171875,-0.1706085205078125,0.0703277587890625
1772534306666778400,2.2087783203125,-0.9843292236328125,-0.172454833984375,0.0747222900390625
1772534306676794400,2.21879443359375,-0.9837188720703125,-0.17022705078125,0.0734100341796875
1772534306686811100,2.22881103515625,-0.9841461181640625,-0.169097900390625,0.070953369140625
1772534306696827400,2.238827392578125,-0.98486328125,-0.1690521240234375,0.069366455078125
1772534306706843400,2.248843505859375,-0.983917236328125,-0.170654296875,0.0725250244140625
1772534306716860400,2.2588603515625,-0.982421875,-0.173980712890625,0.0770111083984375
1772534306726876200,2.268876220703125,-0.9793243408203125,-0.1728057861328125,0.0777130126953125
1772534306736892200,2.27889208984375,-0.9740142822265625,-0.171600341796875,0.077880859375
1772534306746909400,2.288909423828125,-0.9752197265625,-0.169281005859375,0.07440185546875
1772534306756925400,2.298925537109375,-0.977386474609375,-0.16778564453125,0.070831298828125
1772534306766942200,2.308942138671875,-0.9805755615234375,-0.16693115234375,0.070343017578125
1772534306776958200,2.318958251953125,-0.979095458984375,-0.16766357421875,0.07135009765625
1772534306786974500,2.328974365234375,-0.9792327880859375,-0.1690826416015625,0.0698394775390625
1772534306796991200,2.3389912109375,-0.9876556396484375,-0.1726531982421875,0.0726776123046875
1772534306807007200,2.34900732421875,-0.9933624267578125,-0.1735382080078125,0.0753326416015625
1772534306817023200,2.359023193359375,-0.9923858642578125,-0.1719207763671875,0.0725860595703125
1772534306827040500,2.36904052734375,-0.9854583740234375,-0.1728973388671875,0.0684356689453125
1772534306837056500,2.379056396484375,-0.9796600341796875,-0.172882080078125,0.068450927734375
1772534306847072300,2.389072265625,-0.975677490234375,-0.1686553955078125,0.06219482421875
1772534306857089300,2.39908935546875,-0.979248046875,-0.1619873046875,0.0555267333984375
1772534306867105300,2.409105224609375,-0.9904632568359375,-0.1593170166015625,0.0540771484375
1772534306877121300,2.419121337890625,-1.0036468505859375,-0.157958984375,0.0587615966796875
1772534306887138300,2.42913818359375,-1.0050506591796875,-0.1611175537109375,0.0647735595703125
1772534306897154300,2.439154296875,-0.9967041015625,-0.1694183349609375,0.068389892578125
1772534306907170300,2.44917041015625,-0.983734130859375,-0.1758880615234375,0.0716400146484375
1772534306917187300,2.459187255859375,-0.9767608642578125,-0.1750946044921875,0.07391357421875
1772534306927203300,2.469203369140625,-0.9780731201171875,-0.1728973388671875,0.075531005859375
1772534306937220400,2.479220458984375,-0.97882080078125,-0.171478271484375,0.0785369873046875
1772534306947236400,2.489236328125,-0.9756011962890625,-0.17034912109375,0.0778656005859375
1772534306957252400,2.49925244140625,-0.9686126708984375,-0.168365478515625,0.0761566162109375
1772534306967269400,2.509269287109375,-0.9670867919921875,-0.1669158935546875,0.075103759765625
1772534306977285400,2.519285400390625,-0.9661865234375,-0.1672515869140625,0.0718841552734375
1772534306987301400,2.52930126953125,-0.9682769775390625,-0.166900634765625,0.0680999755859375
1772534306997318100,2.539318115234375,-0.9793243408203125,-0.1672210693359375,0.070068359375
1772534307007334100,2.549334228515625,-0.992095947265625,-0.170806884765625,0.0765380859375
1772534307017350400,2.559350341796875,-1.0043487548828125,-0.1714324951171875,0.076416015625
1772534307027367400,2.569367431640625,-1.0067901611328125,-0.1729278564453125,0.0756378173828125
1772534307037383400,2.579383544921875,-1.000335693359375,-0.172515869140625,0.07452392578125
1772534307047399200,2.589399169921875,-0.98822021484375,-0.170928955078125,0.0710296630859375
1772534307057416400,2.59941650390625,-0.9744873046875,-0.168609619140625,0.0642242431640625
1772534307067432400,2.609432373046875,-0.9746856689453125,-0.1614532470703125,0.059112548828125
1772534307077448400,2.619448486328125,-0.9777984619140625,-0.1561126708984375,0.0607757568359375
1772534307087465200,2.62946533203125,-0.98291015625,-0.15863037109375,0.061737060546875
1772534307097481200,2.639481201171875,-0.992950439453125,-0.164703369140625,0.068267822265625
1772534307107497200,2.649497314453125,-0.9983978271484375,-0.165435791015625,0.0751495361328125
1772534307117514500,2.659514404296875,-1.003021240234375,-0.1700439453125,0.076507568359375
1772534307127530200,2.6695302734375,-1.004180908203125,-0.1692657470703125,0.0769805908203125
1772534307137547300,2.67954736328125,-0.998046875,-0.16357421875,0.0791473388671875
1772534307147563300,2.689563232421875,-0.9905242919921875,-0.1632232666015625,0.07830810546875
1772534307157579500,2.69957958984375,-0.98748779296875,-0.1680755615234375,0.08111572265625
1772534307167596300,2.70959619140625,-0.9878082275390625,-0.1746978759765625,0.0776214599609375
1772534307177612300,2.7196123046875,-0.9798583984375,-0.1717681884765625,0.0761871337890625
1772534307187628300,2.729628173828125,-0.9749908447265625,-0.164947509765625,0.073150634765625
1772534307197645300,2.739645263671875,-0.9658966064453125,-0.162872314453125,0.0702667236328125
1772534307207661300,2.749661376953125,-0.9692230224609375,-0.1623687744140625,0.06121826171875
1772534307217677300,2.75967724609375,-0.97125244140625,-0.1590728759765625,0.059783935546875
1772534307227694300,2.7696943359375,-0.967987060546875,-0.1634521484375,0.06488037109375
1772534307237710300,2.77971044921875,-0.9727020263671875,-0.1665191650390625,0.067779541015625
1772534307247726300,2.789726318359375,-0.977142333984375,-0.1692352294921875,0.0697174072265625
1772534307257743400,2.799743408203125,-0.977142333984375,-0.166839599609375,0.0701904296875
1772534307267759400,2.80975927734375,-0.9779510498046875,-0.1621856689453125,0.068084716796875
1772534307277775400,2.819775390625,-0.98236083984375,-0.1605224609375,0.06585693359375
1772534307287792000,2.829792236328125,-0.984588623046875,-0.1612091064453125,0.0673370361328125
1772534307297808400,2.839808349609375,-0.9896392822265625,-0.16259765625,0.0689239501953125
1772534307307824400,2.849824462890625,-0.9920501708984375,-0.1647186279296875,0.07147216796875
1772534307317841400,2.85984130859375,-0.9899139404296875,-0.1659393310546875,0.073822021484375
1772534307327857200,2.869857177734375,-0.985382080078125,-0.164703369140625,0.072296142578125
1772534307337874400,2.87987451171875,-0.9785308837890625,-0.1640472412109375,0.0688934326171875
1772534307347890400,2.889890380859375,-0.9785614013671875,-0.1631927490234375,0.0699462890625
1772534307357906400,2.899906494140625,-0.980865478515625,-0.163726806640625,0.0725250244140625
1772534307367923200,2.909923095703125,-0.98114013671875,-0.1660614013671875,0.0742034912109375
1772534307377939200,2.919939208984375,-0.9802093505859375,-0.1704559326171875,0.0767364501953125
1772534307387955200,2.929955078125,-0.9785614013671875,-0.1711883544921875,0.0780487060546875
1772534307397972200,2.93997216796875,-0.977447509765625,-0.16595458984375,0.076416015625
1772534307407988200,2.94998828125,-0.9761505126953125,-0.167510986328125,0.07232666015625
1772534307418004200,2.960004150390625,-0.9759521484375,-0.1649017333984375,0.0728912353515625
1772534307428021200,2.970021240234375,-0.977935791015625,-0.1627197265625,0.069549560546875
1772534307438037200,2.980037353515625,-0.980072021484375,-0.16351318359375,0.0673370361328125
1772534307448053200,2.99005322265625,-0.9868927001953125,-0.16510009765625,0.07122802734375
1772534307458070300,3.0000703125,-0.991943359375,-0.1620025634765625,0.0727691650390625
1772534307468086300,3.010086181640625,-0.9944305419921875,-0.1579437255859375,0.068115234375
1772534307478102300,3.020102294921875,-0.99725341796875,-0.1560516357421875,0.06585693359375
1772534307488119000,3.030119140625,-0.996063232421875,-0.1580963134765625,0.068756103515625
1772534307498135000,3.040135009765625,-0.9900665283203125,-0.1629180908203125,0.072906494140625
1772534307508151300,3.0501513671875,-0.982757568359375,-0.168243408203125,0.079010009765625
1772534307518168300,3.060168212890625,-0.9761199951171875,-0.1693878173828125,0.0830230712890625
1772534307528184000,3.07018408203125,-0.974212646484375,-0.1675567626953125,0.0834503173828125
1772534307538201000,3.080201171875,-0.9739532470703125,-0.163848876953125,0.0788116455078125
1772534307548217300,3.09021728515625,-0.9743804931640625,-0.16143798828125,0.07562255859375
1772534307558233300,3.1002333984375,-0.9785919189453125,-0.1609039306640625,0.0718994140625
1772534307568250000,3.11025,-0.984649658203125,-0.1633453369140625,0.0753936767578125
1772534307578266000,3.12026611328125,-0.98785400390625,-0.164154052734375,0.0788116455078125
1772534307588282000,3.1302822265625,-0.9829559326171875,-0.1650543212890625,0.0769805908203125
1772534307598299400,3.14029931640625,-0.9751129150390625,-0.166107177734375,0.07623291015625
1772534307608315100,3.150315185546875,-0.9714202880859375,-0.1665496826171875,0.0719451904296875
1772534307618331100,3.1603310546875,-0.977783203125,-0.16357421875,0.0664215087890625
1772534307628348200,3.17034814453125,-0.9891204833984375,-0.162750244140625,0.0651092529296875
1772534307638364400,3.180364501953125,-0.9956817626953125,-0.1589508056640625,0.065399169921875
1772534307648380200,3.190380126953125,-0.997161865234375,-0.1591644287109375,0.0657958984375
1772534307658397200,3.200397216796875,-0.9959869384765625,-0.1602020263671875,0.064849853515625
1772534307668413200,3.2104130859375,-0.991058349609375,-0.1634979248046875,0.06591796875
1772534307678429200,3.22042919921875,-0.98876953125,-0.1665802001953125,0.0696868896484375
1772534307688446200,3.2304462890625,-0.986785888671875,-0.1662445068359375,0.0709228515625
1772534307698462200,3.240462158203125,-0.9864044189453125,-0.165557861328125,0.071563720703125
1772534307708478200,3.250478271484375,-0.9879913330078125,-0.1643524169921875,0.072509765625
1772534307718495200,3.2604951171875,-0.9855804443359375,-0.1640167236328125,0.074493408203125
1772534307728511000,3.270510986328125,-0.9828338623046875,-0.1657257080078125,0.075653076171875
1772534307738527200,3.28052734375,-0.980926513671875,-0.1685028076171875,0.0768890380859375
1772534307748544300,3.290544189453125,-0.9860076904296875,-0.1681671142578125,0.0774993896484375
1772534307758560300,3.300560302734375,-0.9869384765625,-0.1647186279296875,0.0759735107421875
1772534307768576300,3.310576171875,-0.984466552734375,-0.162078857421875,0.073822021484375
1772534307778593300,3.32059326171875,-0.9785919189453125,-0.160919189453125,0.0706329345703125
1772534307788609300,3.330609375,-0.981964111328125,-0.1588287353515625,0.068939208984375
1772534307798626300,3.340626220703125,-0.9854583740234375,-0.1598968505859375,0.071929931640625
1772534307808642000,3.35064208984375,-0.9843292236328125,-0.1623382568359375,0.0737457275390625
1772534307818658000,3.360657958984375,-0.980560302734375,-0.164825439453125,0.07177734375
1772534307828675300,3.37067529296875,-0.984466552734375,-0.165771484375,0.06854248046875
1772534307838691300,3.38069140625,-0.990509033203125,-0.1625518798828125,0.0721435546875
1772534307848707000,3.39070703125,-0.995513916015625,-0.1574554443359375,0.0685882568359375
1772534307858724000,3.40072412109375,-0.992034912109375,-0.15570068359375,0.067413330078125
1772534307868740000,3.410739990234375,-0.9888458251953125,-0.1568603515625,0.0683746337890625
1772534307878756400,3.42075634765625,-0.9878997802734375,-0.159942626953125,0.074188232421875
1772534307888773000,3.430773193359375,-0.9905548095703125,-0.165740966796875,0.0786895751953125
1772534307898789000,3.4407890625,-0.98779296875,-0.1661376953125,0.07904052734375
1772534307908805000,3.45080517578125,-0.9781951904296875,-0.1632843017578125,0.077484130859375
1772534307918822400,3.460822509765625,-0.976776123046875,-0.159088134765625,0.070404052734375
1772534307928838100,3.470838134765625,-0.9794464111328125,-0.1550140380859375,0.06768798828125
1772534307938854100,3.480854248046875,-0.9806365966796875,-0.15655517578125,0.0698394775390625
1772534307948871200,3.49087109375,-0.98712158203125,-0.1577911376953125,0.073944091796875
1772534307958887200,3.50088720703125,-0.97808837890625,-0.1638336181640625,0.074859619140625
1772534307968903400,3.5109033203125,-0.9835205078125,-0.1675262451171875,0.0771026611328125
1772534307978920200,3.520920166015625,-0.98663330078125,-0.1640472412109375,0.0764312744140625
1772534307988936200,3.530936279296875,-0.985595703125,-0.1610565185546875,0.0751495361328125
1772534307998952200,3.5409521484375,-0.9884490966796875,-0.1597442626953125,0.070343017578125
1772534308008969200,3.55096923828125,-0.982696533203125,-0.160491943359375,0.0697021484375
1772534308018985200,3.560985107421875,-0.9817962646484375,-0.1648101806640625,0.0680389404296875
1772534308029001200,3.571001220703125,-0.9805908203125,-0.164947509765625,0.0676727294921875
1772534308039018200,3.581018310546875,-0.9775238037109375,-0.163177490234375,0.069427490234375
1772534308049034200,3.5910341796875,-0.9777679443359375,-0.16357421875,0.0660858154296875
1772534308059050000,3.601050048828125,-0.982635498046875,-0.162811279296875,0.0631866455078125
1772534308069067300,3.6110673828125,-0.9858245849609375,-0.15826416015625,0.0630340576171875
1772534308079083300,3.621083251953125,-0.987548828125,-0.159698486328125,0.0695037841796875
1772534308089100000,3.63110009765625,-0.9894256591796875,-0.16351318359375,0.0727386474609375
1772534308099116000,3.641115966796875,-0.9854583740234375,-0.166259765625,0.072723388671875
1772534308109132300,3.65113232421875,-0.9784393310546875,-0.16357421875,0.07196044921875
1772534308119149300,3.6611494140625,-0.975982666015625,-0.1638031005859375,0.075042724609375
1772534308129165000,3.6711650390625,-0.9780731201171875,-0.1678924560546875,0.080108642578125
1772534308139181000,3.68118115234375,-0.980743408203125,-0.169097900390625,0.0821075439453125
1772534308149198300,3.6911982421875,-0.9803466796875,-0.169342041015625,0.0806427001953125
1772534308159214300,3.70121435546875,-0.97589111328125,-0.168243408203125,0.08050537109375
1772534308169230300,3.711230224609375,-0.9748077392578125,-0.1657257080078125,0.077117919921875
1772534308179247000,3.7212470703125,-0.9731597900390625,-0.160675048828125,0.0707855224609375
1772534308189263000,3.73126318359375,-0.97515869140625,-0.1611175537109375,0.0683746337890625
1772534308199279400,3.741279296875,-0.9822998046875,-0.1618499755859375,0.069580078125
1772534308209296100,3.751296142578125,-0.980712890625,-0.162689208984375,0.07159423828125
1772534308219312000,3.76131201171875,-0.9804229736328125,-0.1666412353515625,0.073760986328125
1772534308229328100,3.771328125,-0.9824066162109375,-0.1693572998046875,0.074188232421875
1772534308239345400,3.781345458984375,-0.9821319580078125,-0.1677398681640625,0.075164794921875
1772534308249361200,3.791361083984375,-0.9813995361328125,-0.1613006591796875,0.069732666015625
1772534308259377200,3.801377197265625,-0.992767333984375,-0.1585235595703125,0.06732177734375
1772534308269394200,3.811394287109375,-1.003631591796875,-0.158233642578125,0.070037841796875
1772534308279410200,3.82141015625,-1.0055999755859375,-0.1585540771484375,0.0717010498046875
1772534308289426200,3.83142626953125,-1.0034637451171875,-0.163055419921875,0.07330322265625
1772534308299443200,3.841443115234375,-1.0005950927734375,-0.16668701171875,0.0774383544921875
1772534308309459200,3.851459228515625,-0.99224853515625,-0.1651153564453125,0.079010009765625
1772534308319475200,3.86147509765625,-0.986663818359375,-0.1613616943359375,0.0783843994140625
1772534308329492000,3.871491943359375,-0.9764862060546875,-0.1592559814453125,0.07916259765625
1772534308339508200,3.88150830078125,-0.9682769775390625,-0.1600494384765625,0.078887939453125
1772534308349524200,3.891524169921875,-0.972198486328125,-0.1610260009765625,0.0774383544921875
1772534308359541200,3.901541259765625,-0.9742889404296875,-0.16229248046875,0.0793914794921875
1772534308369557200,3.91155712890625,-0.9787445068359375,-0.1649932861328125,0.081329345703125
1772534308379573000,3.921572998046875,-0.98382568359375,-0.1648406982421875,0.0844573974609375
1772534308389590500,3.931590576171875,-0.983795166015625,-0.1662139892578125,0.0839996337890625
1772534308399606500,3.9416064453125,-0.98577880859375,-0.168212890625,0.0856781005859375
1772534308409622500,3.95162255859375,-0.98455810546875,-0.169830322265625,0.0885467529296875
1772534308419639300,3.961639404296875,-0.9861602783203125,-0.167755126953125,0.0830841064453125
1772534308429655600,3.971655517578125,-0.9828033447265625,-0.1633758544921875,0.0777130126953125
1772534308439671600,3.981671630859375,-0.9789276123046875,-0.16119384765625,0.07110595703125
1772534308449688300,3.991688232421875,-0.97802734375,-0.156463623046875,0.0663604736328125
1772534308459704300,4.001704345703125,-0.9782867431640625,-0.1545867919921875,0.062286376953125
1772534308469720300,4.01172021484375,-0.9802703857421875,-0.1556243896484375,0.06298828125
1772534308479737600,4.021737548828125,-0.9831085205078125,-0.161376953125,0.067535400390625
1772534308489753600,4.031753662109375,-0.9836578369140625,-0.165863037109375,0.071502685546875
1772534308499770400,4.041770263671875,-0.99102783203125,-0.1684722900390625,0.0739898681640625
1772534308509786400,4.051786376953125,-0.9931793212890625,-0.1647491455078125,0.075775146484375
1772534308519802400,4.06180224609375,-0.995330810546875,-0.1612091064453125,0.075592041015625
1772534308529819400,4.0718193359375,-0.9909515380859375,-0.1601715087890625,0.07476806640625
1772534308539835400,4.08183544921875,-0.9810791015625,-0.163299560546875,0.0737152099609375
1772534308549851400,4.091851318359375,-0.9753570556640625,-0.1629180908203125,0.070587158203125
1772534308559868400,4.101868408203125,-0.972137451171875,-0.165313720703125,0.0735015869140625
1772534308569884400,4.111884521484375,-0.970306396484375,-0.1634674072265625,0.0744171142578125
1772534308579900400,4.121900390625,-0.9716033935546875,-0.1649017333984375,0.073272705078125
1772534308589917400,4.13191748046875,-0.9735870361328125,-0.164459228515625,0.07305908203125
1772534308599933400,4.141933349609375,-0.97882080078125,-0.1623992919921875,0.0742340087890625
1772534308609949400,4.151949462890625,-0.9870758056640625,-0.164398193359375,0.0740203857421875
1772534308619966500,4.161966552734375,-0.990142822265625,-0.165924072265625,0.0747833251953125
1772534308629982500,4.171982421875,-0.99127197265625,-0.1641082763671875,0.0723419189453125
1772534308639998500,4.18199853515625,-0.9969024658203125,-0.1610107421875,0.0699615478515625
1772534308650015200,4.19201513671875,-0.9990692138671875,-0.16058349609375,0.0681915283203125
1772534308660031500,4.202031494140625,-0.9935302734375,-0.1603851318359375,0.0672149658203125
1772534308670047500,4.212047607421875,-0.984161376953125,-0.160980224609375,0.0663299560546875
1772534308680064500,4.222064453125,-0.978790283203125,-0.162628173828125,0.06561279296875
1772534308690080500,4.23208056640625,-0.9786834716796875,-0.1616973876953125,0.0694732666015625
1772534308700096300,4.24209619140625,-0.976470947265625,-0.16021728515625,0.071533203125
1772534308710113500,4.252113525390625,-0.9796600341796875,-0.1600189208984375,0.0692138671875
1772534308720129500,4.262129638671875,-0.9835052490234375,-0.1603546142578125,0.0699310302734375
1772534308730145500,4.2721455078125,-0.9852447509765625,-0.160369873046875,0.0724029541015625
1772534308740162300,4.282162353515625,-0.98870849609375,-0.1618804931640625,0.0748443603515625
1772534308750178300,4.29217822265625,-0.98468017578125,-0.1636505126953125,0.0772857666015625
1772534308760194600,4.302194580078125,-0.983245849609375,-0.165771484375,0.0795135498046875
1772534308770211600,4.312211669921875,-0.981353759765625,-0.1629180908203125,0.0793914794921875
1772534308780227300,4.322227294921875,-0.973541259765625,-0.16241455078125,0.0764617919921875
1772534308790243300,4.332243408203125,-0.9694976806640625,-0.160675048828125,0.07257080078125
1772534308800260600,4.342260498046875,-0.9724578857421875,-0.15887451171875,0.070526123046875
1772534308810276600,4.352276611328125,-0.9765777587890625,-0.156280517578125,0.0682830810546875
1772534308820292400,4.362292236328125,-0.9820709228515625,-0.1577911376953125,0.069061279296875
1772534308830309400,4.372309326171875,-0.9867706298828125,-0.159454345703125,0.0727996826171875
1772534308840325400,4.382325439453125,-0.9922637939453125,-0.1632232666015625,0.076751708984375
1772534308850341600,4.392341552734375,-0.9920501708984375,-0.1661834716796875,0.0810546875
1772534308860358400,4.4023583984375,-0.9854736328125,-0.1654815673828125,0.077728271484375
1772534308870374400,4.41237451171875,-0.9829254150390625,-0.1648101806640625,0.0743560791015625
1772534308880390400,4.422390380859375,-0.9786834716796875,-0.16119384765625,0.0688934326171875
1772534308890407700,4.43240771484375,-0.981689453125,-0.1568145751953125,0.0655670166015625
1772534308900423400,4.44242333984375,-0.9852294921875,-0.156402587890625,0.0647735595703125
1772534308910439400,4.452439453125,-0.985565185546875,-0.1560516357421875,0.06280517578125
1772534308920456400,4.46245654296875,-0.987030029296875,-0.1563262939453125,0.0650634765625
1772534308930472400,4.472472412109375,-0.984893798828125,-0.1588897705078125,0.0709075927734375
1772534308940488400,4.482488525390625,-0.9823455810546875,-0.162872314453125,0.0732421875
1772534308950505500,4.49250537109375,-0.9809112548828125,-0.16363525390625,0.0736236572265625
1772534308960521500,4.502521484375,-0.9790496826171875,-0.160888671875,0.0750274658203125
1772534308970537500,4.512537353515625,-0.978851318359375,-0.1600341796875,0.0738525390625
1772534308980554200,4.52255419921875,-0.9817047119140625,-0.1578521728515625,0.0736236572265625
1772534308990570500,4.532570556640625,-0.988372802734375,-0.1564178466796875,0.0719451904296875
1772534309000586500,4.54258642578125,-0.987213134765625,-0.1565704345703125,0.0719146728515625
1772534309010603500,4.552603515625,-0.9824981689453125,-0.1600494384765625,0.073486328125
1772534309020619500,4.56261962890625,-0.9856414794921875,-0.1626129150390625,0.07525634765625
1772534309030635300,4.57263525390625,-0.9854888916015625,-0.1612701416015625,0.0758819580078125
1772534309040652500,4.582652587890625,-0.984375,-0.1590576171875,0.0772552490234375
1772534309050668500,4.59266845703125,-0.984771728515625,-0.1556549072265625,0.0706634521484375
1772534309060684500,4.6026845703125,-0.9863739013671875,-0.151824951171875,0.0643463134765625
1772534309070701300,4.612701416015625,-0.9816436767578125,-0.1539154052734375,0.0655975341796875
1772534309080717600,4.622717529296875,-0.9821014404296875,-0.1563720703125,0.0683135986328125
1772534309090733600,4.632733642578125,-0.982666015625,-0.156402587890625,0.070648193359375
1772534309100750300,4.642750244140625,-0.9805908203125,-0.155914306640625,0.06964111328125
1772534309110766300,4.652766357421875,-0.9781951904296875,-0.155792236328125,0.068084716796875
1772534309120782300,4.6627822265625,-0.97991943359375,-0.152679443359375,0.0692596435546875
1772534309130799600,4.672799560546875,-0.986083984375,-0.151336669921875,0.0721893310546875
1772534309140815600,4.682815673828125,-0.994293212890625,-0.152984619140625,0.07586669921875
1772534309150831400,4.692831298828125,-0.9982452392578125,-0.152587890625,0.0782470703125
1772534309160848400,4.702848388671875,-0.99456787109375,-0.154083251953125,0.08197021484375
1772534309170864400,4.712864501953125,-0.988494873046875,-0.15582275390625,0.0833892822265625
1772534309180880600,4.722880615234375,-0.9833526611328125,-0.1534423828125,0.0810546875
1772534309190897400,4.7328974609375,-0.9788665771484375,-0.1553497314453125,0.078155517578125
1772534309200913400,4.742913330078125,-0.9759063720703125,-0.1515655517578125,0.0719146728515625
1772534309210929400,4.752929443359375,-0.9777069091796875,-0.153900146484375,0.0716705322265625
1772534309220946400,4.762946533203125,-0.979705810546875,-0.152130126953125,0.0738372802734375
1772534309230962400,4.77296240234375,-0.9747772216796875,-0.154022216796875,0.075592041015625
1772534309240978400,4.782978515625,-0.973846435546875,-0.155181884765625,0.072601318359375
1772534309250995500,4.792995361328125,-0.9730072021484375,-0.1555023193359375,0.069488525390625
1772534309261011500,4.803011474609375,-0.97430419921875,-0.1537017822265625,0.065948486328125
1772534309271027500,4.81302734375,-0.9840850830078125,-0.1534576416015625,0.0647735595703125
1772534309281044500,4.82304443359375,-0.9918060302734375,-0.1510009765625,0.06634521484375
1772534309291060500,4.833060546875,-0.9965362548828125,-0.1505126953125,0.06787109375
1772534309301076500,4.843076416015625,-1.0018463134765625,-0.1510009765625,0.06854248046875
1772534309311093200,4.85309326171875,-1.000457763671875,-0.152618408203125,0.0693817138671875
1772534309321109500,4.863109619140625,-0.9940032958984375,-0.1525421142578125,0.0682373046875
1772534309331125500,4.87312548828125,-0.9846038818359375,-0.1502227783203125,0.0639801025390625
1772534309341142500,4.883142578125,-0.9799652099609375,-0.1517181396484375,0.0640411376953125
1772534309351158300,4.893158203125,-0.9816131591796875,-0.1518707275390625,0.064605712890625
1772534309361174300,4.90317431640625,-0.9870147705078125,-0.148529052734375,0.0660247802734375
1772534309371191600,4.913191650390625,-0.992584228515625,-0.14642333984375,0.0648956298828125
1772534309381207600,4.92320751953125,-0.9939117431640625,-0.1470184326171875,0.064727783203125
1772534309391223600,4.9332236328125,-0.989776611328125,-0.1516876220703125,0.0670318603515625
1772534309401240300,4.943240234375,-0.9841156005859375,-0.1517333984375,0.07177734375
1772534309411256300,4.95325634765625,-0.9813995361328125,-0.15185546875,0.0751953125
1772534309421272300,4.963272216796875,-0.9827880859375,-0.152099609375,0.0756072998046875
1772534309431289300,4.973289306640625,-0.9943084716796875,-0.1518707275390625,0.0757904052734375
1772534309441305300,4.983305419921875,-1.006500244140625,-0.1515960693359375,0.07501220703125
1772534309451321300,4.9933212890625,-1.0111846923828125,-0.15020751953125,0.0758514404296875
1772534309461338400,5.00333837890625,-1.0043487548828125,-0.1488189697265625,0.075408935546875
1772534309471354400,5.013354248046875,-0.9874725341796875,-0.1519317626953125,0.072967529296875
1772534309481370000,5.0233701171875,-0.9710845947265625,-0.15167236328125,0.06793212890625
1772534309491387400,5.033387451171875,-0.9624786376953125,-0.15167236328125,0.065185546875
1772534309501403400,5.0434033203125,-0.9622650146484375,-0.1490936279296875,0.063873291015625
1772534309511419400,5.05341943359375,-0.970123291015625,-0.1487884521484375,0.068267822265625
1772534309521436200,5.063436279296875,-0.9820556640625,-0.1481475830078125,0.073638916015625
1772534309531452400,5.073452392578125,-0.9923858642578125,-0.15118408203125,0.07562255859375
1772534309541468400,5.083468505859375,-0.9985809326171875,-0.1505889892578125,0.0755157470703125
1772534309551485200,5.093485107421875,-1.002105712890625,-0.1505584716796875,0.0756988525390625
1772534309561501200,5.103501220703125,-1.009429931640625,-0.14813232421875,0.0738677978515625
1772534309571517200,5.11351708984375,-1.0093231201171875,-0.1487274169921875,0.075775146484375
1772534309581534500,5.123534423828125,-1.00006103515625,-0.1510162353515625,0.0725860595703125
1772534309591550500,5.133550537109375,-0.996002197265625,-0.150146484375,0.0654296875
1772534309601566200,5.143566162109375,-0.990386962890625,-0.1468505859375,0.0608062744140625
1772534309611583200,5.153583251953125,-0.98126220703125,-0.146728515625,0.0583343505859375
1772534309621599500,5.163599609375,-0.97998046875,-0.1470947265625,0.0619964599609375
1772534309631615500,5.173615478515625,-0.98016357421875,-0.152069091796875,0.067535400390625
1772534309641632300,5.18363232421875,-0.9807891845703125,-0.1587677001953125,0.0731201171875
1772534309651648300,5.193648193359375,-0.983978271484375,-0.1596832275390625,0.0770111083984375
1772534309661664300,5.203664306640625,-0.9797210693359375,-0.157562255859375,0.0778045654296875
1772534309671681300,5.213681396484375,-0.9760589599609375,-0.15423583984375,0.0699462890625
1772534309681697300,5.223697265625,-0.9804534912109375,-0.1517181396484375,0.06805419921875
1772534309691713300,5.23371337890625,-0.982025146484375,-0.1506805419921875,0.0693206787109375
1772534309701730300,5.243730224609375,-0.9868011474609375,-0.153717041015625,0.0689849853515625
1772534309711746300,5.253746337890625,-0.9814300537109375,-0.1548004150390625,0.070892333984375
1772534309721762300,5.26376220703125,-0.9802703857421875,-0.15496826171875,0.0693359375
1772534309731779300,5.273779296875,-0.9803619384765625,-0.1532135009765625,0.063812255859375
1772534309741795300,5.28379541015625,-0.9810791015625,-0.1494293212890625,0.0598602294921875
1772534309751811300,5.293811279296875,-0.98565673828125,-0.152252197265625,0.0597686767578125
1772534309761828400,5.303828369140625,-0.9923858642578125,-0.1574554443359375,0.0651702880859375
1772534309772032300,5.3140322265625,-0.99517822265625,-0.158294677734375,0.06884765625
1772534309781860400,5.3238603515625,-0.99395751953125,-0.1609344482421875,0.0683746337890625
1772534309791876400,5.33387646484375,-0.992706298828125,-0.157623291015625,0.064666748046875
1772534309801893000,5.34389306640625,-0.98760986328125,-0.15118408203125,0.06109619140625
1772534309811909400,5.353909423828125,-0.9834747314453125,-0.1502685546875,0.0579986572265625
1772534309821925400,5.36392529296875,-0.9828338623046875,-0.1488494873046875,0.0517578125
1772534309831942400,5.3739423828125,-0.97760009765625,-0.14581298828125,0.05548095703125
1772534309841958400,5.38395849609375,-0.97216796875,-0.1475677490234375,0.05987548828125
1772534309851974100,5.39397412109375,-0.9743499755859375,-0.1544036865234375,0.061737060546875
1772534309861991400,5.403991455078125,-0.985626220703125,-0.159088134765625,0.068695068359375
1772534309872007400,5.41400732421875,-0.987335205078125,-0.1567535400390625,0.0731353759765625
1772534309882023400,5.4240234375,-0.98651123046875,-0.156219482421875,0.0732269287109375
1772534309892040200,5.434040283203125,-0.984832763671875,-0.1572418212890625,0.07012939453125
1772534309902056200,5.44405615234375,-0.9814453125,-0.154449462890625,0.0691070556640625
1772534309912072400,5.454072509765625,-0.98046875,-0.15509033203125,0.0727996826171875
1772534309922089200,5.464089111328125,-0.97772216796875,-0.155029296875,0.0766754150390625
1772534309932105200,5.474105224609375,-0.9717254638671875,-0.1574249267578125,0.077362060546875
1772534309942121200,5.484121337890625,-0.972900390625,-0.15899658203125,0.074859619140625
1772534309952138500,5.494138427734375,-0.9796142578125,-0.15692138671875,0.0680084228515625
1772534309962154500,5.504154541015625,-0.987548828125,-0.15142822265625,0.068756103515625
1772534309972170200,5.514170166015625,-0.9893646240234375,-0.149078369140625,0.0682373046875
1772534309982187300,5.524187255859375,-0.9845123291015625,-0.1524810791015625,0.0657806396484375
1772534309992203300,5.534203369140625,-0.985015869140625,-0.1558990478515625,0.066497802734375
1772534310002219500,5.544219482421875,-0.9888458251953125,-0.157989501953125,0.0703582763671875
1772534310012236300,5.554236328125,-0.9887542724609375,-0.1588592529296875,0.07330322265625
1772534310022252300,5.564252197265625,-0.9861602783203125,-0.160858154296875,0.07379150390625
1772534310032268300,5.574268310546875,-0.9834442138671875,-0.1593017578125,0.069000244140625
1772534310042285300,5.584285400390625,-0.9832763671875,-0.1533050537109375,0.0598907470703125
1772534310052301300,5.59430126953125,-0.9833526611328125,-0.1447601318359375,0.054718017578125
1772534310062317300,5.6043173828125,-0.9850921630859375,-0.14385986328125,0.052764892578125
1772534310072334300,5.614334228515625,-0.9884490966796875,-0.1484222412109375,0.0547027587890625
1772534310082350300,5.624350341796875,-0.9871826171875,-0.15338134765625,0.0646820068359375
1772534310092366300,5.634366455078125,-0.9855194091796875,-0.1603240966796875,0.07171630859375
1772534310102383400,5.64438330078125,-0.9862060546875,-0.16168212890625,0.071136474609375
1772534310112399400,5.6543994140625,-0.9877777099609375,-0.158782958984375,0.069793701171875
1772534310122415400,5.664415283203125,-0.993072509765625,-0.15618896484375,0.0699462890625
1772534310132432100,5.67443212890625,-0.993194580078125,-0.1521453857421875,0.0660400390625
1772534310142448400,5.684448486328125,-0.9864044189453125,-0.1533355712890625,0.0666656494140625
1772534310152464400,5.69446435546875,-0.9813385009765625,-0.15606689453125,0.067291259765625
1772534310162481400,5.7044814453125,-0.9761199951171875,-0.1589813232421875,0.0689544677734375
1772534310172497200,5.7144970703125,-0.971282958984375,-0.155792236328125,0.068389892578125
1772534310182513200,5.72451318359375,-0.9764556884765625,-0.1529083251953125,0.0684051513671875
1772534310192530400,5.734530517578125,-0.9852752685546875,-0.1495208740234375,0.065185546875
1772534310202546400,5.74454638671875,-0.988555908203125,-0.1501007080078125,0.0634613037109375
1772534310212562400,5.7545625,-0.9945526123046875,-0.1513214111328125,0.0676727294921875
1772534310222578200,5.764578125,-0.9929351806640625,-0.1569061279296875,0.072662353515625
1772534310232595200,5.77459521484375,-0.9854888916015625,-0.159942626953125,0.074371337890625
1772534310242611500,5.784611572265625,-0.981597900390625,-0.160736083984375,0.0705108642578125
1772534310252627500,5.79462744140625,-0.9804229736328125,-0.1582794189453125,0.0654754638671875
1772534310262644200,5.804644287109375,-0.9874725341796875,-0.1527099609375,0.0614776611328125
1772534310272660200,5.81466015625,-0.99688720703125,-0.1479644775390625,0.06292724609375
1772534310282676200,5.82467626953125,-1.0015869140625,-0.14996337890625,0.06549072265625
1772534310292693500,5.834693603515625,-0.9957122802734375,-0.152984619140625,0.0671844482421875
1772534310302709200,5.844709228515625,-0.9881591796875,-0.1563873291015625,0.06671142578125
1772534310312725200,5.854725341796875,-0.9842681884765625,-0.157440185546875,0.0636138916015625
1772534310322742300,5.8647421875,-0.9829864501953125,-0.15301513671875,0.0618438720703125
1772534310332758500,5.874758544921875,-0.9820404052734375,-0.14984130859375,0.059967041015625
1772534310342774300,5.884774169921875,-0.9828948974609375,-0.1533355712890625,0.059051513671875
1772534310352791300,5.894791259765625,-0.9917449951171875,-0.1560211181640625,0.0609893798828125
1772534310362807300,5.904807373046875,-0.9994049072265625,-0.1565399169921875,0.064544677734375
1772534310372823300,5.9148232421875,-0.9919586181640625,-0.1578521728515625,0.066864013671875
1772534310382840800,5.9248408203125,-0.983001708984375,-0.158721923828125,0.0614471435546875
1772534310392856800,5.93485693359375,-0.982818603515625,-0.156280517578125,0.058258056640625
1772534310402873000,5.944873046875,-0.973968505859375,-0.153472900390625,0.0577239990234375
1772534310412889900,5.954889892578125,-0.9737091064453125,-0.154266357421875,0.0587921142578125
1772534310422905900,5.96490576171875,-0.9738616943359375,-0.1572723388671875,0.0628814697265625
1772534310432921900,5.974921875,-0.9721832275390625,-0.1580047607421875,0.066131591796875
1772534310442939100,5.984939208984375,-0.9768218994140625,-0.1583404541015625,0.066192626953125
1772534310452955000,5.994954833984375,-0.9838104248046875,-0.1562957763671875,0.068267822265625
1772534310462971000,6.004970947265625,-0.98724365234375,-0.1530303955078125,0.0678253173828125
1772534310472988000,6.01498779296875,-0.99560546875,-0.15313720703125,0.0683135986328125
1772534310483004000,6.02500390625,-1.0013427734375,-0.153045654296875,0.067474365234375
1772534310493020200,6.035020263671875,-1.00238037109375,-0.1563720703125,0.068511962890625
1772534310503037000,6.045036865234375,-1.00213623046875,-0.158294677734375,0.0707550048828125
1772534310513053000,6.055052978515625,-0.9912109375,-0.157196044921875,0.07220458984375
1772534310523069000,6.06506884765625,-0.9821014404296875,-0.157684326171875,0.0699615478515625
1772534310533086000,6.0750859375,-0.9773712158203125,-0.157623291015625,0.0673828125
1772534310543102000,6.08510205078125,-0.9738311767578125,-0.154876708984375,0.065643310546875
1772534310553118000,6.095117919921875,-0.9754180908203125,-0.157562255859375,0.0687408447265625
1772534310563135000,6.105135009765625,-0.9768524169921875,-0.15966796875,0.0712127685546875
1772534310573151000,6.11515087890625,-0.973388671875,-0.1573944091796875,0.0736083984375
1772534310583166700,6.125166748046875,-0.9739837646484375,-0.157928466796875,0.0743560791015625
1772534310593183000,6.135182861328125,-0.975311279296875,-0.1553192138671875,0.0740203857421875
1772534310603200000,6.145199951171875,-0.97369384765625,-0.1525726318359375,0.0661163330078125
1772534310613216000,6.155216064453125,-0.98455810546875,-0.1499176025390625,0.0611572265625
1772534310623232000,6.16523193359375,-1.0035247802734375,-0.145843505859375,0.0623779296875
1772534310633249000,6.1752490234375,-1.0184478759765625,-0.1456298828125,0.0654754638671875
1772534310643265000,6.18526513671875,-1.014984130859375,-0.1495819091796875,0.06707763671875
1772534310653281000,6.195281005859375,-0.9962158203125,-0.15472412109375,0.0675811767578125
1772534310663297800,6.2052978515625,-0.9816436767578125,-0.160064697265625,0.070037841796875
1772534310673313800,6.215313720703125,-0.9792022705078125,-0.1595001220703125,0.0706329345703125
1772534310683330000,6.225330078125,-0.9796295166015625,-0.15185546875,0.0688018798828125
1772534310693347000,6.23534716796875,-0.9786376953125,-0.147308349609375,0.0679168701171875
1772534310703362800,6.24536279296875,-0.9810791015625,-0.1492767333984375,0.0694427490234375
1772534310713378800,6.25537890625,-0.9793548583984375,-0.1519012451171875,0.07208251953125
1772534310723396000,6.26539599609375,-0.9801788330078125,-0.15625,0.0771636962890625
1772534310733412000,6.275412109375,-0.9808349609375,-0.162811279296875,0.0821533203125
1772534310743428000,6.285427978515625,-0.9793701171875,-0.1637725830078125,0.080169677734375
1772534310753444900,6.29544482421875,-0.9795074462890625,-0.1576080322265625,0.07659912109375
1772534310763460900,6.3054609375,-0.9774017333984375,-0.152069091796875,0.0682220458984375
1772534310773476900,6.315476806640625,-0.9831695556640625,-0.147979736328125,0.0628814697265625
1772534310783494000,6.325493896484375,-0.993133544921875,-0.1485595703125,0.0628814697265625
1772534310793510000,6.335510009765625,-0.9990234375,-0.1529388427734375,0.067840576171875
1772534310803526000,6.34552587890625,-1.0001068115234375,-0.1577911376953125,0.070281982421875
1772534310813543000,6.35554296875,-0.9924468994140625,-0.158538818359375,0.0689697265625
1772534310823559200,6.36555908203125,-0.9852752685546875,-0.156829833984375,0.0637664794921875
1772534310833575000,6.375574951171875,-0.9826812744140625,-0.1514739990234375,0.05950927734375
1772534310843592000,6.385592041015625,-0.986328125,-0.1474151611328125,0.06005859375
1772534310853608000,6.39560791015625,-0.991973876953125,-0.14666748046875,0.0637359619140625
1772534310863624000,6.4056240234375,-0.996490478515625,-0.152099609375,0.07196044921875
1772534310873641000,6.415640869140625,-0.9949188232421875,-0.1580810546875,0.0777435302734375
1772534310883657000,6.425656982421875,-0.986663818359375,-0.1604461669921875,0.078765869140625
1772534310893673000,6.4356728515625,-0.9781646728515625,-0.1612091064453125,0.077239990234375
1772534310903689000,6.44568896484375,-0.9712066650390625,-0.1610870361328125,0.0739593505859375
1772534310913706000,6.4557060546875,-0.97344970703125,-0.15576171875,0.0760955810546875
1772534310923722000,6.465721923828125,-0.975189208984375,-0.1540069580078125,0.07940673828125
1772534310933738000,6.475738037109375,-0.975921630859375,-0.152801513671875,0.081329345703125
1772534310943755000,6.485755126953125,-0.9748382568359375,-0.1554718017578125,0.0808563232421875
1772534310953770800,6.495770751953125,-0.97723388671875,-0.1603546142578125,0.0767974853515625
1772534310963786800,6.505786865234375,-0.984771728515625,-0.1601104736328125,0.0764007568359375
1772534310973804000,6.515803955078125,-0.9933624267578125,-0.1566314697265625,0.0724029541015625
1772534310983820000,6.525820068359375,-0.9962005615234375,-0.1530609130859375,0.0665740966796875
1772534310993836000,6.5358359375,-0.9981536865234375,-0.1515960693359375,0.0633544921875
1772534311003852800,6.545852783203125,-1.0012054443359375,-0.15216064453125,0.065765380859375
1772534311013869000,6.555869140625,-0.9950408935546875,-0.154449462890625,0.0667266845703125
1772534311023885000,6.565885009765625,-0.983856201171875,-0.1600189208984375,0.065948486328125
1772534311033901800,6.57590185546875,-0.9795379638671875,-0.1607208251953125,0.06463623046875
1772534311043917800,6.585917724609375,-0.9789581298828125,-0.1579437255859375,0.0648956298828125
1772534311053933800,6.595933837890625,-0.981689453125,-0.1558685302734375,0.0651092529296875
1772534311063951000,6.605951171875,-0.9794158935546875,-0.1538543701171875,0.0612945556640625
1772534311073967000,6.615967041015625,-0.977294921875,-0.1536407470703125,0.06048583984375
1772534311083982800,6.62598291015625,-0.9788360595703125,-0.15545654296875,0.062744140625
1772534311093999900,6.635999755859375,-0.9882049560546875,-0.1568145751953125,0.0668792724609375
1772534311104016100,6.64601611328125,-0.989776611328125,-0.1569061279296875,0.0683746337890625
1772534311114032000,6.6560322265625,-0.9856719970703125,-0.161407470703125,0.06866455078125
1772534311124049000,6.666048828125,-0.9871978759765625,-0.1615753173828125,0.067352294921875
1772534311134065000,6.67606494140625,-0.98382568359375,-0.1577301025390625,0.069610595703125
1772534311144081000,6.686080810546875,-0.9774627685546875,-0.1584625244140625,0.0667877197265625
1772534311154097000,6.696096923828125,-0.97589111328125,-0.1609954833984375,0.0662689208984375
1772534311164114000,6.706114013671875,-0.9794921875,-0.163604736328125,0.0710296630859375
1772534311174130000,6.7161298828125,-0.988525390625,-0.1641845703125,0.0731964111328125
1772534311184146000,6.72614599609375,-0.9920806884765625,-0.1595306396484375,0.0693359375
1772534311194163000,6.736162841796875,-0.9875030517578125,-0.1553802490234375,0.06231689453125
1772534311204179000,6.746178955078125,-0.979705810546875,-0.155853271484375,0.05584716796875
1772534311214195000,6.75619482421875,-0.9787750244140625,-0.15704345703125,0.0541229248046875
1772534311224212000,6.7662119140625,-0.9795074462890625,-0.1566162109375,0.0560302734375
1772534311234228000,6.77622802734375,-0.97186279296875,-0.1588592529296875,0.05706787109375
1772534311244244000,6.786243896484375,-0.9715118408203125,-0.162567138671875,0.057647705078125
1772534311254261000,6.796260986328125,-0.98016357421875,-0.16265869140625,0.0594635009765625
1772534311264277000,6.806277099609375,-0.9913482666015625,-0.1604766845703125,0.064056396484375
1772534311274293000,6.81629296875,-0.9968414306640625,-0.1551666259765625,0.0668487548828125
1772534311284309800,6.826309814453125,-0.9960784912109375,-0.1539764404296875,0.0651397705078125
1772534311294325800,6.83632568359375,-0.98675537109375,-0.154937744140625,0.0629425048828125
1772534311304342000,6.846342041015625,-0.980682373046875,-0.1554107666015625,0.0623931884765625
1772534311314359000,6.856359130859375,-0.9828338623046875,-0.1529083251953125,0.0647735595703125
1772534311324375000,6.866375,-0.9862213134765625,-0.1533966064453125,0.0680694580078125
1772534311334390800,6.876390869140625,-0.9925384521484375,-0.1551971435546875,0.06939697265625
1772534311344408000,6.886407958984375,-1.000091552734375,-0.1549530029296875,0.075531005859375
1772534311354424000,6.896424072265625,-1.001983642578125,-0.1601104736328125,0.08123779296875
1772534311364440000,6.906440185546875,-0.9951171875,-0.163421630859375,0.0826416015625
1772534311374456800,6.916456787109375,-0.9836273193359375,-0.158935546875,0.0755157470703125
1772534311384472600,6.92647265625,-0.971527099609375,-0.1589202880859375,0.0699310302734375
1772534311394488800,6.93648876953125,-0.9691925048828125,-0.1612091064453125,0.068572998046875
1772534311404504800,6.9465048828125,-0.97125244140625,-0.1603240966796875,0.0700531005859375
1772534311414521600,6.956521484375,-0.9732208251953125,-0.1584930419921875,0.069488525390625
1772534311424537600,6.96653759765625,-0.977020263671875,-0.158203125,0.0666656494140625
1772534311434553600,6.9765537109375,-0.9764862060546875,-0.156494140625,0.0630645751953125
1772534311444571000,6.98657080078125,-0.9829559326171875,-0.15435791015625,0.0598297119140625
1772534311454586600,6.996586669921875,-0.9906005859375,-0.1527252197265625,0.0590362548828125
1772534311464602600,7.0066025390625,-0.9940032958984375,-0.15570068359375,0.0612945556640625
1772534311474619600,7.01661962890625,-0.9943695068359375,-0.1580657958984375,0.0643463134765625
1772534311484635600,7.0266357421875,-0.9980621337890625,-0.1619873046875,0.0675811767578125
1772534311494652000,7.03665185546875,-0.9943695068359375,-0.1626739501953125,0.0695343017578125
1772534311504668700,7.046668701171875,-0.9883270263671875,-0.1622772216796875,0.0657196044921875
1772534311514684700,7.0566845703125,-0.9869842529296875,-0.158935546875,0.0612030029296875
1772534311524700700,7.06670068359375,-0.9823150634765625,-0.15789794921875,0.0640869140625
1772534311534717700,7.0767177734375,-0.9768524169921875,-0.1568603515625,0.0645599365234375
1772534311544733700,7.086733642578125,-0.9732666015625,-0.15850830078125,0.0655975341796875
1772534311554749700,7.096749755859375,-0.97430419921875,-0.1605224609375,0.06781005859375
1772534311564765700,7.106765625,-0.9781341552734375,-0.160552978515625,0.0690765380859375
1772534311574782700,7.11678271484375,-0.9788665771484375,-0.1571807861328125,0.0694580078125
1772534311584798700,7.126798828125,-0.97796630859375,-0.1550140380859375,0.0674285888671875
1772534311594814700,7.136814697265625,-0.98052978515625,-0.155242919921875,0.06787109375
1772534311604831700,7.146831787109375,-0.980010986328125,-0.1592864990234375,0.0699005126953125
1772534311614847700,7.15684765625,-0.9800567626953125,-0.1628570556640625,0.0711669921875
1772534311624863700,7.16686376953125,-0.99066162109375,-0.1647796630859375,0.0733642578125
1772534311634880800,7.176880859375,-1.0037078857421875,-0.164581298828125,0.0780487060546875
1772534311644896800,7.186896728515625,-1.004180908203125,-0.1605377197265625,0.0756683349609375
1772534311654912800,7.196912841796875,-0.990447998046875,-0.1587066650390625,0.0655975341796875
1772534311664929500,7.206929443359375,-0.9823455810546875,-0.1568145751953125,0.057861328125
1772534311674945500,7.216945556640625,-0.9813232421875,-0.1520538330078125,0.0544586181640625
1772534311684961800,7.2269619140625,-0.9801177978515625,-0.1499176025390625,0.0553741455078125
1772534311694978800,7.236978759765625,-0.97918701171875,-0.153411865234375,0.0601806640625
1772534311704994600,7.24699462890625,-0.9742584228515625,-0.1578521728515625,0.064178466796875
1772534311715010600,7.257010498046875,-0.974273681640625,-0.161590576171875,0.07037353515625
1772534311725027800,7.26702783203125,-0.9762420654296875,-0.1634521484375,0.07672119140625
1772534311735043800,7.2770439453125,-0.9806365966796875,-0.1693267822265625,0.0839385986328125
1772534311745059800,7.287059814453125,-0.9794769287109375,-0.169189453125,0.088165283203125
1772534311755075600,7.29707568359375,-0.9624481201171875,-0.1671142578125,0.0851593017578125
1772534311765092600,7.307092529296875,-0.965545654296875,-0.1654815673828125,0.0720367431640625
1772534311775108900,7.31710888671875,-0.98016357421875,-0.147705078125,0.063812255859375
1772534311785124900,7.327124755859375,-0.9789581298828125,-0.1462249755859375,0.06146240234375
1772534311795141600,7.3371416015625,-0.991851806640625,-0.1481170654296875,0.0580291748046875
1772534311805157600,7.34715771484375,-0.99896240234375,-0.1505279541015625,0.059783935546875
1772534311815173600,7.357173583984375,-1.004913330078125,-0.1508636474609375,0.0643463134765625
1772534311825190700,7.367190673828125,-1.0068511962890625,-0.1512451171875,0.064910888671875
1772534311835206700,7.37720654296875,-1.0061798095703125,-0.1551361083984375,0.06463623046875
1772534311845222700,7.38722265625,-1.00665283203125,-0.1589813232421875,0.065155029296875
1772534311855239700,7.39723974609375,-1.0030364990234375,-0.153900146484375,0.0620880126953125
1772534311865255700,7.407255615234375,-0.9898223876953125,-0.1518707275390625,0.0568695068359375
1772534311875271700,7.417271728515625,-0.9838104248046875,-0.1520233154296875,0.0507049560546875
1772534311885288700,7.427288818359375,-0.9832916259765625,-0.1502532958984375,0.0499420166015625
1772534311895304700,7.4373046875,-0.983551025390625,-0.1497650146484375,0.0566864013671875
1772534311905320700,7.44732080078125,-0.985260009765625,-0.1534576416015625,0.0649871826171875
1772534311915336700,7.457336669921875,-0.97967529296875,-0.158416748046875,0.0714569091796875
1772534311925353700,7.467353759765625,-0.97802734375,-0.1611480712890625,0.0751953125
1772534311935369700,7.47736962890625,-0.981201171875,-0.1605224609375,0.0777435302734375
1772534311945385700,7.4873857421875,-0.9830322265625,-0.15728759765625,0.07696533203125
1772534311955402500,7.497402587890625,-0.989013671875,-0.1561126708984375,0.0738677978515625
1772534311965418800,7.507418701171875,-0.9938201904296875,-0.154327392578125,0.0715789794921875
1772534311975434800,7.517434814453125,-0.99578857421875,-0.152618408203125,0.071502685546875
1772534311985451800,7.52745166015625,-0.9915924072265625,-0.1529388427734375,0.070068359375
1772534311995467800,7.5374677734375,-0.9875946044921875,-0.1563873291015625,0.06817626953125
1772534312005483500,7.5474833984375,-0.9848480224609375,-0.1566925048828125,0.0648956298828125
1772534312015500800,7.557500732421875,-0.9819793701171875,-0.1539459228515625,0.06439208984375
1772534312025516800,7.567516845703125,-0.9826507568359375,-0.154632568359375,0.0633544921875
1772534312035532800,7.57753271484375,-0.98504638671875,-0.155609130859375,0.0650177001953125
1772534312045549600,7.587549560546875,-0.98883056640625,-0.1568450927734375,0.066864013671875
1772534312055565600,7.597565673828125,-0.9864349365234375,-0.157073974609375,0.0675048828125
1772534312065581800,7.607581787109375,-0.9842529296875,-0.1541900634765625,0.0672760009765625
1772534312075597800,7.617597900390625,-0.9795074462890625,-0.155364990234375,0.0656585693359375
1772534312085614600,7.627614501953125,-0.9756622314453125,-0.149810791015625,0.064422607421875
1772534312095630600,7.637630615234375,-0.981689453125,-0.154388427734375,0.0678863525390625
1772534312105646600,7.647646484375,-0.987518310546875,-0.1605987548828125,0.074462890625
1772534312115664000,7.657663818359375,-0.9874114990234375,-0.156982421875,0.078277587890625
1772534312125679600,7.6676796875,-0.987548828125,-0.1561431884765625,0.0787353515625
1772534312135695600,7.677695556640625,-0.990447998046875,-0.1566925048828125,0.0725250244140625
1772534312145712600,7.687712646484375,-0.9915313720703125,-0.1528778076171875,0.07196044921875
1772534312155728600,7.697728759765625,-0.9870147705078125,-0.15118408203125,0.0710906982421875
1772534312165745000,7.707744873046875,-0.990936279296875,-0.14984130859375,0.066192626953125
1772534312175761700,7.71776171875,-0.9906768798828125,-0.1492767333984375,0.06787109375
1772534312185777700,7.727777587890625,-0.9809417724609375,-0.152618408203125,0.0686492919921875
1772534312195793700,7.737793701171875,-0.973358154296875,-0.15380859375,0.0704193115234375
1772534312205809700,7.7478095703125,-0.9763031005859375,-0.15643310546875,0.0695343017578125
1772534312215826700,7.75782666015625,-0.9823455810546875,-0.1562042236328125,0.0696868896484375
1772534312225842700,7.7678427734375,-0.9869232177734375,-0.1543426513671875,0.0707244873046875
1772534312235858700,7.777858642578125,-0.9900970458984375,-0.15380859375,0.0669097900390625
1772534312245875700,7.787875732421875,-0.99322509765625,-0.1527557373046875,0.0643310546875
1772534312255891700,7.7978916015625,-0.9925384521484375,-0.1534423828125,0.0639190673828125
1772534312265907700,7.80790771484375,-0.989837646484375,-0.157012939453125,0.064422607421875
1772534312275924700,7.8179248046875,-0.98760986328125,-0.15625,0.0657501220703125
1772534312285940700,7.827940673828125,-0.9858856201171875,-0.1527252197265625,0.0640869140625
1772534312295956700,7.837956787109375,-0.984588623046875,-0.1492156982421875,0.0609893798828125
1772534312305973800,7.847973876953125,-0.9838104248046875,-0.1498870849609375,0.059906005859375
1772534312315989800,7.85798974609375,-0.9914093017578125,-0.1529083251953125,0.061492919921875
1772534312326005800,7.868005859375,-0.9980621337890625,-0.1534423828125,0.0682525634765625
1772534312336022500,7.8780224609375,-0.9941864013671875,-0.1570281982421875,0.0695953369140625
1772534312346038500,7.88803857421875,-0.990081787109375,-0.1589202880859375,0.0683441162109375
1772534312356054800,7.8980546875,-0.986419677734375,-0.1589508056640625,0.0684814453125
1772534312366070800,7.90807080078125,-0.9772491455078125,-0.158111572265625,0.070587158203125
1772534312376087600,7.918087646484375,-0.9812774658203125,-0.156005859375,0.0639495849609375
1772534312386103800,7.928103759765625,-0.9866790771484375,-0.1558990478515625,0.0603485107421875
1772534312396119800,7.938119873046875,-0.9869232177734375,-0.1561737060546875,0.065521240234375
1772534312406136800,7.94813671875,-0.97991943359375,-0.1582489013671875,0.06805419921875
1772534312416152800,7.95815283203125,-0.978790283203125,-0.15673828125,0.06396484375
1772534312426168800,7.9681689453125,-0.977294921875,-0.159515380859375,0.0626068115234375
1772534312436185900,7.978185791015625,-0.9846649169921875,-0.155914306640625,0.059783935546875
1772534312446201900,7.988201904296875,-0.990020751953125,-0.15521240234375,0.060791015625
1772534312456217900,7.9982177734375,-0.9898681640625,-0.1563873291015625,0.063201904296875
1772534312466235000,8.00823486328125,-0.984100341796875,-0.157562255859375,0.06365966796875
1772534312476251000,8.0182509765625,-0.9803466796875,-0.15789794921875,0.063018798828125
1772534312486267000,8.028266845703126,-0.97906494140625,-0.1562042236328125,0.064422607421875
1772534312496283000,8.038282958984375,-0.9760284423828125,-0.154388427734375,0.06146240234375
1772534312506299600,8.048299560546875,-0.9766082763671875,-0.1565093994140625,0.06048583984375
1772534312516316000,8.05831591796875,-0.9855804443359375,-0.1555328369140625,0.0617218017578125
1772534312526332000,8.068331787109376,-0.9946136474609375,-0.1565704345703125,0.063751220703125
1772534312536349000,8.078348876953125,-1.003570556640625,-0.157806396484375,0.06671142578125
1772534312546364700,8.08836474609375,-0.99871826171875,-0.1554718017578125,0.06793212890625
1772534312556380700,8.098380615234374,-0.9871673583984375,-0.1558837890625,0.0649566650390625
1772534312566398000,8.10839794921875,-0.9772491455078125,-0.15911865234375,0.0622406005859375
1772534312576414000,8.1184140625,-0.971771240234375,-0.1588592529296875,0.0643768310546875
1772534312586430000,8.128429931640625,-0.9727630615234375,-0.1597747802734375,0.0648345947265625
1772534312596445700,8.13844580078125,-0.9762725830078125,-0.1598358154296875,0.068359375
1772534312606462700,8.148462646484376,-0.976287841796875,-0.1593170166015625,0.071319580078125
1772534312616479000,8.15847900390625,-0.9778594970703125,-0.160125732421875,0.0715484619140625
1772534312626495000,8.168494873046875,-0.974273681640625,-0.161865234375,0.069915771484375
1772534312636511700,8.17851171875,-0.97076416015625,-0.1614990234375,0.0625152587890625
1772534312646527700,8.18852783203125,-0.971038818359375,-0.1603546142578125,0.0597991943359375
1772534312656543700,8.198543701171875,-0.9759674072265625,-0.1549835205078125,0.0542144775390625
1772534312666560800,8.208560791015625,-0.98773193359375,-0.15228271484375,0.04937744140625
1772534312676576800,8.21857666015625,-0.9915924072265625,-0.14801025390625,0.0508270263671875
1772534312686592800,8.2285927734375,-0.9912872314453125,-0.1488494873046875,0.0511627197265625
1772534312696609800,8.23860986328125,-0.9965057373046875,-0.155059814453125,0.05340576171875
1772534312706626000,8.2486259765625,-1.0032806396484375,-0.1585693359375,0.0613250732421875
1772534312716641800,8.258641845703124,-1.00115966796875,-0.15985107421875,0.0645904541015625
1772534312726657800,8.26865771484375,-0.99761962890625,-0.1592559814453125,0.063873291015625
1772534312736674800,8.2786748046875,-0.996826171875,-0.15728759765625,0.0606689453125
1772534312746690800,8.28869091796875,-0.987945556640625,-0.153594970703125,0.0601806640625
1772534312756706800,8.298706787109374,-0.98040771484375,-0.155731201171875,0.0615081787109375
1772534312766723800,8.308723876953126,-0.9765472412109375,-0.15728759765625,0.06341552734375
1772534312776739800,8.31873974609375,-0.98223876953125,-0.1602935791015625,0.070159912109375
1772534312786755800,8.328755859375,-0.98760986328125,-0.1608123779296875,0.0727691650390625
1772534312796772600,8.338772705078124,-0.9918060302734375,-0.161529541015625,0.0743408203125
1772534312806788900,8.348788818359376,-0.9883270263671875,-0.1637420654296875,0.074249267578125
1772534312816804900,8.358804931640625,-0.9804534912109375,-0.1659393310546875,0.0743255615234375
1772534312826822000,8.36882177734375,-0.97625732421875,-0.1640625,0.0678863525390625
1772534312836838000,8.378837890625,-0.977203369140625,-0.1578521728515625,0.0578155517578125
1772534312846853600,8.388853515625,-0.9817962646484375,-0.151641845703125,0.051055908203125
1772534312856870000,8.398869873046875,-0.987335205078125,-0.149993896484375,0.0488739013671875
1772534312866887000,8.408886962890625,-0.988861083984375,-0.1542205810546875,0.0511474609375
1772534312876903000,8.41890283203125,-0.98651123046875,-0.1588592529296875,0.0510711669921875
1772534312886918700,8.428918701171876,-0.9839935302734375,-0.163909912109375,0.056640625
1772534312896936000,8.43893603515625,-0.9792327880859375,-0.1664581298828125,0.0626220703125
1772534312906952000,8.448951904296875,-0.9783477783203125,-0.1639862060546875,0.0607452392578125
1772534312916968000,8.458968017578124,-0.9798583984375,-0.160064697265625,0.059906005859375
1772534312926984700,8.468984619140626,-0.9876251220703125,-0.1559600830078125,0.0574188232421875
1772534312937000700,8.479000732421875,-0.9967041015625,-0.1524658203125,0.0547332763671875
1772534312947016700,8.4890166015625,-0.9937286376953125,-0.1533660888671875,0.05645751953125
1772534312957033000,8.499032958984374,-0.987823486328125,-0.1574859619140625,0.0554656982421875
1772534312967049700,8.5090498046875,-0.9775238037109375,-0.163421630859375,0.0580291748046875
1772534312977065700,8.519065673828125,-0.98089599609375,-0.165802001953125,0.06121826171875
1772534312987081700,8.529081787109375,-0.985748291015625,-0.1618499755859375,0.0671234130859375
1772534312997099000,8.53909912109375,-0.9871978759765625,-0.1581878662109375,0.0708465576171875
1772534313007115000,8.549114990234376,-0.983001708984375,-0.158721923828125,0.068359375
1772534313017130800,8.559130859375,-0.98101806640625,-0.1598968505859375,0.0641937255859375
1772534313027147800,8.569147705078125,-0.9827728271484375,-0.1608734130859375,0.064605712890625
1772534313037163800,8.579163818359374,-0.98614501953125,-0.1602783203125,0.064849853515625
1772534313047180000,8.589179931640626,-0.9878082275390625,-0.1600189208984375,0.0632171630859375
1772534313057195800,8.59919580078125,-0.987701416015625,-0.1585693359375,0.0615386962890625
1772534313067212800,8.609212890625,-0.9850616455078125,-0.157684326171875,0.0601348876953125
1772534313077228800,8.619228759765624,-0.98388671875,-0.1588897705078125,0.0571136474609375
1772534313087244800,8.629244873046876,-0.9838714599609375,-0.159942626953125,0.057952880859375
1772534313097261800,8.63926171875,-0.9835205078125,-0.161895751953125,0.059814453125
1772534313107277800,8.64927783203125,-0.9817047119140625,-0.1625213623046875,0.06134033203125
1772534313117293800,8.6592939453125,-0.98211669921875,-0.1599884033203125,0.0605316162109375
1772534313127310800,8.669310791015626,-0.9830322265625,-0.1602325439453125,0.0605621337890625
1772534313137326600,8.67932666015625,-0.9858856201171875,-0.158599853515625,0.0590057373046875
1772534313147342800,8.6893427734375,-0.9903106689453125,-0.156402587890625,0.0598602294921875
1772534313157358800,8.69935888671875,-0.9937896728515625,-0.1569976806640625,0.0604095458984375
1772534313167376000,8.7093759765625,-0.997528076171875,-0.1537933349609375,0.0608367919921875
1772534313177391900,8.719391845703125,-0.9994964599609375,-0.15576171875,0.0632476806640625
1772534313187407600,8.72940771484375,-1.0030059814453125,-0.1602783203125,0.0683441162109375
1772534313197425000,8.7394248046875,-1.0004425048828125,-0.158111572265625,0.0695037841796875
1772534313207441000,8.74944091796875,-0.974853515625,-0.16473388671875,0.075225830078125
1772534313217457000,8.759456787109375,-0.97198486328125,-0.1631011962890625,0.0704498291015625
1772534313227473700,8.7694736328125,-0.96832275390625,-0.16229248046875,0.072235107421875
1772534313237490000,8.779489990234374,-0.9708404541015625,-0.1627655029296875,0.07110595703125
1772534313247506000,8.789505859375,-0.9687652587890625,-0.1652374267578125,0.0715789794921875
1772534313257522000,8.79952197265625,-0.971771240234375,-0.169708251953125,0.072265625
1772534313267538700,8.80953857421875,-0.9771270751953125,-0.1721343994140625,0.072174072265625
1772534313277554700,8.8195546875,-0.97509765625,-0.169525146484375,0.0691375732421875
1772534313287570700,8.82957080078125,-0.9780426025390625,-0.1645660400390625,0.061981201171875
1772534313297588000,8.839587890625,-0.9801483154296875,-0.157135009765625,0.0534210205078125
1772534313307603700,8.849603759765625,-0.9894256591796875,-0.154571533203125,0.051513671875
1772534313317619700,8.85961962890625,-1.0110321044921875,-0.157867431640625,0.0663909912109375
1772534313327636700,8.86963671875,-1.010345458984375,-0.1702728271484375,0.052001953125
1772534313337653000,8.879653076171875,-0.9926910400390625,-0.172821044921875,0.0542755126953125
1772534313347669000,8.8896689453125,-0.98443603515625,-0.1665496826171875,0.0583648681640625
1772534313357684700,8.899684814453124,-0.9746551513671875,-0.163604736328125,0.056549072265625
1772534313367701800,8.90970166015625,-0.97247314453125,-0.1632080078125,0.05279541015625
1772534313377717800,8.9197177734375,-0.9768829345703125,-0.160888671875,0.0526275634765625
1772534313387733500,8.9297333984375,-0.9808197021484375,-0.1593017578125,0.0569915771484375
1772534313397750300,8.939750244140624,-0.986236572265625,-0.158660888671875,0.0606536865234375
1772534313407766300,8.949766357421876,-0.9854583740234375,-0.1606292724609375,0.0635223388671875
1772534313417782300,8.9597822265625,-0.98065185546875,-0.163330078125,0.0667572021484375
1772534313427799600,8.969799560546875,-0.9799041748046875,-0.167022705078125,0.0721588134765625
1772534313437815600,8.979815673828124,-0.9828948974609375,-0.1690826416015625,0.0767059326171875
1772534313447831300,8.989831298828125,-0.9932098388671875,-0.1711883544921875,0.0822296142578125
1772534313457847300,8.999847412109375,-0.9966583251953125,-0.167449951171875,0.0826263427734375
1772534313467864300,9.0098642578125,-0.99664306640625,-0.165374755859375,0.0782928466796875
1772534313477880600,9.019880615234374,-0.993560791015625,-0.16363525390625,0.069610595703125
1772534313487896300,9.029896240234375,-0.9868316650390625,-0.1606903076171875,0.065216064453125
1772534313497913300,9.039913330078125,-0.9801483154296875,-0.1605377197265625,0.064056396484375
1772534313507929300,9.049929443359375,-0.9741668701171875,-0.1599884033203125,0.0651702880859375
1772534313517945300,9.0599453125,-0.9685821533203125,-0.161956787109375,0.063262939453125
1772534313527962400,9.06996240234375,-0.976318359375,-0.16217041015625,0.063812255859375
1772534313537978400,9.079978271484375,-0.9803466796875,-0.1631011962890625,0.069427490234375
1772534313547994400,9.089994384765625,-0.9791412353515625,-0.1668853759765625,0.0694122314453125
1772534313558010400,9.10001025390625,-0.9793853759765625,-0.1673583984375,0.066680908203125
1772534313568027100,9.110027099609376,-0.9821624755859375,-0.165283203125,0.06280517578125
1772534313578043400,9.12004345703125,-0.986541748046875,-0.16058349609375,0.0605926513671875
1772534313588059400,9.130059326171875,-0.9903717041015625,-0.15966796875,0.061920166015625
1772534313598076400,9.140076416015624,-0.9932708740234375,-0.1610870361328125,0.0643463134765625
1772534313608092400,9.150092529296876,-0.9911651611328125,-0.1633758544921875,0.0638580322265625
1772534313618108200,9.160108154296875,-0.9900970458984375,-0.1658782958984375,0.06732177734375
1772534313628124400,9.17012451171875,-0.9862823486328125,-0.1662139892578125,0.0691070556640625
1772534313638141400,9.180141357421874,-0.98101806640625,-0.164093017578125,0.067047119140625
1772534313648157400,9.190157470703125,-0.975738525390625,-0.1602630615234375,0.0647430419921875
1772534313658173400,9.20017333984375,-0.968597412109375,-0.158111572265625,0.0614471435546875
1772534313668190500,9.2101904296875,-0.9651641845703125,-0.160675048828125,0.059478759765625
1772534313678206500,9.22020654296875,-0.96630859375,-0.159820556640625,0.059844970703125
1772534313688222500,9.230222412109375,-0.9692230224609375,-0.1619720458984375,0.0618896484375
1772534313698239200,9.2402392578125,-0.9722900390625,-0.1607513427734375,0.0626220703125
1772534313708255200,9.250255126953125,-0.978546142578125,-0.162689208984375,0.0649871826171875
1772534313718271200,9.260271240234376,-0.9925079345703125,-0.1671600341796875,0.0667724609375
1772534313728287500,9.27028759765625,-1.00970458984375,-0.163055419921875,0.070953369140625
1772534313738304300,9.28030419921875,-1.01373291015625,-0.1585540771484375,0.0677947998046875
1772534313748320300,9.2903203125,-1.008514404296875,-0.15765380859375,0.0641937255859375
1772534313758336300,9.300336181640626,-0.9942474365234375,-0.1565399169921875,0.059326171875
1772534313768353500,9.310353515625,-0.983917236328125,-0.1576690673828125,0.0571136474609375
1772534313778369500,9.32036962890625,-0.9832916259765625,-0.1595916748046875,0.06201171875
1772534313788385300,9.33038525390625,-0.9848175048828125,-0.159088134765625,0.0633544921875
1772534313798401300,9.3404013671875,-0.9788818359375,-0.157806396484375,0.065826416015625
1772534313808418300,9.350418212890625,-0.9750823974609375,-0.1587066650390625,0.065155029296875
1772534313818434600,9.3604345703125,-0.9786224365234375,-0.16326904296875,0.0670013427734375
1772534313828450600,9.370450439453125,-0.9835357666015625,-0.1669921875,0.0727386474609375
1772534313838467300,9.38046728515625,-0.98419189453125,-0.165374755859375,0.0763702392578125
1772534313848483300,9.3904833984375,-0.9850921630859375,-0.164642333984375,0.0754241943359375
1772534313858499300,9.400499267578125,-0.98504638671875,-0.158660888671875,0.07159423828125
1772534313868516400,9.410516357421875,-0.9832916259765625,-0.1564178466796875,0.064666748046875
1772534313878532400,9.420532470703124,-0.9846649169921875,-0.159576416015625,0.0640411376953125
1772534313888548400,9.43054833984375,-0.9899139404296875,-0.1620635986328125,0.0632781982421875
1772534313898564400,9.440564453125,-0.9903717041015625,-0.162841796875,0.06549072265625
1772534313908581400,9.450581298828125,-0.996002197265625,-0.16363525390625,0.0653076171875
1772534313918597400,9.460597412109376,-0.995758056640625,-0.16094970703125,0.0662994384765625
1772534313928613400,9.47061328125,-0.985504150390625,-0.1642608642578125,0.06585693359375
1772534313938630400,9.48063037109375,-0.97393798828125,-0.165191650390625,0.0608673095703125
1772534313948646400,9.490646484375,-0.9682464599609375,-0.1656036376953125,0.060089111328125
1772534313958662100,9.500662109375,-0.9720916748046875,-0.16510009765625,0.0639801025390625
1772534313968678400,9.510678466796875,-0.9812164306640625,-0.162017822265625,0.065093994140625
1772534313978695400,9.5206953125,-0.982696533203125,-0.158935546875,0.0647735595703125
1772534313988711400,9.53071142578125,-0.9846038818359375,-0.16156005859375,0.061767578125
1772534313998727400,9.5407275390625,-0.9875640869140625,-0.1646270751953125,0.0608367919921875
1772534314008744400,9.550744384765625,-0.9922027587890625,-0.1636199951171875,0.0620269775390625
1772534314018760400,9.560760498046875,-0.9993133544921875,-0.163482666015625,0.06561279296875
1772534314028776400,9.5707763671875,-1.00177001953125,-0.1634063720703125,0.0652313232421875
1772534314038793200,9.580793212890624,-1.0022125244140625,-0.1624298095703125,0.0644378662109375
1772534314048809200,9.590809326171875,-0.9885711669921875,-0.1603546142578125,0.0651092529296875
1772534314058825200,9.6008251953125,-0.9764862060546875,-0.1607666015625,0.062469482421875
1772534314068841500,9.610841552734374,-0.96722412109375,-0.160888671875,0.0619659423828125
1772534314078858500,9.6208583984375,-0.9644317626953125,-0.1614990234375,0.06494140625
1772534314088874200,9.630874267578125,-0.9757232666015625,-0.166290283203125,0.0718994140625
1772534314098890200,9.64089013671875,-0.987640380859375,-0.1674652099609375,0.0750274658203125
1772534314108907500,9.650907470703125,-0.9930419921875,-0.1637420654296875,0.07232666015625
1772534314118923500,9.660923583984374,-0.99493408203125,-0.1610870361328125,0.06866455078125
1772534314128939300,9.670939208984375,-0.9853668212890625,-0.1598052978515625,0.0619354248046875
1772534314138956300,9.680956298828125,-0.97442626953125,-0.1623382568359375,0.0563201904296875
1772534314148972300,9.69097216796875,-0.979949951171875,-0.1651458740234375,0.0627288818359375
1772534314158988500,9.700988525390626,-0.9839019775390625,-0.162445068359375,0.0648193359375
1772534314169004500,9.711004638671875,-0.98211669921875,-0.1590728759765625,0.06524658203125
1772534314179021300,9.721021240234375,-0.9777069091796875,-0.16094970703125,0.058258056640625
1772534314189037300,9.731037353515624,-0.97991943359375,-0.1634368896484375,0.05596923828125
1772534314199053300,9.74105322265625,-0.978912353515625,-0.1641693115234375,0.0600738525390625
1772534314209070300,9.7510703125,-0.975372314453125,-0.164306640625,0.060699462890625
1772534314219086300,9.76108642578125,-0.9750518798828125,-0.1634368896484375,0.059906005859375
1772534314229102300,9.771102294921874,-0.978424072265625,-0.16192626953125,0.0613250732421875
1772534314239118300,9.781118408203126,-0.979949951171875,-0.16290283203125,0.0638427734375
1772534314249135400,9.79113525390625,-0.98931884765625,-0.16217041015625,0.0669403076171875
1772534314259151400,9.8011513671875,-0.994415283203125,-0.1619415283203125,0.0680084228515625
1772534314269167400,9.81116748046875,-0.9947509765625,-0.1634674072265625,0.0665130615234375
1772534314279184400,9.821184326171876,-0.9949798583984375,-0.1638336181640625,0.0677642822265625
1772534314289200400,9.831200439453125,-0.99310302734375,-0.1626739501953125,0.0686798095703125
1772534314299216400,9.84121630859375,-0.989105224609375,-0.1607818603515625,0.069671630859375
1772534314309233400,9.8512333984375,-0.9815826416015625,-0.161712646484375,0.0692596435546875
1772534314319249400,9.86124951171875,-0.9748077392578125,-0.1636810302734375,0.07049560546875
1772534314329265400,9.871265380859375,-0.976287841796875,-0.1656951904296875,0.070281982421875
1772534314339281400,9.881281494140625,-0.9790496826171875,-0.163238525390625,0.0732574462890625
1772534314349298400,9.89129833984375,-0.9755096435546875,-0.1638946533203125,0.07427978515625
1772534314359314400,9.901314453125,-0.976226806640625,-0.1651763916015625,0.071044921875
1772534314369330400,9.911330322265625,-0.979705810546875,-0.1663665771484375,0.070404052734375
1772534314379347200,9.92134716796875,-0.980926513671875,-0.1664581298828125,0.0702972412109375
1772534314389363700,9.93136376953125,-0.98004150390625,-0.1648406982421875,0.0661468505859375
1772534314399379700,9.941379638671876,-0.9817047119140625,-0.167572021484375,0.064422607421875
1772534314409395700,9.951395751953125,-0.98541259765625,-0.16497802734375,0.061553955078125
1772534314419412700,9.961412841796875,-0.98150634765625,-0.1602325439453125,0.0606689453125
1772534314429428700,9.9714287109375,-0.9790191650390625,-0.15985107421875,0.0547027587890625
1772534314439444700,9.98144482421875,-0.982940673828125,-0.1609344482421875,0.05010986328125
1772534314449461800,9.991461669921875,-0.986175537109375,-0.1602935791015625,0.05474853515625
1772534314459477800,10.001477783203125,-0.9902801513671875,-0.1617431640625,0.0583038330078125
1772534314469493500,10.011493408203124,-0.99468994140625,-0.1662750244140625,0.0614471435546875
1772534314479509500,10.021509521484376,-0.9898223876953125,-0.1673126220703125,0.0637969970703125
1772534314489526800,10.03152685546875,-0.9833984375,-0.1653900146484375,0.066864013671875
1772534314499542800,10.041542724609375,-0.9758148193359375,-0.1644744873046875,0.068023681640625
1772534314509558800,10.051558837890624,-0.977630615234375,-0.164276123046875,0.06719970703125
1772534314519575600,10.061575439453126,-0.9791412353515625,-0.165771484375,0.0700531005859375
1772534314529591800,10.071591796875,-0.98284912109375,-0.16680908203125,0.0704803466796875
1772534314539607800,10.08160791015625,-0.988800048828125,-0.1669158935546875,0.068359375
1772534314549623800,10.091623779296874,-0.9915008544921875,-0.162872314453125,0.0676727294921875
1772534314559640600,10.101640625,-0.985260009765625,-0.1630859375,0.0688629150390625
1772534314569656600,10.111656494140625,-0.977996826171875,-0.1668548583984375,0.0692138671875
1772534314579672800,10.1216728515625,-0.9724578857421875,-0.1695556640625,0.068756103515625
1772534314589689900,10.13168994140625,-0.973602294921875,-0.1699676513671875,0.0672149658203125
1772534314599705600,10.14170556640625,-0.978179931640625,-0.1677093505859375,0.0675048828125
1772534314609721600,10.1517216796875,-0.98114013671875,-0.1658477783203125,0.06292724609375
1772534314619737600,10.161737548828125,-0.9886322021484375,-0.1645355224609375,0.0600128173828125
1772534314629755000,10.1717548828125,-0.991912841796875,-0.1644287109375,0.0604400634765625
1772534314639770600,10.1817705078125,-0.9892120361328125,-0.16387939453125,0.06011962890625
1772534314649786600,10.19178662109375,-0.9874420166015625,-0.166229248046875,0.060943603515625
1772534314659803600,10.2018037109375,-0.9818115234375,-0.164306640625,0.05853271484375
1772534314669819600,10.211819580078124,-0.978759765625,-0.162322998046875,0.0561981201171875
1772534314679836000,10.2218359375,-0.9837646484375,-0.161529541015625,0.0590057373046875
1772534314689852700,10.231852783203125,-0.9911041259765625,-0.161407470703125,0.0604705810546875
1772534314699868700,10.24186865234375,-0.99615478515625,-0.1600799560546875,0.064239501953125
1772534314709884700,10.251884765625,-0.995849609375,-0.16094970703125,0.066375732421875
1772534314719900700,10.261900634765626,-0.988677978515625,-0.1637115478515625,0.0664825439453125
1772534314729917700,10.271917724609375,-0.9816741943359375,-0.1652374267578125,0.06781005859375
1772534314739933700,10.28193359375,-0.9781494140625,-0.1664276123046875,0.07220458984375
1772534314749949700,10.29194970703125,-0.9756011962890625,-0.16510009765625,0.0750579833984375
1772534314759966700,10.301966796875,-0.980010986328125,-0.164031982421875,0.0732879638671875
1772534314769982700,10.311982666015625,-0.986724853515625,-0.163421630859375,0.072418212890625
1772534314779998700,10.321998779296875,-0.9885406494140625,-0.1600341796875,0.069000244140625
1772534314790014700,10.3320146484375,-0.9846649169921875,-0.157257080078125,0.064910888671875
1772534314800031700,10.34203173828125,-0.9801483154296875,-0.155914306640625,0.0625152587890625
1772534314810047700,10.3520478515625,-0.9779510498046875,-0.15582275390625,0.0627593994140625
1772534314820063500,10.3620634765625,-0.9771575927734375,-0.15802001953125,0.0652008056640625
1772534314830080800,10.372080810546874,-0.9786376953125,-0.16107177734375,0.06915283203125
1772534314840096800,10.3820966796875,-0.9849395751953125,-0.162078857421875,0.0716400146484375
1772534314850112800,10.39211279296875,-0.9876251220703125,-0.1598968505859375,0.073089599609375
1772534314860128800,10.402128662109375,-0.9894256591796875,-0.1615753173828125,0.0752105712890625
1772534314870145800,10.412145751953124,-0.985595703125,-0.162750244140625,0.0749664306640625
1772534314880161800,10.422161865234376,-0.9839935302734375,-0.1625518798828125,0.0763092041015625
1772534314890177800,10.432177734375,-0.98883056640625,-0.161285400390625,0.08050537109375
1772534314900194600,10.442194580078125,-0.9887542724609375,-0.160614013671875,0.0769195556640625
1772534314910210600,10.45221044921875,-0.9837493896484375,-0.15960693359375,0.077362060546875
1772534314920226800,10.462226806640626,-0.9820709228515625,-0.159637451171875,0.0781402587890625
1772534314930242800,10.472242919921875,-0.9804840087890625,-0.1593017578125,0.0774078369140625
1772534314940259600,10.482259521484375,-0.9809112548828125,-0.16143798828125,0.076171875
1772534314950275600,10.492275634765624,-0.983062744140625,-0.1614990234375,0.075927734375
1772534314960291600,10.50229150390625,-0.9814605712890625,-0.162261962890625,0.075469970703125
1772534314970308900,10.512308837890625,-0.97918701171875,-0.1636505126953125,0.0739898681640625
1772534314980324900,10.522324951171875,-0.9726715087890625,-0.161895751953125,0.07110595703125
1772534314990340600,10.532340576171874,-0.9700164794921875,-0.1618804931640625,0.06597900390625
1772534315000356600,10.542356689453126,-0.9743194580078125,-0.157073974609375,0.0595703125
1772534315010373600,10.55237353515625,-0.9872589111328125,-0.151885986328125,0.056793212890625
1772534315020390000,10.562389892578125,-0.996063232421875,-0.153778076171875,0.056488037109375
1772534315030405600,10.572405517578124,-1.00335693359375,-0.15692138671875,0.0629730224609375
1772534315040422700,10.582422607421876,-1.00115966796875,-0.1572265625,0.0648956298828125
1772534315050438700,10.592438720703125,-0.993988037109375,-0.15972900390625,0.0678558349609375
1772534315060454700,10.60245458984375,-0.9859161376953125,-0.1612701416015625,0.0728302001953125
1772534315070471000,10.612470947265624,-0.98126220703125,-0.15673828125,0.0725860595703125
1772534315080487700,10.62248779296875,-0.9806365966796875,-0.1538848876953125,0.07476806640625
1772534315090503700,10.632503662109375,-0.9571075439453125,-0.1596221923828125,0.0713043212890625
1772534315100519700,10.642519775390625,-0.966552734375,-0.15533447265625,0.06671142578125
1772534315110536700,10.65253662109375,-0.96685791015625,-0.1486663818359375,0.0738983154296875
1772534315120552700,10.662552734375,-0.9738922119140625,-0.1495361328125,0.0756072998046875
1772534315130568700,10.672568603515625,-0.9794769287109375,-0.1523590087890625,0.0743255615234375
1772534315140584700,10.682584716796875,-0.9817657470703125,-0.149810791015625,0.0667572021484375
1772534315150601700,10.692601806640624,-0.9851226806640625,-0.1464385986328125,0.062713623046875
1772534315160617500,10.702617431640626,-0.9904632568359375,-0.14642333984375,0.070526123046875
1772534315170633700,10.7126337890625,-0.9900665283203125,-0.1497344970703125,0.077392578125
1772534315180650800,10.722650634765625,-0.992828369140625,-0.1532135009765625,0.0744781494140625
1772534315190666800,10.732666748046874,-1.0020751953125,-0.1507720947265625,0.078460693359375
1772534315200682800,10.742682861328126,-1.0139312744140625,-0.1495819091796875,0.0759429931640625
1772534315210698500,10.752698486328125,-1.01629638671875,-0.1515655517578125,0.0785369873046875
1772534315220715800,10.7627158203125,-1.0194549560546875,-0.1481170654296875,0.0750885009765625
1772534315230731800,10.772731689453124,-1.018768310546875,-0.1455078125,0.0732574462890625
1772534315240747800,10.782747802734375,-1.009124755859375,-0.1418914794921875,0.0735321044921875
1772534315250764500,10.7927646484375,-0.9875335693359375,-0.1418304443359375,0.068389892578125
1772534315260780800,10.80278076171875,-0.9745330810546875,-0.1464691162109375,0.0686798095703125
1772534315270796800,10.812796875,-0.9729461669921875,-0.1518096923828125,0.0706024169921875
1772534315280812800,10.822812744140625,-0.9719390869140625,-0.1475372314453125,0.0715484619140625
1772534315290829600,10.83282958984375,-0.9727020263671875,-0.1514739990234375,0.07342529296875
1772534315300845600,10.842845458984375,-0.973663330078125,-0.1555633544921875,0.079437255859375
1772534315310861600,10.852861572265626,-0.9665374755859375,-0.1523590087890625,0.07763671875
1772534315320878800,10.86287890625,-0.97137451171875,-0.1573028564453125,0.0840606689453125
1772534315330894600,10.87289453125,-0.9844512939453125,-0.1584930419921875,0.0835418701171875
1772534315340910600,10.88291064453125,-0.9917144775390625,-0.1517333984375,0.0767822265625
1772534315350926600,10.892926513671876,-0.9939422607421875,-0.1471405029296875,0.0692291259765625
1772534315360943900,10.90294384765625,-0.9889068603515625,-0.140411376953125,0.05902099609375
1772534315370960000,10.9129599609375,-0.983642578125,-0.14178466796875,0.05682373046875
1772534315380975600,10.9229755859375,-0.983123779296875,-0.1462554931640625,0.0531158447265625
1772534315390992600,10.93299267578125,-0.9836273193359375,-0.1452789306640625,0.0581512451171875
1772534315401008600,10.943008544921875,-0.9852447509765625,-0.153076171875,0.06524658203125
1772534315411024600,10.953024658203125,-0.9864959716796875,-0.1562347412109375,0.069305419921875
1772534315421040600,10.96304052734375,-0.983551025390625,-0.1510467529296875,0.0643157958984375
1772534315431057700,10.9730576171875,-0.9848480224609375,-0.1515350341796875,0.0590057373046875
1772534315441073700,10.98307373046875,-0.9950714111328125,-0.146270751953125,0.054443359375
1772534315451089700,10.993089599609375,-1.0017547607421875,-0.1425628662109375,0.059356689453125
1772534315461106400,11.0031064453125,-0.9998931884765625,-0.14483642578125,0.0693817138671875
1772534315471122400,11.013122314453126,-0.989715576171875,-0.15252685546875,0.0686187744140625
1772534315481138700,11.023138671875,-0.9824371337890625,-0.1610565185546875,0.0707855224609375
1772534315491154700,11.03315478515625,-0.9658355712890625,-0.156219482421875,0.0742034912109375
1772534315501171700,11.043171630859375,-0.94610595703125,-0.1522369384765625,0.06884765625
1772534315511187500,11.0531875,-0.9379425048828125,-0.152099609375,0.0669403076171875
1772534315521203500,11.063203369140625,-0.94647216796875,-0.1470489501953125,0.066497802734375
1772534315531219700,11.0732197265625,-0.990203857421875,-0.1487884521484375,0.0644989013671875
1772534315541236700,11.08323681640625,-1.034881591796875,-0.142059326171875,0.0718536376953125
1772534315551252500,11.09325244140625,-1.04376220703125,-0.136322021484375,0.0832672119140625
1772534315561268500,11.1032685546875,-1.0282135009765625,-0.1486968994140625,0.0817718505859375
1772534315571285800,11.11328564453125,-1.0187530517578125,-0.15802001953125,0.0716094970703125
1772534315581301800,11.1233017578125,-1.0066680908203125,-0.1500396728515625,0.0674285888671875
1772534315591317800,11.13331787109375,-0.9954376220703125,-0.1403656005859375,0.0693359375
1772534315601333500,11.14333349609375,-0.989166259765625,-0.1436614990234375,0.075469970703125
1772534315611350500,11.1533505859375,-0.97747802734375,-0.1524810791015625,0.081024169921875
1772534315621366500,11.163366455078124,-0.97772216796875,-0.15618896484375,0.0853118896484375
1772534315631382800,11.1733828125,-0.9734344482421875,-0.155548095703125,0.0873565673828125
1772534315641399600,11.183399658203125,-0.960784912109375,-0.1503143310546875,0.077484130859375
1772534315651415600,11.19341552734375,-0.954315185546875,-0.1434326171875,0.063201904296875
1772534315661431600,11.203431640625,-0.94390869140625,-0.1307220458984375,0.071044921875
1772534315671447600,11.213447509765626,-0.8863525390625,-0.152008056640625,0.0583343505859375
1772534315681464600,11.223464599609375,-0.897186279296875,-0.1738128662109375,0.012176513671875
1772534315691480600,11.23348046875,-0.991241455078125,-0.150604248046875,0.03472900390625
1772534315701496600,11.24349658203125,-1.0609283447265625,-0.1440582275390625,0.083709716796875
1772534315711513600,11.253513671875,-1.09320068359375,-0.144073486328125,0.087860107421875
1772534315721529600,11.263529541015625,-1.0965728759765625,-0.140045166015625,0.086700439453125
1772534315731545600,11.273545654296875,-1.075592041015625,-0.151214599609375,0.088592529296875
1772534315741561600,11.2835615234375,-1.026336669921875,-0.1519012451171875,0.087249755859375
1772534315751578600,11.29357861328125,-0.9859771728515625,-0.1555328369140625,0.08349609375
1772534315761594600,11.3035947265625,-0.9534912109375,-0.1601715087890625,0.080413818359375
1772534315771610600,11.313610595703125,-0.9176025390625,-0.15423583984375,0.0733795166015625
