time,seconds_elapsed,z,y,x
1772534304507000600,0.04900048828125,0.057551443576812744,0.02550589293241501,-0.04417704790830612
1772534304517016600,0.0590166015625,0.053404901176691055,0.022828616201877594,-0.02767769992351532
1772534304527032800,0.06903271484375,0.049727074801921844,0.04174371808767319,-0.015265772119164467
1772534304537049900,0.0790498046875,0.044738709926605225,0.06575930863618851,-0.012407667003571987
1772534304547065900,0.08906591796875,0.03897855803370476,0.08553007990121841,-0.013892113231122494
1772534304557082600,0.09908251953125,0.03027534857392311,0.0950562059879303,-0.0030828751623630524
1772534304567099000,0.109098876953125,0.024863803759217262,0.10687930881977081,0.019043732434511185
1772534304577115000,0.119114990234375,0.023600934073328972,0.11122239381074905,0.04430434852838516
1772534304587131600,0.129131591796875,0.028792764991521835,0.10624441504478455,0.07399193197488785
1772534304597147600,0.139147705078125,0.04101534187793732,0.09725784510374069,0.10819544643163681
1772534304607163600,0.14916357421875,0.05301767960190773,0.07105846703052521,0.14189215004444122
1772534304617181000,0.159180908203125,0.06381413340568542,0.04692063853144646,0.16991420090198517
1772534304627196700,0.16919677734375,0.06841181218624115,0.04175357148051262,0.1944621503353119
1772534304637213700,0.179213623046875,0.06463811546564102,0.03364903852343559,0.20848742127418518
1772534304647229700,0.189229736328125,0.05702626705169678,0.02732403203845024,0.20931008458137512
1772534304657245700,0.19924560546875,0.060260944068431854,0.02184324711561203,0.19735407829284668
1772534304667262700,0.2092626953125,0.07539062947034836,0.01908154971897602,0.177004873752594
1772534304677278700,0.21927880859375,0.09642187505960464,0.033124130219221115,0.14183276891708374
1772534304687294700,0.229294677734375,0.11191215366125107,0.04091920331120491,0.10432667285203934
1772534304697311700,0.239311767578125,0.11694632470607758,0.05205867439508438,0.07762368768453598
1772534304707327700,0.24932763671875,0.10807986557483673,0.06365807354450226,0.06295765936374664
1772534304717343700,0.25934375,0.0926913246512413,0.063434898853302,0.05150526762008667
1772534304727360800,0.26936083984375,0.074298195540905,0.05295322835445404,0.03440164774656296
1772534304737376800,0.279376708984375,0.05871604382991791,0.04265078902244568,0.02268427424132824
1772534304747393800,0.289393798828125,0.048772066831588745,0.03475691378116608,0.016016516834497452
1772534304757409800,0.299409912109375,0.03994342312216759,0.030074812471866608,0.013527260161936283
1772534304767425800,0.30942578125,0.032994966953992844,0.023382820188999176,0.010841995477676392
1772534304777442800,0.31944287109375,0.02382650226354599,0.007958590984344482,0.0057103498838841915
1772534304787458600,0.32945849609375,0.009936253540217876,0.009402289986610413,-0.006863232236355543
1772534304797474600,0.339474609375,-0.0031166973058134317,0.012120844796299934,-0.014376808889210224
1772534304807491800,0.349491943359375,-0.019404057413339615,0.008443818427622318,-0.020741498097777367
1772534304817507800,0.3595078125,-0.031622376292943954,0.00785392802208662,-0.036733247339725494
1772534304827524600,0.369524658203125,-0.03835484758019447,0.013060408644378185,-0.06048225238919258
1772534304837540600,0.37954052734375,-0.038778554648160934,0.02233166992664337,-0.0987289771437645
1772534304847556900,0.389556884765625,-0.03822275251150131,0.03653164580464363,-0.14016376435756683
1772534304857573600,0.39957373046875,-0.028267323970794678,0.07771024107933044,-0.17098399996757507
1772534304867589600,0.409589599609375,-0.019841348752379417,0.12530545890331268,-0.1860809177160263
1772534304877605600,0.419605712890625,-0.011768775060772896,0.15097060799598694,-0.1846846342086792
1772534304887623000,0.429622802734375,-0.0011446266435086727,0.16595035791397095,-0.1676127016544342
1772534304897639000,0.439638916015625,0.0075545888394117355,0.16339904069900513,-0.1304328441619873
1772534304907654700,0.449654541015625,0.016717195510864258,0.13553333282470703,-0.08161470293998718
1772534304917671700,0.459671630859375,0.029101159423589706,0.08512235432863235,-0.03464772552251816
1772534304927687700,0.469687744140625,0.04407105594873428,0.029325664043426514,0.017132913693785667
1772534304937704700,0.47970458984375,0.05512423813343048,0.028259335085749626,0.06557261943817139
1772534304947720700,0.489720703125,0.06973221153020859,0.012714729644358158,0.1164267435669899
1772534304957736700,0.49973681640625,0.09062870591878891,0.005823534447699785,0.171381875872612
1772534304967753700,0.509753662109375,0.10294848680496216,-0.013865215703845024,0.1953125
1772534304977769700,0.519769775390625,0.10466542840003967,-0.013198892585933208,0.19124558568000793
1772534304987785700,0.52978564453125,0.0984453484416008,-0.0018543590558692813,0.16232313215732574
1772534304997802800,0.539802734375,0.08465816080570221,0.014948323369026184,0.12132589519023895
1772534305007818800,0.54981884765625,0.06635425239801407,0.026132268831133842,0.08267676830291748
1772534305017835800,0.559835693359375,0.053216882050037384,0.028955752030014992,0.04747404158115387
1772534305027851800,0.569851806640625,0.046004775911569595,0.024690432474017143,0.02634958177804947
1772534305037867800,0.57986767578125,0.042699526995420456,0.02353648468852043,0.023365510627627373
1772534305047884800,0.589884765625,0.043526969850063324,0.016204003244638443,0.03044738806784153
1772534305057900500,0.599900634765625,0.04959391802549362,0.0008386294357478619,0.039689622819423676
1772534305067916500,0.60991650390625,0.054960720241069794,-0.0057071540504693985,0.04031386598944664
1772534305077933800,0.619933837890625,0.06125723198056221,0.00180855265352875,0.034446656703948975
1772534305087949800,0.62994970703125,0.060209278017282486,0.013601829297840595,0.024403342977166176
1772534305097965800,0.6399658203125,0.05668005719780922,0.017764616757631302,0.010262224823236465
1772534305107982600,0.649982666015625,0.05402488633990288,0.022832078859210014,0.0013041499769315124
1772534305117998800,0.659998779296875,0.0555865615606308,0.022838469594717026,-0.005259476602077484
1772534305128016000,0.670015869140625,0.05396150052547455,0.015917979180812836,-0.013362676836550236
1772534305138031600,0.680031494140625,0.04946768283843994,0.007122357841581106,-0.021952969953417778
1772534305148047600,0.690047607421875,0.04156582057476044,0.007733020931482315,-0.027297934517264366
1772534305158065000,0.70006494140625,0.031001059338450432,0.0054549528285861015,-0.033237047493457794
1772534305168081000,0.710080810546875,0.025063807144761086,0.005249889567494392,-0.037646979093551636
1772534305178097000,0.720096923828125,0.019364377483725548,0.008073372766375542,-0.04132240638136864
1772534305188113700,0.73011376953125,0.016682041808962822,0.009370598942041397,-0.04477759078145027
1772534305198129700,0.740129638671875,0.016864733770489693,-0.008007059805095196,-0.03873434662818909
1772534305208146700,0.750146728515625,0.014873487874865532,-0.018392588943243027,-0.02737889438867569
1772534305218162700,0.76016259765625,0.011599398218095303,-0.01888846978545189,-0.018992599099874496
1772534305228178700,0.7701787109375,0.004249339923262596,-0.022781744599342346,-0.01333071943372488
1772534305238195700,0.78019580078125,-0.0032506543211638927,-0.019784357398748398,-0.013003682717680931
1772534305248211700,0.790211669921875,-0.015265239402651787,-0.02658740244805813,-0.014064153656363487
1772534305258227700,0.800227783203125,-0.02286510169506073,-0.027725903317332268,-0.020735105499625206
1772534305268244700,0.81024462890625,-0.03225966915488243,-0.0229167677462101,-0.02550429478287697
1772534305278260700,0.8202607421875,-0.038844067603349686,-0.011465175077319145,-0.030977357178926468
1772534305288276700,0.83027685546875,-0.04266783595085144,-0.0009627327090129256,-0.040823329240083694
1772534305298293800,0.840293701171875,-0.04255864396691322,-0.006967095658183098,-0.04482978954911232
1772534305308309800,0.850309814453125,-0.036731913685798645,-0.01780376397073269,-0.05169462040066719
1772534305318326800,0.860326904296875,-0.031429827213287354,-0.015078285709023476,-0.0578254833817482
1772534305328342800,0.8703427734375,-0.029873210936784744,-0.016168050467967987,-0.061646319925785065
1772534305338358500,0.880358642578125,-0.03275155648589134,-0.009577792137861252,-0.06393184512853622
1772534305348375800,0.890375732421875,-0.04196103289723396,0.0032056469935923815,-0.06749995052814484
1772534305358391800,0.900391845703125,-0.05001043528318405,0.010460896417498589,-0.06404556334018707
1772534305368407800,0.91040771484375,-0.05327147617936134,0.00242187874391675,-0.04719308018684387
1772534305378424600,0.920424560546875,-0.05762254819273949,-0.002754773711785674,-0.021452827379107475
1772534305388439800,0.930439697265625,-0.058872636407613754,-0.0094520915299654,0.002275138394907117
1772534305398456000,0.9404560546875,-0.06035441905260086,-0.008695753291249275,0.021323664113879204
1772534305408473000,0.95047314453125,-0.061584535986185074,-0.00848270021378994,0.0314500667154789
1772534305418489000,0.960489013671875,-0.05218890309333801,-0.014485731720924377,0.041743453592061996
1772534305428505900,0.970505859375,-0.043598610907793045,-0.015210111625492573,0.046066027134656906
1772534305438522000,0.980522216796875,-0.03560486435890198,-0.013188772834837437,0.04460368677973747
1772534305448538000,0.9905380859375,-0.025892050936818123,-0.013990649953484535,0.03620807081460953
1772534305458555000,1.000554931640625,-0.019962789490818977,-0.012444951571524143,0.016346482560038567
1772534305468571000,1.01057080078125,-0.014916897751390934,-0.008845423348248005,-0.004321511369198561
1772534305478587000,1.0205869140625,-0.010824152268469334,-0.006974818650633097,-0.0199247058480978
1772534305488604200,1.030604248046875,-0.0067931911908090115,-0.004193946253508329,-0.032287631183862686
1772534305498620200,1.0406201171875,-0.0026088326703757048,-0.004984638653695583,-0.0342559739947319
1772534305508636000,1.050635986328125,0.002359827049076557,-0.004141481593251228,-0.030009830370545387
1772534305518653000,1.06065283203125,0.005185174755752087,-0.011981029063463211,-0.01552516408264637
1772534305528669000,1.0706689453125,0.011838549748063087,-0.024210264906287193,-0.0011012171162292361
1772534305538686000,1.08068603515625,0.020070914179086685,-0.022409701719880104,0.0076243639923632145
1772534305548702000,1.090701904296875,0.027533091604709625,-0.02172713354229927,0.0037438718136399984
1772534305558718000,1.100718017578125,0.028835110366344452,-0.015370700508356094,-0.009370066225528717
1772534305568735000,1.11073486328125,0.02659192867577076,-0.004571848548948765,-0.027517378330230713
1772534305578751000,1.1207509765625,0.0253402441740036,-0.0001358212175546214,-0.04062066227197647
1772534305588767000,1.13076708984375,0.02281157299876213,-0.007035805378109217,-0.04434376209974289
1772534305598784000,1.140783935546875,0.019292738288640976,-0.008731439709663391,-0.04103877767920494
1772534305608800000,1.150800048828125,0.02304752916097641,-0.010946124792098999,-0.04126408323645592
1772534305618816000,1.16081591796875,0.02907213196158409,-0.016970194876194,-0.0371878482401371
1772534305628833000,1.1708330078125,0.041138648986816406,-0.025595640763640404,-0.030818631872534752
1772534305638849000,1.18084912109375,0.05276121571660042,-0.03825417906045914,-0.022971894592046738
1772534305648866000,1.190865966796875,0.060568537563085556,-0.05056597292423248,-0.014477476477622986
1772534305658881800,1.2008818359375,0.05632585659623146,-0.04867219924926758,-0.009268333204090595
1772534305668898000,1.21089794921875,0.04602741450071335,-0.044320326298475266,-0.008275240659713745
1772534305678915000,1.2209150390625,0.03189002349972725,-0.021135378628969193,-0.013758422806859016
1772534305688931000,1.23093115234375,0.020903417840600014,0.0015046859625726938,-0.021282386034727097
1772534305698947000,1.240947021484375,0.013458550907671452,0.0020303940400481224,-0.02142885886132717
1772534305708963800,1.2509638671875,0.007795338984578848,0.0049510826356709,-0.014674816280603409
1772534305718980000,1.26097998046875,0.0063034361228346825,0.004994226153939962,-0.0008567389450035989
1772534305728996000,1.27099609375,-0.0002133192028850317,-0.005197691265493631,0.01703251339495182
1772534305739012900,1.281012939453125,-0.0031989889685064554,-0.001258609932847321,0.03568395972251892
1772534305749028900,1.29102880859375,-0.0060299295000731945,-0.00020879182557109743,0.045047104358673096
1772534305759044900,1.301044921875,-0.005490106530487537,-0.00020825919636990875,0.0509587898850441
1772534305769062100,1.311062255859375,-0.0006474144756793976,-0.0075426045805215836,0.048956356942653656
1772534305779078000,1.321077880859375,0.0017204020405188203,-0.01691373623907566,0.03994661569595337
1772534305789095000,1.331094970703125,-0.0021076255943626165,0.005434180144220591,0.03358964994549751
1772534305799111000,1.34111083984375,-0.015801599249243736,0.0004471447318792343,0.0307517871260643
1772534305809127200,1.351127197265625,-0.020905015990138054,0.00430286955088377,0.0262992475181818
1772534305819144000,1.36114404296875,-0.027826571837067604,0.003721234854310751,0.014660435728728771
1772534305829160000,1.371159912109375,-0.029108084738254547,0.00017070861940737814,0.002941993996500969
1772534305839176000,1.381176025390625,-0.029348300769925117,0.0005110605852678418,-0.007386011071503162
1772534305849193200,1.391193115234375,-0.026921894401311874,0.00011424961121520028,-0.013169331476092339
1772534305859209000,1.401208984375,-0.02130715362727642,0.00202293717302382,-0.018851984292268753
1772534305869225000,1.411224853515625,-0.02371624857187271,0.0059449742548167706,-0.022233933210372925
1772534305879242000,1.421241943359375,-0.02334979735314846,0.006543386727571487,-0.024810275062918663
1772534305889258000,1.431258056640625,-0.024829981848597527,0.0057156761176884174,-0.026318423449993134
1772534305899275000,1.44127490234375,-0.02424461953341961,0.00888137612491846,-0.028744030743837357
1772534305909291000,1.451291015625,-0.023363912478089333,0.006101301871240139,-0.030950192362070084
1772534305919307000,1.46130712890625,-0.020720191299915314,0.002799781272187829,-0.029517944902181625
1772534305929324000,1.471323974609375,-0.01944400556385517,0.0001579254458192736,-0.023212378844618797
1772534305939339800,1.48133984375,-0.01823306642472744,-0.004283161833882332,-0.014550712890923023
1772534305949356000,1.49135595703125,-0.018918562680482864,-0.0089993542060256,-0.009076851420104504
1772534305959373000,1.501373046875,-0.01774384267628193,-0.010949320159852505,-0.009157279506325722
1772534305969389000,1.51138916015625,-0.014494786970317364,-0.003148389048874378,-0.0107093695551157
1772534305979404800,1.52140478515625,-0.011997806839644909,0.003751595038920641,-0.013464409857988358
1772534305989422000,1.531422119140625,-0.009386311285197735,0.008976184763014317,-0.013280651532113552
1772534305999438000,1.54143798828125,-0.00686243362724781,0.012527243234217167,-0.01643170416355133
1772534306009454000,1.5514541015625,-0.0096246637403965,0.011591941118240356,-0.018753714859485626
1772534306019470800,1.561470947265625,-0.014453241601586342,0.003135872073471546,-0.024170849472284317
1772534306029486800,1.57148681640625,-0.01804691180586815,0.004281564150005579,-0.02948012761771679
1772534306039504100,1.581504150390625,-0.020648818463087082,0.011411911807954311,-0.032403744757175446
1772534306049520000,1.59152001953125,-0.019690880551934242,0.00768801337108016,-0.03262052685022354
1772534306059536000,1.601535888671875,-0.013126187957823277,0.002683401107788086,-0.028326978906989098
1772534306069553000,1.611552978515625,-0.0038743666373193264,-0.00848563015460968,-0.018867963925004005
1772534306079569200,1.621569091796875,0.0016490293201059103,-0.014058827422559261,-0.01486336812376976
1772534306089585200,1.631585205078125,-0.001669003046117723,-0.010189786553382874,-0.01582077518105507
1772534306099602000,1.641601806640625,-0.0056863813661038876,-0.0046541402116417885,-0.0132084796205163
1772534306109618000,1.651617919921875,-0.007408647798001766,-0.003934287931770086,-0.01420317031443119
1772534306119634000,1.661634033203125,-0.008359662257134914,-0.008331166580319405,-0.014975487254559994
1772534306129651000,1.67165087890625,-0.00893703568726778,-0.0044440170750021935,-0.02358868345618248
1772534306139667000,1.6816669921875,-0.007337274961173534,0.0001310275256400928,-0.04026300087571144
1772534306149683000,1.691682861328125,-0.0049428269267082214,0.005044027231633663,-0.04981575906276703
1772534306159700000,1.701699951171875,-0.00407437002286315,0.0034376082476228476,-0.045216478407382965
1772534306169716000,1.711716064453125,0.0027326694689691067,-0.0003944141499232501,-0.032454345375299454
1772534306179733000,1.72173291015625,0.00740358792245388,-0.0075753615237772465,-0.020140688866376877
1772534306189749000,1.7317490234375,0.008533833548426628,-0.011080081574618816,-0.004526575095951557
1772534306199765000,1.741764892578125,0.00865926779806614,-0.0128774493932724,0.0016855146968737245
1772534306209781800,1.75178173828125,0.007439007982611656,-0.009793775156140327,0.0011270497925579548
1772534306219798000,1.761798095703125,0.006078931502997875,-0.007764978799968958,-0.007533550262451172
1772534306229814000,1.77181396484375,0.0017534252256155014,-0.0004207794554531574,-0.020141221582889557
1772534306239831000,1.7818310546875,-0.004573180340230465,0.0025244103744626045,-0.02040434069931507
1772534306249847000,1.791846923828125,-0.014073740690946579,0.005652293097227812,-0.017414942383766174
1772534306259862800,1.80186279296875,-0.0199782345443964,0.0020666129421442747,-0.017590977251529694
1772534306269880000,1.811880126953125,-0.023545006290078163,0.00004500742215896025,-0.014567490667104721
1772534306279896000,1.82189599609375,-0.024637969210743904,-0.0006844323943369091,-0.00854288786649704
1772534306289912800,1.831912841796875,-0.013096626847982407,-0.005330050364136696,-0.00839801225811243
1772534306299928800,1.8419287109375,-0.0006828344776295125,-0.005988384131342173,-0.013951501809060574
1772534306309945000,1.851945068359375,0.008214253932237625,-0.005362274590879679,-0.011498730629682541
1772534306319962000,1.861962158203125,0.013295033015310764,-0.009769273921847343,-0.00330231967382133
1772534306329978000,1.87197802734375,0.014308365061879158,-0.016081765294075012,0.005909288302063942
1772534306339993900,1.881993896484375,0.015961389988660812,-0.01678723655641079,0.010411362163722515
1772534306350011000,1.892010986328125,0.014562963508069515,-0.009619603864848614,0.004460528492927551
1772534306360027100,1.902027099609375,0.010839598253369331,-0.008343683555722237,-0.004664260428398848
1772534306370043100,1.912043212890625,0.01119486428797245,-0.007387342397123575,-0.015249527059495449
1772534306380060000,1.922059814453125,0.012104866094887257,-0.005284244194626808,-0.024931449443101883
1772534306390076400,1.932076416015625,0.0111019192263484,-0.002537992550060153,-0.028111528605222702
1772534306400092400,1.942092529296875,0.011898204684257507,-0.008113586343824863,-0.02737942710518837
1772534306410109200,1.952109130859375,0.01495258416980505,-0.018248777836561203,-0.021642178297042847
1772534306420125200,1.962125244140625,0.016511598601937294,-0.02564331144094467,-0.01671799272298813
1772534306430141200,1.97214111328125,0.013494503684341908,-0.015282283537089825,-0.01901017688214779
1772534306440158500,1.982158447265625,0.011838549748063087,-0.0044235107488930225,-0.025236913934350014
1772534306450174200,1.99217431640625,0.0051289820112288,0.0028732845094054937,-0.027950940653681755
1772534306460191200,2.002191162109375,0.0006213154993019998,0.002679938916116953,-0.024439295753836632
1772534306470207200,2.012207275390625,0.002416286151856184,0.0031941954512149096,-0.015896674245595932
1772534306480223500,2.022223388671875,0.0033752904273569584,-0.0014183996245265007,-0.009799900464713573
1772534306490240300,2.032240234375,0.00765925133600831,-0.0017515610670670867,-0.007556186988949776
1772534306500256300,2.04225634765625,0.012375443242490292,-0.0005155879771336913,-0.0014178669080138206
1772534306510272300,2.052272216796875,0.016985109075903893,0.0014495585346594453,-0.00971414614468813
1772534306520289500,2.06228955078125,0.022244052961468697,0.005948436446487904,-0.01962004043161869
1772534306530305300,2.07230517578125,0.020142287015914917,0.015300393104553223,-0.024146614596247673
1772534306540321300,2.0823212890625,0.011350658722221851,0.026435868814587593,-0.01979474350810051
1772534306550338300,2.09233837890625,-0.0014506238512694836,0.04254665970802307,-0.008294148370623589
1772534306560354300,2.102354248046875,-0.005101817660033703,0.03512150049209595,0.007721569389104843
1772534306570370600,2.11237060546875,0.0022591594606637955,0.017767012119293213,0.019689016044139862
1772534306580387300,2.12238720703125,0.00014088122406974435,-0.00711836339905858,0.029562685638666153
1772534306590403300,2.1324033203125,-0.004232029430568218,0.023982830345630646,0.024330640211701393
1772534306600419300,2.14241943359375,0.004355600103735924,0.020375313237309456,0.01329609751701355
1772534306610436400,2.152436279296875,0.007850999012589455,0.0012277172645553946,-0.003287938656285405
1772534306620452400,2.162452392578125,0.007482950109988451,0.012666260823607445,-0.008742891252040863
1772534306630469400,2.172469482421875,0.0022559636272490025,0.017186444252729416,-0.01273070927709341
1772534306640485400,2.1824853515625,-0.002697782125324011,0.01560878660529852,-0.016271647065877914
1772534306650501400,2.19250146484375,-0.0030415961518883705,0.01302365679293871,-0.016091618686914444
1772534306660518400,2.202518310546875,0.0024469124618917704,0.008540757931768894,-0.019786488264799118
1772534306670534400,2.212534423828125,0.004027498420327902,0.003454386256635189,-0.019217636436223984
1772534306680550400,2.22255029296875,0.004608600400388241,0.005885053426027298,-0.01672198809683323
1772534306690567200,2.232567138671875,0.001086037140339613,0.009904296137392521,-0.01281539723277092
1772534306700583200,2.242583251953125,0.00007936220208648592,0.007508782669901848,-0.009169530123472214
1772534306710599400,2.252599365234375,0.004333761986345053,0.008739163167774677,-0.008109591901302338
1772534306720616400,2.262616455078125,0.005327120888978243,0.005434180144220591,-0.011441739276051521
1772534306730632200,2.272632080078125,0.010215885937213898,0.0067239492200315,-0.014915033243596554
1772534306740648200,2.282648193359375,0.013273460790514946,0.010493387468159199,-0.020297015085816383
1772534306750665500,2.29266552734375,0.011922173202037811,0.011983958072960377,-0.023355921730399132
1772534306760681500,2.302681396484375,0.011666509322822094,0.01465590763837099,-0.026142921298742294
1772534306770698200,2.3126982421875,0.011726164259016514,0.012679842300713062,-0.02887585572898388
1772534306780714200,2.32271435546875,0.00959883164614439,0.01985120214521885,-0.03363306075334549
1772534306790730200,2.332730224609375,0.010950385592877865,0.016384566202759743,-0.030648723244667053
1772534306800747500,2.34274755859375,0.016224242746829987,0.009751963429152966,-0.02123418264091015
1772534306810763300,2.35276318359375,0.022045914083719254,0.004564391914755106,-0.0113975303247571
1772534306820779300,2.362779296875,0.025463547557592392,0.00452684098854661,-0.0054448326118290424
1772534306830796300,2.37279638671875,0.025180719792842865,0.0041249701753258705,-0.006971356924623251
1772534306840812300,2.382812255859375,0.021322332322597504,0.013162673451006413,-0.01330035924911499
1772534306850828300,2.392828369140625,0.013368003070354462,0.023809459060430527,-0.015199991874396801
1772534306860845300,2.40284521484375,-0.002251968951895833,0.03521790727972984,-0.012035357765853405
1772534306870861300,2.412861328125,-0.015917712822556496,0.033916156738996506,-0.0012783173006027937
1772534306880877300,2.422877197265625,-0.02160169929265976,0.021389178931713104,0.020201940089464188
1772534306890894300,2.432894287109375,-0.02359241060912609,0.016097476705908775,0.03368739038705826
1772534306900910300,2.442910400390625,-0.022715965285897255,0.011174091137945652,0.03701873868703842
1772534306910926300,2.45292626953125,-0.021523134782910347,0.013862818479537964,0.029017802327871323
1772534306920943400,2.462943359375,-0.01907329261302948,0.013614345341920853,0.020797956734895706
1772534306930959000,2.472958984375,-0.014878815039992332,0.012328038923442364,0.018267687410116196
1772534306940976400,2.482976318359375,-0.011828696355223656,0.007154315710067749,0.012533368542790413
1772534306950992400,2.492992431640625,-0.005870139691978693,0.0029587720055133104,-0.0021438447292894125
1772534306961008400,2.50300830078125,-0.003955593332648277,0.000984570593573153,-0.019532155245542526
1772534306971025200,2.513025146484375,-0.005303951445966959,0.0022298647090792656,-0.039809998124837875
1772534306981041400,2.52304150390625,-0.011716577224433422,0.008421448059380054,-0.05447496101260185
1772534306991057400,2.533057373046875,-0.01600959338247776,0.010806575417518616,-0.06611137837171555
1772534307001074400,2.543074462890625,-0.014658038504421711,0.0076185050420463085,-0.06702643632888794
1772534307011090200,2.553090087890625,-0.012231898494064808,0.0008708536624908447,-0.05819939076900482
1772534307021106200,2.563106201171875,-0.004685831721872091,-0.010146910324692726,-0.03837535157799721
1772534307031123500,2.57312353515625,0.0004846953088417649,-0.01762346923351288,-0.023085078224539757
1772534307041139500,2.583139404296875,0.004318848252296448,-0.021749237552285194,-0.017473265528678894
1772534307051155500,2.593155517578125,0.0006756439688615501,-0.015534218400716782,-0.024576449766755104
1772534307061172200,2.603172119140625,-0.006807305850088596,-0.0035380094777792692,-0.029438583180308342
1772534307071188200,2.613188232421875,-0.0171467624604702,0.004101534374058247,-0.03455771133303642
1772534307081204500,2.62320458984375,-0.025535186752676964,0.008982576429843903,-0.03425784036517143
1772534307091221200,2.63322119140625,-0.03242398425936699,0.013758955523371696,-0.03049985133111477
1772534307101237200,2.6432373046875,-0.032164327800273895,0.011433216743171215,-0.021278657019138336
1772534307111253200,2.653253173828125,-0.027061711996793747,0.0032559807877987623,-0.009306415915489197
1772534307121270500,2.6632705078125,-0.018674883991479874,-0.005564408842474222,0.007014233618974686
1772534307131286300,2.673286376953125,-0.012909673154354095,-0.010066215880215168,0.023526631295681
1772534307141303300,2.68330322265625,-0.00993066094815731,-0.0073535204865038395,0.03918841481208801
1772534307151319300,2.6933193359375,-0.003870371961966157,-0.0004756405542138964,0.048953961580991745
1772534307161335300,2.703335205078125,0.0014178669080138206,-0.006448578089475632,0.05296201631426811
1772534307171352300,2.713352294921875,0.008433432318270206,-0.00509862182661891,0.057318415492773056
1772534307181368300,2.723368408203125,0.012924853712320328,-0.009781524538993835,0.051531899720430374
1772534307191384300,2.73338427734375,0.014825285412371159,-0.005857090000063181,0.0437978133559227
1772534307201401300,2.7434013671875,0.009498430415987968,0.003567570587620139,0.030880950391292572
1772534307211417300,2.753417236328125,0.001050617080181837,0.0020865867845714092,0.02075561136007309
1772534307221433300,2.763433349609375,-0.006923153530806303,0.010995126329362392,0.010252105072140694
1772534307231450400,2.773450439453125,-0.011503524146974087,0.012661999091506004,0.00384427304379642
1772534307241466400,2.78346630859375,-0.010070743970572948,0.010803911834955215,-0.004990231245756149
1772534307251482400,2.793482421875,-0.0067481836304068565,0.007791344076395035,-0.010893660597503185
1772534307261499400,2.80349951171875,-0.006053098943084478,0.010865696705877781,-0.014165353961288929
1772534307271515400,2.813515380859375,-0.01035383716225624,0.014521418139338493,-0.014959508553147316
1772534307281531400,2.823531494140625,-0.015920642763376236,0.019815249368548393,-0.01194134820252657
1772534307291548200,2.833548095703125,-0.02051752619445324,0.020265324041247368,-0.007981494069099426
1772534307301564200,2.843564208984375,-0.01991405338048935,0.014675615355372429,-0.0031848743092268705
1772534307311580400,2.853580322265625,-0.017472999170422554,0.01272964384406805,0.0028479844331741333
1772534307321597400,2.863597412109375,-0.016993364319205284,0.012465458363294601,0.0064981128089129925
1772534307331613200,2.87361328125,-0.01858486980199814,0.014889733865857124,0.005875998642295599
1772534307341630200,2.883630126953125,-0.020540429279208183,0.019084211438894272,0.002877545543015003
1772534307351646500,2.893646484375,-0.02281157299876213,0.01974600739777088,-0.00015233281010296196
1772534307361662500,2.903662353515625,-0.023606792092323303,0.0193095151335001,-0.0020149475894868374
1772534307371679200,2.91367919921875,-0.021458953619003296,0.015503858216106892,-0.005649896338582039
1772534307381695200,2.9236953125,-0.015893479809165,0.011077950708568096,-0.012731507420539856
1772534307391711200,2.933711181640625,-0.012315788306295872,0.004253334365785122,-0.019104719161987305
1772534307401728300,2.943728271484375,-0.012879845686256886,0.0067875985987484455,-0.024275777861475945
1772534307411744000,2.953743896484375,-0.015505722723901272,0.01242124941200018,-0.0277437474578619
1772534307421760000,2.963760009765625,-0.018320417031645775,0.015333415940403938,-0.03317579627037048
1772534307431777300,2.97377734375,-0.022102106362581253,0.017610419541597366,-0.0366046167910099
1772534307441793300,2.983793212890625,-0.024334900081157684,0.017719607800245285,-0.03558702394366264
1772534307451809300,2.993809326171875,-0.025486184284090996,0.015976302325725555,-0.028054803609848022
1772534307461826000,3.003825927734375,-0.023501330986618996,0.016873255372047424,-0.018756642937660217
1772534307471842300,3.01384228515625,-0.030119286850094795,0.012571185827255249,-0.008340488187968731
1772534307481858300,3.0238583984375,-0.036548689007759094,0.0073356772772967815,-0.0007693872321397066
1772534307491875000,3.033875,-0.036785710602998734,0.0026911243330687284,0.0046967510133981705
1772534307501891000,3.04389111328125,-0.032345421612262726,0.0005344964447431266,0.0037297571543604136
1772534307511907000,3.053906982421875,-0.025017734616994858,0.0017984326696023345,-0.0035542547702789307
1772534307521924400,3.06392431640625,-0.013484915718436241,0.006305566523224115,-0.006933007389307022
1772534307531940000,3.073940185546875,-0.006357498001307249,0.004779042676091194,-0.013522999361157417
1772534307541957000,3.08395703125,-0.006521282717585564,0.0060325926169753075,-0.017842646688222885
1772534307551973000,3.09397314453125,-0.008224107325077057,0.006706106010824442,-0.026330674067139626
1772534307561989400,3.1039892578125,-0.004400873556733131,0.000428502622526139,-0.030043652281165123
1772534307572006100,3.114006103515625,0.0026293389964848757,-0.007161506451666355,-0.029343774542212486
1772534307582022100,3.124022216796875,0.0067878649570047855,-0.016162725165486336,-0.030166158452630043
1772534307592038100,3.1340380859375,0.010687265545129776,-0.01248995866626501,-0.03280748054385185
1772534307602055400,3.144055419921875,0.012223909609019756,-0.0057468353770673275,-0.04165023937821388
1772534307612071200,3.1540712890625,0.006922088097780943,-0.002375007141381502,-0.049552105367183685
1772534307622087200,3.164087158203125,0.002520682057365775,0.0004034689045511186,-0.047021038830280304
1772534307632104200,3.174104248046875,-0.0018959043081849813,-0.004034156445413828,-0.039870452135801315
1772534307642120200,3.1841201171875,-0.007288272958248854,-0.005750563926994801,-0.028234301134943962
1772534307652136200,3.19413623046875,-0.01380795706063509,-0.00392842898145318,-0.01654222421348095
1772534307662153200,3.2041533203125,-0.01569773629307747,-0.005374791566282511,-0.011834821663796902
1772534307672169200,3.214169189453125,-0.018065020442008972,-0.00387410051189363,-0.010253436863422394
1772534307682185200,3.224185302734375,-0.016377640888094902,-0.004201669245958328,-0.009799367748200893
1772534307692202000,3.234201904296875,-0.017041034996509552,-0.003430950455367565,-0.00800492987036705
1772534307702218200,3.24421826171875,-0.016449812799692154,-0.002171807922422886,-0.004906075540930033
1772534307712234200,3.254234130859375,-0.012092615477740765,-0.004957474302500486,-0.0003379551344551146
1772534307722251300,3.264251220703125,-0.010497648268938065,-0.006007825024425983,-0.0002689792599994689
1772534307732267300,3.274267333984375,-0.008763664402067661,-0.0006641923682764173,-0.002692455891519785
1772534307742283000,3.284282958984375,-0.002663427498191595,0.0010181264951825142,-0.002424541860818863
1772534307752300300,3.29430029296875,-0.0015688681742176414,-0.005930326879024506,-0.001671932521276176
1772534307762316300,3.30431640625,0.004930309951305389,-0.009613744914531708,-0.001799764228053391
1772534307772332300,3.314332275390625,0.004321511369198561,-0.009587646462023258,-0.0038011297583580017
1772534307782349000,3.32434912109375,0.0027225494850426912,-0.002977680414915085,-0.007762848399579525
1772534307792365300,3.334365234375,0.0016905746888369322,-0.002785400254651904,-0.006963633466511965
1772534307802382300,3.34438232421875,0.0021486382465809584,-0.003578755771741271,-0.006566556170582771
1772534307812398000,3.354398193359375,0.003861849894747138,-0.005947371479123831,-0.008570585399866104
1772534307822414000,3.3644140625,0.00424268189817667,-0.0022333269007503986,-0.011235876940190792
1772534307832431400,3.374431396484375,-0.0008721852791495621,0.000594950164668262,-0.007705057505518198
1772534307842447400,3.384447265625,-0.003290335414931178,-0.0033310819417238235,-0.0010641991393640637
1772534307852463400,3.39446337890625,-0.00777536490932107,-0.008294414728879929,0.007561513222754002
1772534307862480100,3.404480224609375,-0.013469736091792583,-0.002020540414378047,0.0145286088809371
1772534307872496000,3.41449609375,-0.01757553219795227,-0.0030429279431700706,0.02063044346868992
1772534307882512100,3.42451220703125,-0.01446948666125536,-0.006374808494001627,0.02419108897447586
1772534307892529200,3.434529052734375,-0.00717748561874032,-0.017642909660935402,0.02491280622780323
1772534307902545200,3.444545166015625,-0.0017321199411526322,-0.02046825736761093,0.020500214770436287
1772534307912561200,3.45456103515625,-0.0007720504072494805,-0.015000254847109318,0.01576218567788601
1772534307922578200,3.464578125,-0.007616640534251928,-0.007739146240055561,0.013463344424962997
1772534307932594200,3.47459423828125,-0.011317635886371136,0.005898635368794203,0.015449795871973038
1772534307942610200,3.484610107421875,-0.012487296015024185,-0.014336062595248222,0.008068579249083996
1772534307952627200,3.494627197265625,-0.013381585478782654,-0.0029638318810611963,0.013500362634658813
1772534307962643200,3.504643310546875,-0.012011389248073101,-0.001609348226338625,0.008713596500456333
1772534307972659200,3.5146591796875,-0.007180947344750166,-0.008670985698699951,0.009076319634914398
1772534307982676200,3.52467626953125,-0.007288805674761534,-0.008950351737439632,0.014189855195581913
1772534307992692200,3.534692138671875,-0.011884089559316635,-0.011807125061750412,0.01896277256309986
1772534308002708200,3.544708251953125,-0.014916897751390934,-0.007558850105851889,0.01938594877719879
1772534308012725000,3.55472509765625,-0.017377391457557678,-0.008066182024776936,0.017495902255177498
1772534308022741000,3.564740966796875,-0.01991405338048935,-0.006594785954803228,0.014399711973965168
1772534308032757200,3.57475732421875,-0.01907036453485489,-0.004319114610552788,0.007523430045694113
1772534308042774300,3.584774169921875,-0.022835275158286095,-0.0028538433834910393,0.0018674085149541497
1772534308052790300,3.594790283203125,-0.02491094172000885,-0.003004844533279538,0.00010359696898376569
1772534308062806000,3.604805908203125,-0.03291134536266327,-0.003358512418344617,0.0012066783383488655
1772534308072823300,3.6148232421875,-0.036373987793922424,-0.0016042882343754172,0.006707170978188515
1772534308082839300,3.62483935546875,-0.03827574849128723,-0.005056011490523815,0.010915231890976429
1772534308092856000,3.63485595703125,-0.036551088094711304,-0.010424943640828133,0.013678527437150478
1772534308102872000,3.6448720703125,-0.036672793328762054,-0.009494435973465443,0.01477761473506689
1772534308112888000,3.65488818359375,-0.037628866732120514,-0.0016042882343754172,0.00857244897633791
1772534308122905300,3.6649052734375,-0.03645787760615349,0.0031902005430310965,0.003183010034263134
1772534308132921300,3.67492138671875,-0.028381839394569397,0.005115665961056948,0.0025220136158168316
1772534308142937000,3.68493701171875,-0.021498367190361023,-0.000059388490626588464,0.00040080572944134474
1772534308152954000,3.6949541015625,-0.015088671818375587,-0.0013800500892102718,-0.005547098349779844
1772534308162970400,3.704970458984375,-0.00765871861949563,0.00012197277828818187,-0.014138721860945225
1772534308172986400,3.714986328125,-0.010913101024925709,-0.0015518239233642817,-0.021523667499423027
1772534308183003100,3.725003173828125,-0.014616493135690689,0.003859186777845025,-0.029451632872223854
1772534308193019100,3.73501904296875,-0.018932411447167397,0.0034618431236594915,-0.029695045202970505
1772534308203035100,3.74503515625,-0.022727949544787407,0.0038242992013692856,-0.029862025752663612
1772534308213052200,3.75505224609375,-0.024927720427513123,0.0011582087026908994,-0.03356621414422989
1772534308223068200,3.765068115234375,-0.02311037853360176,-0.00010199906682828441,-0.03819718584418297
1772534308233084200,3.775084228515625,-0.02147866040468216,-0.0026011094450950623,-0.04153972119092941
1772534308243101200,3.78510107421875,-0.020800087600946426,0.0027598338201642036,-0.04256264120340347
1772534308253117200,3.7951171875,-0.029437784105539322,0.008981777355074883,-0.03761608526110649
1772534308263133200,3.80513330078125,-0.035172101110219955,0.007580687757581472,-0.01894359663128853
1772534308273150200,3.815150146484375,-0.03985633701086044,-0.00006258428766159341,-0.00042983421008102596
1772534308283166200,3.825166259765625,-0.044247355312108994,0.003998203668743372,0.019539613276720047
1772534308293182200,3.83518212890625,-0.04312856122851372,-0.0013483584625646472,0.03333878144621849
1772534308303199200,3.84519921875,-0.040702689439058304,-0.007421697489917278,0.04116368293762207
1772534308313215200,3.85521533203125,-0.03615454211831093,-0.006166549399495125,0.041372206062078476
1772534308323231200,3.865231201171875,-0.032161399722099304,-0.008589759469032288,0.03412974253296852
1772534308333248300,3.875248291015625,-0.0321962870657444,-0.000821318884845823,0.024898691102862358
1772534308343264000,3.885263916015625,-0.03086310811340809,0.0030863373540341854,0.014176805503666401
1772534308353280300,3.8952802734375,-0.02965722791850567,0.005428587552160025,0.007004646118730307
1772534308363297300,3.90529736328125,-0.026798058301210403,0.006977482233196497,0.0008751147543080151
1772534308373313300,3.915313232421875,-0.02045733854174614,0.0046091326512396336,-0.0006737797521054745
1772534308383329300,3.925329345703125,-0.01062308344990015,0.0038485340774059296,-0.0004159857635386288
1772534308393346600,3.9353466796875,-0.0018884475575760007,0.00651568965986371,-0.00040559942135587335
1772534308403362600,3.945362548828125,0.00606375141069293,0.0035454663448035717,0.0015273229219019413
1772534308413378600,3.955378662109375,0.015323562547564507,0.0004394215648062527,-0.00015339808305725455
1772534308423395300,3.965395263671875,0.019527629017829895,-0.005513275973498821,0.0010833739070221782
1772534308433411300,3.975411376953125,0.02070581167936325,-0.0029462550301104784,0.001189900329336524
1772534308443427600,3.985427490234375,0.014278272166848183,0.0007872303831391037,-0.0046690539456903934
1772534308453444600,3.995444580078125,0.004926581867039204,0.0010551444720476866,-0.009466738440096378
1772534308463460400,4.00546044921875,-0.00720518222078681,0.0067777447402477264,-0.013281184248626232
1772534308473476400,4.015476318359375,-0.01261006761342287,0.005608350969851017,-0.014487329870462418
1772534308483493400,4.025493408203125,-0.012851882725954056,0.004227501805871725,-0.01648896187543869
1772534308493509600,4.035509521484375,-0.011329087428748608,0.0023787354584783316,-0.012632437981665134
1772534308503526400,4.0455263671875,-0.008256864733994007,-0.0034855452831834555,-0.005139634478837252
1772534308513542400,4.05554248046875,-0.004833637271076441,-0.004485561978071928,0.00401604687795043
1772534308523558400,4.065558349609375,-0.005036303773522377,-0.005130846053361893,0.013995710760354996
1772534308533575400,4.075575439453125,-0.004381432663649321,-0.004266117699444294,0.018280737102031708
1772534308543591400,4.08559130859375,-0.007217965554445982,-0.0015595471486449242,0.015531555749475956
1772534308553607400,4.095607421875,-0.00717721926048398,-0.000687361869495362,0.006755108013749123
1772534308563624400,4.10562451171875,-0.0028133634477853775,0.000261788722127676,-0.003593669505789876
1772534308573640400,4.115640380859375,-0.001543568097986281,0.001517202821560204,-0.014680941589176655
1772534308583656400,4.125656494140625,0.0015182681381702423,0.0011851066956296563,-0.024704547598958015
1772534308593673500,4.135673583984375,0.0013696637470275164,0.005405684467405081,-0.02744787000119686
1772534308603689500,4.145689453125,0.004274639766663313,0.003206712193787098,-0.026019349694252014
1772534308613705500,4.15570556640625,0.00902891531586647,-0.000993625377304852,-0.020139623433351517
1772534308623722500,4.165722412109375,0.013018064200878143,-0.005758020561188459,-0.017299894243478775
1772534308633738500,4.175738525390625,0.013425261713564396,-0.0015249260468408465,-0.005606220569461584
1772534308643754500,4.18575439453125,0.010312026366591454,-0.0062421830371022224,0.00857351440936327
1772534308653771500,4.195771484375,0.007382282521575689,-0.007453655358403921,0.018212294206023216
1772534308663787300,4.205787353515625,0.006762565113604069,-0.007066431455314159,0.020787836983799934
1772534308673803300,4.21580322265625,0.0018519621808081865,0.00038935415796004236,0.017656758427619934
1772534308683820500,4.225820556640625,-0.003037601476535201,0.0005518069956451654,0.014022608287632465
1772534308693836500,4.23583642578125,-0.001716673607006669,0.00044022052315995097,0.006880809087306261
1772534308703852300,4.245852294921875,-0.002142246812582016,0.004056793171912432,0.0005763080553151667
1772534308713869300,4.255869384765625,-0.004731105640530586,0.00567093538120389,-0.0005121259018778801
1772534308723885600,4.265885498046875,-0.010090450756251812,0.00800572894513607,0.0020823257509618998
1772534308733901600,4.275901611328125,-0.00890933908522129,0.004347876645624638,0.007734085898846388
1772534308743918300,4.28591845703125,-0.006115416996181011,0.0027164241764694452,0.011699000373482704
1772534308753934300,4.295934326171875,-0.003117230022326112,0.001714010490104556,0.012886770069599152
1772534308763950300,4.305950439453125,0.002662362065166235,-0.002579271560534835,0.009265403263270855
1772534308773967600,4.315967529296875,0.00806405209004879,-0.00230842805467546,0.0016373114194720984
1772534308783983400,4.3259833984375,0.009128783829510212,0.0013520868960767984,-0.007791610434651375
1772534308793999400,4.335999267578125,0.005067196674644947,0.005635248962789774,-0.019479691982269287
1772534308804016400,4.346016357421875,0.002778742229565978,0.0070669641718268394,-0.02816665731370449
1772534308814032600,4.35603271484375,-0.005110606085509062,0.006418484263122082,-0.03062209114432335
1772534308824048600,4.366048583984375,-0.00860387459397316,0.008655273355543613,-0.030252443626523018
1772534308834065400,4.3760654296875,-0.005634183529764414,0.0013305152533575892,-0.02630111202597618
1772534308844081400,4.386081298828125,-0.0009976201690733433,-0.006748982705175877,-0.020708207041025162
1772534308854097400,4.396097412109375,0.004235757514834404,-0.007466438226401806,-0.016524115577340126
1772534308864114400,4.406114501953125,0.005132177844643593,-0.00373082235455513,-0.016109460964798927
1772534308874130400,4.41613037109375,0.005022189114242792,-0.001475657569244504,-0.017710553482174873
1772534308884146400,4.426146484375,-0.000707868195604533,0.005624596029520035,-0.021105285733938217
1772534308894163500,4.43616357421875,-0.007427822332829237,0.007497064769268036,-0.022005965933203697
1772534308904179500,4.446179443359375,-0.014994129538536072,0.0065263425931334496,-0.02057664841413498
1772534308914195500,4.456195556640625,-0.021255487576127052,0.004986236337572336,-0.01853773184120655
1772534308924212500,4.46621240234375,-0.025913089513778687,0.003754790872335434,-0.01842055283486843
1772534308934228500,4.476228515625,-0.02315538562834263,0.006136721931397915,-0.017792845144867897
1772534308944244500,4.486244384765625,-0.021079452708363533,0.0018080200534313917,-0.020868530496954918
1772534308954261500,4.496261474609375,-0.018933476880192757,0.0032810145057737827,-0.02407124824821949
1772534308964277500,4.506277587890625,-0.016511864960193634,0.0014780544443055987,-0.029258286580443382
1772534308974293500,4.51629345703125,-0.014000770635902882,0.006925816647708416,-0.0308146383613348
1772534308984310300,4.526310302734375,-0.013333115726709366,0.006295712664723396,-0.029097165912389755
1772534308994326300,4.536326171875,-0.016319317743182182,0.0029108349699527025,-0.029461752623319626
1772534309004342500,4.546342529296875,-0.014478807337582111,0.005064000841230154,-0.02672668546438217
1772534309014359600,4.556359619140625,-0.011810586787760258,0.007398793939501047,-0.02641323208808899
1772534309024375600,4.56637548828125,-0.005142031237483025,0.005077849142253399,-0.02569630928337574
1772534309034391300,4.576391357421875,-0.0007030745036900043,0.002177400514483452,-0.02743055857717991
1772534309044408600,4.58640869140625,0.0009108011145144701,0.002064748667180538,-0.02430107817053795
1772534309054424600,4.596424560546875,-0.002310824813321233,-0.0005305017111822963,-0.024502679705619812
1772534309064440600,4.606440673828125,-0.009476859122514725,0.0029403960797935724,-0.024400414898991585
1772534309074457300,4.616457275390625,-0.013172793202102184,0.005164135713130236,-0.02720179408788681
1772534309084473300,4.626473388671875,-0.013428723439574242,0.0015092133544385433,-0.031039409339427948
1772534309094489300,4.6364892578125,-0.0171454306691885,0.0028533106669783592,-0.03610127791762352
1772534309104506400,4.64650634765625,-0.020985975861549377,0.00711729796603322,-0.04026459902524948
1772534309114522400,4.6565224609375,-0.027306189760565758,0.01426548883318901,-0.043847084045410156
1772534309124538400,4.666538330078125,-0.026334933936595917,0.015367504209280014,-0.04711851105093956
1772534309134555400,4.676555419921875,-0.028969865292310715,0.01387000922113657,-0.04120203107595444
1772534309144571600,4.686571533203125,-0.028544560074806213,0.01170326117426157,-0.03099014051258564
1772534309154587400,4.69658740234375,-0.024209998548030853,0.004307396709918976,-0.022532738745212555
1772534309164604400,4.7066044921875,-0.0169153343886137,-0.003716174978762865,-0.020204870030283928
1772534309174620400,4.716620361328125,-0.00905501376837492,-0.010418020188808441,-0.023370036855340004
1772534309184636400,4.726636474609375,-0.006482933182269335,-0.009435580112040043,-0.02905801683664322
1772534309194653400,4.7366533203125,-0.0059596216306090355,-0.011182347312569618,-0.03654203191399574
1772534309204669400,4.74666943359375,-0.0082704471424222,-0.009047823026776314,-0.043105125427246094
1772534309214685400,4.756685546875,-0.010486463084816933,-0.016570987179875374,-0.05061870068311691
1772534309224702500,4.766702392578125,-0.010260893031954765,-0.016031431034207344,-0.05284004658460617
1772534309234718500,4.776718505859375,-0.005702094174921513,-0.017784323543310165,-0.05855065956711769
1772534309244734500,4.786734375,-0.006946056615561247,-0.015061773359775543,-0.06583546847105026
1772534309254751500,4.79675146484375,-0.006987601984292269,-0.00777589762583375,-0.07196899503469467
1772534309264767500,4.806767578125,-0.011920042335987091,-0.003492735791951418,-0.07442523539066315
1772534309274783500,4.816783447265625,-0.01155918464064598,-0.003531351685523987,-0.07019426673650742
1772534309284800500,4.826800537109375,-0.014151771552860737,-0.009884854778647423,-0.06288761645555496
1772534309294816500,4.83681640625,-0.011651329696178436,-0.01727619208395481,-0.04953985661268234
1772534309304832500,4.84683251953125,-0.01146783772855997,-0.02466593123972416,-0.0356336273252964
1772534309314849300,4.856849365234375,-0.01122256089001894,-0.02967427298426628,-0.026762371882796288
1772534309324865300,4.866865234375,-0.013066799379885197,-0.02478976920247078,-0.021817147731781006
1772534309334881500,4.876881591796875,-0.019183814525604248,-0.016207465901970863,-0.024768728762865067
1772534309344898600,4.886898681640625,-0.02167174033820629,-0.007779626175761223,-0.02726517617702484
1772534309354914300,4.896914306640625,-0.02600097469985485,-0.005119660869240761,-0.026930684223771095
1772534309364930300,4.906930419921875,-0.03069319762289524,-0.002650377806276083,-0.020602213218808174
1772534309374947600,4.916947509765625,-0.032274048775434494,-0.004933505784720182,-0.00857298169285059
1772534309384963600,4.926963623046875,-0.03223783150315285,-0.0073687005788087845,-0.00689092930406332
1772534309394979300,4.936979248046875,-0.030315561220049858,-0.010831342078745365,-0.00791624654084444
1772534309404996400,4.946996337890625,-0.023931965231895447,-0.010253170505166054,-0.014813567511737347
1772534309415012400,4.957012451171875,-0.02003629319369793,-0.00282002124004066,-0.021224062889814377
1772534309425028400,4.9670283203125,-0.016748087480664253,-0.005403819959610701,-0.021159347146749496
1772534309435045000,4.977045166015625,-0.013759488239884377,-0.0062523032538592815,-0.003299123840406537
1772534309445061000,4.98706103515625,-0.010100836865603924,-0.01853506825864315,0.01774171181023121
1772534309455077400,4.997077392578125,-0.00643712654709816,-0.0392235703766346,0.034634143114089966
1772534309465094400,5.007094482421875,-0.002808569697663188,-0.04465162381529808,0.04230830818414688
1772534309475110400,5.0171103515625,-0.0036216326989233494,-0.021496502682566643,0.03205700218677521
1772534309485126100,5.027126220703125,-0.008955944329500198,-0.006189452484250069,0.014630608260631561
1772534309495143400,5.037143310546875,-0.014493188820779324,0.0007411577389575541,-0.008224640041589737
1772534309505159400,5.047159423828125,-0.01871776208281517,0.012381035834550858,-0.02744520641863346
1772534309515175400,5.057175537109375,-0.020136959850788116,0.01649615168571472,-0.03617744520306587
1772534309525192200,5.067192138671875,-0.01678776927292347,0.00965928565710783,-0.0344378687441349
1772534309535208200,5.077208251953125,-0.010574080981314182,0.002433863002806902,-0.030415164306759834
1772534309545224400,5.087224365234375,-0.001915878034196794,-0.005169994663447142,-0.02309919334948063
1772534309555241500,5.097241455078125,0.003950266633182764,-0.014190653339028358,-0.0078073227778077126
1772534309565257200,5.10725732421875,0.009562079794704914,-0.022005166858434677,0.012121377512812614
1772534309575273200,5.117273193359375,0.014159495010972023,-0.030976558104157448,0.02618499845266342
1772534309585290500,5.12729052734375,0.014712367206811905,-0.03122290037572384,0.03364850580692291
1772534309595306500,5.137306396484375,0.003914314322173595,-0.03146924450993538,0.04180310666561127
1772534309605322200,5.147322265625,-0.003973702434450388,-0.02353728376328945,0.042983684688806534
1772534309615339300,5.15733935546875,-0.011335212737321854,-0.012470518238842487,0.040823329240083694
1772534309625355300,5.167355224609375,-0.01817953586578369,-0.007722101639956236,0.036973465234041214
1772534309635371300,5.177371337890625,-0.013656689785420895,-0.005803560372442007,0.03328711539506912
1772534309645388300,5.18738818359375,-0.006388923618942499,-0.008040349930524826,0.030916636809706688
1772534309655404300,5.197404296875,0.0038016624748706818,-0.011078483425080776,0.027119236066937447
1772534309665420300,5.207420166015625,0.00860067829489708,-0.01811215840280056,0.020385699346661568
1772534309675437300,5.217437255859375,0.006306099239736795,-0.025850240141153336,0.021020330488681793
1772534309685453300,5.227453369140625,0.00806192122399807,-0.004144943784922361,0.008718656376004219
1772534309695469300,5.23746923828125,0.006055229343473911,-0.009412409737706184,0.01007820013910532
1772534309705486300,5.247486328125,0.009032909758388996,-0.010339722968637943,0.009647301398217678
1772534309715502300,5.25750244140625,0.014127536676824093,-0.006649114191532135,0.005527124274522066
1772534309725518300,5.267518310546875,0.014487063512206078,-0.009861152619123459,-0.00043356261448934674
1772534309735535400,5.277535400390625,0.008993761613965034,-0.003269829088822007,-0.0017947042360901833
1772534309745551400,5.28755126953125,0.002888730727136135,0.005105546209961176,-0.0008295746520161629
1772534309755567400,5.2975673828125,0.001790975802578032,0.005077582783997059,0.00487118773162365
1772534309765584100,5.307584228515625,0.007107177749276161,0.0011938951211050153,0.014030065387487411
1772534309775600400,5.317600341796875,0.013767743483185768,-0.0020072245970368385,0.027416177093982697
1772534309785616400,5.327616455078125,0.017106814309954643,-0.00016831177345011383,0.035774774849414825
1772534309795633400,5.33763330078125,0.015147527679800987,-0.002700977958738804,0.041975945234298706
1772534309805649400,5.3476494140625,0.009778594598174095,0.0014596786350011826,0.043296340852975845
1772534309815665200,5.3576650390625,0.0030011162161827087,0.004204865079373121,0.042085934430360794
1772534309825682400,5.367682373046875,-0.009465406648814678,0.004178499802947044,0.0356416180729866
1772534309835698400,5.377698486328125,-0.016877250745892525,0.0059633501805365086,0.02593306265771389
1772534309845714400,5.38771435546875,-0.018910573795437813,0.011294999159872532,0.016944894567131996
1772534309855730200,5.397730224609375,-0.020063722506165504,0.009642506949603558,0.015669774264097214
1772534309865747200,5.407747314453125,-0.015221829526126385,0.004466387443244457,0.01636059768497944
1772534309875763500,5.417763427734375,-0.009300025179982185,-0.000014381069377122913,0.01847141794860363
1772534309885779500,5.427779541015625,-0.0065742796286940575,0.0022913836874067783,0.01696646586060524
1772534309895796200,5.437796142578125,-0.006491721607744694,0.005671733990311623,0.01805809698998928
1772534309905812200,5.447812255859375,-0.005336442030966282,0.008894957602024078,0.011298993602395058
1772534309915828200,5.457828125,0.00005832322858623229,0.0046208505518734455,0.004590490832924843
1772534309925845500,5.467845458984375,0.008383098058402538,0.00458782771602273,-0.0036072516813874245
1772534309935861200,5.477861328125,0.01474405825138092,0.007661115378141403,-0.015002119354903698
1772534309945877200,5.487877197265625,0.013640711084008217,0.010966364294290543,-0.022529810667037964
1772534309955894300,5.497894287109375,0.01110298465937376,0.014933142811059952,-0.02503584511578083
1772534309965910500,5.50791064453125,0.010855310596525669,0.003394198836758733,-0.022280272096395493
1772534309975926300,5.51792626953125,0.010217750445008278,0.003430417738854885,-0.021877335384488106
1772534309985943300,5.527943359375,0.008584166876971722,0.010423080064356327,-0.023436084389686584
1772534309995959300,5.537959228515625,0.010516290552914143,0.010754909366369247,-0.02034149132668972
1772534310005975300,5.547975341796875,0.01588176190853119,0.00538464542478323,-0.018745457753539085
1772534310015992300,5.557992431640625,0.02321663871407509,0.001961684552952647,-0.016411731019616127
1772534310026008300,5.56800830078125,0.02846413105726242,0.005682653281837702,-0.01630520448088646
1772534310036024300,5.5780244140625,0.027755731716752052,0.007750864140689373,-0.02117532677948475
1772534310046041300,5.588041259765625,0.017432253807783127,0.006184392608702183,-0.02594078704714775
1772534310056057000,5.59805712890625,0.004487692844122648,0.013560550287365913,-0.026440395042300224
1772534310066073300,5.6080732421875,-0.007026750594377518,0.016708139330148697,-0.01997104473412037
1772534310076090400,5.61809033203125,-0.013037770986557007,0.018152372911572456,-0.01727086678147316
1772534310086106400,5.6281064453125,-0.008943160995841026,0.015109976753592491,-0.016809340566396713
1772534310096122400,5.638122314453125,-0.0035926043055951595,0.007638212293386459,-0.01721520535647869
1772534310106139400,5.648139404296875,0.0046453517861664295,0.005050152540206909,-0.014165886677801609
1772534310116155400,5.6581552734375,0.008465123362839222,0.004724713973701,-0.01061935443431139
1772534310126171400,5.66817138671875,0.004965197294950485,-0.001758218975737691,-0.005032575689256191
1772534310136188200,5.678188232421875,0.0033683660440146923,-0.0017622136510908604,-0.001686579897068441
1772534310146204200,5.6882041015625,0.002261023735627532,0.0023987090680748224,-0.002395247109234333
1772534310156220400,5.698220458984375,0.002103364560753107,0.004517520312219858,-0.009019593708217144
1772534310166237400,5.708237548828125,0.006647250149399042,0.00762915750965476,-0.022607041522860527
1772534310176253400,5.71825341796875,0.006502906791865826,0.011404188349843025,-0.031684160232543945
1772534310186269200,5.728269287109375,0.0036543896421790123,0.0073021212592720985,-0.03882941976189613
1772534310196286500,5.738286376953125,-0.00016298545233439654,0.0117352195084095,-0.035294074565172195
1772534310206302500,5.748302490234375,-0.002858637133613229,0.006057093385607004,-0.027828700840473175
1772534310216318500,5.758318359375,0.0014583469601348042,-0.0027233485598117113,-0.023983363062143326
1772534310226335200,5.768335205078125,0.006170011591166258,-0.003591006388887763,-0.02502812072634697
1772534310236351200,5.778351318359375,0.012206066399812698,-0.0018612833227962255,-0.029697442427277565
1772534310246367200,5.7883671875,0.013251623138785362,0.00487198680639267,-0.033072199672460556
1772534310256384300,5.79838427734375,0.01128221582621336,0.012118714861571789,-0.033185649663209915
1772534310266400300,5.808400146484375,0.006469350773841143,0.014937670901417732,-0.02491040900349617
1772534310276416300,5.818416259765625,0.005013134330511093,0.009148224256932735,-0.007124488707631826
1772534310286433300,5.828433349609375,0.007652593310922384,0.002490588231012225,0.004492220003157854
1772534310296449500,5.838449462890625,0.010688330978155136,0.004833637271076441,0.008980445563793182
1772534310306465300,5.84846533203125,0.011265438050031662,0.011779960244894028,0.007847003638744354
1772534310316482300,5.858482421875,0.011872904375195503,0.013189039193093777,0.005941512528806925
1772534310326498300,5.868498291015625,0.00797323789447546,0.01685594581067562,0.007382548879832029
1772534310336514300,5.878514404296875,0.005527923349291086,0.02040487341582775,0.008076834492385387
1772534310346531300,5.88853125,0.0014122743159532547,0.023002786561846733,0.014098508283495903
1772534310356547300,5.89854736328125,0.001210406655445695,0.017918279394507408,0.025958895683288574
1772534310366563300,5.908563232421875,0.003084206720814109,0.004668254870921373,0.0329720638692379
1772534310376580400,5.918580322265625,0.0044232443906366825,0.0037294907961040735,0.0347750261425972
1772534310386596900,5.928596923828125,-0.0009068063227459788,0.0005576659459620714,0.028809010982513428
1772534310396612900,5.93861279296875,-0.007493868935853243,0.004985171370208263,0.02172553539276123
1772534310406630100,5.948630126953125,-0.01230513583868742,0.007397728972136974,0.008841960690915585
1772534310416646000,5.95864599609375,-0.016564330086112022,0.005593969952315092,-0.0013725932221859694
1772534310426662000,5.968661865234375,-0.015963787212967873,0.002418150193989277,-0.012223909609019756
1772534310436678000,5.978677978515625,-0.012592757120728493,0.00487251952290535,-0.025739984586834908
1772534310446695000,5.98869482421875,-0.011107511818408966,0.004090082831680775,-0.030675621703267097
1772534310456711200,5.998711181640625,-0.00628905463963747,0.00025300029665231705,-0.03263144567608833
1772534310466727000,6.008726806640625,-0.007327953819185495,0.004652009811252356,-0.02822178415954113
1772534310476744000,6.018743896484375,-0.0083071980625391,-0.0014295848086476326,-0.014485465362668037
1772534310486760000,6.028760009765625,-0.007450992241501808,-0.0006074670236557722,0.001770203118212521
1772534310496776000,6.03877587890625,-0.006343383342027664,-0.005632585845887661,0.015931561589241028
1772534310506793000,6.04879296875,-0.003560912562534213,-0.007750065065920353,0.022653646767139435
1772534310516809000,6.05880908203125,-0.0031491878908127546,-0.005150021053850651,0.021984128281474113
1772534310526825000,6.068824951171875,-0.0028839372098445892,0.0005137237603776157,0.019946277141571045
1772534310536842000,6.078842041015625,-0.007414240390062332,0.004516987595707178,0.01489479374140501
1772534310546857700,6.088857666015625,-0.010437194257974625,0.005902896635234356,0.007011570502072573
1772534310556874000,6.0988740234375,-0.006155097857117653,-0.0002271676348755136,-0.000904409505892545
1772534310566891000,6.10889111328125,0.00012889699428342283,-0.00027270769351162016,-0.009238505735993385
1772534310576907000,6.118906982421875,0.006196376867592335,-0.00028575718170031905,-0.019234947860240936
1772534310586923000,6.128923095703125,0.014036457054316998,-0.00030546457855962217,-0.025227325037121773
1772534310596940000,6.13893994140625,0.01655101403594017,0.0015603461069986224,-0.03358645737171173
1772534310606956000,6.1489560546875,0.01158821303397417,0.013194631785154343,-0.03621925786137581
1772534310616972000,6.158971923828125,0.004453870467841625,0.012929114513099194,-0.028971996158361435
1772534310626988800,6.16898876953125,-0.0015598133904859424,-0.00018801917030941695,-0.003856523660942912
1772534310637004800,6.1790048828125,-0.006293315906077623,-0.010627344250679016,0.022762836888432503
1772534310647021000,6.18902099609375,-0.008317850530147552,-0.014052435755729675,0.037884000688791275
1772534310657038000,6.1990380859375,-0.00762782571837306,-0.008418518118560314,0.03899293765425682
1772534310667053800,6.2090537109375,-0.006587328854948282,-0.0014831144362688065,0.029527531936764717
1772534310677069800,6.21906982421875,-0.008934639394283295,0.002283926820382476,0.025203092023730278
1772534310687087000,6.229087158203125,-0.011606855317950249,0.010746387764811516,0.02089063450694084
1772534310697103000,6.23910302734375,-0.014386129565536976,0.014088921248912811,0.01919686421751976
1772534310707119000,6.249119140625,-0.015205850824713707,0.011857192032039165,0.016773920506238937
1772534310717136000,6.259135986328125,-0.011322163045406342,0.01076769270002842,0.011568505316972733
1772534310727151900,6.26915185546875,-0.0023457121569663286,0.004342550411820412,0.007918909192085266
1772534310737168000,6.27916796875,0.008964733220636845,0.004524710588157177,0.00004021373388241045
1772534310747184000,6.28918408203125,0.015263641253113747,0.0007222492713481188,-0.006333795841783285
1772534310757201000,6.299200927734375,0.01877448707818985,0.0024109596852213144,-0.01257997378706932
1772534310767217000,6.309216796875,0.011030546389520168,0.0033369408920407295,-0.015860721468925476
1772534310777233000,6.31923291015625,0.0034439999144524336,0.006607568822801113,-0.014850052073597908
1772534310787250000,6.32925,0.0032831449061632156,0.002412823960185051,-0.005648564547300339
1772534310797266000,6.339265869140625,0.005125519819557667,0.0009257147903554142,0.007655789144337177
1772534310807282000,6.349281982421875,0.008726646192371845,-0.002584597794339061,0.014157896861433983
1772534310817299000,6.359298828125,0.009272061288356781,0.00458676228299737,0.018544388934969902
1772534310827315000,6.36931494140625,0.0007161240209825337,0.012493687681853771,0.017241038382053375
1772534310837331000,6.3793310546875,-0.00830906257033348,0.015567773953080177,0.015867114067077637
1772534310847348000,6.389347900390625,-0.015299860388040543,0.015152587555348873,0.019587017595767975
1772534310857364000,6.399364013671875,-0.016163257881999016,0.009605489671230316,0.022943664342164993
1772534310867380000,6.4093798828125,-0.010749583132565022,0.005094893276691437,0.033295903354883194
1772534310877397000,6.41939697265625,-0.007165767718106508,0.004348942078649998,0.04156235605478287
1772534310887413000,6.4294130859375,-0.00040559942135587335,0.0039087217301130295,0.03935033455491066
1772534310897429000,6.439428955078125,0.003410177771002054,0.006339921150356531,0.026097912341356277
1772534310907446000,6.449446044921875,0.0044019389897584915,0.007601726800203323,0.014224209822714329
1772534310917461800,6.459461669921875,0.0091732582077384,0.003763579297810793,0.007303719408810139
1772534310927477800,6.469477783203125,0.015861520543694496,0.003894606838002801,0.0003254382754676044
1772534310937495000,6.4794951171875,0.02377803437411785,0.0018101505702361465,-0.009464608505368233
1772534310947511000,6.489510986328125,0.030610905960202217,0.0051779840141534805,-0.014631407335400581
1772534310957527000,6.499527099609375,0.03538355603814125,0.011884888634085655,-0.018246915191411972
1772534310967543800,6.509543701171875,0.03940413147211075,0.006371346767991781,-0.014051370322704315
1772534310977560000,6.51956005859375,0.03838600590825081,0.0015675366157665849,-0.006265352945774794
1772534310987576000,6.529576171875,0.031987227499485016,0.003722033929079771,0.004553738981485367
1772534310997592800,6.5395927734375,0.025787388905882835,0.0048437574878335,0.017580591142177582
1772534311007608800,6.54960888671875,0.022597987204790115,-0.0025358619168400764,0.026690999045968056
1772534311017624800,6.559624755859375,0.02142513170838356,-0.00046631949953734875,0.03280135616660118
1772534311027641000,6.56964111328125,0.02124776504933834,-0.0007315703551284969,0.029740318655967712
1772534311037657900,6.579657958984375,0.021918082609772682,0.0043926178477704525,0.02291889861226082
1772534311047673900,6.589673828125,0.019345201551914215,0.0017694041598588228,0.020687701180577278
1772534311057689900,6.59968994140625,0.019053053110837936,0.0005581985460594296,0.014694523997604847
1772534311067707100,6.60970703125,0.012464925646781921,0.002122006844729185,0.008806274272501469
1772534311077723100,6.61972314453125,0.009983391501009464,0.007089867256581783,0.0033957967534661293
1772534311087739000,6.62973876953125,0.006984139792621136,0.009256615303456783,0.00033662354690022767
1772534311097756000,6.639755859375,0.005278118886053562,0.0011707255616784096,0.004599012900143862
1772534311107772000,6.64977197265625,0.0041247038170695305,0.0024658208712935448,0.005824067164212465
1772534311117788000,6.659787841796875,0.005328719038516283,-0.0007968177669681609,0.007266434840857983
1772534311127805000,6.669804931640625,0.005754558369517326,-0.004081294406205416,0.005948436446487904
1772534311137821000,6.679821044921875,0.00720651401206851,-0.0019379822770133615,0.002627208363264799
1772534311147837000,6.6898369140625,0.006570284720510244,0.002569417702034116,-0.004718322306871414
1772534311157854000,6.69985400390625,0.009241435676813126,0.007828895002603531,-0.011407117359340191
1772534311167870000,6.709869873046875,0.01764104515314102,0.004488491453230381,-0.014770690351724625
1772534311177886000,6.719885986328125,0.02201635204255581,-0.005644303746521473,-0.00782436691224575
1772534311187903000,6.729903076171875,0.020548151805996895,-0.007675496395677328,-0.0025126924738287926
1772534311197919000,6.7399189453125,0.01503940299153328,-0.007025951519608498,-0.003549993736669421
1772534311207935000,6.74993505859375,0.005386243108659983,-0.002748914761468768,-0.01173335500061512
1772534311217952000,6.759951904296875,-0.003969707991927862,-0.0070547135546803474,-0.01895212009549141
1772534311227968000,6.769968017578125,-0.009017995558679104,-0.004308728501200676,-0.025080852210521698
1772534311237984000,6.77998388671875,-0.014909174293279648,0.003466636873781681,-0.03087509237229824
1772534311248000800,6.790000732421875,-0.018797123804688454,0.0057281930930912495,-0.03900758549571037
1772534311258017000,6.80001708984375,-0.018851185217499733,0.00037523938226513565,-0.0360296405851841
1772534311268033000,6.810032958984375,-0.015739016234874725,-0.005101551301777363,-0.023907463997602463
1772534311278049000,6.820049072265625,-0.015301192179322243,-0.006940464023500681,-0.01113600842654705
1772534311288065800,6.830065673828125,-0.015017565339803696,-0.008057394064962864,-0.009287241846323013
1772534311298081800,6.840081787109375,-0.015500929206609726,-0.004198739770799875,-0.01477521751075983
1772534311308097800,6.850097900390625,-0.01914253458380699,-0.0006263754912652075,-0.02039342187345028
1772534311318115000,6.860114990234375,-0.019153986126184464,0.00461658975109458,-0.017527861520648003
1772534311328131000,6.870131103515625,-0.01739496923983097,0.008356200531125069,-0.01016714982688427
1772534311338146800,6.880146728515625,-0.015397331677377224,0.005124987103044987,-0.0012966931099072099
1772534311348163800,6.890163818359375,-0.006587861571460962,-0.0010330402292311192,0.014454839751124382
1772534311358180000,6.90018017578125,0.008656338788568974,-0.011080081574618816,0.022494124248623848
1772534311368196000,6.910196044921875,0.014358166605234146,-0.01101669855415821,0.03141864389181137
1772534311378212900,6.920212890625,0.014644189737737179,-0.006710899528115988,0.02395513467490673
1772534311388228600,6.930228515625,0.014823420904576778,0.00004660531703848392,0.009535182267427444
1772534311398244600,6.94024462890625,0.016580307856202126,-0.0010167949367314577,-0.00538491178303957
1772534311408262000,6.950261962890625,0.017837319523096085,0.0010319749126210809,-0.01655340939760208
1772534311418277600,6.960277587890625,0.02093137986958027,0.0012279836228117347,-0.02189890667796135
1772534311428293600,6.970293701171875,0.020733773708343506,-0.001065264455974102,-0.02937226928770542
1772534311438310700,6.980310546875,0.018307900056242943,0.0026668894570320845,-0.034452781081199646
1772534311448326700,6.99032666015625,0.011051319539546967,0.0032322786282747984,-0.03164128214120865
1772534311458343000,7.000343017578125,0.007072290405631065,0.0007414240390062332,-0.02630031295120716
1772534311468358700,7.010358642578125,0.004811000544577837,-0.00006524744821945205,-0.01865730807185173
1772534311478375700,7.020375732421875,0.005881591234356165,-0.004400340840220451,-0.008882175199687481
1772534311488391700,7.0303916015625,0.009415606036782265,-0.010455037467181683,0.0006785734440200031
1772534311498407700,7.04040771484375,0.012268916703760624,-0.010779410600662231,0.00714526092633605
1772534311508424700,7.0504248046875,0.006410761270672083,-0.00672421557828784,0.00926353968679905
1772534311518440700,7.060440673828125,0.003239202778786421,-0.0068331388756632805,0.010671020485460758
1772534311528456700,7.070456787109375,0.0010101370280608535,-0.005995574407279491,0.006601443514227867
1772534311538473700,7.0804736328125,-0.0015550197567790747,-0.003093794221058488,0.0015744607662782073
1772534311548489700,7.09048974609375,0.002293247962370515,0.0037326866295188665,-0.0062666842713952065
1772534311558505700,7.100505615234375,0.004475708585232496,0.0031526500824838877,-0.014566426165401936
1772534311568522800,7.110522705078125,0.006592122372239828,-0.0004500742070376873,-0.01835210993885994
1772534311578538800,7.120538818359375,0.007303985767066479,0.0003608583356253803,-0.023026222363114357
1772534311588554500,7.130554443359375,0.006934871431440115,0.0026732811238616705,-0.02551361545920372
1772534311598571800,7.14057177734375,0.007244863547384739,0.0029201561119407415,-0.027604196220636368
1772534311608587800,7.150587890625,0.010143181309103966,0.006440322380512953,-0.033607229590415955
1772534311618603800,7.160603759765625,0.0144697530195117,0.006098638754338026,-0.03709011152386665
1772534311628620500,7.17062060546875,0.024823324754834175,0.002496979897841811,-0.028257470577955246
1772534311638636500,7.180636474609375,0.03254729136824608,-0.011099522933363914,-0.007297594100236893
1772534311648652800,7.19065283203125,0.036438167095184326,-0.007471764925867319,0.0033965955954045057
1772534311658668800,7.200668701171875,0.02858796902000904,-0.0008937568636611104,0.007164435926824808
1772534311668685600,7.210685546875,0.018281802535057068,0.007027016952633858,0.00012889699428342283
1772534311678701600,7.22070166015625,0.0057223341427743435,0.01588522270321846,-0.0016785904299467802
1772534311688717600,7.230717529296875,-0.0026794064324349165,0.020869329571723938,-0.004984638653695583
1772534311698734800,7.24073486328125,-0.007360444404184818,0.028267057612538338,-0.010936536826193333
1772534311708750800,7.250750732421875,-0.006305033806711435,0.03188682720065117,-0.018670091405510902
1772534311718766600,7.2607666015625,-0.0011531487107276917,0.03328791633248329,-0.027276894077658653
1772534311728783600,7.27078369140625,0.012077702209353447,0.029771743342280388,-0.0348285548388958
1772534311738799900,7.2807998046875,0.03220614045858383,0.02027677558362484,-0.0422891341149807
1772534311748816000,7.29081591796875,0.05000031739473343,0.014120079576969147,-0.05613730475306511
1772534311758832600,7.30083251953125,0.057624414563179016,0.048835981637239456,-0.06624213606119156
1772534311768848600,7.3108486328125,0.05307333916425705,0.01883147843182087,-0.08139073103666306
1772534311778864600,7.32086474609375,0.04649213328957558,0.02966415137052536,-0.08582702279090881
1772534311788881700,7.330881591796875,0.03665068745613098,0.02929610386490822,-0.08297557383775711
1772534311798897700,7.340897705078125,0.026379676535725594,0.024208933115005493,-0.07124914228916168
1772534311808913700,7.35091357421875,0.022817164659500122,0.01504046842455864,-0.05636873468756676
1772534311818929700,7.3609296875,0.020954284816980362,0.004005394410341978,-0.03819878399372101
1772534311828946700,7.37094677734375,0.020081833004951477,-0.004433896858245134,-0.026031333953142166
1772534311838962700,7.380962646484375,0.017853032797574997,-0.007454187609255314,-0.009166866540908813
1772534311848978700,7.390978759765625,0.01696939580142498,-0.01673157513141632,0.004461860284209251
1772534311858995700,7.40099560546875,0.010669688694179058,-0.014765097759664059,0.014447649009525776
1772534311869011700,7.41101171875,-0.00040852889651432633,-0.0023345269728451967,0.015364841558039188
1772534311879027700,7.42102783203125,-0.015486281365156174,0.008431834168732166,0.018320150673389435
1772534311889044700,7.431044677734375,-0.026342658326029778,0.015856727957725525,0.01740029640495777
1772534311899060700,7.441060791015625,-0.032826922833919525,0.011594338342547417,0.01672571711242199
1772534311909076700,7.45107666015625,-0.030352845788002014,0.00634950865060091,0.01218848954886198
1772534311919093500,7.461093505859375,-0.021889852359890938,0.0062879896722733974,0.004223241005092859
1772534311929109800,7.47110986328125,-0.011755725368857384,0.0017752632265910506,-0.0054301852360367775
1772534311939125800,7.481125732421875,-0.001933454885147512,0.0032471923623234034,-0.00923264678567648
1772534311949142800,7.491142822265625,0.003728159237653017,0.005797435529530048,-0.004803543444722891
1772534311959158800,7.50115869140625,0.005000883713364601,0.0032288164366036654,-0.0006053365068510175
1772534311969174500,7.511174560546875,0.007643538527190685,0.0008450209861621261,0.007221427746117115
1772534311979191800,7.52119189453125,0.007662180811166763,-0.007453389000147581,0.009813481941819191
1772534311989207800,7.531207763671875,0.005754558369517326,-0.0075913406908512115,0.014540593139827251
1772534311999223800,7.541223876953125,0.0054938350804150105,-0.0033364081755280495,0.01263856329023838
1772534312009239600,7.551239501953125,0.0013054815353825688,0.000040746363083599135,0.009782323613762856
1772534312019256600,7.561256591796875,-0.001008805469609797,0.0016189356101676822,0.007134342100471258
1772534312029272800,7.57127294921875,-0.005638711154460907,0.00004926848123432137,0.008006527088582516
1772534312039288800,7.581288818359375,-0.003876763628795743,0.0024282701779156923,0.010428939014673233
1772534312049305600,7.5913056640625,-0.0022943131625652313,-0.004057592246681452,0.011414840817451477
1772534312059321600,7.601321533203125,-0.0019837887957692146,-0.006965763866901398,0.00905741099268198
1772534312069337600,7.611337646484375,-0.000597879639826715,-0.0025129588320851326,0.0067878649570047855
1772534312079355000,7.62135498046875,-0.007105313707143068,0.00806032307446003,0.0007664577569812536
1772534312089370600,7.63137060546875,-0.01104785781353712,0.017710819840431213,-0.0028959212359040976
1772534312099386600,7.64138671875,-0.0075194351375103,0.013814881443977356,-0.006050701718777418
1772534312109403600,7.651403564453125,0.002871420234441757,0.007456052117049694,-0.012138688005506992
1772534312119420000,7.661419921875,0.011919509619474411,0.006106894463300705,-0.011405520141124725
1772534312129436000,7.671435791015625,0.014219149947166443,0.007793740835040808,-0.00683074165135622
1772534312139451600,7.68145166015625,0.01756674237549305,0.0016974988393485546,-0.003349990351125598
1772534312149468700,7.69146875,0.015586682595312595,0.00130894361063838,-0.0013576794881373644
1772534312159484700,7.701484619140625,0.013288108631968498,-0.0029111013282090425,0.0015600797487422824
1772534312169500700,7.711500732421875,0.009953564032912254,-0.003638410707935691,0.010606837458908558
1772534312179517700,7.721517578125,0.005244829226285219,-0.0031649006996303797,0.013143498450517654
1772534312189533700,7.73153369140625,0.00390286254696548,0.0010495517635717988,0.00649678148329258
1772534312199549700,7.7415498046875,0.0046847667545080185,0.005425924435257912,-0.005060272291302681
1772534312209566700,7.751566650390625,0.007366836071014404,0.0019377160351723433,-0.01378239132463932
1772534312219582700,7.761582763671875,0.010069145821034908,-0.0023523701820522547,-0.018436530604958534
1772534312229598700,7.7715986328125,0.011957593262195587,-0.008342085406184196,-0.014996526762843132
1772534312239615700,7.78161572265625,0.008680040948092937,-0.007676295470446348,-0.007398261222988367
1772534312249631700,7.7916318359375,0.004555869847536087,-0.008866461925208569,0.0014799186028540134
1772534312259647500,7.8016474609375,0.002804841147735715,-0.005684250965714455,0.007415572181344032
1772534312269663700,7.811663818359375,0.0011712582781910896,-0.008315986953675747,0.008267517201602459
1772534312279680800,7.8216806640625,-0.0006761765689589083,-0.008409996517002583,0.007109042257070541
1772534312289696800,7.83169677734375,-0.003879160387441516,-0.006981476675719023,0.009274458512663841
1772534312299712800,7.841712646484375,-0.00926274061203003,-0.0009552759001962841,0.010181797668337822
1772534312309729800,7.851729736328125,-0.015787485986948013,0.0010426276130601764,0.00911360327154398
1772534312319745800,7.861745849609375,-0.015443405136466026,-0.013923538848757744,0.011029215529561043
1772534312329761800,7.87176171875,-0.011625230312347412,-0.023786289617419243,0.020182766020298004
1772534312339778600,7.881778564453125,-0.00800466351211071,-0.02700764872133732,0.028179440647363663
1772534312349794600,7.891794677734375,-0.003373692510649562,-0.03177124634385109,0.02749820239841938
1772534312359810600,7.901810546875,0.0014165353495627642,-0.032884713262319565,0.023574035614728928
1772534312369827800,7.911827880859375,0.001606152392923832,-0.022102639079093933,0.021258950233459473
1772534312379843600,7.921843505859375,0.0007094661123119295,-0.019935358315706253,0.02376791276037693
1772534312389859800,7.93185986328125,-0.0009539442835375667,-0.021326061338186264,0.02509043924510479
1772534312399876900,7.941876953125,0.0023790018167346716,-0.014767227694392204,0.02707715705037117
1772534312409892900,7.951892822265625,0.005711415316909552,-0.013910755515098572,0.020197946578264236
1772534312419908900,7.961908935546875,0.006411027628928423,-0.011432950384914875,0.012891563586890697
1772534312429924600,7.971924560546875,0.005281314719468355,-0.007202519103884697,0.008498946204781532
1772534312439942000,7.98194189453125,0.002213619416579604,-0.0033124396577477455,0.012180766090750694
1772534312449958000,7.9919580078125,0.002246642718091607,-0.008768724277615547,0.018087657168507576
1772534312459974000,8.001973876953125,0.0017398431664332747,-0.006944458931684494,0.01642983965575695
1772534312469990700,8.01199072265625,0.0015049523208290339,-0.0034202977549284697,0.013659353367984295
1772534312480007000,8.0220068359375,-0.00013555490295402706,-0.0027265443932265043,0.00926274061203003
1772534312490023000,8.03202294921875,-0.0008671252289786935,-0.0019089538836851716,0.0035547874867916107
1772534312500040000,8.0420400390625,-0.004719920456409454,0.0026192190125584602,-0.00526586826890707
1772534312510055700,8.0520556640625,-0.00908457487821579,0.004313255660235882,-0.012043879367411137
1772534312520071700,8.06207177734375,-0.012084625661373138,-0.0005182511522434652,-0.008146876469254494
1772534312530087700,8.072087646484375,-0.009455286897718906,-0.007078682072460651,0.0057532270438969135
1772534312540105000,8.08210498046875,-0.004437092691659927,-0.016345150768756866,0.02063390612602234
1772534312550120700,8.09212060546875,-0.0038309572264552116,-0.017782725393772125,0.027890220284461975
1772534312560136700,8.10213671875,-0.005554554983973503,-0.013579457998275757,0.023931166157126427
1772534312570153700,8.11215380859375,-0.0070608388632535934,-0.009208678267896175,0.01629987731575966
1772534312580170000,8.122169921875,-0.010448113083839417,-0.0032799490727484226,0.006923952605575323
1772534312590186000,8.13218603515625,-0.006858438719063997,-0.008238222450017929,0.0014591459184885025
1772534312600202800,8.14220263671875,-0.0033816818613559008,-0.011069961823523045,-0.002368349116295576
1772534312610218800,8.15221875,0.006186789367347956,-0.017839716747403145,-0.009549030102789402
1772534312620234800,8.16223486328125,0.010717892087996006,-0.01864559017121792,-0.018095379695296288
1772534312630251800,8.172251708984374,0.014801050536334515,-0.0162426196038723,-0.02906307764351368
1772534312640267800,8.182267822265626,0.01263909600675106,-0.011403122916817665,-0.03834286332130432
1772534312650283800,8.19228369140625,0.0076187714003026485,-0.0030780816450715065,-0.046007171273231506
1772534312660299800,8.2022998046875,0.0001150485550169833,0.0005675196298398077,-0.04650891199707985
1772534312670317000,8.212317138671875,-0.008422513492405415,-0.0029028456192463636,-0.040469661355018616
1772534312680332800,8.222332763671876,-0.015543805435299873,0.0004106594424229115,-0.03684217110276222
1772534312690348800,8.232348876953125,-0.02316231094300747,0.0018229337874799967,-0.029271602630615234
1772534312700365800,8.24236572265625,-0.02226083166897297,-0.0032434638123959303,-0.017014402896165848
1772534312710381800,8.2523818359375,-0.01673850044608116,-0.00734233483672142,-0.007522364612668753
1772534312720397800,8.262397705078126,-0.01384151354432106,-0.01167183555662632,0.0009976201690733433
1772534312730414800,8.272414794921875,-0.01751081645488739,-0.01110138650983572,0.009534116834402084
1772534312740430800,8.282430908203125,-0.022642727941274643,-0.010094977915287018,0.014994395896792412
1772534312750446800,8.29244677734375,-0.026911774650216103,-0.00535455159842968,0.010069678537547588
1772534312760463600,8.302463623046876,-0.028567995876073837,0.001113201375119388,0.00598572101444006
1772534312770479900,8.31247998046875,-0.02864016592502594,0.0049012815579771996,0.0018397116800770164
1772534312780496000,8.322495849609375,-0.024448884651064873,0.0019371833186596632,0.002416019793599844
1772534312790511900,8.332511962890624,-0.014270015992224216,-0.0043563987128436565,0.006214220076799393
1772534312800528600,8.342528564453126,-0.002528405049815774,-0.011054248549044132,0.008547415025532246
1772534312810544600,8.352544677734375,0.00800120085477829,-0.011404987424612045,0.00472391489893198
1772534312820561000,8.362560791015625,0.01684183068573475,-0.008138620294630527,-0.0009544769418425858
1772534312830578000,8.372577880859374,0.017002418637275696,-0.007705323863774538,-0.011090467683970928
1772534312840594000,8.382593994140626,0.009949303232133389,-0.0024943165481090546,-0.015973107889294624
1772534312850609700,8.392609619140625,-0.0022120214998722076,-0.001600293442606926,-0.014348845928907394
1772534312860627000,8.402626953125,-0.01233256608247757,0.00035366779775358737,-0.008380701765418053
1772534312870643000,8.412642822265624,-0.020683174952864647,0.002609365154057741,-0.004990497604012489
1772534312880659000,8.422658935546876,-0.026090456172823906,0.0075665730983018875,-0.0057257963344454765
1772534312890675000,8.432675048828125,-0.022248314693570137,0.0059899818152189255,-0.010646785609424114
1772534312900691700,8.442691650390625,-0.022097045555710793,0.005407814867794514,-0.01624075509607792
1772534312910707700,8.452707763671874,-0.021102355793118477,0.010755175724625587,-0.02149304188787937
1772534312920724000,8.462723876953126,-0.021921010687947273,0.006666158325970173,-0.021856563165783882
1772534312930740700,8.47274072265625,-0.027832962572574615,0.004201402887701988,-0.008551676757633686
1772534312940756700,8.4827568359375,-0.03665708005428314,0.001814677962101996,0.003427754621952772
1772534312950772700,8.492772705078124,-0.04180390387773514,0.002703374717384577,0.007588677573949099
1772534312960790000,8.5027900390625,-0.04700319468975067,0.00583818182349205,0.006062420085072517
1772534312970805800,8.5128056640625,-0.04706977307796478,0.01619201898574829,0.0018644790397956967
1772534312980821800,8.52282177734375,-0.0435703806579113,0.011518438346683979,0.0012322446564212441
1772534312990837800,8.532837646484374,-0.032943036407232285,0.004614725708961487,0.0000015978966985130683
1772534313000854800,8.542854736328126,-0.025844113901257515,0.00047084689140319824,0.0005190501105971634
1772534313010871000,8.55287109375,-0.02244778536260128,0.0054544201120734215,-0.0008748483960516751
1772534313020886800,8.56288671875,-0.021880265325307846,0.00908723846077919,-0.001606685109436512
1772534313030903800,8.57290380859375,-0.022311963140964508,0.007445399183779955,0.000019707391402334906
1772534313040919800,8.582919921875,-0.02028157003223896,0.008922122418880463,0.0029438582714647055
1772534313050935800,8.592935791015625,-0.020431505516171455,0.007699997629970312,0.005465871654450893
1772534313060952800,8.602952880859375,-0.021629661321640015,0.008568720892071724,0.006358297076076269
1772534313070968800,8.61296875,-0.02419029176235199,0.0088187912479043,0.005869606975466013
1772534313080984800,8.62298486328125,-0.028176510706543922,0.010809238068759441,0.0033073797821998596
1772534313091001900,8.633001953125,-0.02774135023355484,0.008443818427622318,0.004119643941521645
1772534313101017600,8.643017578125,-0.027168769389390945,0.007495999336242676,0.003308178624138236
1772534313111033900,8.653033935546874,-0.026501914486289024,0.0073258234187960625,0.00021997711155563593
1772534313121049900,8.6630498046875,-0.027814853936433792,0.006714361719787121,-0.0010237190872430801
1772534313131067000,8.67306689453125,-0.03044792078435421,0.007242466323077679,-0.0034852789249271154
1772534313141083000,8.683082763671875,-0.0347135066986084,0.009011338464915752,-0.0018045579781755805
1772534313151098600,8.6930986328125,-0.036967869848012924,0.011498730629682541,0.0022005699574947357
1772534313161116000,8.703115966796876,-0.042747728526592255,0.008110390976071358,0.009367935359477997
1772534313171132000,8.7131318359375,-0.04760000854730606,0.00660517206415534,0.020260263234376907
1772534313181148000,8.72314794921875,-0.04869270324707031,0.005259476602077484,0.03652578592300415
1772534313191164700,8.73316455078125,-0.04758136719465256,-0.009898969903588295,0.04754434898495674
1772534313201181000,8.743180908203126,-0.039860863238573074,-0.0037622477393597364,0.044605549424886703
1772534313211197000,8.753197021484375,-0.03614948317408562,-0.0014793860027566552,0.03405437245965004
1772534313221213000,8.763212890625,-0.03401549160480499,0.006416886579245329,0.02020966447889805
1772534313231229700,8.773229736328124,-0.03230440989136696,0.011295530945062637,0.012539227493107319
1772534313241245700,8.78324560546875,-0.027287812903523445,0.012224442325532436,0.0013246563030406833
1772534313251261700,8.79326171875,-0.019756926223635674,0.015096927061676979,-0.01101376861333847
1772534313261279000,8.803279052734375,-0.011516840197145939,0.008978581055998802,-0.02165309712290764
1772534313271294700,8.813294677734374,-0.0024104269687086344,0.005224322900176048,-0.02816239558160305
1772534313281310700,8.823310791015626,0.0013978932984173298,0.00004953479583491571,-0.03487835451960564
1772534313291327700,8.83332763671875,-0.0008021441171877086,0.0037151097785681486,-0.03688371554017067
1772534313301344000,8.843343994140625,-0.011928831227123737,0.013138438574969769,-0.028917934745550156
1772534313311360000,8.853360107421874,-0.005396096967160702,0.0159470085054636,-0.007920240983366966
1772534313321375700,8.863375732421876,-0.009575662203133106,-0.01599920727312565,0.01296453457325697
1772534313331392800,8.873392822265625,-0.012568522244691849,0.004481034819036722,0.029619144275784492
1772534313341408800,8.88340869140625,-0.014163489453494549,0.007819307036697865,0.03365649655461311
1772534313351425000,8.893425048828124,-0.012651346623897552,0.007249390706419945,0.031264178454875946
1772534313361441800,8.90344189453125,-0.018386730924248695,0.018997659906744957,0.025560220703482628
1772534313371457800,8.913457763671875,-0.025356754660606384,0.028486236929893494,0.017300693318247795
1772534313381473800,8.923473876953125,-0.030049512162804604,0.026440661400556564,0.011887285858392715
1772534313391489300,8.9334892578125,-0.03266207128763199,0.021581990644335747,0.006601177155971527
1772534313401506300,8.94350634765625,-0.035108186304569244,0.016985109075903893,0.008257930167019367
1772534313411522300,8.953522216796875,-0.03344477713108063,0.01775342971086502,0.006312224548310041
1772534313421538300,8.963538330078125,-0.0317709781229496,0.01786501705646515,-0.0001906823308672756
1772534313431555300,8.973555419921874,-0.02305525168776512,0.017791246995329857,-0.0046906257048249245
1772534313441571600,8.983571533203126,-0.012255067937076092,0.012544021010398865,-0.0052472264505922794
1772534313451587300,8.99358740234375,0.003951332066208124,0.0044235107488930225,0.00515801040455699
1772534313461604400,9.003604248046875,0.014740596525371075,-0.0016460998449474573,0.013373595662415028
1772534313471620400,9.013620361328124,0.01806049235165119,-0.0026754115242511034,0.022553512826561928
1772534313481636400,9.02363623046875,0.016996560618281364,-0.0021110877860337496,0.02551787719130516
1772534313491652400,9.03365234375,0.015728896483778954,-0.006388390902429819,0.021558554843068123
1772534313501669400,9.04366943359375,0.014678810723125935,-0.00788721814751625,0.00999031588435173
1772534313511685400,9.053685302734374,0.010946923866868019,0.0012796488590538502,-0.001985120354220271
1772534313521701400,9.063701416015626,0.007120493799448013,0.004180097486823797,-0.013158945366740227
1772534313531718100,9.07371826171875,0.006999319884926081,0.0027478495612740517,-0.019700467586517334
1772534313541734400,9.083734375,0.010417753830552101,0.0020996362436562777,-0.02093484252691269
1772534313551750400,9.09375048828125,0.01119193434715271,0.0018394453218206763,-0.026453178375959396
1772534313561767400,9.103767333984376,0.010200971737504005,0.002526541007682681,-0.03079839237034321
1772534313571783400,9.113783447265625,0.0026293389964848757,0.004584631882607937,-0.02870727889239788
1772534313581799200,9.123799072265625,-0.0006716492353007197,0.002272741636261344,-0.024441692978143692
1772534313591815400,9.1338154296875,-0.0030772825703024864,-0.0010660634143278003,-0.016711601987481117
1772534313601832400,9.14383251953125,-0.0023704797495156527,-0.004171042703092098,-0.010654241777956486
1772534313611848400,9.153848388671875,-0.0008378304773941636,-0.0028242822736501694,-0.0015001586871221662
1772534313621864200,9.1638642578125,0.003102049930021167,-0.003766508772969246,0.002033855998888612
1772534313631881500,9.173881591796874,0.009239038452506065,-0.005766009911894798,0.0016727314796298742
1772534313641897500,9.1838974609375,0.009584450162947178,-0.004779042676091194,-0.00020932445477228612
1772534313651913500,9.19391357421875,0.007819040678441525,0.0021411816123872995,-0.005858421791344881
1772534313661930200,9.20393017578125,0.0029728866647928953,0.008138886652886868,-0.01672864705324173
1772534313671946200,9.2139462890625,-0.00159470085054636,0.013973872177302837,-0.03129720315337181
1772534313681962200,9.223962158203125,-0.003355582943186164,0.01762959361076355,-0.04249020293354988
1772534313691978500,9.233978515625,-0.002502039773389697,0.021924206987023354,-0.05252259597182274
1772534313701995300,9.243995361328125,-0.00037257623625919223,0.01950472593307495,-0.06144179031252861
1772534313712011300,9.25401123046875,0.003261040663346648,0.02040274254977703,-0.06125456839799881
1772534313722027300,9.26402734375,0.009327988140285015,0.01095571182668209,-0.04367371276021004
1772534313732044500,9.27404443359375,0.013133378699421883,0.0007925567333586514,-0.01955425925552845
1772534313742060500,9.284060546875,0.012888900935649872,-0.006564159411936998,0.006395314820110798
1772534313752076300,9.294076171875,0.008534898981451988,-0.010451309382915497,0.020492492243647575
1772534313762092300,9.30409228515625,0.00162399560213089,-0.004210457671433687,0.023190541192889214
1772534313774613500,9.316613525390625,-0.00170788518153131,0.0005675196298398077,0.01703544333577156
1772534313784629200,9.326629150390625,-0.0013949638232588768,-0.002915362361818552,0.014911837875843048
1772534313794645200,9.336645263671874,-0.0011640676530078053,-0.0029491845052689314,0.010162356309592724
1772534313804662500,9.34666259765625,-0.0036362800747156143,0.006253900937736034,0.004811799619346857
1772534313814678500,9.356678466796875,-0.0038187066093087196,0.009728261269629002,0.0021347899455577135
1772534313824694300,9.3666943359375,-0.002864762442186475,0.008292284794151783,-0.0013049489352852106
1772534313834711300,9.376711181640625,0.009730391204357147,0.0025039040483534336,0.0004953479510731995
1772534313844727300,9.386727294921876,0.019452260807156563,0.0006087986403144896,-0.00009081379539566115
1772534313854743600,9.39674365234375,0.02237880788743496,-0.0015941682504490018,-0.002112152986228466
1772534313864759600,9.406759521484375,0.02093777246773243,-0.0019198728259652853,-0.0062453788705170155
1772534313874776300,9.4167763671875,0.01702558808028698,0.0025185514241456985,-0.007963384501636028
1772534313884792300,9.426792236328126,0.013611416332423687,0.003698864486068487,-0.007752461824566126
1772534313894808300,9.436808349609375,0.012713930569589138,0.0034884747583419085,-0.0015164038632065058
1772534313904825300,9.446825439453125,0.011953865177929401,-0.003611246356740594,0.007950601167976856
1772534313914841300,9.45684130859375,0.01278610248118639,-0.010218814946711063,0.02106480486690998
1772534313924857300,9.466857421875,0.014170946553349495,-0.01227264478802681,0.02353009395301342
1772534313934873300,9.476873291015625,0.012612464837729931,-0.009401490911841393,0.01829378679394722
1772534313944890400,9.486890380859375,0.008431301452219486,0.00008202536264434457,0.005481318105012178
1772534313954906400,9.49690625,0.007875500246882439,0.0033835461363196373,-0.006648315116763115
1772534313964922400,9.50692236328125,0.01088833436369896,-0.004254666157066822,-0.013818876817822456
1772534313974939400,9.516939453125,0.009958092123270035,-0.008048338815569878,-0.016476977616548538
1772534313984955400,9.526955322265625,0.009328787215054035,-0.005230448208749294,-0.013402624055743217
1772534313994971400,9.536971435546874,0.009815080091357231,-0.0015787219163030386,-0.012449745088815689
1772534314004988400,9.546988525390624,0.008069644682109356,0.0011976235546171665,-0.00606375141069293
1772534314015004400,9.55700439453125,0.008444351144134998,-0.004727909807115793,0.005547896958887577
1772534314025020400,9.5670205078125,0.011508850380778313,-0.006940996740013361,0.02191302180290222
1772534314035036400,9.577036376953124,0.012417787685990334,-0.016469521448016167,0.03463707119226456
1772534314045053400,9.587053466796876,0.012960007414221764,-0.014731009490787983,0.039743948727846146
1772534314055069400,9.5970693359375,0.012081696651875973,-0.011461978778243065,0.03651779890060425
1772534314065085400,9.60708544921875,0.006036587059497833,-0.0014700648607686162,0.02574664168059826
1772534314075102200,9.617102294921875,0.00529676117002964,0.011568505316972733,0.013346165418624878
1772534314085118200,9.6271181640625,0.009918144904077053,0.02057957649230957,0.007605455350130796
1772534314095134200,9.63713427734375,0.017494836822152138,0.009476859122514725,0.008839564397931099
1772534314105150500,9.647150390625,0.02460893988609314,0.001802693703211844,0.010808971710503101
1772534314115167500,9.65716748046875,0.02714506722986698,-0.003762513864785433,0.01984907127916813
1772534314125183200,9.667183349609376,0.025983396917581558,-0.008616391569375992,0.02606169506907463
1772534314135199200,9.67719921875,0.019244801253080368,0.0038040592335164547,0.01931857131421566
1772534314145216500,9.687216552734375,0.0178756695240736,0.005137770436704159,0.012064652517437935
1772534314155232500,9.697232421875,0.018940402194857597,-0.005262406077235937,0.010162089951336384
1772534314165248500,9.70724853515625,0.021046163514256477,-0.00791704561561346,0.008212389424443245
1772534314175265300,9.717265380859375,0.014737932942807674,0.0015427692560479045,0.006601443514227867
1772534314185281300,9.72728125,0.00714685907587409,0.007278685458004475,0.004623514134436846
1772534314195297500,9.737297607421874,0.0005129248020239174,0.009562878869473934,0.002758502261713147
1772534314205313500,9.7473134765625,-0.0044141896069049835,0.01155652105808258,-0.004703941289335489
1772534314215330300,9.757330322265625,-0.004232295788824558,0.01353471726179123,-0.013017797842621803
1772534314225346300,9.76734619140625,-0.00734260119497776,0.013862019404768944,-0.01599814184010029
1772534314235362300,9.7773623046875,-0.008170312270522118,0.012177570722997189,-0.018281003460288048
1772534314245379300,9.78737939453125,-0.0036847495939582586,0.007809453643858433,-0.015615444630384445
1772534314255395300,9.797395263671875,-0.0008495483780279756,0.00039707732503302395,-0.01273097563534975
1772534314265411300,9.807411376953125,0.001062334980815649,0.002058889716863632,-0.0002767024270724505
1772534314275427300,9.81742724609375,0.002737463219091296,0.003866909770295024,0.011332549154758453
1772534314285444400,9.8274443359375,0.005785983521491289,0.003635214874520898,0.020129770040512085
1772534314295460400,9.83746044921875,0.00592473428696394,0.0018287927377969027,0.023417707532644272
1772534314305476400,9.847476318359375,0.0073593794368207455,0.003967044875025749,0.024462465196847916
1772534314315493400,9.857493408203124,0.011147459968924522,0.009594570845365524,0.019813384860754013
1772534314325509400,9.86750927734375,0.012526444159448147,0.011766910552978516,0.01152775902301073
1772534314335525400,9.877525390625,0.014157630503177643,0.011689146980643272,0.0065322015434503555
1772534314345542400,9.88754248046875,0.020109262317419052,0.014949388802051544,0.0013904364313930273
1772534314355558400,9.897558349609374,0.02521906979382038,0.013290238566696644,-0.006852047052234411
1772534314365574400,9.907574462890626,0.025176459923386574,0.012225773185491562,-0.012872123159468174
1772534314375590400,9.91759033203125,0.028630845248699188,0.010386328212916851,-0.01619095355272293
1772534314385607400,9.927607421875,0.0293714702129364,0.009252354502677917,-0.01786288619041443
1772534314395623700,9.937623779296874,0.03038054332137108,0.009750897996127605,-0.02033829502761364
1772534314405639700,9.9476396484375,0.02652987837791443,0.006892260629683733,-0.019266905263066292
1772534314415656700,9.95765673828125,0.021742580458521843,0.004604605492204428,-0.02196202427148819
1772534314425672700,9.967672607421875,0.012975453399121761,0.012483567930758,-0.02413463033735752
1772534314435688700,9.977688720703124,0.00020879182557109743,0.0163629949092865,-0.02454821951687336
1772534314445704700,9.98770458984375,-0.010276339948177338,0.01884186454117298,-0.021942583844065666
1772534314455721700,9.9977216796875,-0.016982978209853172,0.019873306155204773,-0.01763784885406494
1772534314465737500,10.007737548828125,-0.020849887281656265,0.01703570783138275,-0.009698433801531792
1772534314475753700,10.017753662109374,-0.020490361377596855,0.01531796995550394,-0.0025800704024732113
1772534314485770800,10.027770751953126,-0.018146513029932976,0.01187902968376875,-0.002439721953123808
1772534314495786800,10.037786865234375,-0.017909757792949677,0.015527027659118176,-0.008372445590794086
1772534314505802800,10.047802734375,-0.0158319603651762,0.020619791001081467,-0.01661146804690361
1772534314515818500,10.057818603515624,-0.013883325271308422,0.019962256774306297,-0.022218219935894012
1772534314525835800,10.067835693359376,-0.00954157393425703,0.022174544632434845,-0.021685853600502014
1772534314535851800,10.077851806640625,-0.009970609098672867,0.02082112617790699,-0.018279138952493668
1772534314545867800,10.08786767578125,-0.009326123632490635,0.013158679008483887,-0.013204218819737434
1772534314555884500,10.097884521484374,-0.00643712654709816,0.013234845362603664,-0.008854477666318417
1772534314565900800,10.10790087890625,-0.008615592494606972,0.015616510063409805,-0.011334147304296494
1772534314575916800,10.117916748046875,0.00013848437811248004,0.015629559755325317,-0.021400364115834236
1772534314585932800,10.127932861328125,0.002740392694249749,0.013648700900375843,-0.030052706599235535
1772534314595949600,10.137949462890624,0.007872037589550018,0.010305101983249187,-0.03580646589398384
1772534314605965600,10.147965576171876,0.006405967753380537,0.011609517969191074,-0.03430124744772911
1772534314615981600,10.157981689453125,0.005586779210716486,0.010394318029284477,-0.0324130654335022
1772534314625998800,10.167998779296875,0.0015326491557061672,0.007893609814345837,-0.022783875465393066
1772534314636014600,10.1780146484375,-0.003147856332361698,0.00797110702842474,-0.015508651733398438
1772534314646030600,10.188030517578126,-0.003680754918605089,0.0075844163075089455,-0.014764298684895039
1772534314656046600,10.198046630859375,-0.008106928318738937,0.007481618318706751,-0.014694523997604847
1772534314666064000,10.20806396484375,-0.013323262333869934,0.013976802118122578,-0.015593340620398521
1772534314676079900,10.218079833984374,-0.01583222672343254,0.017181117087602615,-0.016145680099725723
1772534314686095600,10.228095703125,-0.01998515985906124,0.01212856825441122,-0.013975470326840878
1772534314696112600,10.238112548828125,-0.021220600232481956,0.008611864410340786,-0.006162820849567652
1772534314706128600,10.248128662109375,-0.021828066557645798,0.004540956113487482,0.0022000374738126993
1772534314716145000,10.258144775390624,-0.021808626130223274,0.004312989301979542,0.009149556048214436
1772534314726161700,10.26816162109375,-0.02292449027299881,0.009432650171220303,0.009380718693137169
1772534314736177700,10.278177734375,-0.019160911440849304,0.011255850084125996,0.006463225465267897
1772534314746193700,10.288193603515625,-0.014386395923793316,0.009195894934237003,0.00044554684427566826
1772534314756209700,10.298209716796874,-0.009238505735993385,0.01065264455974102,-0.004989964887499809
1772534314766226700,10.308226806640626,-0.005026184022426605,0.009751697070896626,-0.0041247038170695305
1772534314776242700,10.31824267578125,-0.004562261048704386,0.0034791536163538694,-0.0004924184759147465
1772534314786258700,10.3282587890625,-0.008350341580808163,0.00011904330312972888,-0.000743820914067328
1772534314796275700,10.338275634765624,-0.014035924337804317,0.0016695356462150812,-0.007604389917105436
1772534314806291500,10.34829150390625,-0.022462164983153343,0.000630636524874717,-0.014360031113028526
1772534314816307700,10.3583076171875,-0.029752569273114204,0.002894589677453041,-0.021937789395451546
1772534314826323700,10.36832373046875,-0.03285834938287735,0.006734868045896292,-0.027037477120757103
1772534314836340700,10.3783408203125,-0.03526504710316658,0.003316700691357255,-0.03045377880334854
1772534314846356700,10.388356689453126,-0.033434391021728516,0.0010133327450603247,-0.02731391228735447
1772534314856372500,10.39837255859375,-0.030972030013799667,0.0010665960144251585,-0.026373017579317093
1772534314866389800,10.4083896484375,-0.02882365882396698,0.001359543763101101,-0.026130137965083122
1772534314876405800,10.41840576171875,-0.026157567277550697,0.0039854203350842,-0.027187678962945938
1772534314886421800,10.428421875,-0.021264009177684784,-0.0012258529895916581,-0.027156254276633263
1772534314896437800,10.438437744140625,-0.017177121713757515,-0.001056209672242403,-0.020189424976706505
1772534314906454800,10.448454833984375,-0.012084892019629478,0.0033044503070414066,-0.021866150200366974
1772534314916470800,10.458470703125,-0.008160724304616451,-0.0009369000908918679,-0.02383422665297985
1772534314926486800,10.46848681640625,-0.005437908694148064,-0.0009856359101831913,-0.028098214417696
1772534314936503600,10.478503662109375,-0.002442385070025921,0.006632869131863117,-0.02984604611992836
1772534314946519600,10.48851953125,-0.0015092133544385433,0.0027121631428599358,-0.027575967833399773
1772534314956535800,10.498535888671874,0.0054549528285861015,0.0008692557457834482,-0.027182351797819138
1772534314966551800,10.5085517578125,0.010451842099428177,-0.002712962217628956,-0.03279682993888855
1772534314976568600,10.518568603515625,0.015682822093367577,-0.0013784521725028753,-0.04073997214436531
1772534314986584600,10.52858447265625,0.016834374517202377,0.002445314545184374,-0.05010044947266579
1772534314996600600,10.5386005859375,0.01318131573498249,0.007955394685268402,-0.06144977733492851
1772534315006617900,10.548617919921876,0.0012152004055678844,0.011386877857148647,-0.060131512582302094
1772534315016633900,10.5586337890625,-0.008416388183832169,0.010855310596525669,-0.04796566069126129
1772534315026649600,10.568649658203125,-0.013080381788313389,0.007136206608265638,-0.034748926758766174
1772534315036665600,10.57866552734375,-0.01534513384103775,0.005714611150324345,-0.01912948675453663
1772534315046682600,10.5886826171875,-0.01775635965168476,0.003907123580574989,-0.005874933209270239
1772534315056699000,10.598698974609375,-0.013915016315877438,-0.0008103998843580484,-0.0032405343372374773
1772534315066715000,10.60871484375,-0.012026036158204079,-0.00600436283275485,-0.009093896485865116
1772534315076731600,10.618731689453124,-0.00836898386478424,-0.022347915917634964,-0.012779444456100464
1772534315086747600,10.62874755859375,-0.0036815537605434656,0.015971509739756584,-0.027032682672142982
1772534315096763600,10.638763671875,-0.007400392089039087,0.011201255023479462,-0.04965756833553314
1772534315106780000,10.64877978515625,-0.009586581028997898,0.021072261035442352,-0.06784828752279282
1772534315116796700,10.658796630859374,-0.010084591805934906,0.023516245186328888,-0.07899121940135956
1772534315126812700,10.668812744140626,-0.009602293372154236,0.02520522102713585,-0.07948390394449234
1772534315136828700,10.67882861328125,-0.016716662794351578,0.03134327381849289,-0.08129725605249405
1772534315146845700,10.688845703125,-0.02316257730126381,0.03532949462532997,-0.0828235074877739
1772534315156861700,10.69886181640625,-0.020657075569033623,0.029144037514925003,-0.08408425003290176
1772534315166877700,10.708877685546875,-0.014911038801074028,0.024170316755771637,-0.08243362605571747
1772534315176893700,10.718893798828125,-0.010777280665934086,0.03193289786577225,-0.07680530101060867
1772534315186910700,10.72891064453125,-0.004487959202378988,0.019999541342258453,-0.07388647645711899
1772534315196926700,10.7389267578125,-0.002920954953879118,0.013028983026742935,-0.052322328090667725
1772534315206942700,10.748942626953125,0.0017536915838718414,0.005184908397495747,-0.026448385789990425
1772534315216959700,10.758959716796875,0.0024458470288664103,-0.0032706281635910273,0.0033241575583815575
1772534315226975700,10.768975830078125,-0.00026791400159709156,-0.010697651654481888,0.03605973348021507
1772534315236991700,10.77899169921875,0.0012721919920295477,-0.02635384351015091,0.056339703500270844
1772534315247007500,10.789007568359375,0.0014293185668066144,-0.030795462429523468,0.057190053164958954
1772534315257024800,10.799024658203125,-0.001561677665449679,-0.025648904964327812,0.0453224740922451
1772534315267040800,10.809040771484375,-0.0035137746017426252,-0.02047118730843067,0.03253743797540665
1772534315277056800,10.819056884765626,-0.006110889371484518,-0.016981113702058792,0.02617993950843811
1772534315287073500,10.829073486328125,-0.0033726270776242018,-0.009219597093760967,0.017304155975580215
1772534315297089800,10.83908984375,0.003183809109032154,-0.018852783367037773,0.00236222380772233
1772534315307105800,10.849105712890625,0.007139934692531824,-0.003346794517710805,-0.010859837755560875
1772534315317121800,10.859121826171876,0.017525997012853622,0.004682902246713638,-0.021869879215955734
1772534315327138600,10.869138671875,0.0305137000977993,0.0011134676169604063,-0.01721547171473503
1772534315337154600,10.879154541015625,0.03698784485459328,-0.003953196108341217,-0.014363759197294712
1772534315347170600,10.889170654296874,0.04171335697174072,-0.011957060545682907,-0.007668572477996349
1772534315357187800,10.899187744140624,0.03594361990690231,-0.01110378373414278,-0.006875482853502035
1772534315367203800,10.909203857421875,0.02599884383380413,-0.00609224708750844,-0.010428139939904213
1772534315377219600,10.919219482421875,0.014928082935512066,0.0013406352372840047,-0.011631621979176998
1772534315387235600,10.929235595703124,0.002843989757820964,0.009998572058975697,-0.012014318257570267
1772534315397252600,10.939252685546874,0.0014455638593062758,0.011023622937500477,-0.007214503362774849
1772534315407268600,10.9492685546875,0.0028479844331741333,0.005946572404354811,-0.009012402966618538
1772534315417284600,10.95928466796875,0.0005163869354873896,0.01002307329326868,-0.005154015496373177
1772534315427301600,10.969301513671875,-0.006733004003763199,0.020688766613602638,-0.002341983839869499
1772534315437317600,10.979317626953126,-0.014493188820779324,0.016031963750720024,-0.0017944378778338432
1772534315447333600,10.989333740234375,-0.021794244647026062,0.0054301852360367775,-0.002234658459201455
1772534315457349600,10.999349609375,-0.024508804082870483,-0.0021435783710330725,0.012708071619272232
1772534315467366700,11.00936669921875,-0.02545236237347126,0.003084473079070449,0.024649420753121376
1772534315477382700,11.019382568359376,-0.02245417609810829,0.0005475459038279951,0.01948688179254532
1772534315487398700,11.029398681640625,-0.019891416653990746,-0.002286856295540929,0.003266367129981518
1772534315497415400,11.03941552734375,-0.021519407629966736,0.01236265990883112,-0.02376152202486992
1772534315507431400,11.049431396484374,-0.02165735885500908,0.019889019429683685,-0.06493452191352844
1772534315517447700,11.05944775390625,-0.027394339442253113,0.03705842047929764,-0.09966693818569183
1772534315527463700,11.069463623046875,-0.029866285622119904,0.05778287351131439,-0.09378987550735474
1772534315537480700,11.079480712890625,-0.02425340749323368,0.0249029528349638,-0.07286781817674637
1772534315547496400,11.089496337890624,-0.015514777041971684,-0.01907622255384922,-0.039754338562488556
1772534315557512400,11.099512451171876,-0.0041468082927167416,-0.023456323891878128,0.00041039311327040195
1772534315567528700,11.10952880859375,-0.0057319216430187225,-0.018641328439116478,0.033910829573869705
1772534315577545700,11.119545654296875,-0.010098174214363098,-0.01221458800137043,0.053049102425575256
1772534315587561700,11.129561767578124,-0.0161249078810215,-0.0073412698693573475,0.06379549205303192
1772534315597577500,11.139577392578126,-0.012739497236907482,-0.006040049251168966,0.07070266455411911
1772534315607594800,11.1495947265625,-0.003468500915914774,-0.009648365899920464,0.061585068702697754
1772534315617610800,11.15961083984375,0.009406550787389278,-0.025956233963370323,0.05158489570021629
1772534315627626800,11.169626708984374,0.025541312992572784,-0.031254857778549194,0.04891268163919449
1772534315637642500,11.179642578125,0.03418007493019104,-0.038545262068510056,0.02497272752225399
1772534315647659500,11.189659423828125,0.028505677357316017,-0.03570526838302612,0.0005701828049495816
1772534315657675500,11.199675537109375,0.02009887620806694,-0.08980871737003326,0.029077457264065742
1772534315667691800,11.20969189453125,0.0346599742770195,-0.06307510286569595,0.056110672652721405
1772534315677708500,11.21970849609375,0.00264851376414299,0.04567481204867363,-0.03581631928682327
1772534315687724500,11.229724609375,-0.03110998310148716,0.18216794729232788,-0.09804054349660873
1772534315697740500,11.239740478515625,-0.0173821859061718,0.1722916066646576,-0.04006406292319298
1772534315707756500,11.249756591796874,-0.00430073868483305,0.1097472682595253,0.05008793622255325
1772534315717773600,11.259773681640626,-0.019538015127182007,0.019514845684170723,0.05107889696955681
1772534315727789600,11.26978955078125,-0.009192166849970818,-0.08105170726776123,0.05681321397423744
1772534315737805600,11.2798056640625,-0.001347825862467289,-0.08077900111675262,0.08007645606994629
1772534315747822600,11.289822509765624,0.000526773277670145,-0.07098762691020966,0.06888958811759949
1772534315757838800,11.2998388671875,0.008804943412542343,-0.06173047423362732,0.044675592333078384
1772534315767854600,11.3098544921875,0.028437767177820206,-0.03443440794944763,0.029590649530291557
1772534315777870600,11.31987060546875,0.034996066242456436,0.010152769275009632,0.01835903339087963
