time,seconds_elapsed,z,y,x
1772534304510756600,0.052756591796875,0.05684961751103401,0.019873514771461487,-0.03782370686531067
1772534304520772600,0.062772705078125,0.05366953834891319,0.025342583656311035,-0.019263871014118195
1772534304530790000,0.072789794921875,0.04847552999854088,0.04835667461156845,-0.00902261771261692
1772534304540806000,0.082805908203125,0.04349488765001297,0.072598896920681,-0.009066560305655003
1772534304550822000,0.09282177734375,0.03764331713318825,0.08616936206817627,-0.007861138321459293
1772534304560838700,0.102838623046875,0.02970976196229458,0.0971413180232048,0.007975349202752113
1772534304570854700,0.112854736328125,0.02469947747886181,0.10660392791032791,0.03394285589456558
1772534304580870700,0.12287060546875,0.025897633284330368,0.10662949830293655,0.05952544882893562
1772534304590887700,0.1328876953125,0.03217466175556183,0.10106616467237473,0.09033025801181793
1772534304600903700,0.142903564453125,0.04589047282934189,0.08571943640708923,0.12402590364217758
1772534304610920700,0.152920654296875,0.05816563218832016,0.06004142761230469,0.15715739130973816
1772534304620936700,0.162936767578125,0.06845767796039581,0.040896229445934296,0.18431630730628967
1772534304630953000,0.172952880859375,0.06892043352127075,0.03573741391301155,0.20555324852466583
1772534304640969700,0.1829697265625,0.06209981441497803,0.029028913006186485,0.21626554429531097
1772534304650985700,0.19298583984375,0.056122373789548874,0.02295561134815216,0.20965978503227234
1772534304661001700,0.203001708984375,0.0658879205584526,0.017496397718787193,0.19452610611915588
1772534304671018800,0.213018798828125,0.0843922570347786,0.021559681743383408,0.16810715198516846
1772534304681034800,0.22303466796875,0.1037483811378479,0.0332549549639225,0.1305648386478424
1772534304691051800,0.2330517578125,0.11553117632865906,0.04237372428178787,0.09517255425453186
1772534304701067800,0.24306787109375,0.11388827115297318,0.05486448481678963,0.07723482698202133
1772534304711083800,0.253083740234375,0.10426103323698044,0.06100056320428848,0.06323506683111191
1772534304721100800,0.263100830078125,0.08886823058128357,0.057651907205581665,0.04915573075413704
1772534304731116800,0.27311669921875,0.06956568360328674,0.04374182969331741,0.032057639211416245
1772534304741132800,0.2831328125,0.05575133115053177,0.03793826699256897,0.023468412458896637
1772534304751149600,0.293149658203125,0.04550134018063545,0.028602179139852524,0.019431354478001595
1772534304761165800,0.303165771484375,0.03903518617153168,0.026672719046473503,0.016066983342170715
1772534304771182800,0.313182861328125,0.031086090952157974,0.014637574553489685,0.013850802555680275
1772534304781198800,0.32319873046875,0.019437691196799278,0.0036275337915867567,0.005434414837509394
1772534304791214600,0.333214599609375,0.006123582366853952,0.009336529299616814,-0.006109971087425947
1772534304801231600,0.343231689453125,-0.007360002025961876,0.008357018232345581,-0.014726893976330757
1772534304811247900,0.353247802734375,-0.025848370045423508,0.007150954566895962,-0.021653318777680397
1772534304821264000,0.363263916015625,-0.03523761034011841,0.007717408239841461,-0.041686948388814926
1772534304831280600,0.37328076171875,-0.0385267548263073,0.01399715431034565,-0.06891073286533356
1772534304841296600,0.383296630859375,-0.036176782101392746,0.022578924894332886,-0.11125978827476501
1772534304851312600,0.393312744140625,-0.034886687994003296,0.04495066776871681,-0.1480814814567566
1772534304861330000,0.403329833984375,-0.02528652362525463,0.09453526139259338,-0.1760886013507843
1772534304871345700,0.413345703125,-0.016763795167207718,0.1348961442708969,-0.18304966390132904
1772534304881362700,0.42336279296875,-0.0050653270445764065,0.15590102970600128,-0.1758873611688614
1772534304891378700,0.433378662109375,0.0041755917482078075,0.16545948386192322,-0.1519913673400879
1772534304901395000,0.44339501953125,0.011680912226438522,0.1538747251033783,-0.10853763669729233
1772534304911411700,0.45341162109375,0.021806158125400543,0.11627161502838135,-0.05910024419426918
1772534304921427700,0.463427734375,0.034647386521101,0.06162967532873154,-0.010614736005663872
1772534304931443700,0.473443603515625,0.049412164837121964,0.02296023815870285,0.040522828698158264
1772534304941460700,0.483460693359375,0.057781148701906204,0.01113953161984682,0.08750312030315399
1772534304951476700,0.493476806640625,0.07806214690208435,0.011286820285022259,0.14244762063026428
1772534304961493800,0.50349365234375,0.09674874693155289,-0.005466860253363848,0.18781670928001404
1772534304971509800,0.513509765625,0.1050320491194725,-0.017910271883010864,0.20076625049114227
1772534304981525800,0.52352587890625,0.10404934734106064,-0.012738944962620735,0.185042142868042
1772534304991542800,0.533542724609375,0.09542044997215271,0.0021427213214337826,0.1504969298839569
1772534305001558800,0.543558837890625,0.07684330642223358,0.01615973562002182,0.10896653681993484
1772534305011574800,0.55357470703125,0.060921136289834976,0.02493373118340969,0.07216396927833557
1772534305021591600,0.563591552734375,0.05196279287338257,0.023026375100016594,0.04358931630849838
1772534305031607600,0.573607666015625,0.044640880078077316,0.021424883976578712,0.028194474056363106
1772534305041623800,0.583623779296875,0.043486665934324265,0.021310901269316673,0.030346574261784554
1772534305051640800,0.593640869140625,0.04661674425005913,0.007630260661244392,0.04076026752591133
1772534305061656800,0.60365673828125,0.053035762161016464,-0.0065103257074952126,0.04449455067515373
1772534305071673600,0.613673583984375,0.05830974876880646,-0.007539864629507065,0.04347284138202667
1772534305081689900,0.62368994140625,0.06204722821712494,0.005174065940082073,0.03591638803482056
1772534305091705900,0.633705810546875,0.05862664803862572,0.013339472003281116,0.02306559309363365
1772534305101722600,0.64372265625,0.05724287033081055,0.016268683597445488,0.010317307896912098
1772534305111738600,0.653738525390625,0.055648524314165115,0.01936173252761364,0.002577260136604309
1772534305121754600,0.663754638671875,0.05688103288412094,0.019320454448461533,-0.003818321041762829
1772534305131772000,0.67377197265625,0.05286678671836853,0.009738913737237453,-0.013387794606387615
1772534305141787600,0.68378759765625,0.046888258308172226,0.0030399980023503304,-0.019679781049489975
1772534305151804700,0.6938046875,0.03730456158518791,0.00486435741186142,-0.024882761761546135
1772534305161820700,0.703820556640625,0.02963998354971409,0.004132254049181938,-0.031441062688827515
1772534305171837000,0.7138369140625,0.02341100573539734,0.0030479140114039183,-0.0361856184899807
1772534305181853700,0.723853759765625,0.018504397943615913,0.008437885902822018,-0.03915663808584213
1772534305191869700,0.73386962890625,0.017406782135367393,0.0030428150203078985,-0.04112618789076805
1772534305201885700,0.7438857421875,0.019291765987873077,-0.014083974063396454,-0.029659150168299675
1772534305211903000,0.753903076171875,0.014769049361348152,-0.021342137828469276,-0.01915021240711212
1772534305221918700,0.763918701171875,0.008475732989609241,-0.022785039618611336,-0.01264570839703083
1772534305231934700,0.773934814453125,0.0032458528876304626,-0.0267635527998209,-0.008842731826007366
1772534305241951700,0.78395166015625,-0.00653167674317956,-0.02561892569065094,-0.009233417920768261
1772534305251967700,0.7939677734375,-0.016231229528784752,-0.029203103855252266,-0.012547673657536507
1772534305261984800,0.80398486328125,-0.027326757088303566,-0.02970537729561329,-0.01876216009259224
1772534305272000800,0.814000732421875,-0.034336406737565994,-0.02146146446466446,-0.023667220026254654
1772534305282016800,0.824016845703125,-0.03948003798723221,-0.008641008287668228,-0.03013310581445694
1772534305292033800,0.83403369140625,-0.04272492602467537,-0.004330470226705074,-0.0379568375647068
1772534305302049500,0.844049560546875,-0.039201561361551285,-0.014917334541678429,-0.04414868727326393
1772534305312065800,0.854065673828125,-0.03379108011722565,-0.018700698390603065,-0.049258239567279816
1772534305322082800,0.864082763671875,-0.029910584911704063,-0.017659934237599373,-0.05425938963890076
1772534305332098800,0.874098876953125,-0.029950778931379318,-0.017140505835413933,-0.05780382081866264
1772534305342114600,0.884114501953125,-0.03591999039053917,-0.00890467967838049,-0.06357835233211517
1772534305352131800,0.8941318359375,-0.04497280716896057,0.006039933301508427,-0.0634431317448616
1772534305362147800,0.90414794921875,-0.04984692484140396,0.003936569206416607,-0.0534655936062336
1772534305372164600,0.91416455078125,-0.05451028794050217,-0.002149017294868827,-0.033455751836299896
1772534305382180000,0.92418017578125,-0.05680833011865616,-0.00768120214343071,-0.006831598002463579
1772534305392195800,0.93419580078125,-0.05811483785510063,-0.011203273199498653,0.0132557712495327
1772534305402213000,0.944213134765625,-0.05870499461889267,-0.010135346092283726,0.029341530054807663
1772534305412229000,0.95422900390625,-0.057282619178295135,-0.012833240441977978,0.03867380693554878
1772534305422245000,0.9642451171875,-0.04887315630912781,-0.017829596996307373,0.048615921288728714
1772534305432262000,0.974261962890625,-0.03914095461368561,-0.015919674187898636,0.05087512731552124
1772534305442278000,0.98427783203125,-0.03066198155283928,-0.015238704159855843,0.04589341953396797
1772534305452294000,0.9942939453125,-0.022022126242518425,-0.01694362238049507,0.033297955989837646
1772534305462311000,1.004310791015625,-0.016620969399809837,-0.013672195374965668,0.013829981908202171
1772534305472327000,1.014326904296875,-0.01195832621306181,-0.011429394595324993,-0.0070076254196465015
1772534305482344000,1.024343994140625,-0.009313540533185005,-0.00686739943921566,-0.021756211295723915
1772534305492360000,1.03435986328125,-0.005963688716292381,-0.005827130749821663,-0.029955144971609116
1772534305502376200,1.044376220703125,-0.0014863822143524885,-0.008478574454784393,-0.029708538204431534
1772534305512393000,1.05439306640625,0.0029825216624885798,-0.007947158068418503,-0.02075883001089096
1772534305522409000,1.064408935546875,0.006992177106440067,-0.017726019024848938,-0.006098127458244562
1772534305532425000,1.074425048828125,0.017358338460326195,-0.028125988319516182,0.0070506208576262
1772534305542442000,1.08444189453125,0.02401544153690338,-0.024123257026076317,0.010577977634966373
1772534305552458000,1.0944580078125,0.02717481553554535,-0.022393248975276947,0.0023924224078655243
1772534305562474000,1.104473876953125,0.029905354604125023,-0.012733163312077522,-0.011748429387807846
1772534305572491000,1.114490966796875,0.029930735006928444,-0.002137645147740841,-0.0299253948032856
1772534305582507000,1.124507080078125,0.026086462661623955,-0.0043890816159546375,-0.038815561681985855
1772534305592524000,1.13452392578125,0.021826451644301414,-0.010456141084432602,-0.03890181705355644
1772534305602540000,1.1445400390625,0.020677564665675163,-0.011735258623957634,-0.038305800408124924
1772534305612556000,1.15455615234375,0.026107870042324066,-0.013975925743579865,-0.037157557904720306
1772534305622572800,1.16457275390625,0.033256057649850845,-0.024085018783807755,-0.032041363418102264
1772534305632589000,1.174589111328125,0.047699786722660065,-0.03246604651212692,-0.022736884653568268
1772534305642605000,1.18460498046875,0.059723157435655594,-0.0483856238424778,-0.016582585871219635
1772534305652622000,1.1946220703125,0.06205116957426071,-0.052789196372032166,-0.00968007929623127
1772534305662637800,1.204637939453125,0.053955160081386566,-0.04992310330271721,-0.0056075737811625
1772534305672653800,1.21465380859375,0.04235944524407387,-0.04101287201046944,-0.0053574685007333755
1772534305682671000,1.224671142578125,0.029209285974502563,-0.014356760308146477,-0.012192471884191036
1772534305692687000,1.23468701171875,0.019011151045560837,0.0002040171530097723,-0.017792992293834686
1772534305702703000,1.244703125,0.011420875787734985,-0.0015813661739230156,-0.015325574204325676
1772534305712720000,1.254719970703125,0.010239920578897,0.004455295391380787,-0.005760999862104654
1772534305722735900,1.26473583984375,0.00410559494048357,-0.0012183025246486068,0.010140468366444111
1772534305732753200,1.274753173828125,-0.00022059987531974912,-0.00738386157900095,0.028491681441664696
1772534305742769000,1.284768798828125,-0.004375929944217205,-0.004153447225689888,0.04446186125278473
1772534305752785000,1.294784912109375,-0.0057034241035580635,-0.0031565704848617315,0.05382542684674263
1772534305762802000,1.304802001953125,-0.0014940316323190928,-0.0025640171952545643,0.05413808301091194
1772534305772818200,1.314818115234375,0.0010278726695105433,-0.018064048141241074,0.05052590370178223
1772534305782834200,1.324834228515625,0.002025759080424905,-0.009940342046320438,0.04140590876340866
1772534305792851000,1.334850830078125,-0.007382565643638372,0.0023701745085418224,0.03722384199500084
1772534305802867000,1.344866943359375,-0.016328124329447746,-0.0013657078379765153,0.033830709755420685
1772534305812883000,1.354883056640625,-0.02245257794857025,0.0020294031128287315,0.02518845722079277
1772534305822900000,1.36489990234375,-0.026751451194286346,-0.0013035431038588285,0.015259926207363605
1772534305832916000,1.374916015625,-0.028946196660399437,-0.003085711970925331,0.0011622339952737093
1772534305842933000,1.38493310546875,-0.0271522905677557,-0.002025507390499115,-0.005699933506548405
1772534305852949000,1.394948974609375,-0.02468501217663288,-0.002389766974374652,-0.012139810249209404
1772534305862965000,1.404965087890625,-0.022290030494332314,-0.0005319458432495594,-0.016069039702415466
1772534305872982000,1.41498193359375,-0.023988943547010422,0.0045287031680345535,-0.018869828432798386
1772534305882998000,1.424998046875,-0.02324751950800419,0.003083406016230583,-0.0205734521150589
1772534305893014000,1.435013916015625,-0.02420540526509285,0.005448122508823872,-0.022582057863473892
1772534305903030800,1.44503076171875,-0.024479975923895836,0.0052252160385251045,-0.02521565742790699
1772534305913047000,1.455047119140625,-0.02141665294766426,0.0003969797398895025,-0.02684115618467331
1772534305923063000,1.46506298828125,-0.0184610765427351,0.0007317392155528069,-0.024812093004584312
1772534305933080000,1.475080078125,-0.018546178936958313,-0.004939880687743425,-0.016452539712190628
1772534305943095800,1.485095703125,-0.017601022496819496,-0.00871571060270071,-0.008599411696195602
1772534305953113000,1.495113037109375,-0.01696380227804184,-0.013468862511217594,-0.003023207187652588
1772534305963129000,1.505129150390625,-0.01570306159555912,-0.009858681820333004,-0.006351360119879246
1772534305973145000,1.51514501953125,-0.012384569272398949,-0.0007183890556916595,-0.008070353418588638
1772534305983161900,1.525161865234375,-0.010095315985381603,0.001998035004362464,-0.009988628327846527
1772534305993177900,1.535177734375,-0.006759850308299065,0.007481577806174755,-0.01029664371162653
1772534306003194000,1.545194091796875,-0.008781190030276775,0.008989726193249226,-0.0129496855661273
1772534306013211100,1.555211181640625,-0.01190930511802435,0.007106585893779993,-0.01451164297759533
1772534306023227000,1.565226806640625,-0.014406285248696804,-0.00035692285746335983,-0.02162201702594757
1772534306033243000,1.575242919921875,-0.018726473674178123,0.003579305252060294,-0.026605576276779175
1772534306043260200,1.58526025390625,-0.019329147413372993,0.007448878139257431,-0.028875121846795082
1772534306053276200,1.595276123046875,-0.01711130328476429,0.0023708033841103315,-0.028938446193933487
1772534306063292000,1.6052919921875,-0.009340199641883373,-0.0046892366372048855,-0.022014494985342026
1772534306073309000,1.615308837890625,-0.000512114551384002,-0.014665231108665466,-0.013940051198005676
1772534306083325000,1.625324951171875,0.0024980565067380667,-0.015471902675926685,-0.011121362447738647
1772534306093341000,1.6353408203125,0.0003088455996476114,-0.010294772684574127,-0.01030233409255743
1772534306103358000,1.64535791015625,-0.004309874959290028,-0.004949809052050114,-0.008053028024733067
1772534306113374000,1.6553740234375,-0.007058578077703714,-0.008935591205954552,-0.008930755779147148
1772534306123391000,1.665390869140625,-0.006507304031401873,-0.009081266820430756,-0.013064248487353325
1772534306133407000,1.675406982421875,-0.008447958156466484,-0.005001760087907314,-0.026078037917613983
1772534306143423000,1.685423095703125,-0.005538188852369785,-0.0005505523877218366,-0.04066230729222298
1772534306153440000,1.69543994140625,-0.005639276467263699,0.0018523214384913445,-0.04518582299351692
1772534306163456000,1.7054560546875,-0.00003385514719411731,-0.00039884867146611214,-0.038041893392801285
1772534306173472000,1.715471923828125,0.00489211967214942,-0.006597565487027168,-0.024546513333916664
1772534306183489000,1.725489013671875,0.008296438492834568,-0.01088099367916584,-0.009187530726194382
1772534306193505000,1.735505126953125,0.010208889842033386,-0.012979050166904926,0.0017979906406253576
1772534306203521000,1.74552099609375,0.007341996766626835,-0.01477375440299511,0.008361084386706352
1772534306213538000,1.7555380859375,0.007422379218041897,-0.011279592290520668,0.0024691408034414053
1772534306223553800,1.7655537109375,0.006522497162222862,-0.008331473916769028,-0.0076623233035206795
1772534306233571000,1.775571044921875,0.000767672318033874,-0.0013521271757781506,-0.01744704321026802
1772534306243587000,1.785587158203125,-0.008365904912352562,0.0008210123050957918,-0.01630721054971218
1772534306253603000,1.79560302734375,-0.014091839082539082,0.0019608833827078342,-0.012568255886435509
1772534306263619800,1.805619873046875,-0.019904719665646553,-0.0024349302984774113,-0.012730177491903305
1772534306273636000,1.815635986328125,-0.022876525297760963,-0.0009213191224262118,-0.006864557974040508
1772534306283652000,1.825652099609375,-0.021754002198576927,-0.005747499875724316,-0.0022953730076551437
1772534306293668900,1.8356689453125,-0.00817913468927145,-0.011388360522687435,-0.007819503545761108
1772534306303684900,1.845684814453125,0.003914013504981995,-0.009086323902010918,-0.009988915175199509
1772534306313700900,1.855700927734375,0.011619484052062035,-0.010105364955961704,-0.0037982845678925514
1772534306323718100,1.86571826171875,0.015037651173770428,-0.013317403383553028,0.004344330169260502
1772534306333734100,1.875734130859375,0.01692012883722782,-0.02039041742682457,0.014909720048308372
1772534306343750000,1.88575,0.015462847426533699,-0.017349354922771454,0.013095841743052006
1772534306353767000,1.895766845703125,0.012446468695998192,-0.00850885733962059,0.005918447859585285
1772534306363783000,1.905782958984375,0.01261424832046032,-0.009358938783407211,-0.005860446952283382
1772534306373799200,1.915799072265625,0.010224336758255959,-0.008985107764601707,-0.01409335806965828
1772534306383816200,1.925816162109375,0.011832352727651596,-0.008177637122571468,-0.02299976721405983
1772534306393832200,1.935832275390625,0.012647023424506187,-0.007086350116878748,-0.025433644652366638
1772534306403849500,1.945849365234375,0.013948510400950909,-0.015138151124119759,-0.019619964063167572
1772534306413865200,1.955865234375,0.015174840576946735,-0.02520073391497135,-0.0142536461353302
1772534306423881200,1.965881103515625,0.01550533901900053,-0.024688076227903366,-0.012797430157661438
1772534306433898200,1.975898193359375,0.013669677078723907,-0.009707699529826641,-0.021261271089315414
1772534306443914500,1.98591455078125,0.011320236138999462,-0.0036583291366696358,-0.022818688303232193
1772534306453930500,1.995930419921875,0.005574530456215143,0.001218204153701663,-0.0224648155272007
1772534306463947300,2.005947265625,0.001751562813296914,-0.00024520279839634895,-0.016063377261161804
1772534306473963300,2.01596337890625,0.003143707290291786,-0.0012729911832138896,-0.00887799821794033
1772534306483979300,2.025979248046875,0.004471825435757637,-0.004238154739141464,-0.003994027152657509
1772534306493996300,2.035996337890625,0.010207138024270535,-0.00288230343721807,-0.00003040814772248268
1772534306504012300,2.04601220703125,0.016240529716014862,-0.0018726990092545748,-0.000057306140661239624
1772534306514028300,2.0560283203125,0.01996738277375698,0.00020089605823159218,-0.009040683507919312
1772534306524045300,2.06604541015625,0.023165306076407433,0.007489968091249466,-0.020125290378928185
1772534306534061300,2.076061279296875,0.018007079139351845,0.016120892018079758,-0.020158391445875168
1772534306544078300,2.086078369140625,0.006503288634121418,0.030410349369049072,-0.012777173891663551
1772534306554094300,2.09609423828125,-0.0027413922362029552,0.039188507944345474,0.002611978445202112
1772534306564110300,2.1061103515625,-0.001040963688865304,0.024113154038786888,0.016630591824650764
1772534306574127400,2.11612744140625,0.007012154906988144,0.015162933617830276,0.026587869971990585
1772534306584143400,2.126143310546875,-0.002963780425488949,-0.01174671109765768,0.03275841474533081
1772534306594159400,2.136159423828125,-0.0011794189922511578,0.03384384885430336,0.024395525455474854
1772534306604176400,2.14617626953125,0.007690238766372204,0.0031123009975999594,0.011249629780650139
1772534306614192000,2.156192138671875,0.008503898978233337,0.0036854322534054518,-0.004454293753951788
1772534306624208100,2.1662080078125,0.005408506840467453,0.013292785733938217,-0.006131020840257406
1772534306634225400,2.176225341796875,0.0017226627096533775,0.01466454192996025,-0.01063518039882183
1772534306644241400,2.186241455078125,-0.0011546163586899638,0.01126315351575613,-0.01267383061349392
1772534306654257400,2.19625732421875,-0.0019526726100593805,0.008629875257611275,-0.014032416045665741
1772534306664274200,2.206274169921875,0.0032056039199233055,0.00306626595556736,-0.016104621812701225
1772534306674290400,2.21629052734375,0.00569199537858367,0.0001836798619478941,-0.015107598155736923
1772534306684307500,2.226307373046875,0.0044243307784199715,0.0054583363234996796,-0.011178102344274521
1772534306694323200,2.2363232421875,0.0013956862967461348,0.008380623534321785,-0.006709774024784565
1772534306704339200,2.246339111328125,0.0017767846584320068,0.006731860805302858,-0.002685470972210169
1772534306714356500,2.2563564453125,0.0057166884653270245,0.005102328956127167,-0.004762202966958284
1772534306724372500,2.26637255859375,0.007965728640556335,0.0027800528332591057,-0.007722572889178991
1772534306734388200,2.27638818359375,0.012845542281866074,0.006880235858261585,-0.01342905405908823
1772534306744405200,2.2864052734375,0.013322780840098858,0.0076288506388664246,-0.018071208149194717
1772534306754421200,2.296421142578125,0.012027123011648655,0.011981483548879623,-0.01960381306707859
1772534306764437500,2.3064375,0.012128056958317757,0.0087654497474432,-0.02237349934875965
1772534306774454300,2.316454345703125,0.010197851806879044,0.012198093347251415,-0.02615763247013092
1772534306784470300,2.32647021484375,0.01179628074169159,0.017284199595451355,-0.029630394652485847
1772534306794486300,2.336486328125,0.01255272887647152,0.012342628091573715,-0.023952897638082504
1772534306804503600,2.346503662109375,0.018106218427419662,0.0038894889876246452,-0.013071488589048386
1772534306814519300,2.356519287109375,0.023417750373482704,0.0023308342788368464,-0.004290134180337191
1772534306824535300,2.366535400390625,0.024555452167987823,-0.00011634430848062038,0.0002588112838566303
1772534306834552300,2.37655224609375,0.024841176345944405,0.004960193298757076,-0.005694406107068062
1772534306844568300,2.386568359375,0.020506348460912704,0.013997364789247513,-0.01265963725745678
1772534306854585300,2.39658544921875,0.007829000242054462,0.026766687631607056,-0.01077206525951624
1772534306864601300,2.406601318359375,-0.0076721953228116035,0.03515777736902237,-0.003908832557499409
1772534306874617300,2.416617431640625,-0.017695941030979156,0.026851436123251915,0.010412496514618397
1772534306884634400,2.42663427734375,-0.023160479962825775,0.01604006625711918,0.031557995826005936
1772534306894650000,2.436650146484375,-0.0220643337816,0.01215163990855217,0.04098635911941528
1772534306904666400,2.446666259765625,-0.022326387465000153,0.009875437244772911,0.03951363265514374
1772534306914683400,2.456683349609375,-0.018939996138215065,0.011270267888903618,0.030216896906495094
1772534306924699400,2.466699462890625,-0.015548725612461567,0.010190089233219624,0.020907018333673477
1772534306934715400,2.47671533203125,-0.01200031116604805,0.008869807235896587,0.021256396546959877
1772534306944732400,2.486732421875,-0.007403162308037281,0.003027631202712655,0.011416281573474407
1772534306954748400,2.49674853515625,-0.0037873145192861557,0.000907431822270155,-0.003673533909022808
1772534306964764400,2.506764404296875,-0.003611811902374029,-0.002486234297975898,-0.02248983085155487
1772534306974781200,2.51678125,-0.00692832050845027,0.0016877951566129923,-0.0408858060836792
1772534306984797200,2.526797119140625,-0.013455728068947792,0.006794938817620277,-0.05693747475743294
1772534306994813200,2.536813232421875,-0.018368856981396675,0.006702222861349583,-0.0630762055516243
1772534307004830500,2.54683056640625,-0.012990868650376797,0.003508293768391013,-0.06051717698574066
1772534307014846200,2.55684619140625,-0.008749551139771938,-0.006327539216727018,-0.04788472130894661
1772534307024863200,2.56686328125,-0.0024048362392932177,-0.015065902844071388,-0.027804486453533173
1772534307034879200,2.576879150390625,0.0013644325081259012,-0.021749107167124748,-0.015989715233445168
1772534307044895500,2.5868955078125,0.003975395578891039,-0.023458322510123253,-0.014948684722185135
1772534307054912300,2.596912353515625,-0.0009523253538645804,-0.013440785929560661,-0.02194792591035366
1772534307064928300,2.60692822265625,-0.010170591063797474,-0.003732232144102454,-0.027495555579662323
1772534307074944300,2.6169443359375,-0.019725820049643517,0.00441656494513154,-0.03186652436852455
1772534307084961500,2.62696142578125,-0.02884075604379177,0.009164448827505112,-0.029289383441209793
1772534307094977300,2.636977294921875,-0.0334099605679512,0.012636564671993256,-0.022895904257893562
1772534307104993300,2.6469931640625,-0.02863677591085434,0.007713711820542812,-0.012622494250535965
1772534307115010300,2.65701025390625,-0.021546082571148872,-0.0022454087156802416,0.0013148486614227295
1772534307125026300,2.6670263671875,-0.015660762786865234,-0.010308927856385708,0.0170767679810524
1772534307135042300,2.677042236328125,-0.012183856219053268,-0.012795102782547474,0.034169044345617294
1772534307145059300,2.687059326171875,-0.005979490466415882,-0.005866356194019318,0.047288838773965836
1772534307155075300,2.697075439453125,0.0009826535824686289,-0.0060003893449902534,0.054457444697618484
1772534307165091300,2.70709130859375,0.006267163902521133,-0.009536001831293106,0.05887269973754883
1772534307175108400,2.7171083984375,0.01053528394550085,-0.009139494970440865,0.060312796384096146
1772534307185124400,2.727124267578125,0.015167320147156715,-0.01706506311893463,0.05180346220731735
1772534307195140400,2.737140380859375,0.014476814307272434,-0.0010555832413956523,0.044027216732501984
1772534307205157400,2.747157470703125,0.0069147683680057526,-0.0011911381734535098,0.03046320751309395
1772534307215173000,2.757173095703125,-0.0029203565791249275,0.003003340447321534,0.021807776764035225
1772534307225190400,2.7671904296875,-0.008248542435467243,0.009885747916996479,0.010973239317536354
1772534307235206400,2.777206298828125,-0.0087923314422369,0.010171068832278252,0.004573848098516464
1772534307245222400,2.787222412109375,-0.007309749256819487,0.007080736570060253,-0.0045402878895401955
1772534307255239200,2.7972392578125,-0.005665291100740433,0.0070988815277814865,-0.008121640421450138
1772534307265255200,2.807255126953125,-0.0067894114181399345,0.008514884859323502,-0.011494799517095089
1772534307275271400,2.817271484375,-0.011901875957846642,0.013666447252035141,-0.007746371906250715
1772534307285288400,2.827288330078125,-0.01652618870139122,0.018313130363821983,-0.005069895181804895
1772534307295304200,2.83730419921875,-0.017727172002196312,0.01680443063378334,-0.0030175186693668365
1772534307305320200,2.8473203125,-0.018708014860749245,0.011422447860240936,0.0034052268601953983
1772534307315337500,2.85733740234375,-0.01537178736180067,0.009373011998832226,0.007937832735478878
1772534307325353500,2.867353515625,-0.015776056796312332,0.009501376189291477,0.012173856608569622
1772534307335369500,2.877369384765625,-0.01692342944443226,0.016399363055825233,0.009291345253586769
1772534307345386200,2.88738623046875,-0.021969854831695557,0.01794639229774475,0.005912592634558678
1772534307355402200,2.89740234375,-0.023785937577486038,0.01754085160791874,0.003257499309256673
1772534307365418500,2.90741845703125,-0.022577928379178047,0.015753338113427162,0.0015850341878831387
1772534307375435300,2.917435302734375,-0.01817689836025238,0.011492909863591194,-0.003543546423316002
1772534307385451000,2.927450927734375,-0.012447906658053398,0.004656841978430748,-0.012053944170475006
1772534307395467300,2.93746728515625,-0.010652933269739151,0.0016144250985234976,-0.016702799126505852
1772534307405484300,2.947484375,-0.012607427313923836,0.004939115606248379,-0.022206220775842667
1772534307415500300,2.957500244140625,-0.014822974801063538,0.011041463352739811,-0.02658626064658165
1772534307425516000,2.96751611328125,-0.018716782331466675,0.014060690067708492,-0.030047569423913956
1772534307435533300,2.977533203125,-0.022999698296189308,0.015374844893813133,-0.03427077829837799
1772534307445549300,2.98754931640625,-0.023953909054398537,0.014797471463680267,-0.030250735580921173
1772534307455566000,2.997566162109375,-0.024203605949878693,0.015329229645431042,-0.020513784140348434
1772534307465582000,3.00758203125,-0.02606302499771118,0.012077775783836842,-0.010927203111350536
1772534307475598000,3.01759814453125,-0.03205972909927368,0.009857537224888802,0.0008964645676314831
1772534307485615400,3.027615478515625,-0.03682572394609451,0.002735977992415428,0.007284322753548622
1772534307495631000,3.037631103515625,-0.03558068722486496,-0.00014244159683585167,0.009226016700267792
1772534307505647000,3.047647216796875,-0.028200533241033554,-0.0009368626633659005,0.006076295394450426
1772534307515664100,3.0576640625,-0.01976557821035385,0.0031263786368072033,-0.0011738147586584091
1772534307525680400,3.067680419921875,-0.008777109906077385,0.004023064859211445,-0.006584026850759983
1772534307535696400,3.0776962890625,-0.005415048450231552,0.002582902554422617,-0.011246216483414173
1772534307545713200,3.087713134765625,-0.005839822813868523,0.006150738801807165,-0.017605578526854515
1772534307555729200,3.097729248046875,-0.006540192291140556,0.0010997506324201822,-0.024971680715680122
1772534307565745200,3.1077451171875,-0.0026578365359455347,-0.003613245440647006,-0.024437449872493744
1772534307575762200,3.11776220703125,0.0038248091004788876,-0.013663597404956818,-0.025192689150571823
1772534307585778200,3.127778076171875,0.009067242033779621,-0.017725983634591103,-0.026272336021065712
1772534307595794200,3.137794189453125,0.01264297403395176,-0.013015440665185452,-0.03246114403009415
1772534307605811200,3.147811279296875,0.011603541672229767,-0.006614266894757748,-0.04100722819566727
1772534307615827200,3.1578271484375,0.005991270300000906,-0.0022653823252767324,-0.0450153648853302
1772534307625843200,3.16784326171875,0.0004947722773067653,-0.0026667206548154354,-0.039819806814193726
1772534307635860200,3.177860107421875,-0.0038142125122249126,-0.008180338889360428,-0.030961614102125168
1772534307645876200,3.187876220703125,-0.009564509615302086,-0.007123862858861685,-0.018348082900047302
1772534307655892200,3.197892333984375,-0.014162148348987103,-0.009296506643295288,-0.010186625644564629
1772534307665909200,3.2079091796875,-0.015942206606268883,-0.007531363517045975,-0.00655700359493494
1772534307675925200,3.21792529296875,-0.017795242369174957,-0.006749117746949196,-0.006255783140659332
1772534307685942300,3.2279423828125,-0.01714223623275757,-0.006814098916947842,-0.006219298578798771
1772534307695958000,3.2379580078125,-0.015500887297093868,-0.00487461406737566,-0.0043069119565188885
1772534307705974000,3.24797412109375,-0.016234055161476135,-0.005372891668230295,0.0005136756226420403
1772534307715991300,3.2579912109375,-0.010693231597542763,-0.008718772791326046,0.004280074965208769
1772534307726007300,3.26800732421875,-0.009003722108900547,-0.007201570086181164,0.0023391633294522762
1772534307736023300,3.278023193359375,-0.006809682585299015,-0.000737448688596487,0.0009256629273295403
1772534307746040000,3.2880400390625,-0.002370725851505995,-0.004410480614751577,0.0019493820145726204
1772534307756056300,3.298056396484375,0.002429419429972768,-0.008805476129055023,0.00480263028293848
1772534307766072300,3.308072265625,0.006019360851496458,-0.01218609232455492,0.002475027460604906
1772534307776089000,3.318089111328125,0.005229094065725803,-0.008722102269530296,-0.0020394339226186275
1772534307786105000,3.32810498046875,0.0029259922448545694,-0.005741758272051811,-0.005535365082323551
1772534307796121000,3.33812109375,0.0006964257336221635,-0.00523305544629693,-0.002857872750610113
1772534307806138400,3.348138427734375,0.004852821119129658,-0.007528966758400202,-0.004855776205658913
1772534307816154400,3.358154296875,0.004953840747475624,-0.008159528486430645,-0.007179710548371077
1772534307826170000,3.368170166015625,0.003061664989218116,-0.0018835230730473995,-0.007594365160912275
1772534307836187100,3.378187255859375,-0.0010063995141535997,-0.002061230596154928,-0.0025015422143042088
1772534307846203100,3.388203125,-0.0027028329204767942,-0.011159921064972878,0.0054490589536726475
1772534307856219400,3.398219482421875,-0.008527804166078568,-0.008971522562205791,0.012852204032242298
1772534307866236200,3.408236083984375,-0.01522751897573471,-0.004635896533727646,0.021007336676120758
1772534307876252200,3.418252197265625,-0.015929188579320908,-0.005616856273263693,0.025051305070519447
1772534307886268200,3.42826806640625,-0.01040126383304596,-0.011793259531259537,0.028874540701508522
1772534307896285200,3.43828515625,-0.0034317083191126585,-0.02187330462038517,0.027543429285287857
1772534307906301200,3.44830126953125,0.00041203221189789474,-0.02097235806286335,0.02232709527015686
1772534307916317200,3.458317138671875,-0.002932280534878373,-0.014639759436249733,0.019715238362550735
1772534307926334200,3.468334228515625,-0.008399751037359238,-0.007850030437111855,0.017423320561647415
1772534307936350200,3.47835009765625,-0.012606224045157433,-0.002480223076418042,0.017697110772132874
1772534307946367200,3.4883671875,-0.01216813363134861,-0.015650087967514992,0.014557510614395142
1772534307956383200,3.49838330078125,-0.011114884167909622,-0.0002115142997354269,0.01688995398581028
1772534307966399200,3.508399169921875,-0.010095692239701748,-0.006900309585034847,0.01261637918651104
1772534307976416000,3.518416015625,-0.007132393773645163,-0.012357600033283234,0.014101056382060051
1772534307986432300,3.528432373046875,-0.007524943444877863,-0.012823919765651226,0.019415395334362984
1772534307996448300,3.5384482421875,-0.01320909708738327,-0.013675272464752197,0.023994319140911102
1772534308006465300,3.54846533203125,-0.014496736228466034,-0.009499702602624893,0.02252798341214657
1772534308016481300,3.558481201171875,-0.018023401498794556,-0.0102834552526474,0.01895175501704216
1772534308026497000,3.5684970703125,-0.021190699189901352,-0.007861576974391937,0.01660790666937828
1772534308036514300,3.578514404296875,-0.02033078670501709,-0.00653730146586895,0.010839533992111683
1772534308046530300,3.5885302734375,-0.021750250831246376,-0.004774289205670357,0.00465673953294754
1772534308056546300,3.59854638671875,-0.027224218472838402,-0.004806702025234699,0.003252812195569277
1772534308066563000,3.60856298828125,-0.03498733416199684,-0.0039052218198776245,0.0064906831830739975
1772534308076579000,3.6185791015625,-0.03728516399860382,-0.004491211846470833,0.013157153502106667
1772534308086595300,3.62859521484375,-0.038696903735399246,-0.009784510359168053,0.015454662963747978
1772534308096612000,3.638612060546875,-0.03716082498431206,-0.01275770366191864,0.018223334103822708
1772534308106628000,3.648628173828125,-0.036907557398080826,-0.0106548722833395,0.017016656696796417
1772534308116644000,3.65864404296875,-0.03744885325431824,-0.0006693112663924694,0.010341319255530834
1772534308126661400,3.668661376953125,-0.034113507717847824,0.000822325237095356,0.00823529064655304
1772534308136677400,3.678677490234375,-0.026868155226111412,0.0013928706757724285,0.0057516563683748245
1772534308146693000,3.688693115234375,-0.01734495721757412,-0.003329979255795479,0.0011608991771936417
1772534308156710100,3.698710205078125,-0.010905656963586807,-0.0031268764287233353,-0.004199806600809097
1772534308166726100,3.70872607421875,-0.007071769796311855,-0.003039524657651782,-0.011432685889303684
1772534308176742400,3.718742431640625,-0.01217750832438469,-0.0020251835230737925,-0.020486980676651
1772534308186759200,3.72875927734375,-0.01693231612443924,0.0015341313555836678,-0.02673821896314621
1772534308196775200,3.738775146484375,-0.021802978590130806,-0.00035497755743563175,-0.025331560522317886
1772534308206791200,3.748791259765625,-0.023491689935326576,0.0003656737972050905,-0.02727673202753067
1772534308216808200,3.75880810546875,-0.0238625630736351,-0.0011165135074406862,-0.030317049473524094
1772534308226824200,3.76882421875,-0.021582365036010742,-0.0044420026242733,-0.03517758473753929
1772534308236840200,3.778840087890625,-0.019451292231678963,-0.002715491224080324,-0.039115920662879944
1772534308246857200,3.788857177734375,-0.024108894169330597,0.00254638260230422,-0.03896518796682358
1772534308256873200,3.798873291015625,-0.032035525888204575,0.008141949772834778,-0.028953034430742264
1772534308266889200,3.80888916015625,-0.037877704948186874,0.0007205193396657705,-0.008454415947198868
1772534308276906200,3.81890625,-0.041429296135902405,-0.0012880368158221245,0.010396236553788185
1772534308286922200,3.828922119140625,-0.04342613369226456,0.00072478037327528,0.030932936817407608
1772534308296939000,3.83893896484375,-0.040924713015556335,-0.007913850247859955,0.04100431129336357
1772534308306955000,3.848955078125,-0.0378655381500721,-0.0070693613961339,0.04797327145934105
1772534308316971300,3.85897119140625,-0.0342547744512558,-0.011642714031040668,0.043903648853302
1772534308326988300,3.86898828125,-0.03212690353393555,-0.010038958862423897,0.035547710955142975
1772534308337004300,3.87900439453125,-0.030301416292786598,0.0012475964613258839,0.024715662002563477
1772534308347020000,3.88902001953125,-0.031168542802333832,0.00026036263443529606,0.0155304204672575
1772534308357037300,3.899037353515625,-0.029987920075654984,0.003170301904901862,0.007637050002813339
1772534308367053300,3.90905322265625,-0.02376411110162735,0.002936209784820676,0.004177337046712637
1772534308377069300,3.9190693359375,-0.0166506078094244,-0.0005935626104474068,0.005247191525995731
1772534308387086300,3.92908642578125,-0.00954369455575943,0.0007172452751547098,0.003477787133306265
1772534308397102300,3.939102294921875,-0.0014213614631444216,0.0035272433888167143,0.005053873173892498
1772534308407118600,3.94911865234375,0.010795356705784798,-0.0023591413628309965,0.004438683390617371
1772534308417135400,3.95913525390625,0.01936841383576393,-0.005347325466573238,0.004308413714170456
1772534308427151400,3.9691513671875,0.02164621464908123,-0.008231262676417828,0.005380602553486824
1772534308437167400,3.97916748046875,0.019127236679196358,-0.00331668253056705,0.00313356495462358
1772534308447184600,3.9891845703125,0.014888017438352108,-0.0014830960426479578,-0.0037403199821710587
1772534308457200600,3.99920068359375,0.0017691170796751976,-0.00014533079229295254,-0.007059799041599035
1772534308467216400,4.00921630859375,-0.007091219536960125,0.00416446290910244,-0.010673709213733673
1772534308477233400,4.0192333984375,-0.01223759911954403,0.0017158177215605974,-0.011060567572712898
1772534308487249400,4.02924951171875,-0.01040507759898901,0.0018417851533740759,-0.01020063366740942
1772534308497265400,4.039265380859375,-0.010127107612788677,-0.0020826677791774273,-0.005522994324564934
1772534308507282400,4.049282470703125,-0.004613831173628569,-0.005708028562366962,0.0011660668533295393
1772534308517298400,4.05929833984375,-0.0041334377601742744,-0.006962546147406101,0.013024882413446903
1772534308527314400,4.069314453125,-0.004451685585081577,-0.007667219266295433,0.01917731761932373
1772534308537331500,4.07933154296875,-0.005347235128283501,-0.007046022452414036,0.020139213651418686
1772534308547347500,4.089347412109375,-0.005398900248110294,-0.001797197968699038,0.01650080271065235
1772534308557363500,4.099363525390625,-0.004875492304563522,-0.004770026076585054,0.005609692540019751
1772534308567380500,4.10938037109375,-0.0011438713409006596,-0.002318053739145398,-0.0021728631108999252
1772534308577396500,4.119396484375,0.0008074905490502715,-0.0004343809559941292,-0.014640513807535172
1772534308587412500,4.12941259765625,0.0002666025538928807,-0.0003632744774222374,-0.022374598309397697
1772534308597429500,4.139429443359375,0.0025518678594380617,0.0034890524111688137,-0.023452959954738617
1772534308607445500,4.149445556640625,0.0072824410162866116,-0.0034817715641111135,-0.019937321543693542
1772534308617461500,4.15946142578125,0.013184287585318089,-0.005757924169301987,-0.015662670135498047
1772534308627478300,4.169478271484375,0.015549174509942532,-0.005826899781823158,-0.0093381954357028
1772534308637494500,4.17949462890625,0.015191137790679932,-0.0052633583545684814,0.004726356826722622
1772534308647510500,4.189510498046875,0.011646470986306667,-0.008397899568080902,0.015565687790513039
1772534308657527600,4.199527587890625,0.009037619456648827,-0.010286401025950909,0.02446276880800724
1772534308667543300,4.209543212890625,0.004608515650033951,-0.007479429244995117,0.0263309758156538
1772534308677559300,4.219559326171875,0.0009145086514763534,-0.000598867074586451,0.020263701677322388
1772534308687576600,4.22957666015625,-0.0009694114560261369,-0.001283033168874681,0.01551794819533825
1772534308697592600,4.239592529296875,-0.0024205157533288,-0.0011873318580910563,0.009163867682218552
1772534308707608600,4.249608642578125,-0.0026463516987860203,0.0032454996835440397,0.004626906476914883
1772534308717625300,4.259625244140625,-0.004580223001539707,0.005596385337412357,0.003809208981692791
1772534308727641300,4.269641357421875,-0.008483617566525936,0.004753494635224342,0.00906682200729847
1772534308737657600,4.27965771484375,-0.00804272573441267,0.0017728470265865326,0.013493387028574944
1772534308747674400,4.28967431640625,-0.0033012342173606157,-0.00033051776699721813,0.016927266493439674
1772534308757690400,4.2996904296875,0.000023883883841335773,-0.0011858466314151883,0.015597105957567692
1772534308767706400,4.309706298828125,0.006104679778218269,-0.005941986106336117,0.01092592068016529
1772534308777723600,4.3197236328125,0.008359195664525032,-0.0046387468464672565,0.0029658384155482054
1772534308787739400,4.329739501953125,0.008822585456073284,2.1327286958694458e-7,-0.008525967597961426
1772534308797755400,4.33975537109375,0.004150002263486385,0.004150668159127235,-0.017841067165136337
1772534308807772400,4.3497724609375,-0.0015145414508879185,0.004544016905128956,-0.024375932291150093
1772534308817788400,4.359788330078125,-0.006273503415286541,0.005132765043526888,-0.026542507112026215
1772534308827805400,4.369805419921875,-0.007948098704218864,0.0038501867093145847,-0.02488841488957405
1772534308837821400,4.379821533203125,-0.004090306349098682,-0.005118765402585268,-0.02102787420153618
1772534308847837400,4.38983740234375,0.0009236269979737699,-0.012569224461913109,-0.013919898308813572
1772534308857854500,4.3998544921875,0.005432231351733208,-0.008778518997132778,-0.01200549304485321
1772534308867870200,4.4098701171875,0.006140365730971098,-0.005854634568095207,-0.011149553582072258
1772534308877886500,4.419886474609375,0.004072953946888447,-0.0016404481139034033,-0.015470266342163086
1772534308887903500,4.429903564453125,-0.0024254252202808857,0.0026650840882211924,-0.01977313496172428
1772534308897919500,4.43991943359375,-0.010591741651296616,0.003780415980145335,-0.017162438482046127
1772534308907935500,4.449935546875,-0.01580647937953472,0.0027191464323550463,-0.016922220587730408
1772534308917952500,4.459952392578125,-0.023260869085788727,0.001697043888270855,-0.01420213095843792
1772534308927968500,4.469968505859375,-0.025284338742494583,0.0015039648860692978,-0.01318347081542015
1772534308937984500,4.479984619140625,-0.022782737389206886,0.0012046226765960455,-0.01351137924939394
1772534308948001300,4.490001220703125,-0.020079361274838448,0.0003393616061657667,-0.016276538372039795
1772534308958017300,4.500017333984375,-0.015663303434848785,-0.0007964128162711859,-0.021673213690519333
1772534308968033500,4.510033447265625,-0.012455260381102562,0.0006957561708986759,-0.02736864984035492
1772534308978050600,4.520050537109375,-0.013048612512648106,0.0058596255257725716,-0.026197656989097595
1772534308988066600,4.530066650390625,-0.013636105693876743,0.00123264966532588,-0.02484823390841484
1772534308998082300,4.540082275390625,-0.013989339582622051,-0.00046917120926082134,-0.023928793147206306
1772534309008099600,4.550099609375,-0.012919547967612743,0.006110700778663158,-0.02238895371556282
1772534309018115600,4.560115478515625,-0.00962803140282631,0.004781629890203476,-0.022868162021040916
1772534309028131600,4.570131591796875,-0.0022856961004436016,0.0009211115539073944,-0.02162579819560051
1772534309038148400,4.5801484375,0.0025833090767264366,-0.0002803343813866377,-0.021527215838432312
1772534309048164400,4.590164306640625,-0.000010343559551984072,-0.0015083178877830505,-0.021372754126787186
1772534309058180400,4.600180419921875,-0.004000140819698572,-0.0006860462017357349,-0.021894894540309906
1772534309068197400,4.610197265625,-0.010166957043111324,0.0022530180867761374,-0.020065568387508392
1772534309078213400,4.62021337890625,-0.014413505792617798,0.0022487950045615435,-0.023953642696142197
1772534309088229400,4.6302294921875,-0.015414321795105934,0.0008580922149121761,-0.030197955667972565
1772534309098246400,4.640246337890625,-0.01695019006729126,0.0019959446508437395,-0.035105593502521515
1772534309108262700,4.6502626953125,-0.021421637386083603,0.008143852464854717,-0.038543470203876495
1772534309118278400,4.6602783203125,-0.025190750136971474,0.013120393268764019,-0.04236066713929176
1772534309128295400,4.67029541015625,-0.02685549296438694,0.011629555374383926,-0.04346800968050957
1772534309138311400,4.6803115234375,-0.02871319279074669,0.01080954261124134,-0.03338376432657242
1772534309148327400,4.690327392578125,-0.026745382696390152,0.008470220491290092,-0.021504731848835945
1772534309158344400,4.700344482421875,-0.021484944969415665,0.0009226344991475344,-0.015559934079647064
1772534309168360400,4.7103603515625,-0.014525572769343853,-0.01017875224351883,-0.01637725904583931
1772534309178376400,4.72037646484375,-0.007154707331210375,-0.013251465745270252,-0.019556595012545586
1772534309188393500,4.7303935546875,-0.004578365013003349,-0.013265048153698444,-0.02704966627061367
1772534309198409500,4.740409423828125,-0.00635526143014431,-0.010751863941550255,-0.03486385941505432
1772534309208425500,4.750425537109375,-0.008198967203497887,-0.0156592708081007,-0.04199820011854172
1772534309218442500,4.7604423828125,-0.010358781553804874,-0.019662735983729362,-0.04730992764234543
1772534309228458500,4.77045849609375,-0.0053845299407839775,-0.01959189586341381,-0.0497315414249897
1772534309238474500,4.780474609375,-0.005582503043115139,-0.02123406156897545,-0.05635176971554756
1772534309248491500,4.790491455078125,-0.007873620837926865,-0.014759385026991367,-0.06382806599140167
1772534309258507500,4.800507568359375,-0.007866697385907173,-0.0076355524361133575,-0.06862418353557587
1772534309268523500,4.8105234375,-0.011745591647922993,-0.004777447786182165,-0.06870567798614502
1772534309278540300,4.820540283203125,-0.010946509428322315,-0.007969757542014122,-0.06493443250656128
1772534309288556300,4.830556396484375,-0.012224027886986732,-0.014025519602000713,-0.05399417132139206
1772534309298572500,4.840572509765625,-0.009657532908022404,-0.021182967349886894,-0.039390504360198975
1772534309308589600,4.850589599609375,-0.008937681093811989,-0.029359936714172363,-0.027229180559515953
1772534309318605300,4.860605224609375,-0.010348265990614891,-0.03224041685461998,-0.020260822027921677
1772534309328621300,4.870621337890625,-0.014493209309875965,-0.02416810765862465,-0.019266396760940552
1772534309338638600,4.880638671875,-0.02002672664821148,-0.014700571075081825,-0.022425172850489616
1772534309348654600,4.890654541015625,-0.022243808954954147,-0.008331621065735817,-0.024042509496212006
1772534309358670600,4.900670654296875,-0.02565157786011696,-0.005881712771952152,-0.023263588547706604
1772534309368687400,4.910687255859375,-0.030201589688658714,-0.006002886686474085,-0.014047186821699142
1772534309378703400,4.920703369140625,-0.03203163668513298,-0.008609786629676819,-0.003690999001264572
1772534309388719400,4.93071923828125,-0.030563436448574066,-0.00988304428756237,-0.0019727274775505066
1772534309398736100,4.940736083984375,-0.027799520641565323,-0.014231051318347454,-0.00710234185680747
1772534309408752400,4.95075244140625,-0.02200794406235218,-0.009332699701189995,-0.01385132409632206
1772534309418768400,4.960768310546875,-0.016263071447610855,-0.005575572140514851,-0.018086962401866913
1772534309428785400,4.970785400390625,-0.013078729622066021,-0.008725825697183609,-0.012620826251804829
1772534309438801400,4.980801513671875,-0.012282965704798698,-0.01060129888355732,0.00941335130482912
1772534309448817200,4.990817138671875,-0.007323893252760172,-0.029876193031668663,0.028787314891815186
1772534309458834400,5.00083447265625,-0.004448894876986742,-0.048140306025743484,0.04539547860622406
1772534309468850400,5.010850341796875,-0.003155930433422327,-0.03794226050376892,0.043382130563259125
1772534309478866400,5.020866455078125,-0.003928096499294043,-0.016911126673221588,0.029258161783218384
1772534309488882200,5.030882080078125,-0.009631256572902203,-0.0062606120482087135,0.011587556451559067
1772534309498899200,5.040899169921875,-0.016621850430965424,0.0030106317717581987,-0.011622097343206406
1772534309508915500,5.05091552734375,-0.019361179322004318,0.012770051136612892,-0.028322512283921242
1772534309518932200,5.06093212890625,-0.018901199102401733,0.011888372711837292,-0.032305046916007996
1772534309528948200,5.0709482421875,-0.013869421556591988,0.004321533255279064,-0.029599010944366455
1772534309538964200,5.080964111328125,-0.006121097132563591,-0.0043745748698711395,-0.02478816546499729
1772534309548980200,5.090980224609375,-0.00014522962737828493,-0.010469751432538033,-0.014797583222389221
1772534309558997500,5.10099755859375,0.006949900649487972,-0.01989043690264225,0.00541187496855855
1772534309569013200,5.11101318359375,0.01289301086217165,-0.028445309028029442,0.022037191316485405
1772534309579029200,5.121029296875,0.016163868829607964,-0.03418393060564995,0.033551160246133804
1772534309589046300,5.13104638671875,0.012024249881505966,-0.034155167639255524,0.04183731973171234
1772534309599062300,5.141062255859375,0.0014030560851097107,-0.03319338336586952,0.04728930443525314
1772534309609078500,5.15107861328125,-0.007728390395641327,-0.020707152783870697,0.04774124175310135
1772534309619095300,5.16109521484375,-0.014505969360470772,-0.012263662181794643,0.043448612093925476
1772534309629111300,5.171111328125,-0.015432216227054596,-0.010373084805905819,0.03926292061805725
1772534309639127300,5.181127197265625,-0.010947543196380138,-0.008542687632143497,0.03406316414475441
1772534309649144300,5.191144287109375,-0.003810538211837411,-0.010792792774736881,0.03441043943166733
1772534309659160300,5.201160400390625,0.006018719635903835,-0.015714295208454132,0.02971176616847515
1772534309669176300,5.21117626953125,0.007594779133796692,-0.023540262132883072,0.02235638163983822
1772534309679193300,5.221193359375,0.00808953121304512,-0.019464312121272087,0.019335351884365082
1772534309689209300,5.231209228515625,0.008939079008996487,-0.0065349312499165535,0.01168355718255043
1772534309699225300,5.241225341796875,0.00985381193459034,-0.015198744833469391,0.013676729053258896
1772534309709242400,5.251242431640625,0.011821622028946877,-0.012540910392999649,0.012906275689601898
1772534309719258400,5.26125830078125,0.017756642773747444,-0.012593436054885387,0.007497782818973064
1772534309729274400,5.2712744140625,0.01339145377278328,-0.010623496025800705,0.001440956024453044
1772534309739291400,5.28129150390625,0.0075136031955480576,-0.0020801499485969543,0.001942942850291729
1772534309749307400,5.291307373046875,0.004766019992530346,0.002320989966392517,0.005175221711397171
1772534309759323400,5.301323486328125,0.002989273751154542,0.001469956012442708,0.012816524133086205
1772534309770592300,5.31259228515625,0.00952866580337286,-0.003740252461284399,0.02567186951637268
1772534309780608500,5.3226083984375,0.016744956374168396,-0.002949361689388752,0.03666225075721741
1772534309790624300,5.332624267578125,0.016572916880249977,-0.00513262115418911,0.04126126319169998
1772534309800641300,5.342641357421875,0.01414505299180746,-0.001819029450416565,0.04731158912181854
1772534309810657300,5.3526572265625,0.005738252308219671,0.0011828856077045202,0.04623381048440933
1772534309820673300,5.36267333984375,-0.005042629316449165,0.0020380644127726555,0.04319634661078453
1772534309830690300,5.372690185546875,-0.012032096274197102,0.002415167633444071,0.03411150723695755
1772534309840706300,5.382706298828125,-0.017950817942619324,0.006287558004260063,0.025926653295755386
1772534309850722300,5.392722412109375,-0.02003740519285202,0.010363792069256306,0.01896834559738636
1772534309860739300,5.4027392578125,-0.016940554603934288,0.005450829863548279,0.01938207820057869
1772534309870755300,5.41275537109375,-0.011385468766093254,-0.0013024135259911418,0.020678237080574036
1772534309880771300,5.422771240234375,-0.00762060796841979,-0.0012242099037393928,0.020423416048288345
1772534309890788400,5.432788330078125,-0.007886125706136227,0.0012695740442723036,0.02111610397696495
1772534309900804400,5.442804443359375,-0.005722357891499996,0.007188356481492519,0.0203827116638422
1772534309910820400,5.4528203125,-0.002971312729641795,0.002965648425742984,0.012390831485390663
1772534309920837400,5.46283740234375,0.005142936948686838,0.0023681982420384884,0.004872635938227177
1772534309930853400,5.472853271484375,0.012373685836791992,0.0037826034240424633,-0.005102500319480896
1772534309940869400,5.482869384765625,0.01323617808520794,0.007265706546604633,-0.015156680718064308
1772534309950886100,5.49288623046875,0.01173894852399826,0.011774971149861813,-0.019891779869794846
1772534309960902100,5.502902099609375,0.011447345837950706,0.008473643101751804,-0.01925770193338394
1772534309970918400,5.51291845703125,0.011303801089525223,-0.0022415858693420887,-0.019331205636262894
1772534309980935400,5.522935302734375,0.010230585001409054,0.005520895589143038,-0.018669696524739265
1772534309990951400,5.532951416015625,0.0093312356621027,0.008841058239340782,-0.017874477431178093
1772534310000967200,5.54296728515625,0.014976059086620808,0.004710569977760315,-0.014262678101658821
1772534310010984400,5.552984375,0.0198280718177557,0.0015509959775954485,-0.014211012050509453
1772534310021000400,5.56300048828125,0.026798592880368233,0.00014041922986507416,-0.011361142620444298
1772534310031016400,5.573016357421875,0.029473472386598587,0.005284048616886139,-0.015114068984985352
1772534310041033200,5.583033203125,0.02280081994831562,0.0037862241733819246,-0.019307095557451248
1772534310051049200,5.59304931640625,0.01359480433166027,0.007215043529868126,-0.023455500602722168
1772534310061065500,5.6030654296875,-0.001410673838108778,0.01468113623559475,-0.0187377966940403
1772534310071082200,5.613082275390625,-0.01082441583275795,0.01607130654156208,-0.015009637922048569
1772534310081098200,5.62309814453125,-0.012037930078804493,0.012687629088759422,-0.012726610526442528
1772534310091114200,5.6331142578125,-0.004196784924715757,0.009137369692325592,-0.011736446991562843
1772534310101131500,5.643131591796875,0.00027660251362249255,0.004910876974463463,-0.012677689082920551
1772534310111147500,5.6531474609375,0.006784302648156881,0.0025672956835478544,-0.008721030317246914
1772534310121163300,5.663163330078125,0.009000827558338642,-0.0008358090417459607,-0.004470320418477058
1772534310131180300,5.67318017578125,0.007139277644455433,-0.004473154433071613,0.0027060993015766144
1772534310141196300,5.6831962890625,0.004980277270078659,-0.002638918114826083,0.004568143747746944
1772534310151212300,5.69321240234375,0.0036628118250519037,0.00411219522356987,-0.00254356162622571
1772534310161229300,5.703229248046875,0.004663453437387943,0.0036083406303077936,-0.010569674894213676
1772534310171245300,5.713245361328125,0.006966022774577141,0.009002573788166046,-0.023011431097984314
1772534310181261300,5.72326123046875,0.005798340775072575,0.007038051728159189,-0.032165542244911194
1772534310191278300,5.7332783203125,0.002800953108817339,0.007457765284925699,-0.03293759375810623
1772534310201294300,5.74329443359375,-0.0010109723079949617,0.008120804093778133,-0.02874433621764183
1772534310211310300,5.753310302734375,-0.0015076519921422005,-0.001532089663669467,-0.021491482853889465
1772534310221326300,5.763326416015625,0.0038815720472484827,-0.007254986558109522,-0.01936582662165165
1772534310231343400,5.77334326171875,0.010036936029791832,-0.006970827467739582,-0.022839654237031937
1772534310241359400,5.783359375,0.012128062546253204,-0.0012580320471897721,-0.027588851749897003
1772534310251375400,5.793375244140625,0.012301966547966003,0.008210304193198681,-0.030312199145555496
1772534310261392400,5.803392333984375,0.009509933181107044,0.011677591130137444,-0.02549511194229126
1772534310271408400,5.813408447265625,0.006666210480034351,0.010794753208756447,-0.014286933466792107
1772534310281424400,5.82342431640625,0.006990837398916483,0.004210428334772587,0.0031304266303777695
1772534310291441400,5.83344140625,0.011193305253982544,0.00021621957421302795,0.012392101809382439
1772534310301457400,5.84345751953125,0.011798134073615074,0.00614879559725523,0.01313827931880951
1772534310311473400,5.853473388671875,0.013528123497962952,0.010527565144002438,0.01049003191292286
1772534310321490200,5.863490234375,0.00948517955839634,0.012783261947333813,0.008375216275453568
1772534310331506200,5.873506103515625,0.007204981055110693,0.01676894910633564,0.010507875122129917
1772534310341522200,5.883522216796875,0.003635610919445753,0.020102569833397865,0.014498862437903881
1772534310351539500,5.89353955078125,0.0027357288636267185,0.02241765521466732,0.023030299693346024
1772534310361555500,5.903555419921875,0.0013886750675737858,0.008977771736681461,0.03599590063095093
1772534310371571200,5.9135712890625,0.005455854814499617,0.00021171057596802711,0.03957119584083557
1772534310381589000,5.923589111328125,0.0036164605990052223,0.00005068257451057434,0.03267116844654083
1772534310391605000,5.93360498046875,-0.0018046702025458217,-0.0008886143332347274,0.030807223170995712
1772534310401621000,5.94362109375,-0.009079715237021446,0.0046615442261099815,0.019503269344568253
1772534310411638000,5.953637939453125,-0.013884324580430984,0.002187734004110098,0.007538752164691687
1772534310421654000,5.963654052734375,-0.016209149733185768,0.0019192739855498075,-0.002038646023720503
1772534310431670000,5.973669921875,-0.012543043121695518,0.0002771688159555197,-0.013894505798816681
1772534310441686800,5.983686767578125,-0.011166603304445744,0.003743510926142335,-0.024818867444992065
1772534310451702800,5.993702880859375,-0.00792340561747551,-0.0023005332332104445,-0.027879903092980385
1772534310461719000,6.003718994140625,-0.005655576474964619,0.0005338974297046661,-0.026690995320677757
1772534310471736000,6.013736083984375,-0.008202889934182167,-0.0008405599510297179,-0.018616557121276855
1772534310481751800,6.023751708984375,-0.007565265521407127,-0.004612908698618412,-0.0016038133762776852
1772534310491767800,6.033767822265625,-0.00803025346249342,-0.005334625486284494,0.01332986168563366
1772534310501785000,6.04378515625,-0.005397477187216282,-0.008518818765878677,0.023799318820238113
1772534310511801000,6.053801025390625,-0.0019809079822152853,-0.0089542455971241,0.02661428228020668
1772534310521817000,6.063817138671875,-0.0025205276906490326,-0.0040372698567807674,0.025900349020957947
1772534310531833900,6.073833740234375,-0.007210620678961277,-0.0009376165689900517,0.02105259709060192
1772534310541849900,6.083849853515625,-0.010231089778244495,0.0035238468553870916,0.014728289097547531
1772534310551866000,6.0938662109375,-0.008205755613744259,-0.0007017905591055751,0.006548655219376087
1772534310561883000,6.1038828125,-0.0028628199361264706,-0.0027948489878326654,-0.001355691347271204
1772534310571899000,6.11389892578125,0.0027564498595893383,-0.0034103053621947765,-0.008758480660617352
1772534310581915000,6.123914794921875,0.012129000388085842,-0.00036244792863726616,-0.017679639160633087
1772534310591931000,6.133930908203125,0.016271281987428665,-0.004365445114672184,-0.026068061590194702
1772534310601948000,6.143947998046875,0.015049093402922153,0.00349432323127985,-0.03275812789797783
1772534310611964000,6.1539638671875,0.009223162196576595,0.013026841916143894,-0.030491774901747704
1772534310621980000,6.16397998046875,-0.00022365344921126962,0.004990127868950367,-0.014510905370116234
1772534310631997000,6.173996826171875,-0.0048112147487699986,-0.009255653247237206,0.014261353760957718
1772534310642013000,6.184012939453125,-0.00660344585776329,-0.01664997637271881,0.036189474165439606
1772534310652029000,6.19402880859375,-0.007418905850499868,-0.015156741254031658,0.04550255089998245
1772534310662046000,6.2040458984375,-0.006739330478012562,-0.006132638081908226,0.04042263329029083
1772534310672062000,6.21406201171875,-0.004997889045625925,-0.0038207480683922768,0.03119983710348606
1772534310682078000,6.224077880859375,-0.009130963124334812,0.0037359832786023617,0.025783374905586243
1772534310692095000,6.234094970703125,-0.012376823462545872,0.01101919636130333,0.0252869613468647
1772534310702111000,6.244111083984375,-0.015276446007192135,0.009990926831960678,0.021319910883903503
1772534310712127000,6.254126953125,-0.013598653487861156,0.009352033957839012,0.017825843766331673
1772534310722144000,6.26414404296875,-0.006065624766051769,0.004645088221877813,0.013796994462609291
1772534310732159700,6.27415966796875,0.003863438731059432,-0.000159786781296134,0.005025074817240238
1772534310742176000,6.284176025390625,0.012490949593484402,0.00011916924268007278,0.0031358557753264904
1772534310752193000,6.294193115234375,0.018196240067481995,-0.0037991395220160484,-0.003453337587416172
1772534310762209000,6.304208984375,0.01502993144094944,0.001205528387799859,-0.010583071038126945
1772534310772225000,6.31422509765625,0.011163021437823772,0.004267098382115364,-0.012325575575232506
1772534310782242000,6.324241943359375,0.00394253246486187,0.0014419800136238337,-0.006670497357845306
1772534310792258000,6.334258056640625,0.004911656957119703,-0.002470203675329685,0.005774454679340124
1772534310802274000,6.344274169921875,0.008959256112575531,-0.005007093772292137,0.015003781765699387
1772534310812290800,6.354290771484375,0.008965647779405117,-0.003653142601251602,0.021437713876366615
1772534310822306800,6.364306884765625,0.005205441731959581,0.006053943186998367,0.02148441970348358
1772534310832322800,6.37432275390625,-0.0036210729740560055,0.013751810416579247,0.019694775342941284
1772534310842340000,6.384340087890625,-0.010404689237475395,0.014168545603752136,0.020261211320757866
1772534310852355800,6.39435595703125,-0.01395468320697546,0.01006967481225729,0.02335207536816597
1772534310862371800,6.404371826171875,-0.012098726816475391,0.0032234867103397846,0.03310403972864151
1772534310872388900,6.414388916015625,-0.007476010825484991,0.000634095398709178,0.04085889458656311
1772534310882405000,6.424405029296875,-0.002411807421594858,0.002687230706214905,0.04537412151694298
1772534310892421000,6.434421142578125,0.0029920125380158424,0.0005215480923652649,0.03853805363178253
1772534310902436900,6.444436767578125,0.004109842237085104,0.0036979620344936848,0.023044992238283157
1772534310912454000,6.454453857421875,0.0063333152793347836,0.0024912836961448193,0.014713825657963753
1772534310922470000,6.464469970703125,0.012636560946702957,0.0006121017504483461,0.008669966831803322
1772534310932486100,6.474486083984375,0.020885704085230827,0.0001737454440444708,-0.00051900465041399
1772534310942503000,6.4845029296875,0.028121018782258034,0.00007738382555544376,-0.008956227451562881
1772534310952519000,6.494518798828125,0.03447479009628296,0.0077097369357943535,-0.014369634911417961
1772534310962535000,6.504534912109375,0.037512004375457764,0.00703889736905694,-0.013686390593647957
1772534310972552000,6.514552001953125,0.0393780842423439,0.0007959154900163412,-0.004717130679637194
1772534310982568000,6.52456787109375,0.036361344158649445,0.0006739369127899408,0.003847530111670494
1772534310992584000,6.534583984375,0.02820994146168232,0.0020364101510494947,0.013886582106351852
1772534311002601000,6.54460107421875,0.02536255307495594,-0.0024553826078772545,0.027786055579781532
1772534311012617000,6.554616943359375,0.023936696350574493,-0.003879907540977001,0.034837838262319565
1772534311022633000,6.564633056640625,0.024285761639475822,-0.0018345443531870842,0.03527068346738815
1772534311032650000,6.57464990234375,0.02281942404806614,-0.0009152210550382733,0.030756892636418343
1772534311042666000,6.584666015625,0.020467344671487808,0.002066961955279112,0.02490752376616001
1772534311052682000,6.594681884765625,0.021946730092167854,-0.0031477739103138447,0.0227865818887949
1772534311062698800,6.60469873046875,0.016892829909920692,-0.0000253128819167614,0.017798971384763718
1772534311072715000,6.614715087890625,0.011972373351454735,0.0025459693279117346,0.011472899466753006
1772534311082731000,6.62473095703125,0.008860035799443722,0.00716300867497921,0.00532517908141017
1772534311092748000,6.634748046875,0.00684908265247941,0.002634836360812187,0.005766464862972498
1772534311102763800,6.644763671875,0.006217950023710728,-0.000517914304509759,0.00842161662876606
1772534311112779800,6.65477978515625,0.006621418986469507,-0.00011710845865309238,0.009253853932023048
1772534311122797000,6.664797119140625,0.00750149367377162,-0.0025626076385378838,0.0104574179276824
1772534311132813000,6.67481298828125,0.007585915736854076,-0.004689141642302275,0.009903213940560818
1772534311142829000,6.6848291015625,0.008829458616673946,-0.003729493822902441,0.0027378774248063564
1772534311152844800,6.6948447265625,0.010019092820584774,0.002817620988935232,-0.004575162660330534
1772534311162862000,6.704862060546875,0.012640771456062794,0.003909801598638296,-0.009277300909161568
1772534311172878000,6.714878173828125,0.019373776391148567,-0.003096176078543067,-0.007317214738577604
1772534311182894000,6.72489404296875,0.021072380244731903,-0.011052324436604977,-0.0023566074669361115
1772534311192910800,6.734910888671875,0.018488047644495964,-0.011870713904500008,0.0035241846926510334
1772534311202926800,6.7449267578125,0.010877353139221668,-0.0063720932230353355,-0.0017638476565480232
1772534311212942800,6.75494287109375,0.000884640438016504,-0.008655487559735775,-0.010459335520863533
1772534311222959900,6.7649599609375,-0.005533754359930754,-0.008552818559110165,-0.017565816640853882
1772534311232976000,6.774975830078125,-0.013358919881284237,-0.0023322072811424732,-0.024156341329216957
1772534311242991900,6.784991943359375,-0.01654043421149254,0.002317874925211072,-0.03128470480442047
1772534311253009000,6.7950087890625,-0.017905304208397865,0.000896812416613102,-0.03522671386599541
1772534311263025200,6.805025146484375,-0.01753346435725689,-0.004442540928721428,-0.026377888396382332
1772534311273041000,6.815041015625,-0.01380876824259758,-0.006905431859195232,-0.012086302042007446
1772534311283058000,6.825057861328125,-0.013893972150981426,-0.0104982303455472,-0.006230074446648359
1772534311293074000,6.835073974609375,-0.013469730503857136,-0.007970091886818409,-0.00901627354323864
1772534311303090000,6.84508984375,-0.01472316775470972,-0.004220250993967056,-0.013636158779263496
1772534311313107000,6.85510693359375,-0.01614130102097988,-0.00100048934109509,-0.014972534030675888
1772534311323123000,6.865123046875,-0.016581561416387558,0.005208891816437244,-0.009738028049468994
1772534311333139000,6.875138916015625,-0.015918700024485588,0.0041353716515004635,-0.0025554830208420753
1772534311343156000,6.885156005859375,-0.010903219692409039,0.0012585329823195934,0.010956638492643833
1772534311353172000,6.895171875,0.003158803330734372,-0.009057221934199333,0.02402769960463047
1772534311363188000,6.90518798828125,0.012341545894742012,-0.015562055632472038,0.03305061161518097
1772534311373205000,6.915205078125,0.017430048435926437,-0.010176344774663448,0.03378484398126602
1772534311383220700,6.925220703125,0.016561605036258698,-0.004544366151094437,0.020770223811268806
1772534311393236700,6.93523681640625,0.015265709720551968,-0.003332361578941345,0.00526849552989006
1772534311403252500,6.94525244140625,0.019539285451173782,-0.0007115446496754885,-0.006998024880886078
1772534311413269800,6.955269775390625,0.021433591842651367,-0.000772531027905643,-0.014442890882492065
1772534311423285800,6.96528564453125,0.021210508421063423,-0.0038235774263739586,-0.022799460217356682
1772534311433301800,6.9753017578125,0.021456051617860794,-0.001950576202943921,-0.028900763019919395
1772534311443318500,6.985318603515625,0.015026738867163658,0.002260817913338542,-0.029193013906478882
1772534311453334800,6.995334716796875,0.011477543972432613,-0.000031365081667900085,-0.023932473734021187
1772534311463350800,7.005350830078125,0.0046912627294659615,-0.0030949919018894434,-0.018641283735632896
1772534311473367800,7.015367919921875,0.007164007984101772,-0.002855840139091015,-0.011296818032860756
1772534311483383600,7.025383544921875,0.008519517257809639,-0.011354831047356129,0.00011968286707997322
1772534311493399600,7.035399658203125,0.012865529395639896,-0.013881904073059559,0.009474569000303745
1772534311503416800,7.045416748046875,0.010061094537377357,-0.012549562379717827,0.015324325300753117
1772534311513432800,7.055432861328125,0.004851951729506254,-0.01030718069523573,0.015111272223293781
1772534311523448800,7.06544873046875,0.0026445970870554447,-0.009640095755457878,0.011667395010590553
1772534311533465600,7.075465576171875,0.0007518883794546127,-0.007759904023259878,0.009142451919615269
1772534311543481600,7.085481689453125,-0.0005857274518348277,-0.0006059831939637661,0.0016530072316527367
1772534311553497900,7.095497802734375,0.0018068563658744097,0.0024004592560231686,-0.005304767284542322
1772534311563513900,7.105513916015625,0.004778601229190826,-0.0022714687511324883,-0.010683204978704453
1772534311573530600,7.115530517578125,0.007714203558862209,-0.002305823378264904,-0.0159623883664608
1772534311583546600,7.125546630859375,0.009300459176301956,-0.0005284852813929319,-0.022021429613232613
1772534311593562600,7.135562744140625,0.006835170555859804,0.001116549363359809,-0.021113557741045952
1772534311603579600,7.14557958984375,0.00925404392182827,0.0011866458225995302,-0.027067769318819046
1772534311613595600,7.155595703125,0.01115420926362276,0.003997878637164831,-0.03245534747838974
1772534311623611600,7.165611572265625,0.019343746826052666,0.004387325141578913,-0.027806038036942482
1772534311633628700,7.175628662109375,0.029342850670218468,-0.005484480410814285,-0.014337101951241493
1772534311643645000,7.18564501953125,0.03695206344127655,-0.01406559906899929,0.00236593559384346
1772534311653660700,7.19566064453125,0.03587295114994049,-0.0055754417553544044,0.008973238058388233
1772534311663677700,7.205677734375,0.02429179847240448,0.0007849489338696003,0.008536869660019875
1772534311673693700,7.215693603515625,0.013016773387789726,0.009350208565592766,0.003350362880155444
1772534311683709700,7.225709716796875,0.0009840774582698941,0.017047131434082985,0.00025101681239902973
1772534311693726700,7.235726806640625,-0.0053979214280843735,0.02122643031179905,-0.0023919041268527508
1772534311703742700,7.24574267578125,-0.0065050311386585236,0.02875463292002678,-0.010129474103450775
1772534311713758700,7.2557587890625,-0.004086880944669247,0.03226681053638458,-0.020610345527529716
1772534311723775700,7.265775634765625,0.004721510224044323,0.03235769644379616,-0.028089279308915138
1772534311733791500,7.27579150390625,0.02249331772327423,0.02249041758477688,-0.03488113731145859
1772534311743807700,7.285807861328125,0.0442701131105423,0.013190429657697678,-0.0426558256149292
1772534311753823700,7.29582373046875,0.05830923095345497,0.031294334679841995,-0.05835223197937012
1772534311763840800,7.3058408203125,0.05739274621009827,0.03451555594801903,-0.06904818117618561
1772534311773856500,7.3158564453125,0.050950292497873306,0.018319807946681976,-0.07939189672470093
1772534311783872500,7.32587255859375,0.042692989110946655,0.0302442479878664,-0.08150576055049896
1772534311793889800,7.335889892578125,0.03129172697663307,0.025096891447901726,-0.07408566027879715
1772534311803905800,7.34590576171875,0.023235714063048363,0.017675673589110374,-0.05830083414912224
1772534311813921800,7.355921875,0.02309936098754406,0.007534090429544449,-0.04295489937067032
1772534311823938600,7.3659384765625,0.022274529561400414,-0.004620257765054703,-0.028387941420078278
1772534311833954800,7.375954833984375,0.020653730258345604,-0.007769712246954441,-0.01426040381193161
1772534311843970800,7.385970703125,0.020000802353024483,-0.014891060069203377,0.002678015735000372
1772534311853987600,7.395987548828125,0.016477705910801888,-0.020409662276506424,0.015887293964624405
1772534311864003600,7.406003662109375,0.006982141640037298,-0.010486208833754063,0.020019516348838806
1772534311874019600,7.41601953125,-0.007148590870201588,0.0017422272358089685,0.02220810204744339
1772534311884036900,7.426036865234375,-0.02137570269405842,0.011259153485298157,0.021469829604029655
1772534311894052900,7.436052978515625,-0.03192181885242462,0.010940372943878174,0.02234041690826416
1772534311904068600,7.446068603515625,-0.0309359859675169,0.005993918050080538,0.02055380865931511
1772534311914084600,7.456084716796875,-0.02546585351228714,0.004336100071668625,0.011850865557789803
1772534311924101600,7.4661015625,-0.01607360690832138,0.0015836679376661777,0.00213876785710454
1772534311934118000,7.476117919921875,-0.005959720350801945,-0.0006097116274759173,-0.0041023497469723225
1772534311944133600,7.486133544921875,0.0023029898293316364,0.004181921482086182,-0.004356128163635731
1772534311954150700,7.496150634765625,0.006168834399431944,0.002132086083292961,0.00013742316514253616
1772534311964166700,7.506166748046875,0.006246261298656464,0.0024800975807011127,0.008027873933315277
1772534311974182700,7.5161826171875,0.007108858786523342,-0.007122994866222143,0.012742200866341591
1772534311984199700,7.52619970703125,0.008742098696529865,-0.01095256581902504,0.016722112894058228
1772534311994215700,7.536215576171875,0.0073564560152590275,-0.008089668117463589,0.01750881038606167
1772534312004231700,7.546231689453125,0.003596135415136814,-0.00504192803055048,0.014882605522871017
1772534312014248700,7.556248779296875,0.002135924296453595,-0.003437373321503401,0.013260208070278168
1772534312024264700,7.5662646484375,-0.0022059581242501736,0.0009057929273694754,0.010900814086198807
1772534312034280700,7.57628076171875,-0.002941789571195841,-0.0006183340447023511,0.01215942483395338
1772534312044297700,7.586297607421875,-0.002506687305867672,-0.004292835481464863,0.015218880027532578
1772534312054313700,7.596313720703125,-0.0023532891646027565,-0.008265739306807518,0.014293964020907879
1772534312064329700,7.606329833984375,0.00011412467574700713,-0.009877098724246025,0.012561356648802757
1772534312074345500,7.616345458984375,-0.0016960259526968002,-0.0005829323781654239,0.009798061102628708
1772534312084362800,7.62636279296875,-0.009297467768192291,0.010867934674024582,0.00451454846188426
1772534312094378800,7.636378662109375,-0.00913927610963583,0.015298102051019669,-0.00005410471931099892
1772534312104394800,7.646394775390625,-0.0006769971223548055,0.007847900502383709,-0.005973302759230137
1772534312114411500,7.65641162109375,0.008162833750247955,0.0031897653825581074,-0.008887067437171936
1772534312124427800,7.666427734375,0.014060607179999352,0.0068611809983849525,-0.006069381721317768
1772534312134443800,7.67644384765625,0.016679558902978897,0.0015263361856341362,-0.0010093753226101398
1772534312144460800,7.686460693359375,0.016985081136226654,-0.0014188798377290368,0.0020363936200737953
1772534312154476500,7.6964765625,0.01532752811908722,-0.003085486125200987,0.0067906687036156654
1772534312164492500,7.706492431640625,0.010895167477428913,-0.006943891756236553,0.009866414591670036
1772534312174509800,7.716509765625,0.008186732418835163,-0.007644835859537125,0.016665996983647346
1772534312184525800,7.72652587890625,0.00459179375320673,-0.004378451034426689,0.01358519122004509
1772534312194541600,7.73654150390625,0.004910307936370373,0.0009289628360420465,0.003467310220003128
1772534312204557600,7.7465576171875,0.0054447343572974205,0.0013136232737451792,-0.007748217787593603
1772534312214574800,7.756574951171875,0.009751864708960056,-0.0036603626795113087,-0.012945376336574554
1772534312224590800,7.7665908203125,0.011675444431602955,-0.007256667595356703,-0.011561335064470768
1772534312234606800,7.77660693359375,0.01113855093717575,-0.01029400248080492,-0.007338094525039196
1772534312244623600,7.78662353515625,0.007821682840585709,-0.010031497105956078,0.00020017079077661037
1772534312254639600,7.7966396484375,0.004073815885931253,-0.010317254811525345,0.008978215977549553
1772534312264655600,7.806655517578125,0.0017246778588742018,-0.00945848599076271,0.012734850868582726
1772534312274672600,7.816672607421875,0.003177165985107422,-0.011823905631899834,0.012363340705633163
1772534312284688600,7.826688720703125,0.00024113443214446306,-0.009911426343023777,0.012504097074270248
1772534312294704600,7.83670458984375,-0.0055962479673326015,-0.006627216003835201,0.013312101364135742
1772534312304721700,7.8467216796875,-0.012427369132637978,-0.0006543883355334401,0.014125797897577286
1772534312314738000,7.856738037109375,-0.016095872968435287,-0.009068645536899567,0.013695962727069855
1772534312324753700,7.866753662109375,-0.013485176488757133,-0.02195807918906212,0.01992456428706646
1772534312334770700,7.876770751953125,-0.009332509711384773,-0.02767348848283291,0.02972659468650818
1772534312344786700,7.88678662109375,-0.00336126028560102,-0.03072188049554825,0.03168012946844101
1772534312354802700,7.896802734375,-0.001698382431641221,-0.038491390645504,0.030676381662487984
1772534312364818700,7.906818603515625,0.0013691512867808342,-0.026925213634967804,0.027341976761817932
1772534312374835700,7.916835693359375,0.0017041770042851567,-0.024636492133140564,0.02583542838692665
1772534312384852000,7.92685205078125,-0.0011159414425492287,-0.020595861598849297,0.0293175857514143
1772534312394868000,7.936867919921875,0.0029437814373522997,-0.022996967658400536,0.029827049002051353
1772534312404884700,7.946884765625,0.00559704564511776,-0.015112193301320076,0.02991553395986557
1772534312414900700,7.956900634765625,0.007787229493260384,-0.017062958329916,0.019359029829502106
1772534312424916700,7.966916748046875,0.00733189145103097,-0.012662068009376526,0.013332236558198929
1772534312434934000,7.97693408203125,0.006009632255882025,-0.00573305506259203,0.013424914330244064
1772534312444949800,7.98694970703125,0.0016428329981863499,-0.008349536918103695,0.019574707373976707
1772534312454965800,7.9969658203125,0.0023581581190228462,-0.010587125085294247,0.022732948884367943
1772534312464982800,8.006982666015626,0.004006402567028999,-0.0070041813887655735,0.020699070766568184
1772534312474998800,8.016998779296875,0.002793598920106888,-0.005453422665596008,0.01604439876973629
1772534312485015000,8.02701513671875,0.0005386325647123158,-0.006781336385756731,0.012110142037272453
1772534312495030800,8.03703076171875,-0.0012941547902300954,-0.0008699179161339998,0.0029853535816073418
1772534312505047800,8.0470478515625,-0.006151116918772459,0.0029305219650268555,-0.00667323125526309
1772534312515063800,8.057063720703125,-0.010786082595586777,0.0008138415869325399,-0.007596815470606089
1772534312525079800,8.067079833984375,-0.010243058204650879,-0.004173149820417166,0.0028848815709352493
1772534312535096800,8.077096923828124,-0.005561486817896366,-0.014244958758354187,0.01985827274620533
1772534312545112800,8.08711279296875,-0.004128593951463699,-0.02163431979715824,0.0292266383767128
1772534312555128800,8.09712890625,-0.0034079423639923334,-0.017398297786712646,0.030992846935987473
1772534312565145900,8.107145751953125,-0.006527379620820284,-0.014491401612758636,0.02283167466521263
1772534312575161900,8.117161865234374,-0.008597454987466335,-0.008110200986266136,0.013571063056588173
1772534312585177900,8.127177734375,-0.008690077811479568,-0.0068068779073655605,0.007481392938643694
1772534312595193900,8.13719384765625,-0.005007458850741386,-0.012780880555510521,0.0032941047102212906
1772534312605211000,8.1472109375,0.002454523928463459,-0.016022950410842896,-0.002032254356890917
1772534312615226600,8.1572265625,0.009253308176994324,-0.019823012873530388,-0.010801510885357857
1772534312625242600,8.16724267578125,0.012982524000108242,-0.019123446196317673,-0.019344955682754517
1772534312635260000,8.177260009765625,0.01399479154497385,-0.01807842217385769,-0.03080107644200325
1772534312645276000,8.18727587890625,0.012637000530958176,-0.010571081191301346,-0.03934013471007347
1772534312655292000,8.1972919921875,0.004599580075591803,-0.002737392671406269,-0.044368717819452286
1772534312665308700,8.20730859375,-0.0024209613911807537,-0.003794145304709673,-0.04007522389292717
1772534312675325000,8.217324951171875,-0.013552974909543991,-0.0037014672998338938,-0.0354519747197628
1772534312685341000,8.2273408203125,-0.018648512661457062,0.0001320431474596262,-0.027217114344239235
1772534312695357700,8.237357666015624,-0.02098889835178852,-0.0018653275910764933,-0.01960393600165844
1772534312705373700,8.247373779296876,-0.018744617700576782,-0.008227987214922905,-0.008291378617286682
1772534312715389700,8.2573896484375,-0.014503533951938152,-0.011517522856593132,0.0010155695490539074
1772534312725406000,8.267406005859375,-0.014357537031173706,-0.014475523494184017,0.00967048853635788
1772534312735423000,8.277423095703124,-0.01599697954952717,-0.011981738731265068,0.018136944621801376
1772534312745438700,8.287438720703125,-0.02456492930650711,-0.010086754336953163,0.016674380749464035
1772534312755454700,8.297454833984375,-0.028565796092152596,-0.006801744922995567,0.010699845850467682
1772534312765472000,8.307471923828125,-0.029882729053497314,0.002389889443293214,0.00728993397206068
1772534312775488000,8.317488037109374,-0.02529330365359783,0.0022327627521008253,0.005957554094493389
1772534312785503700,8.327503662109375,-0.017562175169587135,-0.0022910020779818296,0.0074218036606907845
1772534312795520800,8.337520751953125,-0.005241325590759516,-0.01102510467171669,0.012438133358955383
1772534312805536800,8.347536865234375,0.003775753080844879,-0.014522789046168327,0.0109763965010643
1772534312815552800,8.357552734375,0.015852389857172966,-0.01264392863959074,0.006146221421658993
1772534312825569800,8.36756982421875,0.018159516155719757,-0.011770290322601795,-0.0017250641249120235
1772534312835585800,8.377585693359375,0.014337345957756042,-0.006247960031032562,-0.00899576023221016
1772534312845601800,8.387601806640625,0.004877102095633745,-0.006344406399875879,-0.010215801186859608
1772534312855617800,8.39761767578125,-0.006327881943434477,-0.0009893222013488412,-0.0067848507314920425
1772534312865634800,8.407634765625,-0.014555602334439754,-0.0014857858186587691,-0.002118110191076994
1772534312875650800,8.41765087890625,-0.022945623844861984,0.0022668743040412664,-0.0003614891320466995
1772534312885666800,8.427666748046875,-0.02438526228070259,0.003750848351046443,-0.004389280918985605
1772534312895683800,8.437683837890624,-0.021419566124677658,0.0002828801516443491,-0.008612522855401039
1772534312905699800,8.447699951171876,-0.020215647295117378,0.0036814245395362377,-0.015234929509460926
1772534312915715800,8.4577158203125,-0.020602870732545853,0.006655908655375242,-0.016814183443784714
1772534312925732900,8.46773291015625,-0.024622593075037003,0.002687135012820363,-0.012333957478404045
1772534312935748900,8.477748779296874,-0.02984212152659893,-0.00008308538235723972,0.0005272466223686934
1772534312945764900,8.487764892578125,-0.038461506366729736,-0.00037658377550542355,0.011513113975524902
1772534312955780900,8.49778076171875,-0.04401020333170891,0.0017518147360533476,0.01360635831952095
1772534312965798000,8.5077978515625,-0.04713717848062515,0.010672670789062977,0.008502015843987465
1772534312975814000,8.51781396484375,-0.044441260397434235,0.013446087017655373,0.004367991350591183
1772534312985830000,8.527829833984375,-0.035101450979709625,0.0060620056465268135,0.004781449679285288
1772534312995846700,8.5378466796875,-0.027231009677052498,-0.0026087139267474413,0.00319899944588542
1772534313005862700,8.547862548828125,-0.022556813433766365,-0.0010398573940619826,0.004518010187894106
1772534313015879000,8.55787890625,-0.02101484313607216,0.00402494240552187,0.0012250116560608149
1772534313025896000,8.56789599609375,-0.020012464374303818,0.007543080952018499,0.002337163081392646
1772534313035911700,8.57791162109375,-0.022540869191288948,0.006288731936365366,0.004498584661632776
1772534313045927700,8.587927734375,-0.01847679167985916,0.006379418075084686,0.009562211111187935
1772534313055943700,8.597943603515626,-0.019221412017941475,0.004670201800763607,0.011150520294904709
1772534313065961000,8.6079609375,-0.020501259714365005,0.006707847584038973,0.012006963603198528
1772534313075977000,8.61797705078125,-0.02196520008146763,0.007574705872684717,0.008964035660028458
1772534313085992700,8.62799267578125,-0.02610873430967331,0.007908611558377743,0.006873636972159147
1772534313096009700,8.638009765625,-0.026496225968003273,0.005711504258215427,0.008874736726284027
1772534313106026000,8.64802587890625,-0.027101734653115273,0.004352897871285677,0.005189613904803991
1772534313116042000,8.6580419921875,-0.02637202851474285,0.004061814397573471,0.003177862148731947
1772534313126058800,8.668058837890625,-0.02801305428147316,0.004273729398846626,0.0009034993126988411
1772534313136074800,8.67807470703125,-0.03144000843167305,0.004655093885958195,0.0009767364244908094
1772534313146090800,8.6880908203125,-0.03444759547710419,0.007995285093784332,0.004288993775844574
1772534313156106800,8.698106689453125,-0.03819040209054947,0.008543895557522774,0.010682711377739906
1772534313166123800,8.708123779296875,-0.04432045295834541,0.005376792978495359,0.019110526889562607
1772534313176139800,8.718139892578124,-0.046133797615766525,0.005025255493819714,0.032691050320863724
1772534313186155800,8.72815576171875,-0.04886212944984436,-0.0007677070097997785,0.047647543251514435
1772534313196172800,8.7381728515625,-0.04339226335287094,-0.014109078794717789,0.05293019115924835
1772534313206188800,8.748188720703125,-0.035078734159469604,-0.00411079078912735,0.04420893266797066
1772534313216204800,8.758204833984376,-0.03630352020263672,-0.0028793453238904476,0.03147849068045616
1772534313226221800,8.768221923828126,-0.03311583027243614,0.010076558217406273,0.021142590790987015
1772534313236237800,8.77823779296875,-0.02925424464046955,0.008988390676677227,0.011409005150198936
1772534313246253800,8.78825390625,-0.02324010618031025,0.012279845774173737,-0.0003889803774654865
1772534313256269800,8.798269775390626,-0.014270580373704433,0.009528000839054585,-0.012588921934366226
1772534313266286800,8.808286865234376,-0.006779791787266731,0.0035320459865033627,-0.020860498771071434
1772534313276302800,8.818302734375,-0.0010457400931045413,0.0008276060689240694,-0.027734383940696716
1772534313286318800,8.82831884765625,0.002971789799630642,0.0008905709255486727,-0.0302406195551157
1772534313296336000,8.8383359375,-0.005395329557359219,0.005283189006149769,-0.03030826337635517
1772534313306351900,8.848351806640625,-0.010681090876460075,0.01859046146273613,-0.018315833061933517
1772534313316368000,8.858367919921875,-0.00491827679798007,-0.011231618002057076,0.00730244442820549
1772534313326385000,8.868385009765625,-0.010920918546617031,-0.006996437907218933,0.026728946715593338
1772534313336400600,8.878400634765624,-0.011047951877117157,0.0060671656392514706,0.038014356046915054
1772534313346416600,8.888416748046875,-0.013233592733740807,0.0021749234292656183,0.03700689598917961
1772534313356433000,8.898432861328125,-0.015122306533157825,0.011260030791163445,0.032521337270736694
1772534313366450000,8.908449951171875,-0.02131187729537487,0.02314070798456669,0.02692675217986107
1772534313376466000,8.9184658203125,-0.02738175354897976,0.02537004090845585,0.017761750146746635
1772534313386481400,8.9284814453125,-0.03170984983444214,0.020392492413520813,0.013326408341526985
1772534313396498400,8.93849853515625,-0.033366601914167404,0.016207335516810417,0.013400710187852383
1772534313406514400,8.948514404296875,-0.03363857418298721,0.014074658043682575,0.013851110823452473
1772534313416530400,8.958530517578126,-0.03236132487654686,0.015659771859645844,0.007960464805364609
1772534313426547200,8.968547119140625,-0.026631232351064682,0.016150755807757378,-0.00047351419925689697
1772534313436563200,8.978563232421875,-0.01644943468272686,0.015034892596304417,-0.001987254712730646
1772534313446579500,8.988579345703124,-0.0033649359829723835,0.00504696648567915,0.0025064083747565746
1772534313456595500,8.998595458984376,0.010314124636352062,-0.000988289131782949,0.013701538555324078
1772534313466612200,9.0086123046875,0.016914034262299538,-0.006466965656727552,0.02361931838095188
1772534313476628200,9.018628173828125,0.018330834805965424,-0.0034442779142409563,0.03005165234208107
1772534313486644200,9.028644287109374,0.01757579855620861,-0.004932267591357231,0.0297076553106308
1772534313496661500,9.03866162109375,0.015913985669612885,-0.01034407690167427,0.01925022155046463
1772534313506677500,9.048677490234375,0.013823220506310463,-0.006401278078556061,0.008618030697107315
1772534313516693200,9.058693359375,0.008920607157051563,0.0015392028726637363,-0.005036795977503061
1772534313526710300,9.068710205078125,0.007097448222339153,0.0006585014052689075,-0.013401087373495102
1772534313536726500,9.0787265625,0.009084166958928108,-0.00026002293452620506,-0.01543893851339817
1772534313546742500,9.088742431640625,0.012167920358479023,-0.0025362398009747267,-0.0192347913980484
1772534313556758500,9.098758544921875,0.012712270952761173,0.00007818546146154404,-0.026860486716032028
1772534313566775300,9.108775390625,0.008491253480315208,0.0022719709668308496,-0.028925076127052307
1772534313576791300,9.118791259765626,0.0013875378062948585,0.0017566492315381765,-0.023434437811374664
1772534313586807300,9.128807373046875,-0.0021647270768880844,0.00014733709394931793,-0.01740303263068199
1772534313596824300,9.13882421875,-0.002488567493855953,-0.007099922746419907,-0.007799141108989716
1772534313606840300,9.14884033203125,-0.0019046919187530875,-0.0059157731011509895,-0.0022276402451097965
1772534313616856300,9.158856201171876,0.0011502200504764915,-0.006900343578308821,0.004197236150503159
1772534313626872300,9.168872314453125,0.008260154165327549,-0.00581017229706049,0.006426726467907429
1772534313636889300,9.178889404296875,0.010993889532983303,-0.00632389634847641,0.005252006463706493
1772534313646905300,9.1889052734375,0.010299070738255978,-0.003864200320094824,0.0019747205078601837
1772534313656921300,9.19892138671875,0.006357591599225998,0.0006309491582214832,-0.006088798865675926
1772534313666938400,9.2089384765625,0.002070860005915165,0.008389735594391823,-0.019593823701143265
1772534313676954400,9.218954345703125,-0.0021997850853949785,0.013015380129218102,-0.032474737614393234
1772534313686970400,9.228970458984374,-0.002109803259372711,0.018122093752026558,-0.042843207716941833
1772534313696987400,9.2389873046875,-0.0034309974871575832,0.01814446412026882,-0.054349660873413086
1772534313707003400,9.24900341796875,0.0025115800090134144,0.01736495830118656,-0.05908103287220001
1772534313717019400,9.259019287109375,0.008044829592108727,0.01145327277481556,-0.04981429874897003
1772534313727035400,9.269035400390624,0.012989114038646221,0.0015958845615386963,-0.028662260621786118
1772534313737052400,9.279052490234376,0.013858635909855366,-0.0059062400832772255,-0.001094282604753971
1772534313747068400,9.289068359375,0.012677742168307304,-0.010715733282268047,0.019205700606107712
1772534313757084400,9.29908447265625,0.006636095233261585,-0.01100308820605278,0.02767854742705822
1772534313767101200,9.30910107421875,0.0017146047903224826,-0.0023692643735557795,0.025178857147693634
1772534313784629200,9.326629150390625,-0.0005960633279755712,-0.005420023575425148,0.01895035058259964
1772534313794645200,9.336645263671874,-0.0003651671577244997,-0.005453845486044884,0.014200868085026741
1772534313804662500,9.34666259765625,-0.0028357477858662605,0.0037497100420296192,0.00884181261062622
1772534313814678500,9.356678466796875,-0.003018174320459366,0.0072240703739225864,0.006164803169667721
1772534313824694300,9.3666943359375,-0.0020645444747060537,0.005788003094494343,0.002726699458435178
1772534313834711300,9.376711181640625,0.010530608706176281,-3.778841346502304e-7,0.004526996519416571
1772534313844727300,9.386727294921876,0.020252540707588196,-0.0018954649567604065,0.0039405073039233685
1772534313854743600,9.39674365234375,0.023179087787866592,-0.004098431672900915,0.001919168047606945
1772534313864759600,9.406759521484375,0.02173648588359356,-0.004424587823450565,-0.0022058868780732155
1772534313874776300,9.4167763671875,0.01782430149614811,0.000013836659491062164,-0.003923892509192228
1772534313884792300,9.426792236328126,0.014410316944122314,0.0011942035052925348,-0.0037139495834708214
1772534313894808300,9.436808349609375,0.013512831181287766,0.0009838137775659561,0.0025221083778887987
1772534313904825300,9.446825439453125,0.012753329239785671,-0.006115745287388563,0.011986172758042812
1772534313914841300,9.45684130859375,0.01358556654304266,-0.012723313644528389,0.025100376456975937
1772534313924857300,9.466857421875,0.014971856027841568,-0.014776726253330708,0.02755814418196678
1772534313934873300,9.476873291015625,0.013413375243544579,-0.01190557237714529,0.022321835160255432
1772534313944890400,9.486890380859375,0.009231142699718475,-0.002422365127131343,0.009514927864074707
1772534313954906400,9.49690625,0.008675341494381428,0.0008791557047516108,-0.002614704892039299
1772534313964922400,9.50692236328125,0.01168767362833023,-0.006759201176464558,-0.00978265143930912
1772534313974939400,9.516939453125,0.010757431387901306,-0.010552873834967613,-0.012440752238035202
1772534313984955400,9.526955322265625,0.01012749969959259,-0.007735162973403931,-0.00936313159763813
1772534313994971400,9.536971435546874,0.010613792575895786,-0.004083436913788319,-0.008410252630710602
1772534314004988400,9.546988525390624,0.008868858218193054,-0.0013069475535303354,-0.0020268727093935013
1772534314015004400,9.55700439453125,0.009243564680218697,-0.0072324806824326515,0.009584775194525719
1772534314025020400,9.5670205078125,0.01230775099247694,-0.009445657953619957,0.025951534509658813
1772534314035036400,9.577036376953124,0.013216688297688961,-0.01897418312728405,0.03867558389902115
1772534314045053400,9.587053466796876,0.01375865750014782,-0.01723574288189411,0.0437837690114975
1772534314055069400,9.5970693359375,0.012880346737802029,-0.013966711238026619,0.0405576191842556
1772534314065085400,9.60708544921875,0.006836302578449249,-0.003974491730332375,0.029780905693769455
1772534314075102200,9.617102294921875,0.006096476688981056,0.009064078330993652,0.017380429431796074
1772534314085118200,9.6271181640625,0.010717608965933323,0.01807507686316967,0.01164102740585804
1772534314095134200,9.63713427734375,0.018294300884008408,0.006972360424697399,0.012875135987997055
1772534314105150500,9.647150390625,0.025408154353499413,-0.000701877404935658,0.014845849946141243
1772534314115167500,9.65716748046875,0.027944281697273254,-0.006267084740102291,0.023885950446128845
1772534314125183200,9.667183349609376,0.02678261138498783,-0.011120962910354137,0.030098574236035347
1772534314135199200,9.67719921875,0.020044203847646713,0.0012995421420782804,0.02335447072982788
1772534314145216500,9.687216552734375,0.018675072118639946,0.0026332533452659845,0.016100551933050156
1772534314155232500,9.697232421875,0.01973974145948887,-0.007766941096633673,0.01419831532984972
1772534314165248500,9.70724853515625,0.02184550277888775,-0.010421580635011196,0.012248614802956581
1772534314175265300,9.717265380859375,0.015535895712673664,-0.0009621604112908244,0.010644853115081787
1772534314185281300,9.72728125,0.007944821380078793,0.004773755557835102,0.008666924200952053
1772534314195297500,9.737297607421874,0.001312765758484602,0.007058488205075264,0.006792112253606319
1772534314205313500,9.7473134765625,-0.0036143488250672817,0.00905213039368391,-0.0006703310646116734
1772534314215330300,9.757330322265625,-0.0034334578085690737,0.011030037887394428,-0.008978959172964096
1772534314225346300,9.76734619140625,-0.006543763447552919,0.011357340030372143,-0.011959303170442581
1772534314235362300,9.7773623046875,-0.007371724583208561,0.009672820568084717,-0.01424085721373558
1772534314245379300,9.78737939453125,-0.0028861621394753456,0.005304703023284674,-0.011575298383831978
1772534314255395300,9.797395263671875,-0.000050647882744669914,-0.002107583684846759,-0.008692463859915733
1772534314265411300,9.807411376953125,0.0018612354760989547,-0.00044577126391232014,0.0037618097849190235
1772534314275427300,9.81742724609375,0.0035357382148504257,0.001362069509923458,0.015374327078461647
1772534314285444400,9.8274443359375,0.006584258284419775,0.001130374614149332,0.02417154796421528
1772534314295460400,9.83746044921875,0.006724198814481497,-0.0006757061928510666,0.027453279122710228
1772534314305476400,9.847476318359375,0.008158843964338303,0.00146254594437778,0.028498036786913872
1772534314315493400,9.857493408203124,0.011947615072131157,0.007090270984917879,0.023845359683036804
1772534314325509400,9.86750927734375,0.013326096348464489,0.009262465871870518,0.015562349930405617
1772534314335525400,9.877525390625,0.014957282692193985,0.009184702299535275,0.010566792450845242
1772534314345542400,9.88754248046875,0.020908914506435394,0.012444944120943546,0.005425027571618557
1772534314355558400,9.897558349609374,0.026017406955361366,0.010785415768623352,-0.0028105960227549076
1772534314365574400,9.907574462890626,0.02597479708492756,0.009720951318740845,-0.00883067212998867
1772534314375590400,9.91759033203125,0.029430372640490532,0.007881847210228443,-0.012155708856880665
1772534314385607400,9.927607421875,0.030170997604727745,0.00674787349998951,-0.013827641494572163
1772534314395623700,9.937623779296874,0.031180070713162422,0.0072464169934391975,-0.01630305126309395
1772534314405639700,9.9476396484375,0.027329405769705772,0.004387780092656612,-0.015231660567224026
1772534314415656700,9.95765673828125,0.022542044520378113,0.0021001065615564585,-0.017926452681422234
1772534314425672700,9.967672607421875,0.013774917460978031,0.009979069232940674,-0.020099058747291565
1772534314435688700,9.977688720703124,0.0010079428320750594,0.013858405873179436,-0.020511014387011528
1772534314445704700,9.98770458984375,-0.009477188810706139,0.016337275505065918,-0.017905378714203835
1772534314455721700,9.9977216796875,-0.016182446852326393,0.017369115725159645,-0.01360783539712429
1772534314465737500,10.007737548828125,-0.020049355924129486,0.014531517401337624,-0.005668420810252428
1772534314475753700,10.017753662109374,-0.01969127357006073,0.01281336322426796,0.0014574620872735977
1772534314485770800,10.027770751953126,-0.01734742522239685,0.009374422952532768,0.001597810536623001
1772534314495786800,10.037786865234375,-0.01711035519838333,0.013022510334849358,-0.00433654710650444
1772534314505802800,10.047802734375,-0.01503255870193243,0.018115274608135223,-0.012575569562613964
1772534314515818500,10.057818603515624,-0.013084424659609795,0.017457595095038414,-0.01817970722913742
1772534314525835800,10.067835693359376,-0.008742673322558403,0.01966988295316696,-0.017647340893745422
1772534314535851800,10.077851806640625,-0.009171269834041595,0.018316591158509254,-0.014242913573980331
1772534314545867800,10.08786767578125,-0.008526784367859364,0.010654143989086151,-0.009167993441224098
1772534314555884500,10.097884521484374,-0.005638601258397102,0.0107300765812397,-0.004814005922526121
1772534314565900800,10.10790087890625,-0.007817067205905914,0.013111741282045841,-0.007293675560504198
1772534314575916800,10.117916748046875,0.0009373222710564733,0.013124880380928516,-0.01736152544617653
1772534314585932800,10.127932861328125,0.0035392306745052338,0.011144021525979042,-0.026013867929577827
1772534314595949600,10.137949462890624,0.008671941235661507,0.00780072994530201,-0.03177318349480629
1772534314605965600,10.147965576171876,0.007205871399492025,0.009105145931243896,-0.03026796504855156
1772534314615981600,10.157981689453125,0.006385179236531258,0.007889513857662678,-0.028371941298246384
1772534314625998800,10.167998779296875,0.002331049181520939,0.005388805642724037,-0.018742751330137253
1772534314636014600,10.1780146484375,-0.0023494563065469265,0.00546630285680294,-0.01146752666682005
1772534314646030600,10.188030517578126,-0.0028823548927903175,0.005079612135887146,-0.01072317361831665
1772534314656046600,10.198046630859375,-0.007307902444154024,0.004976993426680565,-0.010656665079295635
1772534314666064000,10.20806396484375,-0.012524236924946308,0.011472176760435104,-0.01155548170208931
1772534314676079900,10.218079833984374,-0.015032385475933552,0.014676726423203945,-0.012112069875001907
1772534314686095600,10.228095703125,-0.019185319542884827,0.00962417759001255,-0.009941860102117062
1772534314696112600,10.238112548828125,-0.020422199741005898,0.0061070602387189865,-0.0021216957829892635
1772534314706128600,10.248128662109375,-0.02102966606616974,0.002036151709035039,0.006241162307560444
1772534314716145000,10.258144775390624,-0.021009162068367004,0.0018084903713315725,0.013185127638280392
1772534314726161700,10.26816162109375,-0.02212502621114254,0.006928151473402977,0.013416290283203125
1772534314736177700,10.278177734375,-0.01836182363331318,0.008751243352890015,0.010500757955014706
1772534314746193700,10.288193603515625,-0.013587307184934616,0.006691288203001022,0.0044830795377492905
1772534314756209700,10.298209716796874,-0.008440418168902397,0.008147750981152058,-0.0009472076781094074
1772534314766226700,10.308226806640626,-0.004228096455335617,0.007246803492307663,-0.00008194660767912865
1772534314776242700,10.31824267578125,-0.003763485699892044,0.0009744567796587944,0.003546747611835599
1772534314786258700,10.3282587890625,-0.007551566231995821,-0.002385653555393219,0.0032953452318906784
1772534314796275700,10.338275634765624,-0.01323702372610569,-0.0008351253345608711,-0.003565877676010132
1772534314806291500,10.34829150390625,-0.02166326530277729,-0.0018740245141088963,-0.010321518406271935
1772534314816307700,10.3583076171875,-0.028953230008482933,0.0003900546580553055,-0.01790156401693821
1772534314826323700,10.36832373046875,-0.03205901011824608,0.004230333026498556,-0.023001251742243767
1772534314836340700,10.3783408203125,-0.034466084092855453,0.0008120578713715076,-0.026415593922138214
1772534314846356700,10.388356689453126,-0.03263542801141739,-0.0014913100749254227,-0.023275725543498993
1772534314856372500,10.39837255859375,-0.030172627419233322,-0.0014379210770130157,-0.02233712002635002
1772534314866389800,10.4083896484375,-0.028024256229400635,-0.0011449733283370733,-0.0220942385494709
1772534314876405800,10.41840576171875,-0.0253584161400795,0.0014808312989771366,-0.023150473833084106
1772534314886421800,10.428421875,-0.020464858040213585,-0.0037304419092833996,-0.02311904914677143
1772534314896437800,10.438437744140625,-0.016378283500671387,-0.0035608888138085604,-0.016150586307048798
1772534314906454800,10.448454833984375,-0.01128605380654335,0.0007997711654752493,-0.017827311530709267
1772534314916470800,10.458470703125,-0.0073614479042589664,-0.003441452980041504,-0.0197976753115654
1772534314926486800,10.46848681640625,-0.004638632293790579,-0.0034901888575404882,-0.0240616612136364
1772534314936503600,10.478503662109375,-0.0016427324153482914,0.004128424450755119,-0.02581145614385605
1772534314946519600,10.48851953125,-0.0007095607579685748,0.0002077182289212942,-0.023541375994682312
1772534314956535800,10.498535888671874,0.006253665313124657,-0.0016354590188711882,-0.02314285933971405
1772534314966551800,10.5085517578125,0.011250554583966732,-0.005217676982283592,-0.028757337480783463
1772534314976568600,10.518568603515625,0.016481909900903702,-0.0038830591365695,-0.036702439188957214
1772534314986584600,10.52858447265625,0.017633462324738503,-0.000059292418882250786,-0.04606291651725769
1772534314996600600,10.5386005859375,0.013980216346681118,0.005450733937323093,-0.05741126462817192
1772534315006617900,10.548617919921876,0.002014101017266512,0.008882217109203339,-0.0560929998755455
1772534315016633900,10.5586337890625,-0.007617425173521042,0.008350667543709278,-0.043927475810050964
1772534315026649600,10.568649658203125,-0.012281418778002262,0.004631564021110535,-0.030710741877555847
1772534315036665600,10.57866552734375,-0.014545857906341553,0.0032100582029670477,-0.015092934481799603
1772534315046682600,10.5886826171875,-0.016957083716988564,0.0014025706332176924,-0.0018383809365332127
1772534315056699000,10.598698974609375,-0.01311649102717638,-0.0033151686657220125,0.0007999374065548182
1772534315066715000,10.60871484375,-0.011227510869503021,-0.008509131148457527,-0.005053424742072821
1772534315076731600,10.618731689453124,-0.007569268345832825,-0.024852342903614044,-0.008745180442929268
1772534315086747600,10.62874755859375,-0.0028818384744226933,0.013467082753777504,-0.022998418658971786
1772534315096763600,10.638763671875,-0.00660149147734046,0.008696594275534153,-0.04561905562877655
1772534315106780000,10.64877978515625,-0.00878768041729927,0.01856759935617447,-0.06380977481603622
1772534315116796700,10.658796630859374,-0.009286066517233849,0.02101147547364235,-0.07495074719190598
1772534315126812700,10.668812744140626,-0.008803768083453178,0.02270045131444931,-0.07544343173503876
1772534315136828700,10.67882861328125,-0.01591675914824009,0.028838900849223137,-0.0772639736533165
1772534315146845700,10.688845703125,-0.02236267365515232,0.03282512351870537,-0.07879022508859634
1772534315156861700,10.69886181640625,-0.01985861361026764,0.02663925103843212,-0.08004344999790192
1772534315166877700,10.708877685546875,-0.01411257591098547,0.021665530279278755,-0.07839282602071762
1772534315176893700,10.718893798828125,-0.0099789435043931,0.02942807599902153,-0.0727638527750969
1772534315186910700,10.72891064453125,-0.003689621575176716,0.017494719475507736,-0.06984502822160721
1772534315196926700,10.7389267578125,-0.0021227425895631313,0.010524124838411808,-0.048280224204063416
1772534315206942700,10.748942626953125,0.002551903948187828,0.0026800502091646194,-0.022406280040740967
1772534315216959700,10.758959716796875,0.003244685009121895,-0.005775307305157185,0.007362996693700552
1772534315226975700,10.768975830078125,0.0005309239495545626,-0.013202331028878689,0.04009857401251793
1772534315236991700,10.77899169921875,0.0020709047093987465,-0.02885855734348297,0.06037919595837593
1772534315247007500,10.789007568359375,0.002228031400591135,-0.03330017626285553,0.06122954562306404
1772534315257024800,10.799024658203125,-0.0007634651847183704,-0.028153762221336365,0.04936457797884941
1772534315267040800,10.809040771484375,-0.002715562004595995,-0.022976044565439224,0.036579541862010956
1772534315277056800,10.819056884765626,-0.005312301684170961,-0.01948586478829384,0.030220085754990578
1772534315287073500,10.829073486328125,-0.0025740396231412888,-0.011724347248673439,0.021344302222132683
1772534315297089800,10.83908984375,0.003982897382229567,-0.02135739102959633,0.006399756297469139
1772534315307105800,10.849105712890625,0.007939022965729237,-0.00585140148177743,-0.006822305265814066
1772534315317121800,10.859121826171876,0.018324021250009537,0.0021779905073344707,-0.01782679557800293
1772534315327138600,10.869138671875,0.03131253644824028,-0.001391211524605751,-0.013176633045077324
1772534315337154600,10.879154541015625,0.037786681205034256,-0.006457875482738018,-0.01032491959631443
1772534315347170600,10.889170654296874,0.0425121933221817,-0.014461739920079708,-0.003629733342677355
1772534315357187800,10.899187744140624,0.03674164414405823,-0.013608695939183235,-0.0028323992155492306
1772534315367203800,10.909203857421875,0.026796868070960045,-0.008597158826887608,-0.006385056301951408
1772534315377219600,10.919219482421875,0.01572767272591591,-0.0011638273717835546,-0.007596704177558422
1772534315387235600,10.929235595703124,0.0036435797810554504,0.007494109682738781,-0.00797940045595169
1772534315397252600,10.939252685546874,0.0022434017155319452,0.008518657647073269,-0.0031704409047961235
1772534315407268600,10.9492685546875,0.0036458224058151245,0.0034416071139276028,-0.0049683405086398125
1772534315417284600,10.95928466796875,0.0013147869613021612,0.007518269121646881,-0.0011128904297947884
1772534315427301600,10.969301513671875,-0.005934603977948427,0.018183961510658264,0.001699141226708889
1772534315437317600,10.979317626953126,-0.013693536631762981,0.013527519069612026,0.002240153029561043
1772534315447333600,10.989333740234375,-0.02099459245800972,0.002925740322098136,0.001799932448193431
1772534315457349600,10.999349609375,-0.023710591718554497,-0.004648436792194843,0.01675017550587654
1772534315467366700,11.00936669921875,-0.024654150009155273,0.0005796148907393217,0.028691526502370834
1772534315477382700,11.019382568359376,-0.021655401214957237,-0.001957150874659419,0.02352604828774929
1772534315487398700,11.029398681640625,-0.01909264177083969,-0.004791553132236004,0.007305533159524202
1772534315497415400,11.03941552734375,-0.02072075754404068,0.009857927449047565,-0.019721703603863716
1772534315507431400,11.049431396484374,-0.020858708769083023,0.01738428696990013,-0.06089470162987709
1772534315517447700,11.05944775390625,-0.026596251875162125,0.03455352783203125,-0.095624178647995
1772534315527463700,11.069463623046875,-0.029068198055028915,0.055277980864048004,-0.0897471159696579
1772534315537480700,11.079480712890625,-0.023455383256077766,0.02239804156124592,-0.06882473826408386
1772534315547496400,11.089496337890624,-0.014716751873493195,-0.0215811338275671,-0.03571125492453575
1772534315557512400,11.099512451171876,-0.0033492199145257473,-0.025961359962821007,0.004455761052668095
1772534315567528700,11.10952880859375,-0.004934333264827728,-0.021146364510059357,0.03795619681477547
1772534315577545700,11.119545654296875,-0.009298710152506828,-0.014719086699187756,0.05708467215299606
1772534315587561700,11.129561767578124,-0.01532544381916523,-0.00984576903283596,0.06783106178045273
1772534315597577500,11.139577392578126,-0.011940471827983856,-0.008544674143195152,0.07474052160978317
1772534315607594800,11.1495947265625,-0.0026694750413298607,-0.012152991257607937,0.06562292575836182
1772534315617610800,11.15961083984375,0.010206392034888268,-0.02846062369644642,0.05561850592494011
1772534315627626800,11.169626708984374,0.0263411533087492,-0.03375924751162529,0.052946291863918304
1772534315637642500,11.179642578125,0.034977540373802185,-0.04105033352971077,0.029018748551607132
1772534315647659500,11.189659423828125,0.029303140938282013,-0.03821033984422684,0.004616203252226114
1772534315657675500,11.199675537109375,0.020897651091217995,-0.09231341630220413,0.033116623759269714
1772534315667691800,11.20969189453125,0.035458751022815704,-0.06557980179786682,0.06014983728528023
1772534315677708500,11.21970849609375,0.003447163850069046,0.043170079588890076,-0.03177649900317192
1772534315687724500,11.229724609375,-0.030311333015561104,0.17966321110725403,-0.09400072693824768
1772534315697740500,11.239740478515625,-0.016583723947405815,0.16978682577610016,-0.03602326661348343
1772534315707756500,11.249756591796874,-0.003502276260405779,0.10724247992038727,0.0541287362575531
1772534315717773600,11.259773681640626,-0.018739614635705948,0.01701004058122635,0.05512002110481262
1772534315727789600,11.26978955078125,-0.008393767289817333,-0.08355651050806046,0.060854338109493256
1772534315737805600,11.2798056640625,-0.0005497383535839617,-0.08328389376401901,0.08411921560764313
1772534315747822600,11.289822509765624,0.0013248608447611332,-0.07349251955747604,0.07293234765529633
1772534315757838800,11.2998388671875,0.009602469392120838,-0.06423553079366684,0.04872128739953041
1772534315767854600,11.3098544921875,0.029235292226076126,-0.036939460784196854,0.033636342734098434
1772534315777870600,11.31987060546875,0.03579428046941757,0.007647911086678505,0.02240113914012909
