time,seconds_elapsed,z,y,x
1772533283441006600,0.201006591796875,9.418747901916504,2.1678972244262695,-0.001794616924598813
1772533283450922800,0.2109228515625,9.945169448852539,1.8951154947280884,-0.34217363595962524
1772533283460852000,0.22085205078125,10.40040397644043,1.6839489936828613,-0.8733802437782288
1772533283470784300,0.2307841796875,10.366904258728027,1.4207384586334229,-0.7154539823532104
1772533283480732700,0.240732666015625,9.543174743652344,1.0713863372802734,-0.4618147611618042
1772533283490671400,0.25067138671875,8.858229637145996,1.8664016723632812,-0.3086741268634796
1772533283500599600,0.260599609375,8.303094863891602,2.3018953800201416,-0.44745782017707825
1772533283510534100,0.2705341796875,7.718647480010986,1.9142581224441528,-0.4331009089946747
1772533283520463000,0.280463134765625,7.618149280548096,1.5643078088760376,-0.5479564070701599
1772533283530395600,0.290395751953125,7.914859294891357,1.4398809671401978,-0.7872386574745178
1772533283540326700,0.30032666015625,7.65164852142334,1.1910275220870972,-0.7345965504646301
1772533283550258400,0.310258544921875,8.078168869018555,1.114457130432129,-0.7202396392822266
1772533283560192000,0.32019189453125,8.882157325744629,1.1096714735031128,-0.5048855543136597
1772533283570124800,0.330124755859375,9.160323143005371,1.119242787361145,-0.04007977992296219
1772533283580056600,0.340056640625,8.886942863464355,0.9708877801895142,0.2997010350227356
1772533283589988900,0.34998876953125,8.350951194763184,0.6161518096923828,0.8458628058433533
1772533283599925500,0.359925537109375,7.938787460327148,0.5395814776420593,1.1042876243591309
1772533283609859800,0.36985986328125,7.8382887840271,0.25722843408584595,0.9750752449035645
1772533283619784000,0.379783935546875,7.603792190551758,-0.7292127013206482,1.0707881450653076
1772533283629714000,0.3897138671875,7.608577728271484,-1.5194423198699951,0.5054838061332703
1772533283639590100,0.399590087890625,8.21695327758789,-1.4189438819885254,0.39541393518447876
1772533283649498600,0.40949853515625,8.307880401611328,0.05623133108019829,0.5341976284980774
1772533283659513900,0.419513916015625,7.225726127624512,2.9772696495056152,0.7495517134666443
1772533283669465600,0.429465576171875,6.454638957977295,3.039483070373535,0.9224331378936768
1772533283679376100,0.439376220703125,5.745765209197998,1.1575279235839844,0.8793623447418213
1772533283689311000,0.44931103515625,4.390829563140869,1.4638092517852783,0.7208378314971924
1772533283699219700,0.4592197265625,4.926821708679199,2.1535403728485107,0.26141586899757385
1772533283709144300,0.469144287109375,6.3493547439575195,2.1104695796966553,-1.246660590171814
1772533283719088000,0.479088134765625,8.293522834777832,3.4749767780303955,-1.9794625043869019
1772533283729020700,0.489020751953125,9.318249702453613,5.337789058685303,-1.567897081375122
1772533283738957600,0.49895751953125,10.510473251342773,5.0362935066223145,-1.2849457263946533
1772533283748892000,0.508891845703125,13.071990013122559,4.179064750671387,-1.25144624710083
1772533283758830300,0.518830322265625,17.697914123535156,4.782055854797363,-0.4618147611618042
1772533283768766200,0.52876611328125,22.050458908081055,6.1328043937683105,1.333998680114746
1772533283778688800,0.538688720703125,24.7944278717041,6.640082836151123,3.053241729736328
1772533283788623400,0.548623291015625,26.158935546875,6.544369697570801,4.7336015701293945
1772533283798555100,0.55855517578125,26.091936111450195,5.672784328460693,5.820540904998779
1772533283808489500,0.568489501953125,25.0289249420166,4.3178486824035645,4.858027935028076
1772533283818417000,0.5784169921875,24.87099838256836,3.4989049434661865,2.5357937812805176
1772533283828350700,0.588350830078125,25.22035026550293,3.0825538635253906,0.37148571014404297
1772533283838312200,0.598312255859375,23.717060089111328,3.1686954498291016,-0.6245267391204834
1772533283848216300,0.60821630859375,20.450857162475586,4.652843475341797,0.19920247793197632
1772533283868098800,0.628098876953125,14.575879096984863,6.6352972984313965,1.6450655460357666
1772533283878036500,0.638036376953125,13.038490295410156,6.415157318115234,0.5054838061332703
1772533283887958800,0.647958740234375,11.750554084777832,6.0610198974609375,0.4384847581386566
1772533283897895000,0.65789501953125,10.064809799194336,5.667998790740967,1.1425727605819702
1772533283907826700,0.66782666015625,7.800003528594971,5.361717224121094,1.8801604509353638
1772533283917762300,0.67776220703125,5.31984281539917,5.146363258361816,2.6937201023101807
1772533283927692800,0.68769287109375,2.8971099853515625,4.796412944793701,3.7710886001586914
1772533283937628000,0.6976279296875,1.5032907724380493,4.164707660675049,4.881956577301025
1772533283947554000,0.707553955078125,2.403590440750122,3.6568312644958496,5.691328525543213
1772533283957488000,0.717488037109375,3.088535785675049,2.4263222217559814,5.131408214569092
1772533283967410200,0.72741015625,2.599801778793335,0.5635097622871399,3.1728827953338623
1772533283977343200,0.73734326171875,2.317448616027832,-1.2795618772506714,1.2574282884597778
1772533283987282400,0.747282470703125,3.476173162460327,-2.6350958347320557,-0.12143574655056
1772533283997216000,0.757216064453125,4.625326156616211,-3.3338000774383545,-1.155733346939087
1772533284007128800,0.76712890625,4.980062007904053,-3.3338000774383545,-1.4769697189331055
1772533284017060400,0.777060302734375,5.003990173339844,-3.118446111679077,-0.6628118753433228
1772533284026990300,0.786990234375,4.457828521728516,-2.9078776836395264,0.2470589429140091
1772533284036921900,0.796921875,2.6572296619415283,-2.424527645111084,0.8793623447418213
1772533284046880300,0.80688037109375,0.15314064919948578,-1.5050854682922363,1.5541383028030396
1772533284056814300,0.816814453125,-2.1308085918426514,-0.6622136831283569,1.8945173025131226
1772533284066745000,0.8267451171875,-3.476771354675293,-0.29371899366378784,2.1242282390594482
1772533284076679000,0.836678955078125,-4.266402721405029,-0.47557350993156433,2.105085611343384
1772533284086582300,0.846582275390625,-4.745565414428711,-0.9110672473907471,2.4783661365509033
1772533284096512800,0.8565126953125,-4.199403762817383,-1.1168500185012817,3.335594654083252
1772533284106469400,0.866469482421875,-2.8588249683380127,-0.8679963946342468,3.4552359580993652
1772533284116402700,0.876402587890625,-1.0199406147003174,-0.10169496387243271,2.406581401824951
1772533284126336800,0.886336669921875,1.197009563446045,0.7549355626106262,0.4336991012096405
1772533284136270300,0.896270263671875,4.390829563140869,1.51166570186615,-1.9555343389511108
1772533284146197000,0.906197021484375,4.491328239440918,1.3106685876846313,-2.434697151184082
1772533284156129500,0.916129638671875,3.988835334777832,0.9230313301086426,-2.6213371753692627
1772533284166061600,0.9260615234375,3.926621913909912,0.6017948985099792,-3.4019956588745117
1772533284175994000,0.935994140625,5.286343574523926,0.6927221417427063,-4.752145767211914
1772533284185930500,0.945930419921875,7.857431411743164,1.1335997581481934,-4.756931304931641
1772533284195863300,0.95586328125,10.462616920471191,1.430309772491455,-1.069591760635376
1772533284205770800,0.965770751953125,11.032109260559082,1.6265212297439575,4.250251293182373
1772533284215701200,0.975701171875,10.328619003295898,1.9812572002410889,7.343572616577148
1772533284225669600,0.985669677734375,9.160323143005371,1.7509479522705078,7.176074981689453
1772533284235603700,0.995603759765625,7.57507848739624,-0.020338991656899452,4.111467361450195
1772533284245523000,1.00552294921875,6.650850772857666,-2.122433662414551,0.2709871530532837
1772533284255455500,1.01545556640625,7.283154010772705,-3.329014539718628,-2.11824631690979
1772533284265387500,1.025387451171875,7.5463643074035645,-3.482753276824951,-2.449054002761841
1772533284275320300,1.0353203125,6.200999736785889,-2.146361827850342,-0.7776673436164856
1772533284285252000,1.045252197265625,4.687539577484131,0.10887342691421509,1.3627125024795532
1772533284295184600,1.0551845703125,3.6771702766418457,2.115255117416382,3.2781670093536377
1772533284305115000,1.065114990234375,4.295116424560547,3.8434712886810303,4.532604217529297
1772533284315047400,1.07504736328125,7.938787460327148,5.577071189880371,4.436891555786133
1772533284324980700,1.084980712890625,13.374083518981934,6.999006271362305,3.6993038654327393
1772533284334913000,1.0949130859375,18.04248046875,7.990232944488525,2.9240293502807617
1772533284344841700,1.104841796875,22.68754768371582,9.283554077148438,1.7168502807617188
1772533284354773800,1.114773681640625,27.365516662597656,8.766105651855469,0.989432156085968
1772533284364704500,1.12470458984375,31.50270652770996,5.4765729904174805,1.4871392250061035
1772533284374636300,1.13463623046875,34.56731414794922,3.0681967735290527,1.7790635824203491
1772533284384582700,1.144582763671875,35.49154281616211,2.66560435295105,1.5541383028030396
1772533284394516000,1.154515869140625,33.93022537231445,3.417548894882202,0.7543373107910156
1772533284404448500,1.164448486328125,31.40220832824707,4.040280818939209,-1.3668999671936035
1772533284414381600,1.174381591796875,28.72045135498047,3.9972102642059326,-4.191627025604248
1772533284424313600,1.184313720703125,25.814369201660156,3.661616802215576,-6.422934055328369
1772533284434246700,1.19424658203125,22.883758544921875,3.5850465297698975,-7.926823139190674
1772533284444165400,1.204165283203125,19.77129554748535,3.541975736618042,-7.945965766906738
1772533284454097000,1.214096923828125,16.56311798095703,3.2548370361328125,-6.705885410308838
1772533284464066600,1.224066650390625,13.747364044189453,3.197409152984619,-3.0185458660125732
1772533284474002200,1.234002197265625,11.511271476745605,3.8386857509613037,1.415354609489441
1772533284483894500,1.24389453125,10.189835548400879,3.8434712886810303,3.96789813041687
1772533284493825800,1.25382568359375,9.480961799621582,2.531606435775757,4.604389190673828
1772533284503756500,1.263756591796875,8.111668586730957,0.7405785918235779,4.049253940582275
1772533284513687600,1.2736875,5.971288681030273,-0.9445667266845703,2.468794822692871
1772533284523646700,1.283646728515625,3.7250266075134277,-1.8544375896453857,0.9942178130149841
1772533284533580800,1.293580810546875,3.73459792137146,-2.313859462738037,0.026919255033135414
1772533284553425400,1.31342529296875,7.599006652832031,-4.095315933227539,-0.8973084688186646
1772533284563363300,1.32336328125,5.971288681030273,-4.1144585609436035,-1.1748759746551514
1772533284573295600,1.333295654296875,2.8636105060577393,-3.5928232669830322,-1.2083754539489746
1772533284583213800,1.3432138671875,-1.4081761837005615,-2.5250260829925537,-0.19800607860088348
1772533284593144800,1.353144775390625,-5.784648895263672,-1.7204394340515137,1.01814603805542
1772533284603089200,1.363089111328125,-8.858827590942383,-1.088136076927185,1.9184455871582031
1772533284613021400,1.373021484375,-10.716854095458984,-1.212562918663025,2.406581401824951
1772533284622944000,1.382944091796875,-12.019147872924805,-2.227717876434326,2.3156540393829346
1772533284632875300,1.392875244140625,-11.142776489257812,-2.740380048751831,0.898504912853241
1772533284642807600,1.4028076171875,-8.877969741821289,-2.7451658248901367,-0.9930213689804077
1772533284652739000,1.412739013671875,-6.4354963302612305,-2.4675984382629395,-1.74496591091156
1772533284662686500,1.4226865234375,-4.175475597381592,-1.9597218036651611,-1.6348960399627686
1772533284672619300,1.432619384765625,-2.475973129272461,-1.9932212829589844,-1.6157535314559937
1772533284682516700,1.442516845703125,-0.5700899958610535,-2.462812662124634,-1.893320918083191
1772533284692446200,1.4524462890625,4.237689018249512,-2.3090739250183105,-2.630908489227295
1772533284702401500,1.462401611328125,7.733004570007324,-1.9070796966552734,-1.7497515678405762
1772533284712333600,1.47233349609375,10.835897445678711,-1.911865234375,0.5724828243255615
1772533284722269200,1.482269287109375,10.941181182861328,-1.0402796268463135,1.0803594589233398
1772533284732201500,1.492201416015625,9.897313117980957,-0.1543370634317398,1.8801604509353638
1772533284742135600,1.502135498046875,6.80877685546875,0.6879364848136902,1.9710876941680908
1772533284752068000,1.512068115234375,4.051048755645752,1.7222341299057007,1.7694923877716064
1772533284761997300,1.521997314453125,2.111665964126587,2.4502503871917725,2.435295343399048
1772533284771929600,1.5319296875,1.7473586797714233,2.526820659637451,2.397010087966919
1772533284781867500,1.541867431640625,2.973680257797241,2.550748825073242,1.5302101373672485
1772533284791800300,1.55180029296875,4.443471431732178,2.3976082801818848,0.4384847581386566
1772533284801702400,1.561702392578125,5.831906795501709,1.8472590446472168,-0.41874396800994873
1772533284811632000,1.571632080078125,7.297510623931885,1.425524115562439,-0.8350951075553894
1772533284821590500,1.581590576171875,8.997013092041016,1.6265212297439575,-1.275374412536621
1772533284831523300,1.5915234375,10.649256706237793,2.076970100402832,-1.409970760345459
1772533284841452000,1.6014521484375,11.774481773376465,2.8863422870635986,-1.5487544536590576
1772533284851384300,1.61138427734375,11.60698413848877,4.126422882080078,-2.0608184337615967
1772533284861315800,1.62131591796875,10.050453186035156,4.945366382598877,-3.521636724472046
1772533284871248000,1.631247802734375,8.049455642700195,4.346562385559082,-6.6484575271606445
1772533284881195300,1.6411953125,6.095715522766113,2.6943182945251465,-8.280961036682129
1772533284891129000,1.651129150390625,5.147559642791748,1.430309772491455,-6.715456962585449
1772533284901047600,1.661047607421875,4.706682205200195,2.6368906497955322,-3.0855448246002197
1772533284910979600,1.6709794921875,4.515256404876709,7.238886833190918,3.651447296142578
1772533284920892000,1.680891845703125,9.189037322998047,10.691131591796875,12.31406307220459
1772533284930822100,1.690822265625,21.973888397216797,9.498908042907715,22.579870223999023
1772533284940757800,1.7007578125,35.2379035949707,7.363313674926758,29.518457412719727
1772533284950688500,1.7106884765625,46.00201416015625,6.45822811126709,32.34378433227539
1772533284960622300,1.720622314453125,52.662437438964844,5.510072231292725,32.30071258544922
1772533284970553300,1.73055322265625,50.714080810546875,2.4598217010498047,27.708288192749023
1772533284980482300,1.740482421875,42.03232192993164,0.8177471160888672,20.204994201660156
1772533284990413000,1.7504130859375,32.781070709228516,1.2867404222488403,13.635499954223633
1772533285000348400,1.760348388671875,25.6175594329834,2.4358935356140137,9.780662536621094
1772533285010279700,1.77027978515625,19.402202606201172,4.092923164367676,8.583653450012207
1772533285020211500,1.78021142578125,13.953146934509277,5.505286693572998,8.85643482208252
1772533285030143000,1.79014306640625,10.204192161560059,6.099305152893066,9.45045280456543
1772533285040076300,1.800076171875,8.178668022155762,6.419943332672119,10.110872268676758
1772533285050007800,1.8100078125,6.9475603103637695,6.309873104095459,10.422536849975586
1772533285059946500,1.819946533203125,6.239284992218018,5.151148796081543,9.981659889221191
1772533285069878800,1.829878662109375,6.358926296234131,3.393620729446411,8.032705307006836
1772533285079829200,1.839829345703125,6.832705020904541,1.3824533224105835,4.484747886657715
1772533285089763600,1.849763671875,6.856633186340332,0.06580262631177902,1.4632110595703125
1772533285099693800,1.85969384765625,6.071787357330322,-0.5138586759567261,0.26620152592658997
1772533285109627400,1.86962744140625,4.438685894012451,-0.8488538265228271,-0.11186445504426956
1772533285119569200,1.879569091796875,1.8197416067123413,-1.0259226560592651,-0.41874396800994873
1772533285129503500,1.88950341796875,-1.6857435703277588,-1.3902299404144287,-0.42352959513664246
1772533285139401700,1.899401611328125,-5.109274387359619,-1.8735800981521606,-0.3852444589138031
1772533285149332700,1.909332763671875,-7.498507976531982,-2.155933141708374,-0.5240281820297241
1772533285159262700,1.9192626953125,-8.906683921813965,-2.71645188331604,-1.222732424736023
1772533285169193500,1.929193359375,-9.22253704071045,-3.281157970428467,-2.2618155479431152
1772533285179153700,1.939153564453125,-8.336593627929688,-3.228515863418579,-2.851048231124878
1772533285189087500,1.94908740234375,-6.200999736785889,-2.6877379417419434,-3.128615617752075
1772533285199012400,1.959012451171875,-3.4576287269592285,-2.1655044555664062,-3.459423303604126
1772533285208945200,1.968945068359375,-1.0199406147003174,-2.251646041870117,-3.4498519897460938
1772533285218879000,1.97887890625,1.6995022296905518,-2.8313074111938477,-3.4307093620300293
1772533285228811800,1.988811767578125,5.147559642791748,-3.1280174255371094,-3.397209882736206
1772533285238741200,1.9987412109375,8.523234367370605,-2.520240545272827,-1.6875381469726562
1772533285248673800,2.008673828125,10.395618438720703,-1.241276741027832,0.615553617477417
1772533285258612000,2.018612060546875,9.78245735168457,-0.7052844762802124,1.5397813320159912
1772533285268545000,2.028544921875,7.05344295501709,-0.9302098155021667,2.2821545600891113
1772533285278483500,2.0384833984375,3.893122434616089,-0.6095715761184692,4.010969161987305
1772533285288417300,2.048417236328125,0.7082754969596863,1.119242787361145,6.883552551269531
1772533285298352000,2.05835205078125,-1.9920248985290527,3.1830523014068604,9.608379364013672
1772533285308286000,2.068285888671875,-3.5341989994049072,4.045066833496094,10.01037311553955
1772533285318205000,2.078204833984375,-3.562912940979004,3.2404799461364746,7.520641803741455
1772533285328137200,2.08813720703125,-2.681756019592285,2.2444677352905273,3.6083765029907227
1772533285338070500,2.098070556640625,-1.6139588356018066,1.7413766384124756,0.44327038526535034
1772533285348003000,2.108003173828125,-0.43609192967414856,1.3537393808364868,-1.2418749332427979
1772533285357906000,2.117906005859375,-0.1579262912273407,0.7645068168640137,-1.7306089401245117
1772533285367835600,2.127835693359375,-0.7040880918502808,0.8703892230987549,-0.5096712112426758
1772533285377794300,2.137794189453125,-1.1874382495880127,1.9716858863830566,2.3300111293792725
1772533285387726800,2.147726806640625,-0.7471588850021362,3.053839921951294,5.260620594024658
1772533285397660400,2.157660400390625,0.8668000102043152,3.9828531742095947,7.04207706451416
1772533285407592700,2.1675927734375,2.283949136734009,4.614558696746826,7.10429048538208
1772533285417526300,2.1775263671875,2.6524438858032227,4.8538408279418945,4.4273200035095215
1772533285427459000,2.187458984375,2.82951283454895,6.50608491897583,0.3858426511287689
1772533285437389600,2.1973896484375,3.064607620239258,9.80518913269043,-1.5726827383041382
1772533285447322000,2.207322021484375,5.152345180511475,13.377673149108887,-1.4195420742034912
1772533285457251300,2.217251220703125,13.704293251037598,16.369897842407227,0.4815555512905121
1772533285467183400,2.227183349609375,30.233911514282227,18.82672882080078,3.1920254230499268
1772533285477115000,2.237114990234375,45.106502532958984,16.528423309326172,7.16650390625
1772533285487047000,2.247046875,50.70929718017578,8.249256134033203,13.688141822814941
1772533285496984300,2.256984375,53.16552734375,6.558726787567139,15.349957466125488
1772533285506916900,2.266916748046875,52.849674224853516,8.368897438049316,14.59322738647461
1772533285516849400,2.276849365234375,45.35535430908203,8.047660827636719,11.887542724609375
1772533285526782200,2.2867822265625,33.475589752197266,8.483752250671387,6.452844619750977
1772533285536690700,2.296690673828125,22.256240844726562,9.991828918457031,1.3196417093276978
1772533285546621000,2.306620849609375,13.24427318572998,11.390434265136719,-1.5774682760238647
1772533285556579600,2.31657958984375,6.110072612762451,12.338589668273926,-3.128615617752075
1772533285566512600,2.3265126953125,1.1682956218719482,11.763714790344238,-4.54636287689209
1772533285576440600,2.336440673828125,-1.6761722564697266,9.235696792602539,-5.197210788726807
1772533285586372900,2.346372802734375,0.17228323221206665,5.160720348358154,-3.583850145339966
1772533285596303000,2.35630322265625,8.34138011932373,0.6831508874893188,-0.01136590726673603
1772533285606235400,2.3662353515625,15.260226249694824,-1.3232308626174927,4.202394962310791
1772533285616169000,2.3761689453125,16.850257873535156,-1.1694921255111694,7.29093074798584
1772533285626101500,2.3861015625,14.963516235351562,-0.4468596279621124,7.22871732711792
1772533285636036600,2.39603662109375,10.917253494262695,-0.4995017349720001,4.168895244598389
1772533285645969400,2.405969482421875,5.114060401916504,-1.4428720474243164,1.3914263248443604
1772533285655908900,2.415908935546875,-0.9337990283966064,-2.568096876144409,-0.3565305769443512
1772533285665842200,2.42584228515625,-5.650650501251221,-2.4388844966888428,-2.05603289604187
1772533285675784400,2.435784423828125,-9.313464164733887,-1.7682958841323853,-3.071187973022461
1772533285685718500,2.445718505859375,-11.784651756286621,-1.9022940397262573,-3.8805601596832275
1772533285695608600,2.455608642578125,-12.555140495300293,-2.620738983154297,-4.28734016418457
1772533285705538600,2.46553857421875,-11.386844635009766,-3.0514471530914307,-3.2865419387817383
1772533285715503000,2.475503173828125,-9.859625816345215,-2.7690939903259277,-1.1700903177261353
1772533285725436400,2.4854365234375,-8.839685440063477,-2.3718855381011963,0.49591249227523804
1772533285735332400,2.495332275390625,-7.000801086425781,-1.7539390325546265,1.3004990816116333
1772533285745261800,2.50526171875,-4.506283283233643,-0.8153542876243591,1.9854445457458496
1772533285755222300,2.51522216796875,-2.1260228157043457,-0.15912270545959473,2.8564319610595703
1772533285765155000,2.525155029296875,0.04307080805301666,-0.2021935135126114,3.3882367610931396
1772533285775083500,2.53508349609375,1.7856439352035522,-0.8201399445533752,3.5222349166870117
1772533285785015800,2.545015869140625,3.6580276489257812,-1.2891331911087036,3.737588882446289
1772533285794948900,2.554948974609375,5.7170515060424805,-1.5625132322311401,3.78544545173645
1772533285804881200,2.564881103515625,7.4362945556640625,-1.892722725868225,3.2829527854919434
1772533285814791000,2.574791015625,7.536793231964111,-1.9166508913040161,2.7224340438842773
1772533285824721000,2.584720947265625,5.315057277679443,-1.3806586265563965,3.1920254230499268
1772533285834684700,2.5946845703125,2.9210381507873535,-0.5330012440681458,3.809373617172241
1772533285844618200,2.6046181640625,1.685145378112793,-0.11605189740657806,3.589233875274658
1772533285854542300,2.614542236328125,1.2831511497497559,0.08015955984592438,2.9001009464263916
1772533285864475000,2.624474853515625,1.2400803565979004,0.0849452018737793,2.349153518676758
1772533285874406100,2.63440625,1.6612170934677124,-0.5617151260375977,1.4536397457122803
1772533285884338700,2.644338623046875,2.4323041439056396,-1.8113667964935303,1.0707881450653076
1772533285894271700,2.654271728515625,3.1746773719787598,-2.836092948913574,0.9559326171875
1772533285904204000,2.6642041015625,3.638885021209717,-3.305086374282837,-0.8063812255859375
1772533285914141200,2.67414111328125,4.084548473358154,-3.597608804702759,-3.0759735107421875
1772533285924074000,2.684073974609375,5.2767720222473145,-3.6598222255706787,-4.474578380584717
1772533285934005800,2.694005859375,6.358926296234131,-2.3958137035369873,-3.6269209384918213
1772533285943938600,2.7039384765625,7.249654293060303,0.09930214285850525,-1.8741782903671265
1772533285953867000,2.713866943359375,8.925228118896484,2.9724838733673096,-0.8925228714942932
1772533285963799600,2.723799560546875,12.162118911743164,4.619344234466553,-0.576670229434967
1772533285973727700,2.733727783203125,15.567106246948242,5.505286693572998,0.022133609279990196
1772533285983659800,2.74365966796875,17.3814640045166,6.740581512451172,1.176072359085083
1772533285993594600,2.7535947265625,17.72662925720215,7.8658061027526855,2.813361167907715
1772533286003527000,2.76352685546875,18.48335838317871,9.202198028564453,4.144967079162598
1772533286013461200,2.773461181640625,20.934804916381836,9.747760772705078,6.079564094543457
1772533286023393800,2.783393798828125,25.804798126220703,8.12961483001709,8.420941352844238
1772533286033313300,2.793313232421875,29.577680587768555,5.711069583892822,8.636295318603516
1772533286043244500,2.80324462890625,32.656646728515625,3.5946178436279297,6.558128833770752
1772533286053190700,2.813190673828125,42.23810577392578,-0.3607180118560791,4.77667236328125
1772533286063123500,2.82312353515625,55.33462142944336,-2.8839495182037354,6.117849349975586
1772533286082980600,2.842980712890625,55.066627502441406,-6.949355125427246,7.482356548309326
1772533286092896300,2.852896240234375,45.88237380981445,-8.251648902893066,4.805386066436768
1772533286102826500,2.862826416015625,34.79702377319336,-8.079365730285645,2.3443679809570312
1772533286112757200,2.87275732421875,24.904497146606445,-6.226124286651611,0.03170489892363548
1772533286122687500,2.8826875,17.559131622314453,-4.55055046081543,-2.6835505962371826
1772533286132623600,2.89262353515625,12.373286247253418,-3.544966697692871,-4.3686957359313965
1772533286142554600,2.9025546875,9.093324661254883,-2.682952404022217,-5.335994720458984
1772533286152490500,2.912490478515625,6.574280261993408,-2.410170555114746,-5.412564754486084
1772533286162421800,2.922421875,4.72582483291626,-2.558525562286377,-3.899702787399292
1772533286172358700,2.932358642578125,4.371686935424805,-2.9557342529296875,-2.42512583732605
1772533286182290400,2.94229052734375,5.204987525939941,-4.18145751953125,-2.5591237545013428
1772533286192214000,2.952214111328125,5.042275428771973,-5.416752338409424,-3.0137600898742676
1772533286202145000,2.96214501953125,3.466601848602295,-5.484349727630615,-2.3336002826690674
1772533286212081400,2.972081298828125,0.4307080805301666,-4.842474937438965,-1.0552347898483276
1772533286222013000,2.982012939453125,-4.59721040725708,-2.888735055923462,0.7495517134666443
1772533286231960800,2.9919609375,-11.042278289794922,-1.1168500185012817,1.8705891370773315
1772533286241894100,3.00189404296875,-16.103696823120117,-0.10169496387243271,1.7407784461975098
1772533286251810300,3.011810302734375,-17.248064041137695,0.12801600992679596,1.683350682258606
1772533286261741800,3.021741943359375,-17.219350814819336,-2.1272194385528564,1.932802438735962
1772533286271674000,3.031674072265625,-16.543975830078125,-3.64546537399292,1.9710876941680908
1772533286281606000,3.04160595703125,-13.756935119628906,-3.6167514324188232,1.4249259233474731
1772533286291574300,3.05157421875,-9.562317848205566,-2.7355945110321045,0.7734799385070801
1772533286301509600,3.061509521484375,-5.894718647003174,-1.490728497505188,1.0037890672683716
1772533286311429600,3.0714296875,2.7625136375427246,-0.24526432156562805,-0.9068797826766968
1772533286321363500,3.081363525390625,8.46580696105957,-0.18305093050003052,-0.7058826684951782
1772533286331298000,3.091298095703125,11.161321640014648,-1.3567304611206055,3.4887354373931885
1772533286341231900,3.10123193359375,12.837493896484375,-0.6239284873008728,4.613960266113281
1772533286351155200,3.1111552734375,12.421142578125,-0.5186443328857422,3.713660717010498
1772533286361088000,3.121087890625,10.194621086120605,-1.4141582250595093,1.7694923877716064
1772533286371021000,3.13102099609375,7.378866672515869,-2.582453727722168,-0.8350951075553894
1772533286380953900,3.140953857421875,3.3230323791503906,-2.6973092555999756,-1.9316060543060303
1772533286390887400,3.150887451171875,-1.566102385520935,-1.4620146751403809,-0.6149554252624512
1772533286400820200,3.1608203125,-4.755136966705322,-0.48514479398727417,1.1234302520751953
1772533286410762200,3.17076220703125,-4.53499698638916,0.8464609980583191,2.1242282390594482
1772533286420696000,3.180696044921875,-3.620340585708618,0.8512466549873352,2.2534406185150146
1772533286430613000,3.190613037109375,-1.8436698913574219,-0.2021935135126114,0.5772684812545776
1772533286440545000,3.200544921875,0.8524430394172668,-0.16390834748744965,-1.6109678745269775
1772533286450480000,3.210480224609375,3.0789644718170166,0.25244277715682983,-2.314457654953003
1772533286460412400,3.220412353515625,4.271188259124756,1.090528964996338,-0.1788634955883026
1772533286470342400,3.23034228515625,4.41475772857666,2.823530673980713,3.6323046684265137
1772533286480274700,3.240274658203125,4.730610370635986,4.18863582611084,6.534200668334961
1772533286490167600,3.25016748046875,5.922834396362305,4.667200565338135,7.444071292877197
1772533286500095700,3.260095703125,5.971288681030273,3.8291144371032715,5.657829284667969
1772533286510068200,3.270068115234375,7.067800045013428,2.7086751461029053,1.9232312440872192
1772533286520001000,3.2800009765625,7.934001445770264,1.8664016723632812,-2.42512583732605
1772533286529944000,3.289944091796875,8.336593627929688,1.3250255584716797,-5.523232936859131
1772533286539878000,3.2998779296875,7.809575080871582,2.8624141216278076,-4.268197536468506
1772533286549801500,3.309801513671875,8.403593063354492,5.9407806396484375,-0.7441678643226624
1772533286559734300,3.319734375,12.66999626159668,6.936792850494385,0.8841479420661926
1772533286569667600,3.32966748046875,20.340787887573242,6.5252275466918945,2.991028308868408
1772533286579600600,3.3396005859375,34.060035705566406,5.55314302444458,6.471987247467041
1772533286589505000,3.349505126953125,49.42076110839844,4.088137626647949,9.90987491607666
1772533286599434800,3.359434814453125,55.88078308105469,0.6879364848136902,12.505489349365234
1772533286609393200,3.36939306640625,58.33701705932617,-3.290729284286499,6.32363224029541
1772533286619326000,3.379325927734375,60.879390716552734,-6.3361945152282715,-3.5886356830596924
1772533286629273300,3.3892734375,57.8195686340332,-7.801798343658447,-5.896512985229492
1772533286639207400,3.39920751953125,47.39044952392578,-8.208578109741211,-3.348755359649658
1772533286649120500,3.40912060546875,33.72922897338867,-6.547360897064209,-1.0504491329193115
1772533286659052800,3.419052734375,20.29771614074707,-3.218944549560547,1.1042876243591309
1772533286668985000,3.428985107421875,11.209775924682617,-0.18305093050003052,1.7120646238327026
1772533286678917000,3.438917236328125,6.928418159484863,1.8807586431503296,2.578864574432373
1772533286688852500,3.4488525390625,5.870192050933838,1.9908283948898315,3.5365917682647705
1772533286698785000,3.458784912109375,9.480961799621582,-0.05383851006627083,1.6163517236709595
1772533286708692200,3.468692138671875,14.499308586120605,-2.218146562576294,-1.2610175609588623
1772533286718622200,3.478622314453125,16.15574073791504,-3.2141590118408203,-3.5024940967559814
1772533286728582000,3.488581787109375,13.555938720703125,-4.320241451263428,-4.833501815795898
1772533286738515000,3.498514892578125,7.584649562835693,-3.6837503910064697,-1.8023936748504639
1772533286748446700,3.50844677734375,0.3397808074951172,-1.4189438819885254,0.735194742679596
1772533286758379500,3.518379638671875,-6.401997089385986,-1.7060825824737549,-1.6636099815368652
1772533286768311300,3.528311279296875,-11.415558815002441,-2.874378204345703,-4.17726993560791
1772533286778244000,3.538244140625,-14.729020118713379,-2.472383975982666,-3.0903303623199463
1772533286788179000,3.548178955078125,-16.941781997680664,-1.0259226560592651,-0.8446664214134216
1772533286798112000,3.558112060546875,-18.602998733520508,-0.6430711150169373,0.3810569941997528
1772533286808039700,3.568039794921875,-18.229719161987305,-1.8640087842941284,-0.030508488416671753
1772533286817972200,3.57797216796875,-13.934602737426758,-3.4923245906829834,-2.213959217071533
1772533286827916000,3.587916015625,-8.715258598327637,-4.406383037567139,-3.8183467388153076
1772533286837849900,3.597849853515625,-4.5206403732299805,-4.310669898986816,-4.30169677734375
1772533286847778300,3.6077783203125,-1.1826525926589966,-4.023531436920166,-3.8087754249572754
1772533286857711400,3.61771142578125,2.2743778228759766,-4.36809778213501,-2.36291241645813
1772533286867630000,3.627630126953125,6.181857109069824,-4.36809778213501,0.357128769159317
1772533286877561600,3.6375615234375,8.188239097595215,-3.094517946243286,3.6705899238586426
1772533286887500000,3.6475,7.718647480010986,-2.5058834552764893,4.637888431549072
1772533286897432600,3.6574326171875,6.612565517425537,-2.6494529247283936,3.383451223373413
1772533286907359000,3.66735888671875,5.13320255279541,-1.9453648328781128,2.688934564590454
1772533286917290800,3.677290771484375,3.5096726417541504,-0.6047859191894531,3.6945180892944336
1772533286927227600,3.6872275390625,3.318246841430664,0.6592226624488831,4.058825492858887
1772533286937160000,3.697159912109375,3.5096726417541504,1.6983058452606201,2.8420751094818115
1772533286947089700,3.707089599609375,2.9114668369293213,2.867199659347534,3.16331148147583
1772533286957021700,3.717021728515625,3.0071799755096436,4.470989227294922,5.4951171875
1772533286966947600,3.726947509765625,3.955335855484009,4.83469820022583,6.912266254425049
1772533286976879000,3.736879150390625,4.151547431945801,4.8777689933776855,6.988836765289307
1772533286986820000,3.746820068359375,3.4570305347442627,4.758127689361572,6.974479675292969
1772533286996752400,3.75675244140625,2.6524438858032227,3.848257064819336,5.389832973480225
1772533287006696400,3.766696533203125,2.39401912689209,2.2444677352905273,1.8753747940063477
1772533287016630000,3.776630126953125,2.0925233364105225,1.1240284442901611,-1.5248262882232666
1772533287026559500,3.7865595703125,0.48813581466674805,0.625723123550415,-4.339982032775879
1772533287036492500,3.796492431640625,-1.5852450132369995,1.0426725149154663,-5.259424209594727
1772533287046420000,3.806419921875,-1.934597134590149,2.249253273010254,-4.718646049499512
1772533287056352300,3.816352294921875,0.46899324655532837,2.7565317153930664,-4.229912281036377
1772533287066278100,3.826278076171875,5.252843856811523,1.9812572002410889,-4.436293125152588
1772533287076210000,3.8362099609375,10.721041679382324,1.5260226726531982,-4.785645484924316
1772533287086120000,3.846119873046875,14.537593841552734,1.3154542446136475,-4.182055950164795
1772533287096049700,3.856049560546875,14.69073486328125,2.3880369663238525,-3.291327476501465
1772533287106007800,3.8660078125,12.976277351379395,3.944568157196045,-2.348555326461792
1772533287115940000,3.875940185546875,13.61336612701416,4.719842433929443,0.5150550603866577
1772533287125869800,3.885869873046875,23.261825561523438,3.5371899604797363,3.814159393310547
1772533287135802000,3.895802001953125,38.92942810058594,1.7270197868347168,6.40020227432251
1772533287145735000,3.90573486328125,45.37449645996094,-2.984447956085205,7.463213920593262
1772533287155667200,3.915667236328125,45.619163513183594,-10.186245918273926,-3.080759048461914
1772533287165631200,3.92563134765625,52.51886749267578,-15.281163215637207,-15.66939926147461
1772533287175566800,3.93556689453125,60.67839431762695,-15.735799789428711,-19.5816650390625
1772533287185481200,3.945481201171875,56.134422302246094,-12.642477989196777,-15.439687728881836
1772533287205342700,3.9653427734375,29.34796905517578,-4.904688358306885,-2.0033907890319824
1772533287215275500,3.975275634765625,14.216357231140137,-0.4325026869773865,0.7208378314971924
1772533287225171700,3.985171630859375,3.902693748474121,3.833899974822998,4.183252334594727
1772533287235101000,3.995100830078125,0.4833501875400543,7.033103942871094,8.444869041442871
1772533287245060000,4.00506005859375,3.294318675994873,6.888936519622803,10.240682601928711
1772533287254992100,4.0149921875,9.897313117980957,3.1447670459747314,8.051848411560059
1772533287264924200,4.024924072265625,17.573488235473633,-1.9357935190200806,1.9519450664520264
1772533287274856400,4.0348564453125,22.826332092285156,-5.675775527954102,-4.522434711456299
1772533287284801800,4.0448017578125,24.578475952148438,-7.298707485198975,-9.262616157531738
1772533287294735000,4.054735107421875,23.644676208496094,-6.221338748931885,-9.81356430053711
1772533287304627500,4.06462744140625,19.575084686279297,-4.147958278656006,-6.22193717956543
1772533287314556700,4.074556640625,12.607782363891602,-2.936591625213623,-3.3583266735076904
1772533287324503300,4.08450341796875,4.936991214752197,-2.692523717880249,-2.9180471897125244
1772533287334434300,4.094434326171875,-1.7479569911956787,-2.5537400245666504,-2.616551637649536
1772533287344361700,4.10436181640625,-8.331808090209961,-1.5002998113632202,-0.6005984544754028
1772533287354292200,4.114292236328125,-14.551950454711914,-0.3320041298866272,1.937588095664978
1772533287364224500,4.124224609375,-18.827924728393555,0.0323031060397625,3.737588882446289
1772533287374155500,4.134155517578125,-19.795223236083984,0.02751746028661728,4.479962348937988
1772533287384124000,4.1441240234375,-17.798412322998047,0.15194423496723175,4.432105541229248
1772533287394058500,4.15405859375,-13.992030143737793,0.02273181453347206,3.751945972442627
1772533287403956700,4.163956787109375,-8.197810173034668,-0.3846462368965149,1.506281852722168
1772533287413887700,4.1738876953125,-3.845266103744507,-1.236491084098816,-1.0887342691421509
1772533287423829200,4.183829345703125,-0.9672985672950745,-2.194218397140503,-1.5487544536590576
1772533287433761300,4.19376123046875,0.2153540402650833,-2.03629207611084,-0.3852444589138031
1772533287443719400,4.203719482421875,0.30149564146995544,-1.6390835046768188,1.7455641031265259
1772533287453654000,4.213654052734375,0.1339980661869049,-1.5864413976669312,4.111467361450195
1772533287463577300,4.223577392578125,0.3397808074951172,-1.6151553392410278,5.710471153259277
1772533287473511000,4.233510986328125,0.22492532432079315,-1.9836499691009521,5.710471153259277
1772533287483435800,4.243435791015625,-0.6658028960227966,-2.5058834552764893,4.978267669677734
1772533287493368300,4.253368408203125,-1.5517455339431763,-2.434098720550537,4.240679740905762
1772533287503297800,4.2632978515625,-1.5708880424499512,-1.9453648328781128,3.311666488647461
1772533287513230000,4.27322998046875,-1.0630114078521729,-1.3615161180496216,2.9288148880004883
1772533287523163000,4.283162841796875,-0.527019202709198,-0.8488538265228271,2.435295343399048
1772533287533095400,4.293095458984375,-0.2877369225025177,-0.19262222945690155,2.0141584873199463
1772533287543025400,4.303025390625,-0.02871387079358101,-0.50907301902771,1.6354942321777344
1772533287552957400,4.31295751953125,0.8955138921737671,-0.877567708492279,1.4249259233474731
1772533287562903800,4.32290380859375,2.025524377822876,-0.32721850275993347,2.152942180633545
1772533287572837000,4.332837158203125,3.088535785675049,0.003589233849197626,2.2773690223693848
1772533287582760200,4.34276025390625,4.29033088684082,-0.18305093050003052,1.0037890672683716
1772533287592692700,4.352692626953125,4.878965377807617,0.21415762603282928,0.2470589429140091
1772533287602631000,4.362630859375,4.405186653137207,1.3920245170593262,0.7208378314971924
1772533287612564000,4.37256396484375,4.036691665649414,2.3880369663238525,0.7932206988334656
1772533287622483500,4.3824833984375,5.554339408874512,2.56510591506958,-0.09272187948226929
1772533287632415200,4.392415283203125,9.236893653869629,2.517249345779419,-1.6348960399627686
1772533287642351600,4.4023515625,12.32542896270752,3.178266763687134,-3.1238300800323486
1772533287652284000,4.412283935546875,13.259228706359863,3.7046875953674316,-3.6221351623535156
1772533287662214100,4.422214111328125,14.202000617980957,4.552345275878906,-3.3583266735076904
1772533287672146200,4.432146240234375,17.328821182250977,6.056233882904053,-3.583850145339966
1772533287682067700,4.442067626953125,23.108684539794922,7.167101860046387,-4.124628067016602
1772533287691998700,4.451998779296875,31.718061447143555,6.879364967346191,-3.6699917316436768
1772533287701941500,4.46194140625,42.9804801940918,5.208576679229736,-2.5639095306396484
1772533287711873800,4.471873779296875,52.08816146850586,-0.7674978375434875,-0.4713860750198364
1772533287721810400,4.481810546875,58.06901931762695,-5.704489231109619,-2.386840581893921
1772533287731743000,4.491742919921875,61.19105529785156,-6.934998035430908,-4.599005222320557
1772533287741673000,4.5016728515625,57.57550048828125,-5.723631858825684,-3.459423303604126
1772533287751605200,4.511605224609375,47.313880920410156,-4.866403102874756,-3.339184045791626
1772533287761550800,4.52155078125,35.16611862182617,-4.990829944610596,-5.752943992614746
1772533287771484400,4.531484375,23.343181610107422,-3.046661376953125,-6.059225082397461
1772533287781377000,4.541376953125,14.298311233520508,1.1431710720062256,-2.4059832096099854
1772533287791306800,4.551306640625,8.49452018737793,4.9160542488098145,1.511067509651184
1772533287801275100,4.561275146484375,4.66361141204834,6.338587284088135,3.910470485687256
1772533287811208400,4.57120849609375,2.609373092651367,6.687939167022705,6.0987067222595215
1772533287821132500,4.581132568359375,2.355733871459961,5.868995666503906,7.109076023101807
1772533287831065000,4.591065185546875,7.120441913604736,2.6799614429473877,4.207180500030518
1772533287840982300,4.600982177734375,12.866207122802734,-0.9206385016441345,-0.006580262444913387
1772533287850913300,4.610913330078125,13.680365562438965,-2.534597396850586,-2.237887382507324
1772533287860808000,4.620807861328125,10.582258224487305,-2.65423846244812,-3.1094729900360107
1772533287880727600,4.6407275390625,1.1730812788009644,-1.2939188480377197,-1.184447169303894
1772533287890663400,4.650663330078125,-4.199403762817383,-0.542572557926178,-0.2991028428077698
1772533287900587500,4.66058740234375,-8.71047306060791,0.02751746028661728,0.03170489892363548
1772533287910522000,4.670522216796875,-12.21057415008545,0.3768695592880249,0.06520441919565201
1772533287920454400,4.680454345703125,-14.537593841552734,0.5060819983482361,0.2566302418708801
1772533287930388700,4.690388671875,-15.217753410339355,0.23330020904541016,0.3236292600631714
1772533287940315600,4.700315673828125,-12.430713653564453,-0.7004988193511963,-0.5479564070701599
1772533287950249200,4.710249267578125,-7.532007694244385,-1.825723648071289,-1.4865410327911377
1772533287960158000,4.720157958984375,-3.462414264678955,-2.376671075820923,-1.835893154144287
1772533287970089000,4.7300888671875,-0.3451646566390991,-2.5633113384246826,-2.0608184337615967
1772533287980046800,4.740046875,1.5128620862960815,-3.0035905838012695,-2.252244234085083
1772533287989980700,4.749980712890625,2.5088746547698975,-3.3003005981445312,-1.8406788110733032
1772533287999910100,4.75991015625,2.916252613067627,-2.9796624183654785,-0.5479564070701599
1772533288009843500,4.769843505859375,2.9928228855133057,-2.764308452606201,0.8410771489143372
1772533288019776500,4.779776611328125,3.0837502479553223,-2.6350958347320557,2.349153518676758
1772533288029709800,4.789709716796875,2.868396043777466,-2.218146562576294,3.7328033447265625
1772533288039643100,4.79964306640625,2.307877540588379,-1.7491533756256104,4.585246562957764
1772533288049576400,4.809576416015625,1.7617156505584717,-1.2939188480377197,4.633102893829346
1772533288059481000,4.819481201171875,1.1874382495880127,-0.6287141442298889,4.393820762634277
1772533288069411600,4.82941162109375,0.6364908218383789,-0.42293140292167664,3.680161237716675
1772533288079374000,4.8393740234375,0.1579262912273407,-0.5712863802909851,2.7224340438842773
1772533288089307600,4.8493076171875,-0.03349951654672623,-0.8009973764419556,2.129014015197754
1772533288099216400,4.85921630859375,0.2584248483181,-0.8392825126647949,1.4775680303573608
1772533288109147400,4.8691474609375,0.550349235534668,-0.32243284583091736,1.6402798891067505
1772533288119100700,4.8791005859375,0.4785645306110382,-0.29371899366378784,1.7216359376907349
1772533288129034000,4.889033935546875,0.1818545162677765,0.05623133108019829,1.8370895385742188
1772533288138976500,4.8989765625,0.22013968229293823,0.875174880027771,2.373081922531128
1772533288148910800,4.908910888671875,1.3692927360534668,1.3728820085525513,2.239083766937256
1772533288158842000,4.918842041015625,3.0215368270874023,1.4015958309173584,1.2861422300338745
1772533288168776000,4.92877587890625,4.587040901184082,1.4925230741500854,0.30927231907844543
1772533288178693400,4.938693359375,6.052644729614258,1.947757601737976,-0.6532405614852905
1772533288188626000,4.9486259765625,7.11565637588501,2.919841766357422,-1.007378339767456
1772533288198557400,4.958557373046875,7.17786979675293,4.643272399902344,-0.19322042167186737
1772533288208489500,4.968489501953125,4.9704909324646,6.721438884735107,1.4584254026412964
1772533288218420700,4.978420654296875,1.8771693706512451,8.004590034484863,2.3443679809570312
1772533288228352800,4.988352783203125,1.536790370941162,7.8658061027526855,2.0141584873199463
1772533288238289200,4.9982890625,7.350152969360352,5.443073272705078,1.7599210739135742
1772533288248221700,5.0082216796875,21.811176300048828,0.9804590940475464,1.4967105388641357
1772533288258151400,5.0181513671875,45.47499465942383,-4.483551502227783,1.357926845550537
1772533288268083700,5.028083740234375,67.33941650390625,-9.295517921447754,1.6450655460357666
1772533288287948800,5.04794873046875,71.09315490722656,-17.397615432739258,-0.8350951075553894
1772533288307811800,5.067811767578125,54.82196044921875,-16.35374641418457,-8.448458671569824
1772533288317744600,5.07774462890625,45.19742965698242,-14.371293067932129,-9.487542152404785
1772533288327677000,5.087677001953125,34.91188049316406,-11.407183647155762,-8.271389961242676
1772533288337595400,5.097595458984375,24.37269401550293,-7.537989616394043,-5.652445316314697
1772533288347526100,5.107526123046875,16.069599151611328,-3.841676712036133,-3.315255880355835
1772533288357449500,5.117449462890625,10.323833465576172,-0.9302098155021667,-0.9690931439399719
1772533288367379500,5.12737939453125,6.535995006561279,1.430309772491455,1.8077775239944458
1772533288377341000,5.1373408203125,4.175475597381592,2.823530673980713,3.7806596755981445
1772533288387274000,5.14727392578125,2.6572296619415283,2.6560330390930176,4.101896286010742
1772533288397204200,5.157204345703125,1.771286964416504,1.6456637382507324,2.554936408996582
1772533288407137300,5.16713720703125,3.4809587001800537,-0.5665007829666138,-0.8638089895248413
1772533288417069600,5.177069580078125,5.228915691375732,-2.754737138748169,-2.678765058517456
1772533288427002600,5.187002685546875,4.878965377807617,-3.094517946243286,-1.9698911905288696
1772533288436933400,5.196933349609375,3.1411778926849365,-2.812164783477783,-0.8303094506263733
1772533288446866000,5.206865966796875,0.9433703422546387,-2.84087872505188,-0.5048855543136597
1772533288456798000,5.2167978515625,-2.169093608856201,-2.2372891902923584,-0.4139583110809326
1772533288466730500,5.22673046875,-6.957729816436768,-0.9110672473907471,0.6059823632240295
1772533288476663600,5.23666357421875,-12.143574714660645,0.017946170642971992,1.5493526458740234
1772533288486596000,5.24659619140625,-16.443477630615234,0.16151553392410278,2.186441659927368
1772533288496505300,5.25650537109375,-19.106090545654297,-0.0729810893535614,2.2773690223693848
1772533288506435600,5.266435546875,-18.885353088378906,-0.4612165689468384,0.9511470198631287
1772533288516395500,5.2763955078125,-14.618949890136719,-1.083350419998169,-1.6588243246078491
1772533288526328800,5.286328857421875,-8.98803997039795,-2.0171494483947754,-3.7082769870758057
1772533288536267500,5.296267578125,-3.85483717918396,-2.754737138748169,-4.54636287689209
1772533288546201300,5.306201416015625,1.0342975854873657,-3.2237303256988525,-4.205984115600586
1772533288556132000,5.316132080078125,5.1188459396362305,-3.678964853286743,-3.219542980194092
1772533288566065700,5.326065673828125,7.259225845336914,-3.5545380115509033,-1.4817553758621216
1772533288575993900,5.335993896484375,7.780860900878906,-2.9078776836395264,1.4488540887832642
1772533288585927000,5.345927001953125,8.054241180419922,-2.4293131828308105,3.7806596755981445
1772533288595828200,5.355828125,7.8382887840271,-2.544168710708618,3.958326816558838
1772533288605758000,5.365758056640625,6.626922130584717,-2.544168710708618,3.1680972576141357
1772533288615692500,5.375692626953125,5.085346221923828,-2.1750757694244385,2.454437732696533
1772533288625623000,5.385623046875,3.6293137073516846,-1.7012969255447388,1.817348837852478
1772533288635590400,5.39559033203125,2.1882362365722656,-0.9397810697555542,1.4727823734283447
1772533288645524500,5.4055244140625,0.5216353535652161,-0.2069791555404663,2.215155601501465
1772533288655420700,5.415420654296875,-0.05742774158716202,0.25244277715682983,2.7320053577423096
1772533288665351000,5.425350830078125,0.7998009920120239,0.1423729509115219,2.176870346069336
1772533288675282000,5.435281982421875,1.709073543548584,-0.11605189740657806,1.937588095664978
1772533288685212400,5.44521240234375,2.403590440750122,0.10408778488636017,2.35872483253479
1772533288695169000,5.4551689453125,2.964108943939209,0.8321040868759155,2.7846474647521973
1772533288705101800,5.465101806640625,2.8103702068328857,1.6552350521087646,2.885744094848633
1772533288724978400,5.484978515625,2.417947292327881,3.6185460090637207,2.6985056400299072
1772533288734911000,5.494910888671875,2.183450698852539,4.131208419799805,2.0093727111816406
1772533288744844800,5.5048447265625,2.1403799057006836,4.078566074371338,0.5533402562141418
1772533288754768400,5.514768310546875,3.308675527572632,3.7573297023773193,-0.7776673436164856
1772533288764701000,5.524700927734375,4.644468784332275,4.078566074371338,-0.8925228714942932
1772533288774626300,5.534626220703125,6.057430744171143,4.490131855010986,-0.11665010452270508
1772533288784558300,5.544558349609375,8.714659690856934,4.753342151641846,0.9942178130149841
1772533288794494500,5.554494384765625,14.07278823852539,5.050650596618652,2.679363250732422
1772533288804426800,5.5644267578125,22.90768814086914,4.3178486824035645,2.6697919368743896
1772533288814352600,5.5743525390625,34.36631774902344,2.794816732406616,1.2382856607437134
1772533288824284400,5.584284423828125,45.67180633544922,0.05623133108019829,1.6450655460357666
1772533288834223600,5.5942236328125,51.03472137451172,-5.513063430786133,2.909672260284424
1772533288844156200,5.60415625,53.557952880859375,-7.926225185394287,1.01814603805542
1772533288854088700,5.614088623046875,55.382476806640625,-8.380861282348633,-0.9308080077171326
1772533288864021200,5.624021240234375,53.69194793701172,-9.803394317626953,-2.0656042098999023
1772533288873953300,5.633953369140625,47.25166702270508,-10.195816993713379,-4.455435752868652
1772533288883885600,5.643885498046875,38.532222747802734,-9.415159225463867,-5.896512985229492
1772533288893822700,5.65382275390625,29.864818572998047,-6.963712215423584,-4.436293125152588
1772533288903755500,5.663755615234375,22.26581382751465,-3.0897321701049805,-1.347757339477539
1772533288913683500,5.673683349609375,17.218751907348633,0.1663011759519577,1.1042876243591309
1772533288923616000,5.683615966796875,13.94836139678955,1.9142581224441528,2.679363250732422
1772533288933564200,5.693564208984375,11.08475112915039,2.8283164501190186,4.13060998916626
1772533288943498200,5.703498291015625,9.753743171691895,2.919841766357422,4.7575297355651855
1772533288953410000,5.71341015625,10.39083194732666,1.7222341299057007,3.22552490234375
1772533288963341800,5.723341796875,10.831111907958984,-0.13040883839130402,1.0660024881362915
1772533288973256000,5.733255859375,9.117252349853516,-1.174277663230896,-0.3038884699344635
1772533288983186000,5.74318603515625,6.157928943634033,-1.8640087842941284,-1.2610175609588623
1772533288993141800,5.753141845703125,3.11246395111084,-2.4293131828308105,-2.2713868618011475
1772533289003074600,5.763074462890625,0.11006984114646912,-2.7116663455963135,-3.1238300800323486
1772533289013007000,5.773007080078125,-3.0550363063812256,-2.974876642227173,-3.4307093620300293
1772533289022939600,5.782939697265625,-5.760720729827881,-2.802593469619751,-3.080759048461914
1772533289032864500,5.792864501953125,-7.762316703796387,-1.7395820617675781,-2.15653133392334
1772533289042796300,5.80279638671875,-10.108479499816895,-0.32721850275993347,-0.6197410821914673
1772533289052735200,5.8127353515625,-12.44985580444336,0.486939400434494,0.5629115104675293
1772533289062667800,5.822667724609375,-14.188241958618164,0.18544375896453857,1.0660024881362915
1772533289072598800,5.832598876953125,-14.96411418914795,-0.50907301902771,0.9559326171875
1772533289082531000,5.842531005859375,-14.446666717529297,-0.5569294691085815,0.8075776696205139
1772533289092439600,5.852439453125,-11.918649673461914,-0.3128615617752075,0.6777670383453369
1772533289102369500,5.86236962890625,-7.977670669555664,-0.6191428303718567,0.7399803996086121
1772533289112333300,5.872333251953125,-3.303889751434326,-1.3184453248977661,0.3762713670730591
1772533289122266600,5.8822666015625,2.011167526245117,-2.280359983444214,-0.8303094506263733
1772533289132191500,5.89219140625,6.445067882537842,-3.290729284286499,-1.414756417274475
1772533289142124000,5.9021240234375,9.145966529846191,-3.6358940601348877,-0.6675975322723389
1772533289152053200,5.91205322265625,10.395618438720703,-3.3003005981445312,1.5541383028030396
1772533289161985500,5.921985595703125,10.72582721710205,-2.568096876144409,3.6083765029907227
1772533289171929600,5.9319296875,9.662816047668457,-2.2851455211639404,3.761517286300659
1772533289181863000,5.94186279296875,7.206583499908447,-2.2133610248565674,2.885744094848633
1772533289191784400,5.951784423828125,4.60139799118042,-1.9597218036651611,1.9423737525939941
1772533289201716500,5.961716552734375,2.2408783435821533,-1.6773686408996582,1.2957134246826172
1772533289211661000,5.9716611328125,0.349352091550827,-1.0785647630691528,1.4871392250061035
1772533289221594600,5.9815947265625,-0.8955138921737671,-0.3798605799674988,2.6554348468780518
1772533289231523300,5.9915234375,-0.9720842242240906,-0.29371899366378784,3.6370904445648193
1772533289241456000,6.0014560546875,0.5407779216766357,-0.9445667266845703,3.728017568588257
1772533289251379000,6.01137890625,2.149951219558716,-1.174277663230896,3.4791641235351562
1772533289261310700,6.021310791015625,2.3461625576019287,-1.0115658044815063,3.8907296657562256
1772533289271246800,6.031246826171875,1.532004714012146,-0.753140926361084,3.862015724182129
1772533289281179400,6.041179443359375,-0.019142581149935722,-0.28893333673477173,3.0580272674560547
1772533289291119000,6.051119140625,-1.1012966632843018,0.18544375896453857,1.0660024881362915
1772533289301052400,6.061052490234375,-1.1012966632843018,1.0809576511383057,-1.9172492027282715
1772533289310974500,6.070974365234375,-0.5174478888511658,2.867199659347534,-4.431507587432861
1772533289320906500,6.080906494140625,-0.43609192967414856,4.925625324249268,-5.106283664703369
1772533289330842000,6.090842041015625,-0.014356935396790504,6.190232276916504,-4.60857629776001
1772533289340774700,6.100774658203125,1.848455548286438,7.372884750366211,-4.205984115600586
1772533289350706700,6.110706787109375,6.134000778198242,8.957531929016113,-3.032902717590332
1772533289370564400,6.130564453125,29.065616607666016,7.028318405151367,-1.9124635457992554
1772533289380496000,6.140495849609375,47.76911544799805,2.2636101245880127,-0.1740778535604477
1772533289390444500,6.150444580078125,65.38567352294922,-0.5042873620986938,2.3635106086730957
1772533289400377900,6.1603779296875,70.37471008300781,-2.898306369781494,3.005385160446167
1772533289410294800,6.170294677734375,65.15058135986328,-5.670989513397217,1.999801516532898
1772533289420226300,6.180226318359375,57.86742401123047,-6.2500529289245605,1.200000524520874
1772533289430162700,6.19016259765625,50.670413970947266,-6.667002201080322,0.735194742679596
1772533289440094700,6.2000947265625,44.0817756652832,-7.049853801727295,-0.049651071429252625
1772533289450025500,6.210025390625,37.502708435058594,-6.489335060119629,-0.4331009089946747
1772533289459957500,6.21995751953125,29.42453956604004,-4.842474937438965,0.30927231907844543
1772533289469891300,6.229891357421875,20.393428802490234,-2.6877379417419434,1.0995019674301147
1772533289479823600,6.23982373046875,12.732209205627441,-1.0546365976333618,1.0947163105010986
1772533289489762000,6.249761962890625,7.043871879577637,-0.19740787148475647,0.46719861030578613
1772533289499694800,6.25969482421875,3.122035264968872,0.24287149310112,-0.5383850932121277
1772533289509618400,6.269618408203125,1.6133606433868408,-0.039481572806835175,-0.42831525206565857
1772533289519550500,6.279550537109375,2.8588249683380127,-0.24047867953777313,3.507878065109253
1772533289529484000,6.289484130859375,5.472983360290527,0.9852447509765625,8.215158462524414
1772533289539416000,6.299416015625,6.952346324920654,1.7222341299057007,9.747162818908691
1772533289549346600,6.3093466796875,5.941977024078369,0.8608179688453674,8.023134231567383
1772533289559278600,6.319278564453125,2.6285157203674316,0.12801600992679596,5.418546676635742
1772533289569211600,6.329211669921875,-1.389033555984497,-0.7627122402191162,2.8564319610595703
1772533289579143700,6.339143798828125,-3.4959139823913574,-2.5154547691345215,-0.8159525394439697
1772533289589074700,6.34907470703125,-3.9744784832000732,-3.0562326908111572,-3.3924243450164795
1772533289599006700,6.3590068359375,-4.549354076385498,-2.337787628173828,-2.6739792823791504
1772533289608942000,6.368942138671875,-6.090929985046387,-1.3088740110397339,-0.5958128571510315
1772533289618874400,6.378874267578125,-8.705686569213867,-0.48514479398727417,1.2287144660949707
1772533289628817200,6.388817138671875,-12.268001556396484,-0.5521438121795654,2.822932481765747
1772533289638750500,6.39875048828125,-15.222539901733398,-1.0067801475524902,3.0580272674560547
1772533289648683500,6.40868359375,-15.581462860107422,-0.9828519225120544,1.3196417093276978
1772533289658616800,6.418616943359375,-12.862019538879395,-0.906281590461731,-0.7728816866874695
1772533289668546300,6.42854638671875,-8.441878318786621,-1.155135154724121,-1.587039589881897
1772533289678479400,6.438479248046875,-3.9314076900482178,-1.4476577043533325,-0.6771687865257263
1772533289688400100,6.448400146484375,0.6795616149902344,-1.9645073413848877,0.5054838061332703
1772533289698331600,6.45833154296875,5.013561725616455,-2.596810817718506,1.1377872228622437
1772533289708250600,6.468250732421875,8.159524917602539,-3.0897321701049805,0.9655039310455322
1772533289718180900,6.478180908203125,9.179466247558594,-3.449253797531128,0.3858426511287689
1772533289728110000,6.488110107421875,7.675576686859131,-3.7842490673065186,0.06999006122350693
1772533289738040300,6.498040283203125,5.425127029418945,-4.229313850402832,-0.2847459018230438
1772533289757896200,6.517896240234375,1.8628123998641968,-4.210171222686768,-0.576670229434967
1772533289777776400,6.5377763671875,-1.1635099649429321,-4.708476543426514,-2.190030813217163
1772533289787711500,6.54771142578125,-2.3126630783081055,-4.037888050079346,-2.1948165893554688
1772533289797633500,6.557633544921875,-2.0829520225524902,-2.7451658248901367,-1.965105652809143
1772533289807567400,6.5675673828125,-0.6227321028709412,-1.4093725681304932,-1.6205391883850098
1772533289817498400,6.577498291015625,1.555932879447937,-0.2356930375099182,0.1417747437953949
1772533289827431700,6.587431640625,3.7154552936553955,1.8035900592803955,2.7798616886138916
1772533289837360400,6.5973603515625,5.635695457458496,2.421536445617676,3.751945972442627
1772533289847293200,6.607293212890625,7.953144073486328,2.7900311946868896,3.2063822746276855
1772533289857233200,6.617233154296875,9.887741088867188,4.155136585235596,3.043670415878296
1772533289867166700,6.627166748046875,10.208977699279785,5.639284610748291,2.846860647201538
1772533289877113600,6.637113525390625,9.44746208190918,6.702296257019043,1.812563180923462
1772533289887048700,6.647048583984375,8.86780071258545,7.41117000579834,0.4289134442806244
1772533289896980500,6.65698046875,11.788839340209961,7.41117000579834,-0.24107688665390015
1772533289906915000,6.6669150390625,18.933208465576172,7.439883708953857,-0.6101697683334351
1772533289916842500,6.676842529296875,28.232316970825195,7.564310550689697,-1.893320918083191
1772533289926776600,6.686776611328125,38.08177185058594,6.400800704956055,-3.3924243450164795
1772533289936685800,6.696685791015625,44.4412956237793,4.662415027618408,-1.721037745475769
1772533289946617300,6.706617431640625,45.724449157714844,3.896113395690918,2.3682961463928223
1772533289956574000,6.716573974609375,45.202213287353516,2.6273193359375,4.058825492858887
1772533289966508000,6.726508056640625,46.643890380859375,0.49651068449020386,3.2829527854919434
1772533289976438000,6.73643798828125,46.33700942993164,-1.155135154724121,2.3874387741088867
1772533289986371600,6.74637158203125,42.013179779052734,-3.3577284812927246,0.5102694034576416
1772533289996299800,6.7562998046875,35.41497039794922,-6.293123722076416,-2.4059832096099854
1772533290006232800,6.76623291015625,29.051259994506836,-7.624729156494141,-4.335196495056152
1772533290016163300,6.776163330078125,23.233112335205078,-6.183053493499756,-4.220340728759766
1772533290026096000,6.78609619140625,17.228322982788086,-3.6263227462768555,-3.4163525104522705
1772533290036031000,6.796031005859375,11.305488586425781,-1.4476577043533325,-2.0895323753356934
1772533290045964000,6.805964111328125,5.846263885498047,-0.0729810893535614,-0.5383850932121277
1772533290055896600,6.815896484375,1.6564314365386963,0.24287149310112,1.5158531665802002
1772533290065829600,6.82582958984375,-0.13878370821475983,0.18065811693668365,4.278964996337891
1772533290075763000,6.835762939453125,3.002394199371338,-1.667797327041626,4.025325775146484
1772533290085695700,6.84569580078125,9.480961799621582,-4.741976261138916,0.5485545992851257
1772533290095627800,6.855627685546875,10.074381828308105,-4.976472854614258,-1.1988041400909424
1772533290105560600,6.865560546875,6.330212116241455,-3.3577284812927246,-2.0273189544677734
1772533290115491000,6.875490966796875,2.5328028202056885,-2.3186452388763428,-3.080759048461914
1772533290125423900,6.885423828125,-1.1874382495880127,-1.667797327041626,-3.2817561626434326
1772533290135355400,6.89535546875,-6.358926296234131,-0.542572557926178,-2.420340061187744
1772533290145288000,6.905287841796875,-12.095718383789062,0.36729827523231506,-1.7976080179214478
1772533290155218200,6.91521826171875,-14.34138298034668,0.7262216806411743,0.06520441919565201
1772533290165150500,6.925150390625,-10.97049331665039,-0.15912270545959473,1.6546368598937988
1772533290175084300,6.935084228515625,-6.6418776512146,-1.2891331911087036,1.664208173751831
1772533290185016800,6.945016845703125,-3.19860577583313,-1.7204394340515137,0.36670008301734924
1772533290194947000,6.954947021484375,-0.1579262912273407,-1.8640087842941284,-1.2610175609588623
1772533290204879000,6.964879150390625,2.025524377822876,-2.1750757694244385,-2.2187447547912598
1772533290214812400,6.9748125,3.3517463207244873,-2.534597396850586,-2.084746837615967
1772533290224744700,6.98474462890625,4.036691665649414,-2.3958137035369873,-1.0504491329193115
1772533290234675200,6.99467529296875,4.5583271980285645,-2.280359983444214,-0.09272187948226929
1772533290244607200,7.004607177734375,5.1427741050720215,-2.328216314315796,-0.2847459018230438
1772533290254542000,7.0145419921875,5.525625705718994,-2.4532413482666016,-0.5958128571510315
1772533290264474400,7.024474365234375,5.712265968322754,-2.7355945110321045,-0.24586252868175507
1772533290274400800,7.03440087890625,4.999204635620117,-2.606382131576538,0.4097708761692047
1772533290284332800,7.044332763671875,3.1028928756713867,-2.122433662414551,0.6011967062950134
1772533290294244000,7.054244140625,1.3932210206985474,-1.9022940397262573,0.26620152592658997
1772533290304173800,7.064173828125,0.550349235534668,-1.557727575302124,-0.0975075215101242
1772533290314139000,7.074138916015625,-0.4743770956993103,-1.2460623979568481,0.06041877344250679
1772533290324072200,7.084072265625,-1.7096717357635498,-0.8297112584114075,0.9750752449035645
1772533290334003200,7.094003173828125,-2.4711875915527344,-0.10648060590028763,2.3635106086730957
1772533290343936300,7.103936279296875,-2.51425838470459,0.6065805554389954,3.2542388439178467
1772533290353870600,7.11387060546875,-1.5804593563079834,0.784247636795044,3.3690943717956543
1772533290363803600,7.1238037109375,0.4211367964744568,0.5252245664596558,2.8761727809906006
1772533290373725700,7.1337255859375,2.025524377822876,0.33858439326286316,2.3922245502471924
1772533290383657700,7.14365771484375,2.504088878631592,0.6879364848136902,1.5302101373672485
1772533290393595400,7.153595458984375,1.7569299936294556,1.1431710720062256,0.251844584941864
1772533290403528000,7.16352783203125,1.5032907724380493,1.114457130432129,-1.098305583000183
1772533290413456400,7.173456298828125,3.7489547729492188,1.3728820085525513,-1.721037745475769
1772533290423388400,7.183388427734375,4.620540618896484,2.225325107574463,0.0891326442360878
1772533290433305600,7.1933056640625,3.988835334777832,2.6943182945251465,1.6115660667419434
1772533290443236000,7.203236083984375,5.401198863983154,3.2165517807006836,2.751147747039795
1772533290453186600,7.2131865234375,9.973882675170898,4.308277130126953,4.910670280456543
1772533290463119400,7.223119384765625,19.167705535888672,5.127220630645752,5.90668249130249
1772533290473054000,7.233053955078125,33.901512145996094,4.8299126625061035,4.97348165512085
1772533290482986800,7.24298681640625,46.72524642944336,1.2149556875228882,4.872385025024414
1772533290492890400,7.252890380859375,49.40161895751953,-4.708476543426514,5.935396671295166
1772533290502820400,7.2628203125,47.903114318847656,-6.465406894683838,5.289334297180176
1772533290512779800,7.27277978515625,50.70450973510742,-6.872784614562988,3.249453067779541
1772533290522712800,7.282712890625,53.09852981567383,-7.7252278327941895,4.580460548400879
1772533290532644000,7.29264404296875,49.90949630737305,-7.605587005615234,6.237490653991699
1772533290542577000,7.302576904296875,42.434913635253906,-8.088936805725098,3.809373617172241
1772533290552511500,7.312511474609375,33.499515533447266,-8.395217895507812,1.4488540887832642
1772533290562444500,7.322444580078125,24.497119903564453,-6.034698486328125,2.2438695430755615
1772533290572384300,7.33238427734375,17.276180267333984,-3.0275187492370605,4.365106582641602
1772533290582318000,7.342318115234375,12.5742826461792,-1.5433706045150757,5.461617469787598
1772533290592239000,7.352239013671875,11.238490104675293,-1.1694921255111694,5.088337421417236
1772533290602171400,7.36217138671875,12.234501838684082,-1.5290136337280273,4.077968120574951
1772533290612111400,7.372111328125,12.851850509643555,-2.3575284481048584,2.9718856811523438
1772533290622044400,7.38204443359375,12.722638130187988,-3.218944549560547,1.0660024881362915
1772533290631957500,7.39195751953125,10.792826652526855,-3.865604877471924,-0.5240281820297241
1772533290641888500,7.401888427734375,6.722635269165039,-3.33858585357666,-1.222732424736023
1772533290651837000,7.4118369140625,1.7521443367004395,-2.644667148590088,-1.960319995880127
1772533290661769700,7.421769775390625,-1.201795220375061,-2.376671075820923,-1.8646070957183838
1772533290681629400,7.44162939453125,-2.973680257797241,-2.4436700344085693,-2.079961061477661
1772533290691560700,7.451560791015625,-7.541578769683838,-1.730010747909546,-2.079961061477661
1772533290701492700,7.46149267578125,-12.315857887268066,-1.1168500185012817,-2.4011974334716797
1772533290711423200,7.47142333984375,-15.54796314239502,-0.6478567123413086,-1.6157535314559937
1772533290721355300,7.481355224609375,-15.998412132263184,-0.09212367236614227,-0.19322042167186737
1772533290731294500,7.49129443359375,-13.805390357971191,-0.10169496387243271,0.5676971673965454
1772533290741227300,7.501227294921875,-10.256834030151367,-0.4707878530025482,0.3858426511287689
1772533290751163100,7.5111630859375,-6.9098734855651855,-0.5521438121795654,-0.1740778535604477
1772533290761096200,7.52109619140625,-3.193819999694824,-0.6287141442298889,-0.6197410821914673
1772533290771020500,7.5310205078125,0.9433703422546387,-1.4189438819885254,-1.2849457263946533
1772533290780952800,7.540952880859375,4.1036906242370605,-2.179861545562744,-1.8023936748504639
1772533290790860500,7.550860595703125,6.1914286613464355,-2.65423846244812,-1.9507486820220947
1772533290800790300,7.560790283203125,7.599006652832031,-2.826521635055542,-2.103889226913452
1772533290810747000,7.570746826171875,7.895716667175293,-2.692523717880249,-2.530410051345825
1772533290820679200,7.58067919921875,7.216155052185059,-2.496312141418457,-2.3916261196136475
1772533290830620400,7.590620361328125,6.660421848297119,-2.2229323387145996,-1.6205391883850098
1772533290840553700,7.6005537109375,5.884549140930176,-1.9597218036651611,-1.0360921621322632
1772533290850479600,7.610479736328125,4.309473514556885,-1.7491533756256104,-0.9547362327575684
1772533290860412200,7.620412109375,2.609373092651367,-1.8496519327163696,-0.8877372145652771
1772533290870321200,7.630321044921875,1.220937728881836,-2.0027925968170166,-0.6915257573127747
1772533290880251400,7.64025146484375,-0.2632105052471161,-1.8831514120101929,-0.16450655460357666
1772533290890186200,7.650186279296875,-1.8628123998641968,-1.212562918663025,1.1904292106628418
1772533290900117000,7.660116943359375,-2.901895761489868,-0.3128615617752075,2.861815929412842
1772533290910046500,7.67004638671875,-2.317448616027832,0.5635097622871399,3.5222349166870117
1772533290919977000,7.67997705078125,-0.8620143532752991,0.99481600522995,2.272583246231079
1772533290929949400,7.689949462890625,-0.737587571144104,1.2005987167358398,0.45284169912338257
1772533290939884300,7.69988427734375,-0.8380861282348633,2.124826431274414,0.16091732680797577
1772533290949777700,7.709777587890625,-0.1052841991186142,3.321835994720459,0.4001995921134949
1772533290959708400,7.71970849609375,-0.08614161610603333,5.0602216720581055,1.4871392250061035
1772533290969639200,7.72963916015625,1.8580267429351807,7.003791809082031,3.713660717010498
1772533290979570000,7.73956982421875,5.482554912567139,7.53559684753418,5.188836097717285
1772533290989501200,7.749501220703125,8.226524353027344,6.314659118652344,4.154538154602051
1772533290999431700,7.759431640625,10.357333183288574,5.749354839324951,2.789433002471924
1772533291009370000,7.7693701171875,15.30329704284668,5.816353797912598,2.052443504333496
1772533291019301600,7.779301513671875,25.60320281982422,4.734199523925781,2.0811574459075928
1772533291029234400,7.789234375,40.3902473449707,2.1104695796966553,2.727219581604004
1772533291039166000,7.799166015625,53.43352508544922,-2.2229323387145996,2.224726915359497
1772533291049120500,7.80912060546875,56.79484176635742,-7.902296543121338,0.18005990982055664
1772533291059054300,7.819054443359375,56.746986389160156,-10.425528526306152,-5.000999450683594
1772533291068986400,7.828986328125,56.61298751831055,-11.416754722595215,-7.773682594299316
1772533291078920200,7.838920166015625,52.01158905029297,-11.948559761047363,-7.917252063751221
1772533291088855300,7.848855224609375,43.34897232055664,-11.589037895202637,-8.25703239440918
1772533291098789000,7.8587890625,33.638301849365234,-10.353743553161621,-6.859025955200195
1772533291108720000,7.86872021484375,24.248266220092773,-6.978068828582764,-1.922034740447998
1772533291118653400,7.8786533203125,16.998611450195312,-2.4436700344085693,3.4791641235351562
1772533291128582000,7.888581787109375,12.195618629455566,0.875174880027771,6.869195461273193
1772533291138515000,7.898514892578125,8.37009334564209,2.9150562286376953,9.105886459350586
1772533291148458800,7.908458740234375,5.252843856811523,4.198207378387451,10.59960651397705
1772533291158392800,7.918392822265625,3.0167510509490967,4.054637908935547,9.972088813781738
1772533291168307700,7.9283076171875,3.088535785675049,1.4685949087142944,5.739185333251953
1772533291178240000,7.938239990234375,6.062216281890869,-2.1607189178466797,0.5102694034576416
1772533291188174800,7.9481748046875,7.642077445983887,-3.8368911743164062,-2.83669114112854
1772533291208018200,7.96801806640625,4.975276470184326,-3.434896945953369,-4.565505504608154
1772533291217948400,7.977948486328125,2.4083759784698486,-2.155933141708374,-2.9180471897125244
1772533291227915300,7.987915283203125,-1.4177473783493042,-0.9684949517250061,-1.1270195245742798
1772533291237849300,7.997849365234375,-6.339783668518066,0.15672987699508667,0.5676971673965454
1772533291247772200,8.007772216796875,-10.688140869140625,1.3776676654815674,1.846660852432251
1772533291257705000,8.017705078125,-13.608580589294434,1.856830358505249,2.210369825363159
1772533291267635200,8.02763525390625,-14.662020683288574,1.0713863372802734,1.6211373805999756
1772533291277568000,8.037568115234375,-13.106087684631348,-0.21655045449733734,0.29012975096702576
1772533291287475700,8.047475830078126,-9.021539688110352,-1.3567304611206055,-0.7824530005455017
1772533291297406000,8.057406005859375,-4.439284324645996,-2.0793628692626953,-1.1988041400909424
1772533291307364900,8.06736474609375,-0.5222335457801819,-2.03629207611084,-1.0887342691421509
1772533291317298000,8.0772978515625,2.5088746547698975,-1.8831514120101929,-0.6149554252624512
1772533291327233000,8.08723291015625,4.644468784332275,-1.9884356260299683,0.050847481936216354
1772533291337166300,8.097166259765626,6.215356826782227,-2.0315065383911133,1.109073281288147
1772533291347066600,8.107066650390625,7.560721397399902,-2.1655044555664062,1.4249259233474731
1772533291356996600,8.11699658203125,7.771289825439453,-2.6733810901641846,0.41934216022491455
1772533291366947800,8.12694775390625,6.68435001373291,-3.204587697982788,-0.7585247755050659
1772533291376879900,8.1368798828125,5.114060401916504,-3.3338000774383545,-1.1174482107162476
1772533291386828300,8.146828369140625,3.7776687145233154,-3.070589542388916,-0.8015955686569214
1772533291396761900,8.156761962890625,2.9066812992095947,-2.7930221557617188,-0.11665010452270508
1772533291406689500,8.166689453125,2.1882362365722656,-2.108076810836792,0.9080761671066284
1772533291416622600,8.17662255859375,1.9872392416000366,-1.1647064685821533,1.9519450664520264
1772533291426561500,8.1865615234375,1.9968105554580688,-0.5377869009971619,2.018944025039673
1772533291436495000,8.1964951171875,1.9728822708129883,0.20458634197711945,1.6163517236709595
1772533291446417400,8.20641748046875,1.8149559497833252,1.296311616897583,1.7599210739135742
1772533291456350000,8.216349853515625,2.001596212387085,3.0825538635253906,1.755135416984558
1772533291466281700,8.22628173828125,1.867598056793213,3.479762315750122,0.8889335989952087
1772533291476214300,8.23621435546875,1.8532410860061646,3.3984062671661377,0.28534409403800964
1772533291486121500,8.24612158203125,2.719442844390869,4.447061061859131,0.8506484627723694
1772533291496051500,8.256051513671874,3.562314748764038,5.146363258361816,1.817348837852478
1772533291506020400,8.266020263671875,4.299902439117432,5.155934810638428,1.2287144660949707
1772533291515954200,8.2759541015625,4.323830604553223,5.103292465209961,-0.42352959513664246
1772533291525875200,8.285875244140625,3.882952928543091,5.232504844665527,-2.0129621028900146
1772533291535807700,8.295807861328125,4.1036906242370605,5.122435092926025,-3.3924243450164795
1772533291545741600,8.305741455078126,5.726622581481934,5.304289817810059,-3.411566972732544
1772533291555674400,8.31567431640625,10.342975616455078,5.744568824768066,-2.0991036891937256
1772533291565567000,8.32556689453125,19.368703842163086,6.089733600616455,-0.5431707501411438
1772533291575495400,8.335495361328125,33.107093811035156,5.849853038787842,2.248655080795288
1772533291585467100,8.345467041015626,49.866424560546875,2.7804598808288574,5.193621635437012
1772533291595400200,8.355400146484374,59.68716812133789,-3.741178274154663,6.1944193840026855
1772533291605308000,8.365307861328125,57.5659294128418,-7.29392147064209,5.193621635437012
1772533291615238400,8.37523828125,50.891151428222656,-6.992425918579102,3.1345977783203125
1772533291625179000,8.385178955078125,45.868019104003906,-8.256434440612793,0.8697910308837891
1772533291635110400,8.3951103515625,42.13282012939453,-9.640682220458984,-1.0600204467773438
1772533291645060000,8.40506005859375,37.52663803100586,-10.100104331970215,-1.9986051321029663
1772533291654993400,8.414993408203125,31.086355209350586,-9.094520568847656,-1.965105652809143
1772533291664915700,8.424915771484375,23.391036987304688,-6.700501441955566,-1.2083754539489746
1772533291674848000,8.434847900390626,15.99302864074707,-4.037888050079346,0.30927231907844543
1772533291684786200,8.4447861328125,9.001798629760742,-1.3088740110397339,2.727219581604004
1772533291694719200,8.45471923828125,3.088535785675049,1.3202399015426636,5.633901119232178
1772533291704651300,8.4646513671875,0.7758727669715881,2.5603201389312744,7.027719974517822
1772533291714584000,8.474583984375,4.1036906242370605,0.9182456731796265,5.24626350402832
1772533291724518700,8.4845185546875,9.725028991699219,-2.069791555404663,1.6211373805999756
1772533291734451500,8.494451416015625,13.254443168640137,-3.352942705154419,-0.6819544434547424
1772533291744385300,8.50438525390625,13.823934555053711,-3.64546537399292,-1.9124635457992554
1772533291754318300,8.514318359375,11.45384407043457,-3.812962770462036,-2.884547710418701
1772533291764257500,8.524257568359374,6.713063716888428,-3.5545380115509033,-3.799204111099243
1772533291774191400,8.53419140625,1.0534402132034302,-3.1280174255371094,-4.359124660491943
1772533291784117000,8.544116943359375,-3.2991042137145996,-2.620738983154297,-4.23948335647583
1772533291794049800,8.5540498046875,-6.3254265785217285,-1.8687944412231445,-2.851048231124878
1772533291803975000,8.563974853515624,-9.783055305480957,-0.5665007829666138,-0.4618147611618042
1772533291813907200,8.5739072265625,-12.842877388000488,0.7022934556007385,0.9367900490760803
1772533291823860200,8.583860107421875,-14.015958786010742,0.908674418926239,0.8027920126914978
1772533291833794300,8.593794189453124,-13.704293251037598,0.1136590763926506,0.39541393518447876
1772533291843711200,8.603711181640625,-11.97607707977295,-0.5042873620986938,0.1657029688358307
1772533291853643800,8.613643798828125,-8.667402267456055,-0.8009973764419556,0.11306086927652359
1772533291863571500,8.623571533203124,-4.759922504425049,-0.9589236974716187,0.14656038582324982
1772533291873503500,8.63350341796875,-1.0773683786392212,-1.0163514614105225,-0.08315058797597885
1772533291883411000,8.643410888671875,1.9776679277420044,-1.217348575592041,-0.34695929288864136
1772533291893340400,8.65334033203125,4.323830604553223,-1.4524433612823486,-0.2315055876970291
1772533291903295700,8.663295654296874,5.90369176864624,-1.2652050256729126,0.09391828626394272
1772533291913227800,8.673227783203124,6.626922130584717,-1.0307083129882812,0.18005990982055664
1772533291923139600,8.6831396484375,6.569494724273682,-1.1264212131500244,0.22791635990142822
1772533291933069600,8.693069580078125,5.922834396362305,-1.2460623979568481,0.6011967062950134
1772533291943026200,8.703026123046875,5.185844898223877,-1.088136076927185,0.9320043921470642
1772533291952959000,8.712958984375,4.5583271980285645,-0.8344969153404236,1.420140266418457
1772533291962896100,8.722896240234375,3.8111681938171387,-0.48514479398727417,1.9232312440872192
1772533291972829200,8.7328291015625,3.0311081409454346,-0.18783657252788544,1.7790635824203491
1772533291982756400,8.74275634765625,2.4131617546081543,-0.13040883839130402,1.1186445951461792
1772533291992689000,8.75268896484375,1.7617156505584717,0.05144568532705307,0.5676971673965454
1772533292002626000,8.7626259765625,1.1539387702941895,0.6209374666213989,0.7016952633857727
1772533292012559000,8.77255908203125,1.0869396924972534,1.363310694694519,1.1808580160140991
1772533292032414200,8.792414306640625,0.771087110042572,1.755733609199524,0.9607182741165161
1772533292042348000,8.80234814453125,1.5655041933059692,1.540379524230957,0.14656038582324982
1772533292052280300,8.8122802734375,2.599801778793335,1.6504493951797485,-0.3517449200153351
1772533292062194200,8.822194091796876,3.01196551322937,2.0195422172546387,-0.6675975322723389
1772533292072124700,8.832124755859375,2.8588249683380127,2.943770170211792,-1.3956137895584106
1772533292082091800,8.842091796875,2.5663022994995117,3.5946178436279297,-1.074377417564392
1772533292092025900,8.85202587890625,3.1794631481170654,3.7573297023773193,-0.18364913761615753
1772533292101956000,8.8619560546875,6.047859191894531,4.016352653503418,0.1178465187549591
1772533292111890000,8.871889892578125,11.57827091217041,3.9493536949157715,0.3858426511287689
1772533292121788200,8.8817880859375,18.243478775024414,3.580260992050171,-0.6005984544754028
1772533292131718400,8.891718505859375,23.60639190673828,3.7812578678131104,-2.2187447547912598
1772533292141650700,8.901650634765625,27.552156448364258,4.231706619262695,-1.179661512374878
1772533292151581000,8.911580810546875,32.79064178466797,2.2301106452941895,1.9471594095230103
1772533292161524500,8.9215244140625,36.6741943359375,-1.5960127115249634,5.069194793701172
1772533292171456000,8.9314560546875,37.775489807128906,-2.826521635055542,4.537389755249023
1772533292181387800,8.9413876953125,38.704505920410156,-3.655036687850952,2.6315066814422607
1772533292191319600,8.951319580078126,40.696529388427734,-5.900700569152832,1.9040886163711548
1772533292201255000,8.9612548828125,41.27559280395508,-7.610372543334961,1.7838492393493652
1772533292211187000,8.97118701171875,36.17648696899414,-7.140780925750732,1.7359927892684937
1772533292221111300,8.981111328125,26.446073532104492,-5.076971530914307,1.4584254026412964
1772533292240978000,9.00097802734375,9.691530227661133,-0.2745763957500458,2.2534406185150146
1772533292250909700,9.01090966796875,5.36769962310791,2.0195422172546387,4.06839656829834
1772533292260839000,9.0208388671875,3.404388427734375,3.446262836456299,6.089135646820068
1772533292270770400,9.0307705078125,2.9210381507873535,4.126422882080078,7.7455668449401855
1772533292280737800,9.04073779296875,4.213760852813721,3.7429728507995605,7.692924976348877
1772533292290673000,9.0506728515625,7.015157699584961,2.043470621109009,5.107480049133301
1772533292300593700,9.06059375,8.863015174865723,0.99481600522995,2.6123640537261963
1772533292310527200,9.07052734375,9.165108680725098,0.5539384484291077,0.6681957244873047
1772533292320464000,9.0804638671875,8.958727836608887,-0.16869398951530457,-1.5535401105880737
1772533292330397700,9.090397705078125,8.748159408569336,-0.8679963946342468,-4.0767717361450195
1772533292340310300,9.100310302734375,7.766504287719727,-1.241276741027832,-5.642873764038086
1772533292350242000,9.110241943359375,6.3014984130859375,-1.1838489770889282,-5.9922261238098145
1772533292360184300,9.120184326171875,4.807180881500244,-0.8584251403808594,-5.590231895446777
1772533292370117400,9.130117431640626,3.3134610652923584,-0.40378883481025696,-4.752145767211914
1772533292380048100,9.140048095703126,2.1786649227142334,0.05623133108019829,-3.8183467388153076
1772533292389980700,9.149980712890626,1.3549357652664185,0.38644084334373474,-3.2338998317718506
1772533292399912400,9.159912353515624,0.5599204897880554,0.7405785918235779,-2.8701908588409424
1772533292409845000,9.169844970703124,0.10049854964017868,1.0235298871994019,-2.496910333633423
1772533292419789800,9.179789794921875,0.49292147159576416,1.0618150234222412,-2.204387903213501
1772533292429723600,9.1897236328125,1.8771693706512451,0.9182456731796265,-1.654038667678833
1772533292439647500,9.1996474609375,3.6580276489257812,0.8273184299468994,-0.19322042167186737
1772533292449580500,9.20958056640625,5.329414367675781,0.8033902049064636,1.0277173519134521
1772533292459502800,9.2195029296875,6.478567123413086,0.7692924737930298,1.6402798891067505
1772533292469434600,9.2294345703125,7.666005611419678,0.7022934556007385,1.3962119817733765
1772533292479370800,9.239370849609376,9.155537605285645,0.44386860728263855,0.12263216078281403
1772533292489302800,9.249302734375,10.050453186035156,0.25244277715682983,-1.2035897970199585
1772533292499242800,9.25924267578125,9.873384475708008,0.625723123550415,-1.654038667678833
1772533292509175600,9.269175537109374,8.877371788024902,1.3824533224105835,-1.0791629552841187
1772533292519103500,9.279103515625,7.670791149139404,2.1056840419769287,0.2231307178735733
1772533292529035800,9.289035888671876,7.015157699584961,3.0107691287994385,1.7982062101364136
1772533292538962200,9.298962158203125,7.503293514251709,3.613760471343994,3.2542388439178467
1772533292548894200,9.308894287109375,8.891729354858398,3.235694408416748,4.7958149909973145
1772533292558836500,9.31883642578125,10.663614273071289,1.6408780813217163,5.858826160430908
1772533292568769300,9.328769287109376,12.63171100616455,-0.04905286431312561,5.4759745597839355
1772533292578694100,9.338694091796874,13.27837085723877,-1.3567304611206055,4.680959224700928
1772533292588626200,9.348626220703125,13.804792404174805,-1.3710874319076538,4.207180500030518
1772533292598561500,9.3585615234375,15.016158103942871,-0.8009973764419556,4.412963390350342
1772533292608494000,9.368494140625,15.361323356628418,-0.6191428303718567,4.676173686981201
1772533292618426600,9.378426513671876,14.532808303833008,-0.42771705985069275,3.5605201721191406
1772533292628359200,9.388359130859374,13.71386432647705,-0.6526423692703247,1.7216359376907349
1772533292638286000,9.3982861328125,12.937992095947266,-0.6430711150169373,0.2566302418708801
1772533292648217900,9.4082177734375,12.492926597595215,-0.22612173855304718,-0.13579268753528595
1772533292658156500,9.418156494140625,11.621341705322266,0.5491527915000916,0.6681957244873047
1772533292668089300,9.42808935546875,10.749755859375,-0.2745763957500458,-0.7250252366065979
1772533292678019300,9.438019287109375,10.37647533416748,-1.0067801475524902,-2.458625316619873
1772533292687951600,9.44795166015625,9.854242324829102,-0.719641387462616,-0.7058826684951782
1772533292697888300,9.45788818359375,9.452247619628906,0.5730810165405273,2.0476579666137695
1772533292707821000,9.467821044921875,8.484949111938477,1.583450436592102,3.665804386138916
1772533292717805300,9.477805419921875,6.751348972320557,2.7182464599609375,4.106681823730469
1772533292727743200,9.4877431640625,5.047060966491699,4.0833516120910645,3.201596736907959
1772533292737615400,9.497615478515625,4.5391845703125,4.131208419799805,1.7407784461975098
1772533292747546600,9.507546630859375,4.6540398597717285,3.7812578678131104,1.1808580160140991
1772533292757488000,9.517488037109375,5.659623622894287,3.479762315750122,0.6634100675582886
1772533292767420400,9.52742041015625,7.407580852508545,2.8767709732055664,0.14656038582324982
1772533292777341700,9.537341796875,9.035298347473145,2.0003998279571533,-0.2554338276386261
1772533292787272700,9.547272705078125,9.815957069396973,1.205384373664856,-0.5096712112426758
1772533292797218000,9.557218017578125,9.849455833435059,1.181456208229065,-0.020937198773026466
1772533292807150800,9.56715087890625,10.237691879272461,2.3784656524658203,1.5158531665802002
1772533292817051000,9.57705078125,11.463415145874023,4.035495281219482,2.5884358882904053
1772533292826980400,9.58698046875,11.142178535461426,4.035495281219482,2.4879374504089355
1772533292836937000,9.59693701171875,9.729815483093262,1.6265212297439575,3.3547372817993164
1772533292846869000,9.606868896484375,9.959526062011719,0.6831508874893188,2.3778674602508545
1772533292856775000,9.61677490234375,10.76411247253418,1.057029366493225,1.0995019674301147
1772533292866704400,9.626704345703125,10.9028959274292,1.2675977945327759,0.9224331378936768
1772533292876667600,9.636667724609374,10.826326370239258,1.1575279235839844,1.9184455871582031
1772533292886600400,9.646600341796875,10.658828735351562,0.908674418926239,2.9479575157165527
1772533292896526300,9.6565263671875,10.682756423950195,1.186241865158081,3.7423746585845947
1772533292906458400,9.666458251953125,10.457831382751465,1.4350954294204712,4.436891555786133
1772533292916399900,9.67639990234375,10.103095054626465,1.4207384586334229,4.556532382965088
1772533292926333000,9.6863330078125,9.768099784851074,1.363310694694519,5.026124000549316
1772533292936232400,9.696232421875,9.892526626586914,1.3776676654815674,5.37069034576416
1772533292946162200,9.706162109375,9.887741088867188,1.3489537239074707,5.059623718261719
1772533292966056000,9.726055908203126,9.878170013427734,1.5499508380889893,4.221537113189697
1772533292975983000,9.735983154296875,10.213763236999512,1.6791633367538452,3.6705899238586426
1772533292985915400,9.745915283203125,10.649256706237793,1.4207384586334229,2.9288148880004883
1772533292995848200,9.75584814453125,10.692328453063965,0.6161518096923828,1.5397813320159912
1772533293005780500,9.765780517578126,10.481760025024414,-0.1256231814622879,0.026919255033135414
1772533293015731000,9.77573095703125,10.204192161560059,-0.1495514214038849,-0.8542376756668091
1772533293025665000,9.7856650390625,9.600603103637695,0.137587308883667,-0.9260223507881165
1772533293035581200,9.795581298828125,8.848658561706543,0.4821537733078003,-0.4043870270252228
1772533293045513500,9.805513427734375,8.068597793579102,1.1288141012191772,0.3762713670730591
1772533293055445800,9.81544580078125,7.819146156311035,1.8233308792114258,1.1665010452270508
1772533293065378300,9.82537841796875,7.77607536315918,2.1583259105682373,1.6450655460357666
1772533293075305700,9.8353056640625,7.498507976531982,2.249253273010254,1.8705891370773315
1772533293085237500,9.845237548828125,7.398009300231934,2.3736801147460938,2.018944025039673
1772533293095179500,9.855179443359376,7.833503246307373,2.3545374870300293,2.200798511505127
1772533293105112600,9.865112548828124,8.360522270202637,2.0003998279571533,2.444866418838501
1772533293115044000,9.875044189453124,8.963513374328613,1.454237937927246,2.191227436065674
1772533293124977000,9.884976806640625,9.44746208190918,1.0713863372802734,1.4249259233474731
1772533293134904000,9.894904052734375,10.472187995910645,0.9613165259361267,0.7543373107910156
1772533293144836000,9.904836181640626,10.912467956542969,1.7748762369155884,0.1417747437953949
1772533293154763300,9.91476318359375,10.132407188415527,2.287538528442383,0.2231307178735733
1772533293164695000,9.924695068359375,9.145966529846191,1.693520188331604,0.898504912853241
1772533293174625300,9.934625244140625,9.025727272033691,1.210170030593872,1.109073281288147
1772533293184556800,9.944556884765625,8.882157325744629,1.1766705513000488,0.615553617477417
1772533293194490600,9.95449072265625,7.847859859466553,1.3154542446136475,-0.15972091257572174
1772533293204422400,9.96442236328125,7.197012424468994,1.7270197868347168,0.13698910176753998
1772533293214364200,9.9743642578125,7.627720355987549,2.053041934967041,1.3674981594085693
1772533293224297000,9.984296875,7.996214866638184,1.7222341299057007,2.0859432220458984
