time,seconds_elapsed,z,y,x
1772533158344271600,0.042271728515625,0.17629607021808624,-0.2825530469417572,1.9943825006484985
1772533158404169500,0.10216943359375,0.44140592217445374,0.07749570161104202,2.157363176345825
1772533158414085000,0.112085205078125,0.5681686401367188,-0.13555090129375458,1.7547050714492798
1772533158424020500,0.1220205078125,0.626756489276886,-0.3516600430011749,1.1849385499954224
1772533158433955600,0.13195556640625,0.6182346343994141,-0.5050535798072815,0.5501928329467773
1772533158443891000,0.141890869140625,0.5873428583145142,-0.4816184937953949,0.02410089783370495
1772533158453815600,0.151815673828125,0.5564510822296143,-0.4070521593093872,-0.3773587942123413
1772533158463746600,0.16174658203125,0.5596467852592468,-0.37829089164733887,-0.7310161590576172
1772533158473697500,0.171697509765625,0.5681686401367188,-0.32396399974823,-1.09093177318573
1772533158483636500,0.181636474609375,0.5713643431663513,-0.1760297566652298,-1.4456543922424316
1772533158493556500,0.191556396484375,0.6075822710990906,0.10412652790546417,-1.7895914316177368
1772533158503487700,0.20148779296875,0.6310173869132996,0.4310199022293091,-2.0994410514831543
1772533158513404000,0.21140380859375,0.603321373462677,0.7260894775390625,-2.2869222164154053
1772533158523329000,0.2213291015625,0.5053198933601379,0.9773513078689575,-2.2762699127197266
1772533158533283600,0.23128369140625,0.3359478712081909,1.1541799306869507,-2.0835957527160645
1772533158543220500,0.241220458984375,0.14114338159561157,1.082809329032898,-1.7778738737106323
1772533158553134800,0.251134765625,-0.00905448105186224,0.7207632660865784,-1.39984929561615
1772533158563062800,0.261062744140625,-0.1294258087873459,0.33940985798835754,-0.9854736924171448
1772533158573053700,0.2710537109375,-0.245536208152771,0.07430000603199005,-0.5147738456726074
1772533158583007200,0.28100732421875,-0.3083849549293518,-0.07483261823654175,-0.05366111174225807
1772533158592862500,0.290862548828125,-0.3424724042415619,-0.0023967742454260588,0.31490951776504517
1772533158602776000,0.300776123046875,-0.3711005449295044,0.39054104685783386,0.6343462467193604
1772533158612728300,0.310728271484375,-0.37642672657966614,0.9539161920547485,0.8942631483078003
1772533158622657800,0.32065771484375,-0.35632044076919556,1.3224867582321167,1.0539149045944214
1772533158632595000,0.330594970703125,-0.2870802879333496,1.4023792743682861,1.2328740358352661
1772533158642527500,0.340527587890625,-0.13581721484661102,1.5833357572555542,1.4501816034317017
1772533158652456700,0.350456787109375,-0.10279498994350433,1.5577701330184937,1.4874647855758667
1772533158662387700,0.3603876953125,-0.2902759909629822,1.0071778297424316,1.4075722694396973
1772533158672324400,0.370324462890625,-0.5394073724746704,0.2383458912372589,1.453377366065979
1772533158682258000,0.3802578125,-0.665104866027832,-0.4390091598033905,1.6343337297439575
1772533158692185900,0.390185791015625,-0.6363435983657837,-1.0812115669250488,1.8772069215774536
1772533158702117000,0.4001171875,-0.5330159664154053,-1.546585202217102,2.1721432209014893
1772533158712055800,0.410055908203125,-0.4882761836051941,-1.6200863122940063,2.3819942474365234
1772533158721987800,0.41998779296875,-0.5734948515892029,-1.4540430307388306,2.2552313804626465
1772533158731922400,0.42992236328125,-0.6576482653617859,-1.1632344722747803,1.788792610168457
1772533158741854500,0.4398544921875,-0.6864095330238342,-1.585998773574829,1.1519163846969604
1772533158751783000,0.449782958984375,-0.7971937656402588,-2.34537672996521,0.7291520237922668
1772533158761714700,0.459714599609375,-0.641669750213623,-2.0419185161590576,0.5693670511245728
1772533158771647700,0.469647705078125,-0.14007814228534698,-1.3571069240570068,0.353124737739563
1772533158781579800,0.479579833984375,0.3828181326389313,-1.111038088798523,0.2776263654232025
1772533158791508700,0.4895087890625,0.6331478953361511,-0.8491238951683044,0.36484232544898987
1772533158801440300,0.499440185546875,0.5798861980438232,-0.1014634445309639,0.6151720881462097
1772533158811382800,0.5093828125,0.41690558195114136,0.5961310267448425,0.942198634147644
1772533158821315600,0.519315673828125,0.14114338159561157,0.5247604250907898,1.058175802230835
1772533158831252500,0.52925244140625,-0.2146444469690323,-0.2719007432460785,0.7951964735984802
1772533158851103500,0.549103515625,-0.9101084470748901,-1.4913262128829956,0.18601632118225098
1772533158861035000,0.559034912109375,-0.9282174110412598,-1.4593693017959595,0.2264951765537262
1772533158870972700,0.56897265625,-0.6970618367195129,-0.646729588508606,0.46071329712867737
1772533158880904700,0.57890478515625,-0.3637770712375641,0.5897396206855774,0.758978545665741
1772533158890811100,0.58881103515625,-0.023967742919921875,1.9742763042449951,1.018762230873108
1772533158900740900,0.598740966796875,0.1272953450679779,2.617543935775757,1.0166317224502563
1772533158910710300,0.608710205078125,0.025032976642251015,1.93699312210083,0.6300853490829468
1772533158920643800,0.618643798828125,-0.15179570019245148,0.37988871335983276,0.13808083534240723
1772533158930572800,0.62857275390625,-0.14327384531497955,-0.9597749710083008,-0.14953207969665527
1772533158940505900,0.638505859375,0.1262301206588745,-1.7127615213394165,-0.32942330837249756
1772533158950430000,0.648429931640625,0.45951488614082336,-1.8001106977462769,-0.5435351729393005
1772533158960362200,0.6583623046875,0.7002575397491455,-1.201582908630371,-0.8130391240119934
1772533158970272800,0.668272705078125,0.8078460693359375,-0.2079867422580719,-1.0547138452529907
1772533158980202800,0.67820263671875,0.7822805047035217,0.9475247859954834,-1.1729546785354614
1772533158990143000,0.68814306640625,0.6448654532432556,1.9625587463378906,-1.1484543085098267
1772533159000074200,0.69807421875,0.4360797703266144,2.5919783115386963,-1.1026493310928345
1772533159010024400,0.7080244140625,0.20079642534255981,2.7835869789123535,-1.1804113388061523
1772533159019957500,0.71795751953125,-0.022902509197592735,2.663348913192749,-1.5424574613571167
1772533159029877200,0.727877197265625,-0.1688394397497177,2.4556283950805664,-2.2858569622039795
1772533159039808800,0.737808837890625,-0.13581721484661102,2.26175594329834,-3.2444334030151367
1772533159049731600,0.747731689453125,-0.017576344311237335,1.883731484413147,-4.1975507736206055
1772533159059662300,0.757662353515625,0.1283605843782425,1.4226187467575073,-4.816318035125732
1772533159069591600,0.767591552734375,0.2645772397518158,0.7399374842643738,-4.915384769439697
1772533159079522300,0.777522216796875,0.285881906747818,-0.16218173503875732,-4.500076770782471
1772533159089458200,0.787458251953125,0.3487306535243988,-0.7820141911506653,-3.567065954208374
1772533159099389400,0.797389404296875,0.5063851475715637,-1.2697577476501465,-2.241117238998413
1772533159109323000,0.807322998046875,0.5372769236564636,-1.8704160451889038,-0.7001243829727173
1772533159119254300,0.817254150390625,0.35192635655403137,-2.4934442043304443,0.8388710021972656
1772533159129187000,0.82718701171875,0.08042509108781815,-3.1207332611083984,2.059361696243286
1772533159139118600,0.83711865234375,-0.1496652364730835,-3.5477585792541504,2.7516300678253174
1772533159149057500,0.8470576171875,-0.31584158539772034,-3.3794517517089844,2.9240646362304688
1772533159158989800,0.85698974609375,-0.46271058917045593,-2.6830556392669678,2.7132816314697266
1772533159168952300,0.866952392578125,-0.520233154296875,-1.7330009937286377,2.3393847942352295
1772533159178887700,0.8768876953125,-0.3616466224193573,-0.829949676990509,1.9208815097808838
1772533159188778500,0.886778564453125,-0.018641578033566475,-0.12489857524633408,1.5725502967834473
1772533159198709500,0.89670947265625,0.3061213493347168,0.2298240214586258,1.4043766260147095
1772533159208651500,0.906651611328125,0.41903603076934814,0.18082331120967865,1.3607020378112793
1772533159218583600,0.91658349609375,0.40731847286224365,0.04447348043322563,1.2573744058609009
1772533159228508200,0.926508056640625,0.4147751033306122,-0.016244804486632347,0.9697614908218384
1772533159238439400,0.936439453125,0.35405683517456055,-0.0801587849855423,0.5086487531661987
1772533159248401400,0.9464013671875,0.11131685227155685,-0.19200825691223145,-0.06537867337465286
1772533159258336000,0.9563359375,-0.22955772280693054,-0.21224768459796906,-0.6010577082633972
1772533159268272000,0.966272216796875,-0.5319507122039795,0.07110430300235748,-0.9641690254211426
1772533159278206700,0.976206787109375,-0.749258279800415,0.3948020040988922,-1.1111712455749512
1772533159288101000,0.98610107421875,-0.8845428824424744,0.6472622156143188,-0.9577776193618774
1772533159298031900,0.996031982421875,-0.9909330010414124,0.9581770896911621,-0.7544512748718262
1772533159307992800,1.005992919921875,-1.0825430154800415,0.9997211694717407,-0.6500584483146667
1772533159317926700,1.0159267578125,-1.1091738939285278,0.8709611296653748,-0.5872097015380859
1772533159327862000,1.025862060546875,-1.108108639717102,0.5865439176559448,-0.556317925453186
1772533159337795800,1.0357958984375,-1.1603050231933594,0.23408496379852295,-0.5019910335540771
1772533159347720700,1.045720703125,-1.3083724975585938,-0.03648423030972481,-0.4210333526134491
1772533159357653800,1.05565380859375,-1.522484302520752,-0.19413872063159943,-0.34220612049102783
1772533159377500000,1.0755,-1.8152902126312256,-0.8491238951683044,-0.2910749316215515
1772533159397401000,1.095401123046875,-1.321155309677124,-0.9661663770675659,0.013448567129671574
1772533159407336200,1.105336181640625,-0.9346088171005249,-1.011971354484558,0.33834463357925415
1772533159417244200,1.115244140625,-0.6832138299942017,-1.3081061840057373,0.6535204648971558
1772533159427176200,1.12517626953125,-0.5969299674034119,-1.7074353694915771,0.7696308493614197
1772533159437108500,1.1351083984375,-0.5937342643737793,-2.1152865886688232,0.5299534201622009
1772533159447040500,1.14504052734375,-0.6246260404586792,-2.2527015209198,-0.013182258233428001
1772533159456976600,1.1549765625,-0.5745600461959839,-1.7489794492721558,-0.5765573978424072
1772533159466909200,1.1649091796875,-0.27323228120803833,-0.3750951886177063,-0.8279523849487305
1772533159476847400,1.174847412109375,0.32316505908966064,1.411966323852539,-0.5541874766349792
1772533159486780400,1.184780517578125,1.0186290740966797,2.560021162033081,0.06244928762316704
1772533159496717800,1.1947177734375,1.497850775718689,2.4641501903533936,0.6780208349227905
1772533159506651100,1.204651123046875,1.5404601097106934,0.8901353478431702,0.7834789156913757
1772533159516606200,1.214606201171875,1.0878691673278809,-1.0577764511108398,0.2584521770477295
1772533159526541800,1.224541748046875,0.5031894445419312,-2.1600263118743896,-0.48814302682876587
1772533159536435000,1.23443505859375,0.17736129462718964,-2.4742701053619385,-1.2091726064682007
1772533159546366500,1.244366455078125,0.2135792225599289,-1.8608289957046509,-1.8364617824554443
1772533159556300000,1.254300048828125,0.5990604162216187,-0.4198349714279175,-2.227269172668457
1772533159566231600,1.2642314453125,1.1709574460983276,1.043395757675171,-2.2666826248168945
1772533159576165000,1.2741650390625,1.6278091669082642,1.9359278678894043,-2.0143556594848633
1772533159586097200,1.28409716796875,1.7950507402420044,2.030733585357666,-1.6170237064361572
1772533159596024800,1.29402490234375,1.6981146335601807,1.5439220666885376,-1.1814765930175781
1772533159605956400,1.303956298828125,1.4712200164794922,0.7729597091674805,-0.7991910576820374
1772533159615891700,1.3138916015625,1.2178276777267456,-0.06631075590848923,-0.6234276294708252
1772533159625823500,1.323823486328125,0.947258472442627,-0.9320788979530334,-0.7970606088638306
1772533159635768600,1.3337685546875,0.5990604162216187,-1.2825405597686768,-1.2634994983673096
1772533159645701600,1.34370166015625,0.25818586349487305,-0.7884055972099304,-1.7459169626235962
1772533159655633700,1.353633544921875,0.056989967823028564,-0.0790935531258583,-2.0037033557891846
1772533159665566700,1.363566650390625,0.0015978495357558131,0.49599912762641907,-1.9259413480758667
1772533159675487500,1.373487548828125,0.06764229387044907,0.8773525357246399,-1.5296746492385864
1772533159685419300,1.383419189453125,0.15712186694145203,1.0348738431930542,-0.9471253156661987
1772533159695360300,1.3933603515625,0.1294258087873459,0.9688294529914856,-0.29640108346939087
1772533159705293000,1.40329296875,-0.041011471301317215,0.7772206664085388,0.3234313726425171
1772533159715213300,1.41321337890625,-0.2572537660598755,0.42249804735183716,0.8324795961380005
1772533159725144800,1.423144775390625,-0.47336292266845703,-0.00452724052593112,1.2190260887145996
1772533159735091000,1.433091064453125,-0.6672353148460388,-0.44220486283302307,1.4800081253051758
1772533159745023700,1.443023681640625,-0.8078460693359375,-0.768166184425354,1.6588340997695923
1772533159754947800,1.45294775390625,-0.8685643672943115,-0.9278179407119751,1.7973144054412842
1772533159764880000,1.4628798828125,-0.8472597002983093,-0.9299484491348267,1.8857287168502808
1772533159774812000,1.47281201171875,-0.781215250492096,-0.7394048571586609,1.845249891281128
1772533159784744000,1.482743896484375,-0.7077142000198364,-0.5061188340187073,1.616224765777588
1772533159794671000,1.492671142578125,-0.6406044960021973,-0.4102478623390198,1.2392654418945312
1772533159804602600,1.5026025390625,-0.626756489276886,-0.6509905457496643,0.7983921766281128
1772533159814538200,1.512538330078125,-0.7002575397491455,-1.1312774419784546,0.34353765845298767
1772533159824470300,1.52247021484375,-0.8035851716995239,-1.6349995136260986,-0.12822742760181427
1772533159834440000,1.53243994140625,-0.856846809387207,-1.939656138420105,-0.6170362234115601
1772533159844375600,1.54237548828125,-0.7854762077331543,-1.8150238990783691,-1.036604881286621
1772533159854269200,1.552269287109375,-0.5671034455299377,-1.220757007598877,-1.2698909044265747
1772533159864200700,1.56220068359375,-0.264710396528244,-0.2983984053134918,-1.2677603960037231
1772533159874108400,1.5721083984375,0.030359141528606415,0.6334142088890076,-1.0781489610671997
1772533159884037600,1.58203759765625,0.20931829512119293,1.272420883178711,-0.8577789068222046
1772533159893972500,1.591972412109375,0.18907886743545532,1.327812910079956,-0.7278204560279846
1772533159903902200,1.601902099609375,0.017576344311237335,0.7963948249816895,-0.6724283695220947
1772533159913856000,1.61185595703125,-0.15392617881298065,0.07003907114267349,-0.541404664516449
1772533159923788000,1.6217880859375,-0.23701435327529907,-0.5071840882301331,-0.1569887101650238
1772533159933726700,1.631726806640625,-0.2551233172416687,-0.8821461200714111,0.456452339887619
1772533159943659500,1.641659423828125,-0.29453691840171814,-0.8800156116485596,1.1274160146713257
1772533159953590000,1.651590087890625,-0.3115806579589844,-0.4496614933013916,1.7227481603622437
1772533159963522600,1.6615224609375,-0.1720351278781891,-0.05459319427609444,2.0476441383361816
1772533159973435100,1.67143505859375,0.12409964948892593,0.164844810962677,1.9730778932571411
1772533159983365600,1.68136572265625,0.44886255264282227,0.331953227519989,1.547117829322815
1772533159993319400,1.6913193359375,0.6118432283401489,0.3139774203300476,0.8292838931083679
1772533160003252200,1.701252197265625,0.4744281470775604,0.3649754524230957,0.04753602296113968
1772533160013184500,1.7111845703125,0.13049104809761047,0.8954614996910095,-0.41570720076560974
1772533160023117300,1.721117431640625,-0.10386022180318832,1.9263408184051514,-0.262446790933609
1772533160033047300,1.73104736328125,0.044207170605659485,2.7985002994537354,0.49480074644088745
1772533160042979800,1.740979736328125,0.48295003175735474,2.6090219020843506,1.357506275177002
1772533160052918300,1.750918212890625,0.8673660159111023,1.5014458894729614,1.851641297340393
1772533160062851300,1.760851318359375,0.9579107761383057,0.2948032319545746,1.8708155155181885
1772533160072778500,1.770778564453125,0.7737586498260498,-0.5497934222221375,1.5587022304534912
1772533160082710800,1.780710693359375,0.5117112994194031,-0.7788184881210327,1.1433944702148438
1772533160092654000,1.790654052734375,0.3913399875164032,-0.6211640238761902,0.7153039574623108
1772533160102587600,1.800587646484375,0.4531235098838806,-0.24420467019081116,0.29467007517814636
1772533160112516400,1.810516357421875,0.6011908650398254,0.331953227519989,-0.06218297779560089
1772533160122449400,1.820449462890625,0.7332797646522522,0.966698944568634,-0.3688369393348694
1772533160132369700,1.83036962890625,0.8227593302726746,1.4993155002593994,-0.6777545213699341
1772533160142301400,1.840301513671875,0.8939968347549438,1.8517744541168213,-0.9556471705436707
1772533160152237600,1.850237548828125,0.9483237266540527,1.9316669702529907,-1.1878679990768433
1772533160162169900,1.860169921875,0.9078448414802551,1.7580339908599854,-1.4381977319717407
1772533160172102400,1.870102294921875,0.7268883585929871,1.3640308380126953,-1.770417332649231
1772533160182034700,1.88003466796875,0.41690558195114136,0.5716306567192078,-2.268813133239746
1772533160191978000,1.88997802734375,0.017576344311237335,-0.4091826379299164,-2.902493715286255
1772533160201911600,1.89991162109375,-0.29134124517440796,-0.7585790753364563,-3.319931983947754
1772533160211840800,1.9098408203125,-0.32329821586608887,-0.30585503578186035,-3.243368148803711
1772533160231672000,1.929672119140625,0.13155627250671387,0.6451317667961121,-2.1601593494415283
1772533160241601500,1.9396015625,0.3295564651489258,0.7431331872940063,-1.4722851514816284
1772533160251535600,1.94953564453125,0.32209983468055725,1.0114387273788452,-0.6820154190063477
1772533160261465600,1.959465576171875,0.16351327300071716,1.073222279548645,0.07416684925556183
1772533160271436300,1.969436279296875,-0.019706811755895615,0.6845453977584839,0.7408695816993713
1772533160281370400,1.979370361328125,-0.2018616646528244,0.25645485520362854,1.3063751459121704
1772533160291301400,1.98930126953125,-0.34779858589172363,-0.07376738637685776,1.7344657182693481
1772533160301235200,1.999235107421875,-0.44034069776535034,-0.4187697470188141,1.9837301969528198
1772533160311130000,2.009130126953125,-0.477623850107193,-0.7617747783660889,2.0678834915161133
1772533160321060000,2.01906005859375,-0.4371449947357178,-1.0535154342651367,2.0242090225219727
1772533160330993000,2.028992919921875,-0.29240646958351135,-1.2047785520553589,1.8761416673660278
1772533160340923100,2.038923095703125,-0.029293907806277275,-1.136603593826294,1.6545732021331787
1772533160350895900,2.048895751953125,0.29866471886634827,-0.7947970032691956,1.392659068107605
1772533160360830500,2.05883056640625,0.5276898145675659,-0.1866820901632309,1.0943937301635742
1772533160370726100,2.06872607421875,0.7460625767707825,0.28628137707710266,0.6971949934959412
1772533160380656600,2.07865673828125,0.9685631394386292,0.5876091718673706,0.22010377049446106
1772533160390590700,2.0885908203125,1.0931954383850098,1.0082430839538574,-0.24433782696723938
1772533160400521700,2.098521728515625,1.2252843379974365,1.4769456386566162,-0.648993194103241
1772533160410457000,2.10845703125,1.519155502319336,1.9998418092727661,-0.9396686553955078
1772533160420388400,2.118388427734375,1.975075125694275,2.7612171173095703,-1.06003999710083
1772533160430350300,2.128350341796875,2.445775032043457,3.732576608657837,-1.0110392570495605
1772533160440285000,2.138284912109375,2.689580202102661,4.418453216552734,-0.8236914277076721
1772533160450204000,2.148203857421875,2.306229591369629,4.540955066680908,-0.6266233325004578
1772533160460136700,2.15813671875,1.2306104898452759,4.038165092468262,-0.5659050345420837
1772533160470073600,2.168073486328125,0.23594911396503448,2.869870901107788,-0.6298190355300903
1772533160480007000,2.1780068359375,-0.1688394397497177,1.4066401720046997,-0.6426018476486206
1772533160489943300,2.187943359375,-0.16244803369045258,-0.10359390825033188,-0.39440253376960754
1772533160499876900,2.197876953125,-0.006924014538526535,-1.5156934261322021,0.20945143699645996
1772533160509802500,2.207802490234375,0.1486000120639801,-2.7182083129882812,0.927285373210907
1772533160519735300,2.2177353515625,0.2720338702201843,-3.5605413913726807,1.3436583280563354
1772533160529674000,2.227674072265625,0.38707906007766724,-3.9269814491271973,1.2328740358352661
1772533160539607300,2.237607177734375,0.5106461048126221,-3.632977247238159,0.6077154278755188
1772533160549526800,2.24752685546875,0.665104866027832,-2.621272087097168,-0.3699021637439728
1772533160559458600,2.25745849609375,0.8833444714546204,-1.4614996910095215,-1.3093045949935913
1772533160569379600,2.267379638671875,1.1059781312942505,-0.4816184937953949,-1.6606982946395874
1772533160579310600,2.277310546875,1.1113044023513794,0.2298240214586258,-1.2879998683929443
1772533160589258200,2.28725830078125,0.8227593302726746,0.5449998378753662,-0.5957315564155579
1772533160599190800,2.297190673828125,0.55751633644104,0.354323148727417,-0.08881380409002304
1772533160609124600,2.30712451171875,0.4531235098838806,0.022103585302829742,-0.005725627299398184
1772533160619057400,2.317057373046875,0.370035320520401,-0.017310036346316338,-0.12290126085281372
1772533160628999200,2.326999267578125,0.2741643488407135,0.0007989247678779066,-0.13781452178955078
1772533160638932700,2.3369326171875,0.2125139832496643,-0.18135592341423035,0.01664426550269127
1772533160648853200,2.346853271484375,0.19547025859355927,-0.49653175473213196,0.19240771234035492
1772533160658785500,2.35678564453125,0.18481792509555817,-0.7607095241546631,0.205190509557724
1772533160668714500,2.366714599609375,0.13688243925571442,-0.8885374665260315,-0.014247491955757141
1772533160678646300,2.376646240234375,0.030359141528606415,-0.791601300239563,-0.3667064607143402
1772533160688580600,2.38658056640625,-0.09214265644550323,-0.39213889837265015,-0.7459294199943542
1772533160698512600,2.3965126953125,-0.17736129462718964,0.14673584699630737,-1.0941274166107178
1772533160708450600,2.406450439453125,-0.222101092338562,0.653653621673584,-1.3306092023849487
1772533160718383400,2.41638330078125,-0.22103585302829742,0.9848079085350037,-1.390262246131897
1772533160728322000,2.426322021484375,-0.19866596162319183,1.0529828071594238,-1.2933260202407837
1772533160738255400,2.43625537109375,-0.23914481699466705,0.784677267074585,-1.1101059913635254
1772533160748176100,2.446176025390625,-0.3924052119255066,0.17869283258914948,-0.9087769389152527
1772533160758108200,2.456108154296875,-0.626756489276886,-0.4209001958370209,-0.7065157890319824
1772533160768046800,2.466046875,-0.8078460693359375,-0.8746894598007202,-0.5446003675460815
1772533160777979600,2.475979736328125,-0.9164998531341553,-1.1770825386047363,-0.43807709217071533
1772533160787881200,2.485881103515625,-0.9623048901557922,-1.0673635005950928,-0.28894445300102234
1772533160797811000,2.49581103515625,-0.8983908891677856,-0.6595124006271362,-0.02703028731048107
1772533160807764200,2.50576416015625,-0.7439321279525757,-0.17816022038459778,0.3010614812374115
1772533160817696300,2.5156962890625,-0.5756253004074097,0.2713681161403656,0.6098458766937256
1772533160827642600,2.525642578125,-0.44779732823371887,0.6600450277328491,0.8569799661636353
1772533160837576000,2.535575927734375,-0.39347043633461,0.9485899806022644,1.0102403163909912
1772533160847499000,2.5454990234375,-0.4328840672969818,1.0977226495742798,1.0507192611694336
1772533160857431300,2.555431396484375,-0.5479292273521423,1.0700265169143677,1.0059794187545776
1772533160867345200,2.56534521484375,-0.7013227939605713,0.8624392747879028,0.8718932271003723
1772533160877275600,2.575275634765625,-0.8504554033279419,0.46617260575294495,0.6311505436897278
1772533160887222800,2.585222900390625,-0.9473916292190552,0.00399462366476655,0.3330184817314148
1772533160897155000,2.595155029296875,-0.9399349689483643,-0.3655080795288086,0.11251524090766907
1772533160907089400,2.60508935546875,-0.8163679838180542,-0.5881417989730835,0.05925358831882477
1772533160917022000,2.61502197265625,-0.5947995185852051,-0.7138392925262451,0.13701559603214264
1772533160926958000,2.6249580078125,-0.348863810300827,-0.792666494846344,0.2925396263599396
1772533160936891000,2.634890869140625,-0.16777420043945312,-0.754318118095398,0.46177852153778076
1772533160946826200,2.644826171875,-0.09427312016487122,-0.5732285380363464,0.559779942035675
1772533160956759300,2.65475927734375,-0.12196917831897736,-0.3356815576553345,0.5001268982887268
1772533160966685200,2.664685302734375,-0.245536208152771,-0.15152940154075623,0.29360485076904297
1772533160976617700,2.67461767578125,-0.45099303126335144,-0.15259462594985962,0.06031882017850876
1772533160986545700,2.684545654296875,-0.7045184969902039,-0.3878779709339142,-0.08987903594970703
1772533160996477700,2.694477783203125,-0.8888037800788879,-0.6296858787536621,-0.0824224054813385
1772533161006418700,2.704418701171875,-0.9218260049819946,-0.730883002281189,0.08588441461324692
1772533161016351500,2.7143515625,-0.8323464393615723,-0.7468615174293518,0.31597474217414856
1772533161026284500,2.724284423828125,-0.6938661336898804,-0.6424686908721924,0.48627886176109314
1772533161036217300,2.73421728515625,-0.5617772936820984,-0.3101159632205963,0.544866681098938
1772533161046142200,2.74414208984375,-0.4850804805755615,0.09666989743709564,0.5256925225257874
1772533161056074200,2.75407421875,-0.4999937415122986,0.42249804735183716,0.4873441159725189
1772533161066007300,2.76400732421875,-0.5276898145675659,0.49812960624694824,0.4990616738796234
1772533161075939300,2.773939208984375,-0.5585815906524658,0.18295377492904663,0.5352795720100403
1772533161085886000,2.783885986328125,-0.6533873081207275,-0.5710980296134949,0.49693119525909424
1772533161095819500,2.793819580078125,-0.8451292514801025,-1.6754783391952515,0.31597474217414856
1772533161105736700,2.80373681640625,-1.047390341758728,-2.9481656551361084,-0.015312724746763706
1772533161115668700,2.813668701171875,-1.0953258275985718,-3.7192611694335938,-0.46683835983276367
1772533161125606700,2.823606689453125,-0.8376725912094116,-3.4124739170074463,-0.9961260557174683
1772533161135539200,2.833539306640625,-0.3009283244609833,-1.7202181816101074,-1.4168931245803833
1772533161145469700,2.8434697265625,0.3082517981529236,1.3949226140975952,-1.237933874130249
1772533161155402000,2.853402099609375,0.8971925377845764,3.8891658782958984,-0.3997286856174469
1772533161165315600,2.863315673828125,1.323285698890686,4.465323448181152,0.568301796913147
1772533161175246000,2.87324609375,1.3648297786712646,3.759207248687744,1.1902647018432617
1772533161185199000,2.88319921875,0.8099765777587891,2.2915825843811035,1.2424612045288086
1772533161195131600,2.893131591796875,0.016511112451553345,0.7452636361122131,1.0198274850845337
1772533161205069800,2.90306982421875,-0.264710396528244,-0.2804225981235504,0.9379376769065857
1772533161215003100,2.913003173828125,0.08255556225776672,-0.7085131406784058,1.001718521118164
1772533161224931000,2.92293115234375,0.6512568593025208,-0.6637732982635498,0.9995880126953125
1772533161234863600,2.932863525390625,1.101717233657837,-0.3772256374359131,0.8537842631340027
1772533161244790000,2.9427900390625,1.3403294086456299,0.024234050884842873,0.5768237113952637
1772533161254722000,2.95272216796875,1.3808083534240723,0.6185009479522705,0.21903854608535767
1772533161264655400,2.9626552734375,1.2252843379974365,1.274551272392273,-0.16124965250492096
1772533161274587600,2.972587646484375,0.9504541754722595,1.6653586626052856,-0.5222305059432983
1772533161284532000,2.982531982421875,0.6683005690574646,1.7111636400222778,-0.8535179495811462
1772533161294465500,2.992465576171875,0.4754934012889862,1.5481830835342407,-1.2262163162231445
1772533161304383700,3.0023837890625,0.3711005449295044,1.3150302171707153,-1.5967843532562256
1772533161314315800,3.012315673828125,0.2762948274612427,1.2852036952972412,-1.76296067237854
1772533161324250600,3.022250732421875,0.2837514579296112,1.6035751104354858,-1.5360660552978516
1772533161334183000,3.032182861328125,0.4850804805755615,1.9124927520751953,-0.9535167217254639
1772533161344116000,3.042115966796875,0.6991923451423645,1.8773400783538818,-0.2539249360561371
1772533161354048300,3.05204833984375,0.7247579097747803,1.5387290716171265,0.3627118468284607
1772533161363955500,3.06195556640625,0.5564510822296143,1.0476566553115845,0.8729584813117981
1772533161373885200,3.07188525390625,0.3391435742378235,0.48534679412841797,1.2808095216751099
1772533161383852500,3.0818525390625,0.17629607021808624,-0.0801587849855423,1.5449873208999634
1772533161393786000,3.0917861328125,0.0644465982913971,-0.6105116605758667,1.6108986139297485
1772533161403715600,3.101715576171875,-0.038881003856658936,-1.0535154342651367,1.4650949239730835
1772533161413649000,3.11164892578125,-0.10812114924192429,-1.295323371887207,1.1583077907562256
1772533161423569000,3.12156884765625,-0.061250898987054825,-1.3453893661499023,0.750456690788269
1772533161433501000,3.1315009765625,0.0964035913348198,-1.2367355823516846,0.29680055379867554
1772533161443413500,3.14141357421875,0.3487306535243988,-0.9001219272613525,-0.13887976109981537
1772533161453343500,3.151343505859375,0.6778876781463623,-0.408117413520813,-0.5467308759689331
1772533161463281700,3.16128173828125,0.9632369875907898,0.11903978884220123,-0.9567124247550964
1772533161473212400,3.17121240234375,1.1134347915649414,0.5045210123062134,-1.3710880279541016
1772533161483178800,3.1811787109375,1.0654993057250977,0.6185009479522705,-1.770417332649231
1772533161493113000,3.191113037109375,0.8003894686698914,0.4491288661956787,-2.080399990081787
1772533161503044400,3.20104443359375,0.389209508895874,0.18188853561878204,-2.2144863605499268
1772533161512978400,3.210978515625,-0.037815771996974945,0.029560215771198273,-2.167616128921509
1772533161522873000,3.220873046875,-0.3605813682079315,0.1126483902335167,-1.9845291376113892
1772533161532803300,3.23080322265625,-0.47336292266845703,0.3426055610179901,-1.7246122360229492
1772533161542771700,3.240771728515625,-0.3806876540184021,0.5524564981460571,-1.4722851514816284
1772533161552705800,3.250705810546875,-0.16670896112918854,0.7122414112091064,-1.2613691091537476
1772533161562602800,3.260602783203125,0.050598569214344025,0.8091776371002197,-1.0781489610671997
1772533161572533000,3.270532958984375,0.11344731599092484,0.7665683031082153,-0.9513862729072571
1772533161582467300,3.28046728515625,-0.038881003856658936,0.5982614755630493,-0.8609746098518372
1772533161592397800,3.290397705078125,-0.2764279842376709,0.3884105980396271,-0.755516529083252
1772533161602371600,3.30037158203125,-0.42862313985824585,0.10838746279478073,-0.6266233325004578
1772533161612306700,3.310306640625,-0.3913399875164032,-0.2495308369398117,-0.4849473237991333
1772533161622224100,3.32022412109375,-0.17842653393745422,-0.5860112905502319,-0.30811864137649536
1772533161632157400,3.330157470703125,-0.0750989317893982,-0.5636414289474487,-0.06644391268491745
1772533161642083600,3.34008349609375,-0.48188477754592896,-0.12915951013565063,0.15512455999851227
1772533161652016000,3.35001611328125,-1.3563079833984375,0.018907885998487473,0.2552564740180969
1772533161661944800,3.35994482421875,-2.356295347213745,-0.3932041525840759,0.22010377049446106
1772533161671877000,3.369877197265625,-3.2083487510681152,-1.0780158042907715,0.183885857462883
1772533161681815300,3.379815185546875,-3.4979588985443115,-1.5039758682250977,0.3744294047355652
1772533161691748000,3.389748046875,-2.9548232555389404,-0.9171656370162964,0.9091764092445374
1772533161701686300,3.399686279296875,-1.7258106470108032,1.3448567390441895,2.162689447402954
1772533161711619600,3.40961962890625,-0.7865414619445801,2.681457757949829,3.2095470428466797
1772533161721561900,3.419561767578125,-0.9888025522232056,1.7580339908599854,2.6909117698669434
1772533161731496000,3.429495849609375,-1.2710893154144287,0.04127778112888336,1.001718521118164
1772533161741409300,3.4394091796875,-1.1059781312942505,-1.087602972984314,-0.5712311863899231
1772533161751341300,3.44934130859375,-0.8845428824424744,-1.457238793373108,-1.44352388381958
1772533161761273300,3.4592734375,-0.7034532427787781,-1.554041862487793,-1.924876093864441
1772533161771205400,3.469205322265625,-0.3616466224193573,-1.5103672742843628,-2.105832576751709
1772533161781137200,3.47913720703125,0.18588316440582275,-1.4007813930511475,-1.7885262966156006
1772533161791069200,3.489069091796875,0.6491263508796692,-1.3752158880233765,-1.098388433456421
1772533161810935600,3.508935546875,0.9696283340454102,-1.2825405597686768,-0.21664176881313324
1772533161820864500,3.518864501953125,0.9792154431343079,-0.9651011228561401,-0.27509641647338867
1772533161830796500,3.528796630859375,0.9664326906204224,-0.5210320949554443,-0.4860125780105591
1772533161840734200,3.538734130859375,1.00052011013031,-0.18881255388259888,-0.7161028981208801
1772533161850666800,3.548666748046875,1.0665645599365234,-0.0588541254401207,-0.9354077577590942
1772533161860596000,3.558595947265625,1.1326090097427368,-0.16750788688659668,-1.2027812004089355
1772533161870528000,3.568528076171875,1.2167624235153198,-0.48694464564323425,-1.4030450582504272
1772533161880458500,3.57845849609375,1.3360685110092163,-0.4730966091156006,-1.1346063613891602
1772533161890390500,3.588390625,1.5085030794143677,-0.16750788688659668,-0.2422073632478714
1772533161900323000,3.598322998046875,1.656570553779602,0.05299534276127815,0.9825443029403687
1772533161910255000,3.608255126953125,1.6373963356018066,0.09240896254777908,2.10197114944458
1772533161920184000,3.61818408203125,1.3967868089675903,-0.005592473316937685,2.8825206756591797
1772533161930115800,3.62811572265625,0.9589760303497314,-0.22609570622444153,3.3640058040618896
1772533161940057600,3.6380576171875,0.4158403277397156,-0.6435338854789734,3.5492231845855713
1772533161949990100,3.647990234375,0.022902509197592735,-1.1472560167312622,3.3990254402160645
1772533161959929600,3.6579296875,-0.048468101769685745,-1.4316731691360474,2.928325653076172
1772533161969863200,3.66786328125,0.11983871459960938,-1.309171438217163,2.1424498558044434
1772533161979784000,3.677783935546875,0.44140592217445374,-0.7330134510993958,1.1370030641555786
1772533161989716200,3.68771630859375,0.8302159905433655,0.1744319051504135,0.10718907415866852
1772533161999647000,3.69764697265625,1.1592398881912231,0.989068865776062,-0.8087781667709351
1772533162009579000,3.7075791015625,1.3222204446792603,1.3097039461135864,-1.5232832431793213
1772533162019510300,3.71751025390625,1.2785459756851196,1.0753527879714966,-1.9717463254928589
1772533162029442300,3.7274423828125,1.0569775104522705,0.6366099119186401,-2.1367242336273193
1772533162039374800,3.737374755859375,0.7173013091087341,0.27669426798820496,-2.0558996200561523
1772533162049307000,3.747306884765625,0.3391435742378235,0.030625449493527412,-1.7853305339813232
1772533162059253000,3.7572529296875,0.06977276504039764,-0.06098458915948868,-1.3945231437683105
1772533162069186600,3.7671865234375,0.017576344311237335,-0.030092833563685417,-0.9449948668479919
1772533162079104500,3.7771044921875,0.11344731599092484,0.11051792651414871,-0.4977301359176636
1772533162089036500,3.78703662109375,0.2231663167476654,0.32556185126304626,-0.13994498550891876
1772533162098967300,3.79696728515625,0.2507292330265045,0.44486793875694275,0.06457975506782532
1772533162108899000,3.806899169921875,0.17416560649871826,0.38308441638946533,0.1508636325597763
1772533162118833700,3.816833740234375,0.036750540137290955,0.16697527468204498,0.183885857462883
1772533162128765700,3.826765625,-0.13049104809761047,-0.12489857524633408,0.20199480652809143
1772533162138700000,3.836699951171875,-0.3115806579589844,-0.35059481859207153,0.205190509557724
1772533162148632300,3.84663232421875,-0.42755791544914246,-0.3740299344062805,0.21903854608535767
1772533162158565400,3.8565654296875,-0.37323102355003357,-0.0695064514875412,0.3244965970516205
1772533162168497700,3.86649755859375,-0.15073047578334808,0.46404212713241577,0.5384752750396729
1772533162178429200,3.87642919921875,0.09853405505418777,0.9730903506278992,0.7813484072685242
1772533162188361500,3.886361572265625,0.17736129462718964,1.204245924949646,1.0134360790252686
1772533162198297600,3.896297607421875,-0.0026630824431777,1.0625699758529663,1.2701572179794312
1772533162208230400,3.90623046875,-0.34353765845298767,0.5492607951164246,1.4832038879394531
1772533162218156300,3.91615625,-0.6693658232688904,-0.38042134046554565,1.559767484664917
1772533162228088000,3.926088134765625,-0.9761528968811035,-1.5870640277862549,1.4565730094909668
1772533162238025500,3.936025390625,-1.3222204446792603,-2.6894471645355225,1.1391335725784302
1772533162247958000,3.9459580078125,-1.6086350679397583,-3.201690912246704,0.46390897035598755
1772533162257884700,3.955884765625,-1.6043740510940552,-2.7649455070495605,-0.7416685223579407
1772533162267816700,3.965816650390625,-1.0740212202072144,-1.0364717245101929,-1.9834638833999634
1772533162277779200,3.975779296875,-0.2146444469690323,1.836861252784729,-2.223008155822754
1772533162287714000,3.985714111328125,0.3295564651489258,3.5291171073913574,-1.6266108751296997
1772533162297627100,3.995627197265625,0.3071865737438202,3.1308529376983643,-1.0824098587036133
1772533162307560000,4.005559814453125,-0.017576344311237335,1.8613615036010742,-0.8599093556404114
1772533162317478100,4.01547802734375,-0.1922745555639267,0.6366099119186401,-0.556317925453186
1772533162327409700,4.02540966796875,-0.32649391889572144,-0.21118244528770447,0.06244928762316704
1772533162337350100,4.03535009765625,-0.26151469349861145,-0.7756227850914001,0.5576494932174683
1772533162347282200,4.0452822265625,0.21570968627929688,-1.082276701927185,0.6130415797233582
1772533162357226500,4.0552265625,0.6576482653617859,-1.1696258783340454,0.42982152104377747
1772533162367160000,4.06516015625,0.7300840616226196,-0.9192960858345032,0.26484355330467224
1772533162377047600,4.075047607421875,0.5766905546188354,-0.47735753655433655,0.08908011019229889
1772533162396948700,4.09494873046875,0.4094489514827728,-0.09294158220291138,-0.3571193814277649
1772533162406885000,4.104885009765625,0.3135779798030853,-0.23035664856433868,-0.5286219120025635
1772533162416800800,4.11480078125,0.14433906972408295,-0.44540056586265564,-0.6734935641288757
1772533162426735400,4.1247353515625,-0.0015978495357558131,-0.6307511329650879,-0.7736254930496216
1772533162436667000,4.1346669921875,0.0026630824431777,-0.5593804717063904,-0.6894720792770386
1772533162446601000,4.14460107421875,0.17949175834655762,-0.21118244528770447,-0.345401793718338
1772533162456543700,4.154543701171875,0.40838369727134705,0.019973119720816612,0.1945381760597229
1772533162466478600,4.164478515625,0.5745600461959839,-0.04287562891840935,0.8090444803237915
1772533162476401000,4.17440087890625,0.665104866027832,-0.20585627853870392,1.361767292022705
1772533162486334500,4.18433447265625,0.7023880481719971,-0.26657456159591675,1.7344657182693481
1772533162496238800,4.19423876953125,0.7098446488380432,-0.18881255388259888,1.8953158855438232
1772533162506169600,4.204169677734375,0.7364754676818848,-0.08761541545391083,1.8867939710617065
1772533162516132600,4.214132568359375,0.7833457589149475,-0.0790935531258583,1.7152915000915527
1772533162526066700,4.224066650390625,0.8227593302726746,-0.13128997385501862,1.4128984212875366
1772533162535996000,4.233995849609375,0.863105058670044,-0.08228924870491028,1.0709586143493652
1772533162545929200,4.24392919921875,0.8854749798774719,0.022103585302829742,0.7632394433021545
1772533162555852000,4.25385205078125,0.8153027296066284,0.05619104206562042,0.4468652606010437
1772533162565784600,4.26378466796875,0.6640396118164062,-0.05352795869112015,0.07629731297492981
1772533162575720400,4.273720458984375,0.5287550687789917,-0.32396399974823,-0.2942706346511841
1772533162585653200,4.2836533203125,0.4552539587020874,-0.5987941026687622,-0.5861444473266602
1772533162595582000,4.29358203125,0.435014545917511,-0.684012770652771,-0.7587122321128845
1772533162605514500,4.303514404296875,0.435014545917511,-0.6627081036567688,-0.8439308404922485
1772533162615449000,4.313448974609375,0.4137098789215088,-0.6296858787536621,-0.9077116847038269
1772533162625381600,4.323381591796875,0.40731847286224365,-0.4720313847064972,-0.9780170917510986
1772533162635323000,4.333322998046875,0.4339492917060852,-0.20053011178970337,-1.0419310331344604
1772533162645256400,4.34325634765625,0.39347043633461,0.016777420416474342,-1.0557790994644165
1772533162655162400,4.353162353515625,0.21784014999866486,0.11371362209320068,-0.9854736924171448
1772533162665092900,4.3630927734375,-0.028228675946593285,0.07323476672172546,-0.8279523849487305
1772533162675021600,4.373021484375,-0.20399212837219238,-0.020505735650658607,-0.5882749557495117
1772533162684952000,4.3829521484375,-0.22423155605793,-0.03328853100538254,-0.2932053804397583
1772533162694896000,4.392896240234375,-0.14007814228534698,0.06790860742330551,-0.014247491955757141
1772533162704828200,4.402828125,-0.015445878729224205,0.2298240214586258,0.18708154559135437
1772533162714751200,4.412751220703125,0.07935985922813416,0.3575188219547272,0.3117138147354126
1772533162724682500,4.4226826171875,0.0846860259771347,0.35964930057525635,0.37869033217430115
1772533162734621400,4.432621337890625,-0.016511112451553345,0.2383458912372589,0.42023444175720215
1772533162744553200,4.44255322265625,-0.19653549790382385,0.03914731368422508,0.48627886176109314
1772533162754483500,4.4524833984375,-0.4019923210144043,-0.10785484313964844,0.6300853490829468
1772533162764415200,4.462415283203125,-0.5756253004074097,-0.0482017956674099,0.8963935971260071
1772533162774380800,4.472380859375,-0.7023880481719971,0.2170412242412567,1.2286131381988525
1772533162784316000,4.48231591796875,-0.771628201007843,0.2617810070514679,1.4853342771530151
1772533162794209800,4.492209716796875,-0.8493902087211609,-0.30692026019096375,1.5215522050857544
1772533162804140800,4.502140869140625,-0.9973244071006775,-1.279344916343689,1.1710906028747559
1772533162814093000,4.512093017578125,-1.1954578161239624,-1.859763741493225,0.39999499917030334
1772533162824026400,4.5220263671875,-1.3595036268234253,-1.4934567213058472,-0.733146607875824
1772533162833976000,4.53197607421875,-1.4106348752975464,-0.27616167068481445,-2.0271384716033936
1772533162843911000,4.541910888671875,-1.1102391481399536,1.7772080898284912,-2.7320563793182373
1772533162853828400,4.551828369140625,-0.5404726266860962,3.895557165145874,-2.4765336513519287
1772533162863761400,4.561761474609375,-0.28388461470603943,4.527107238769531,-1.8758753538131714
1772533162873693000,4.57169287109375,-0.5447335243225098,3.5376389026641846,-1.3796099424362183
1772533162883625700,4.581625732421875,-1.0324771404266357,2.105299949645996,-1.0898665189743042
1772533162893556000,4.591555908203125,-1.1240870952606201,0.9581770896911621,-0.7725602388381958
1772533162903488500,4.601488525390625,-0.7737586498260498,-0.008788172155618668,-0.29853156208992004
1772533162913438000,4.61143798828125,-0.35738566517829895,-0.6190335154533386,0.17642922699451447
1772533162923372300,4.621372314453125,0.027163442224264145,-0.8310149312019348,0.45112618803977966
1772533162933288200,4.6312880859375,0.15286093950271606,-0.6701647043228149,0.413843035697937
1772533162943220700,4.641220703125,0.052729032933712006,-0.3633776009082794,0.1721682846546173
1772533162953147000,4.65114697265625,-0.045272402465343475,-0.2633788585662842,-0.1665758192539215
1772533162963078700,4.66107861328125,-0.09746882319450378,-0.32929015159606934,-0.5371437668800354
1772533162973053700,4.6710537109375,-0.1709699034690857,-0.42303067445755005,-0.9087769389152527
1772533162982989800,4.68098974609375,-0.2657756507396698,-0.5338149070739746,-1.2837389707565308
1772533162992878000,4.690878173828125,-0.34460288286209106,-0.562576174736023,-1.6436545848846436
1772533163002809600,4.7008095703125,-0.31477636098861694,-0.5987941026687622,-1.880136251449585
1772533163012740900,4.710740966796875,-0.048468101769685745,-0.6659038066864014,-1.739525556564331
1772533163022672100,4.720672119140625,0.2730991244316101,-0.5018579363822937,-1.0238220691680908
1772533163032612400,4.7306123046875,0.34553495049476624,-0.31757259368896484,0.09227581322193146
1772533163042544600,4.740544677734375,0.11238208413124084,-0.5125102400779724,1.247787356376648
1772533163052476200,4.75047607421875,-0.25938424468040466,-0.9235570430755615,2.215817928314209
1772533163062408200,4.760408203125,-0.5511249303817749,-1.1483211517333984,2.877194404602051
1772533163072403500,4.770403564453125,-0.6768224239349365,-1.066298246383667,3.2191340923309326
1772533163082342000,4.780341796875,-0.7087793946266174,-0.7532529234886169,3.254287004470825
1772533163092206000,4.7902060546875,-0.7311493158340454,-0.427291601896286,2.9943699836730957
1772533163102137000,4.80013720703125,-0.7364754676818848,-0.24420467019081116,2.505561113357544
1772533163112073500,4.810073486328125,-0.6587134599685669,-0.23568280041217804,1.8846635818481445
1772533163122005000,4.8200048828125,-0.496798038482666,-0.3324858546257019,1.2680267095565796
1772533163131933000,4.829932861328125,-0.3414071798324585,-0.3346163332462311,0.6790860295295715
1772533163141864000,4.839864013671875,-0.07829462736845016,-0.2388785034418106,0.1529940962791443
1772533163151807000,4.849806884765625,0.22636201977729797,-0.14939893782138824,-0.1772281378507614
1772533163161739300,4.8597392578125,0.4637758135795593,-0.026897134259343147,-0.3017272651195526
1772533163171660300,4.869660400390625,0.5937342643737793,0.23195448517799377,-0.36138030886650085
1772533163181591600,4.879591552734375,0.5394073724746704,0.3841496706008911,-0.516904354095459
1772533163191501300,4.889501220703125,0.18801362812519073,0.14567062258720398,-0.7278204560279846
1772533163201430300,4.89943017578125,-0.34673336148262024,-0.31757259368896484,-0.816234827041626
1772533163211387400,4.909387451171875,-0.7503235340118408,-0.660577654838562,-0.7033200860023499
1772533163221319400,4.9193193359375,-0.8483249545097351,-0.722361147403717,-0.471099317073822
1772533163231253000,4.9292529296875,-0.6800181269645691,-0.5710980296134949,-0.21557652950286865
1772533163241185000,4.93918505859375,-0.37642672657966614,-0.3122464418411255,0.03049229457974434
1772533163251117000,4.949116943359375,-0.0953383520245552,0.009320789016783237,0.2158428430557251
1772533163261049000,4.959049072265625,0.059120431542396545,0.27882474660873413,0.2691044807434082
1772533163270984700,4.968984619140625,0.050598569214344025,0.36071452498435974,0.16364642977714539
1772533163280917200,4.978917236328125,-0.13049104809761047,0.22662831842899323,-0.04407401755452156
1772533163290852000,4.98885205078125,-0.3721657991409302,-0.026897134259343147,-0.22303315997123718
1772533163300785000,4.998784912109375,-0.48295003175735474,-0.2079867422580719,-0.27509641647338867
1772533163310719200,5.00871923828125,-0.34566810727119446,-0.111050546169281,-0.1985328048467636
1772533163320652000,5.018652099609375,-0.041011471301317215,0.21491076052188873,0.02516612969338894
1772533163330581800,5.028581787109375,0.1709699034690857,0.5865439176559448,0.39786452054977417
1772533163340514300,5.038514404296875,0.08681648969650269,0.8038514852523804,0.7898702621459961
1772533163350441500,5.04844140625,-0.29347169399261475,0.6334142088890076,1.1199593544006348
1772533163360373500,5.05837353515625,-0.7822805047035217,-0.16857312619686127,1.371354341506958
1772533163370309600,5.0683095703125,-1.0878691673278809,-1.5284762382507324,1.4054418802261353
1772533163380242000,5.078241943359375,-1.0324771404266357,-2.597836971282959,0.8708279728889465
1772533163400087000,5.098087158203125,-0.1699046641588211,-0.9001219272613525,-2.2709436416625977
1772533163419951900,5.117951904296875,0.23701435327529907,4.01792573928833,-3.376389265060425
1772533163429912300,5.127912353515625,-0.00585878174751997,4.180906295776367,-2.5862526893615723
1772533163439847000,5.137846923828125,-0.5021241903305054,3.1478967666625977,-1.547783613204956
1772533163449767000,5.147766845703125,-0.8035851716995239,2.1042346954345703,-0.6671021580696106
1772533163459700200,5.1577001953125,-0.5021241903305054,1.1765499114990234,-0.2326202541589737
1772533163469639200,5.16763916015625,0.19653549790382385,0.16058388352394104,0.06884068250656128
1772533163479573000,5.177572998046875,0.7844109535217285,-0.6659038066864014,0.4703003764152527
1772533163489502500,5.18750244140625,0.9408670663833618,-1.111038088798523,0.8655018210411072
1772533163499435800,5.197435791015625,0.8302159905433655,-1.2537792921066284,1.1370030641555786
1772533163509361000,5.20736083984375,0.626756489276886,-1.1706911325454712,1.0975894927978516
1772533163519293400,5.21729345703125,0.3913399875164032,-0.9651011228561401,0.675890326499939
1772533163529227800,5.227227783203125,0.16138280928134918,-0.6999912261962891,-0.015312724746763706
1772533163539160300,5.237160400390625,-0.047402869910001755,-0.44220486283302307,-0.8524527549743652
1772533163549091000,5.247091064453125,-0.060185667127370834,-0.19200825691223145,-1.541392207145691
1772533163559023600,5.257023681640625,0.19973118603229523,0.0018641578499227762,-1.7086337804794312
1772533163568957200,5.266957275390625,0.44992780685424805,-0.0077229393646121025,-1.3732185363769531
1772533163578890000,5.276889892578125,0.5500596761703491,-0.2697702646255493,-0.8066477179527283
1772533163588820000,5.286820068359375,0.55751633644104,-0.660577654838562,-0.15272778272628784
1772533163598752300,5.296752197265625,0.477623850107193,-0.8842765688896179,0.5150401592254639
1772533163608683500,5.30668359375,0.3061213493347168,-0.7734923362731934,1.0176969766616821
1772533163618615800,5.31661572265625,0.12196917831897736,-0.43581345677375793,1.263765811920166
1772533163628562400,5.3265625,0.045272402465343475,0.015712186694145203,1.314897060394287
1772533163638496000,5.33649609375,0.09214265644550323,0.481085866689682,1.2073085308074951
1772533163648411400,5.346411376953125,0.1922745555639267,0.7963948249816895,0.9665657877922058
1772533163658343400,5.356343505859375,0.3157084286212921,0.8560478687286377,0.7493914365768433
1772533163668276000,5.36627587890625,0.4648410677909851,0.7111762166023254,0.689738392829895
1772533163678208000,5.3762080078125,0.5511249303817749,0.4182371199131012,0.6588466167449951
1772533163688144100,5.38614404296875,0.5127765536308289,0.13501828908920288,0.48414841294288635
1772533163698076400,5.396076416015625,0.4254274368286133,-0.06631075590848923,0.17855969071388245
1772533163708016000,5.40601611328125,0.3689700961112976,-0.23248711228370667,-0.11224892735481262
1772533163717949400,5.415949462890625,0.3913399875164032,-0.3037245571613312,-0.2814878225326538
1772533163727873800,5.425873779296875,0.4669715166091919,-0.27616167068481445,-0.3464670479297638
1772533163737806000,5.43580615234375,0.5095808506011963,-0.21118244528770447,-0.40612009167671204
1772533163747733200,5.445733154296875,0.496798038482666,-0.12809427082538605,-0.5307523608207703
1772533163757665000,5.4556650390625,0.4456668794155121,-0.030092833563685417,-0.7150376439094543
1772533163767590000,5.46558984375,0.370035320520401,0.07856093347072601,-0.899189829826355
1772533163777521000,5.47552099609375,0.2933385372161865,0.2191716879606247,-1.0355396270751953
1772533163787478000,5.48547802734375,0.2635120153427124,0.3649754524230957,-1.0792142152786255
1772533163797411600,5.49541162109375,0.2762948274612427,0.4533897936344147,-1.0238220691680908
1772533163817241900,5.515241943359375,0.2338186502456665,0.3043903410434723,-0.7448641657829285
1772533163827175200,5.525175048828125,0.16670896112918854,0.09560466557741165,-0.5446003675460815
1772533163837106000,5.53510595703125,0.058055199682712555,-0.09933298081159592,-0.3592498302459717
1772533163847036700,5.54503662109375,-0.06870753318071365,-0.17070358991622925,-0.24859875440597534
1772533163856967200,5.55496728515625,-0.11131685227155685,-0.08335448056459427,-0.17616291344165802
1772533163866930400,5.564930419921875,-0.045272402465343475,0.04553871229290962,-0.0824224054813385
1772533163876864300,5.5748642578125,0.026098208501935005,0.07536523789167404,0.07416684925556183
1772533163886768400,5.584768310546875,0.031424373388290405,-0.018375270068645477,0.3106485903263092
1772533163896699100,5.59469921875,-0.045272402465343475,-0.16111649572849274,0.5885412693023682
1772533163906633700,5.6046337890625,-0.18268746137619019,-0.21011722087860107,0.8133054375648499
1772533163916565000,5.61456494140625,-0.3073197305202484,-0.08548495173454285,0.8942631483078003
1772533163926495000,5.624494873046875,-0.35632044076919556,0.13714875280857086,0.8196967840194702
1772533163936426200,5.63442626953125,-0.31690680980682373,0.272433340549469,0.7035863995552063
1772533163946396200,5.644396240234375,-0.32542869448661804,0.3224993050098419,0.6141068339347839
1772533163956331300,5.654331298828125,-0.5926690101623535,-0.025831900537014008,0.08481918275356293
1772533163966225400,5.664225341796875,-1.1773488521575928,-1.3272804021835327,-1.2997174263000488
1772533163976156400,5.674156494140625,-1.4095696210861206,-1.9481780529022217,-2.446707010269165
1772533163986093600,5.684093505859375,-1.1240870952606201,-0.5955983996391296,-2.635253429412842
1772533163996025000,5.694025146484375,-0.8131722807884216,1.136070966720581,-2.2869222164154053
1772533164005990700,5.70399072265625,-0.44886255264282227,2.0200812816619873,-1.4861332178115845
1772533164015925800,5.71392578125,-0.059120431542396545,2.201037645339966,-0.29000967741012573
1772533164025844000,5.723843994140625,0.09853405505418777,1.745251178741455,0.8963935971260071
1772533164035777300,5.73377734375,0.15605664253234863,0.6589797735214233,1.7227481603622437
1772533164045712000,5.7437119140625,0.24966399371623993,-0.6477948427200317,2.10197114944458
1772533164055645200,5.753645263671875,0.37536147236824036,-1.5593680143356323,2.1562979221343994
1772533164065574000,5.763573974609375,0.5298202633857727,-1.8128935098648071,1.9517731666564941
1772533164075507000,5.7735068359375,0.6235607862472534,-1.640325665473938,1.4118331670761108
1772533164085446000,5.78344580078125,0.6161041259765625,-1.2910624742507935,0.5768237113952637
1772533164095379500,5.79337939453125,0.5394073724746704,-0.8469933867454529,-0.3134448230266571
1772533164105321200,5.8033212890625,0.44886255264282227,-0.47416186332702637,-1.0376701354980469
1772533164115255600,5.813255615234375,0.39666613936424255,-0.1536598652601242,-1.4712200164794922
1772533164125162000,5.823161865234375,0.4041227698326111,0.21064983308315277,-1.4913262128829956
1772533164135093500,5.833093505859375,0.36683961749076843,0.5183690190315247,-1.1409977674484253
1772533164145030100,5.843030029296875,0.20825305581092834,0.6003919839859009,-0.6457974910736084
1772533164154962200,5.852962158203125,-0.006924014538526535,0.4800206422805786,-0.18468476831912994
1772533164164907000,5.862906982421875,-0.18481792509555817,0.35006219148635864,0.19134248793125153
1772533164174840300,5.87284033203125,-0.28388461470603943,0.3436708152294159,0.4287562966346741
1772533164184760000,5.882760009765625,-0.2870802879333496,0.457650750875473,0.5235620141029358
1772533164194691800,5.89269189453125,-0.2252967804670334,0.5545869469642639,0.5118444561958313
1772533164204635100,5.90263525390625,-0.1177082508802414,0.6131747364997864,0.4585828185081482
1772533164214568200,5.912568115234375,0.016511112451553345,0.6493926644325256,0.43195199966430664
1772533164224490800,5.92249072265625,0.14114338159561157,0.6003919839859009,0.4170387387275696
1772533164234422500,5.932422607421875,0.24859875440597534,0.39373674988746643,0.40851685404777527
1772533164244349700,5.942349609375,0.3061213493347168,0.0689738392829895,0.43301722407341003
1772533164254281500,5.952281494140625,0.27842527627944946,-0.2399437427520752,0.4990616738796234
1772533164264215600,5.962215576171875,0.21677492558956146,-0.41131308674812317,0.5651060938835144
1772533164274147300,5.972147216796875,0.20079642534255981,-0.45498764514923096,0.5874760150909424
1772533164284082200,5.982082275390625,0.22423155605793,-0.4720313847064972,0.5342143774032593
1772533164294014200,5.99201416015625,0.23807957768440247,-0.5455324649810791,0.394668847322464
1772533164303943000,6.00194287109375,0.2656424939632416,-0.6083812117576599,0.2797568142414093
1772533164313874700,6.011874755859375,0.346600204706192,-0.5593804717063904,0.30425718426704407
1772533164323815400,6.0218154296875,0.3913399875164032,-0.4059869349002838,0.41916918754577637
1772533164333748000,6.031748046875,0.3135779798030853,-0.2729659676551819,0.5320838689804077
1772533164343677700,6.041677734375,0.09959928691387177,-0.3303554058074951,0.590671718120575
1772533164353610200,6.0516103515625,-0.20718781650066376,-0.5402063131332397,0.5928021669387817
1772533164363516700,6.0615166015625,-0.47016721963882446,-0.6137073636054993,0.5288882255554199
1772533164373446400,6.0714462890625,-0.5766905546188354,-0.35698622465133667,0.39040789008140564
1772533164383407900,6.081407958984375,-0.5287550687789917,0.1339530497789383,0.27230018377304077
1772533164393325300,6.0913251953125,-0.41797080636024475,0.7047848105430603,0.2382127344608307
1772533164413191200,6.111191162109375,-0.3627118468284607,1.5428569316864014,0.24247366189956665
1772533164423135000,6.121135009765625,-0.534081220626831,1.5822705030441284,0.25206077098846436
1772533164433068800,6.13106884765625,-0.7556496858596802,1.3789441585540771,0.34673336148262024
1772533164443003000,6.1410029296875,-0.8611077666282654,0.9645684957504272,0.5054530501365662
1772533164452936700,6.150936767578125,-0.7939980626106262,0.3426055610179901,0.6471290588378906
1772533164462876200,6.160876220703125,-0.6214303374290466,-0.3740299344062805,0.6950645446777344
1772533164472810500,6.170810546875,-0.41903603076934814,-1.02688467502594,0.6833469867706299
1772533164482727700,6.180727783203125,-0.2252967804670334,-1.5146281719207764,0.6801512837409973
1772533164492660500,6.190660400390625,-0.1059906855225563,-1.7564361095428467,0.6449986100196838
1772533164502555600,6.2005556640625,-0.14540430903434753,-1.7138267755508423,0.4820179343223572
1772533164512484600,6.210484619140625,-0.34566810727119446,-1.4860000610351562,0.22223423421382904
1772533164522464500,6.220464599609375,-0.5596467852592468,-1.2623010873794556,-0.05366111174225807
1772533164532398600,6.230398681640625,-0.5905385613441467,-1.0439283847808838,-0.37203264236450195
1772533164542313000,6.24031298828125,-0.3902747631072998,-0.6520557403564453,-0.7395380139350891
1772533164552245000,6.250244873046875,-0.2029268890619278,-0.05565842613577843,-1.104779839515686
1772533164562203100,6.260203125,-0.37323102355003357,0.5673697590827942,-1.5168918371200562
1772533164572137700,6.2701376953125,-0.8536511063575745,1.1520495414733887,-2.0122251510620117
1772533164582051600,6.280051513671875,-1.0889344215393066,1.7282074689865112,-2.3476405143737793
1772533164591984000,6.289984130859375,-0.7758890986442566,2.312887191772461,-2.1558985710144043
1772533164601921300,6.29992138671875,-0.20931829512119293,2.671870708465576,-1.343392014503479
1772533164611854300,6.309854248046875,0.2720338702201843,2.4002363681793213,-0.14101022481918335
1772533164621780700,6.31978076171875,0.4744281470775604,1.2990516424179077,1.095458984375
1772533164631713000,6.329713134765625,0.34553495049476624,-0.12170287221670151,1.9837301969528198
1772533164641654500,6.339654541015625,0.1070559173822403,-1.2122352123260498,2.318080186843872
1772533164651587800,6.349587890625,-0.020772043615579605,-1.8267414569854736,2.2797317504882812
1772533164661511700,6.35951171875,-0.07083799690008163,-1.8331328630447388,2.0806663036346436
1772533164671444000,6.36944384765625,-0.1294258087873459,-1.2324745655059814,1.6258119344711304
1772533164681377000,6.379376953125,-0.22636201977729797,-0.4912055730819702,0.7419347763061523
1772533164691309600,6.3893095703125,-0.32649391889572144,0.25432437658309937,-0.28894445300102234
1772533164701204500,6.39920458984375,-0.34353765845298767,0.9720251560211182,-0.9045159816741943
1772533164721110000,6.419110107421875,-0.3115806579589844,1.2564423084259033,-0.6596455574035645
1772533164731043600,6.429043701171875,-0.37323102355003357,0.7740249633789062,-0.1665758192539215
1772533164740969000,6.438968994140625,-0.35525521636009216,0.13075734674930573,0.36910325288772583
1772533164750901500,6.448901611328125,-0.29453691840171814,-0.5668371319770813,0.75152188539505
1772533164760845600,6.458845458984375,-0.2348838746547699,-1.1312774419784546,0.9091764092445374
1772533164770779400,6.468779296875,-0.1922745555639267,-1.3368674516677856,0.8399362564086914
1772533164780698600,6.47869873046875,-0.20718781650066376,-1.0396674871444702,0.5800193548202515
1772533164790631000,6.488630859375,-0.2796236574649811,-0.3420729637145996,0.2062557488679886
1772533164800565800,6.498565673828125,-0.3392767310142517,0.40332385897636414,-0.19107617437839508
1772533164810498300,6.508498291015625,-0.2679060995578766,0.9581770896911621,-0.4434032440185547
1772533164820438500,6.5184384765625,-0.08788172155618668,1.2532466650009155,-0.4657731354236603
1772533164830371800,6.528371826171875,0.0740336924791336,1.227681040763855,-0.30811864137649536
1772533164840275200,6.538275146484375,0.18481792509555817,0.9178314208984375,-0.011051792651414871
1772533164850205400,6.548205322265625,0.27096864581108093,0.49919483065605164,0.36484232544898987
1772533164860160000,6.558159912109375,0.3380783200263977,0.08495233207941055,0.7195649147033691
1772533164870092800,6.5680927734375,0.39560091495513916,-0.36763855814933777,0.9889357089996338
1772533164880023000,6.57802294921875,0.42862313985824585,-0.7436658143997192,1.1476554870605469
1772533164889955600,6.58795556640625,0.44034069776535034,-0.8874722719192505,1.1540467739105225
1772533164899886000,6.597885986328125,0.435014545917511,-0.8331453800201416,0.9676310420036316
1772533164909818400,6.607818359375,0.40625324845314026,-0.6477948427200317,0.5981283187866211
1772533164919750100,6.617750244140625,0.40625324845314026,-0.33781203627586365,0.11251524090766907
1772533164929682400,6.627682373046875,0.46271058917045593,-0.0023967742454260588,-0.37309786677360535
1772533164939622400,6.637622314453125,0.5244941115379333,0.23408496379852295,-0.7501903772354126
1772533164949555500,6.647555419921875,0.5031894445419312,0.3129121959209442,-0.9812127947807312
1772533164959494700,6.65749462890625,0.38707906007766724,0.29906415939331055,-1.0643008947372437
1772533164969428200,6.66742822265625,0.2125139832496643,0.23728065192699432,-1.013169765472412
1772533164979346200,6.67734619140625,0.028228675946593285,0.10838746279478073,-0.8705616593360901
1772533164989278200,6.6872783203125,-0.09746882319450378,-0.07163692265748978,-0.6564498543739319
1772533164999209000,6.697208984375,-0.11877348273992538,-0.13128997385501862,-0.3784240186214447
1772533165009141000,6.70714111328125,-0.06551183015108109,-0.06204982474446297,-0.09200949966907501
1772533165019059500,6.7170595703125,0.012250179424881935,-0.05459319427609444,0.16364642977714539
1772533165028990000,6.726989990234375,0.06977276504039764,-0.20053011178970337,0.3818860352039337
1772533165038955000,6.736955078125,0.06551183015108109,-0.33674678206443787,0.5235620141029358
1772533165048889000,6.74688916015625,-0.017576344311237335,-0.3335510790348053,0.5331491231918335
1772533165058785000,6.756784912109375,-0.13475197553634644,-0.26657456159591675,0.3712337017059326
1772533165068715300,6.76671533203125,-0.24873191118240356,-0.37189948558807373,0.0560578890144825
1772533165078650000,6.776650146484375,-0.3115806579589844,-0.8043841123580933,-0.3571193814277649
1772533165088580900,6.786580810546875,-0.2881455421447754,-1.3592373132705688,-0.816234827041626
1772533165098515000,6.796514892578125,-0.1816222369670868,-1.6861307621002197,-1.1782808303833008
1772533165108446200,6.8064462890625,0.020772043615579605,-1.3624330759048462,-1.1995855569839478
1772533165118412300,6.816412353515625,0.3178389072418213,-0.2069215178489685,-0.7906692028045654
1772533165128347000,6.826346923828125,0.6054518222808838,1.1318100690841675,-0.09946613013744354
1772533165138242800,6.836242919921875,0.6693658232688904,1.907166600227356,0.5736280083656311
1772533165148173600,6.846173583984375,0.49253711104393005,1.8773400783538818,0.9686962962150574
1772533165158106600,6.856106689453125,0.25605538487434387,0.9698946475982666,1.0240883827209473
1772533165168037600,6.86603759765625,0.11451254785060883,-0.25592222809791565,0.7930659651756287
1772533165177973500,6.875973388671875,0.1603175699710846,-0.8746894598007202,0.4340824484825134
1772533165187905000,6.885905029296875,0.4552539587020874,-0.8342106342315674,0.12210233509540558
1772533165197857800,6.89585791015625,0.8472597002983093,-0.5700328350067139,-0.004660394508391619
1772533165207791400,6.905791259765625,1.068695068359375,-0.20479105412960052,0.14660269021987915
1772533165217720600,6.915720458984375,1.037803292274475,0.022103585302829742,0.5267577171325684
1772533165227653600,6.925653564453125,0.8408682942390442,-0.07696308940649033,0.9390029311180115
1772533165237587000,6.9355869140625,0.5884081125259399,-0.3932041525840759,1.2147650718688965
1772533165247520000,6.94552001953125,0.3252955377101898,-0.7404701113700867,1.3202232122421265
1772533165257463600,6.955463623046875,0.07083799690008163,-1.0013190507888794,1.2658963203430176
1772533165267398000,6.96539794921875,-0.13475197553634644,-1.1227556467056274,1.0464582443237305
1772533165277313000,6.97531298828125,-0.23062294721603394,-0.9938623905181885,0.6535204648971558
1772533165287245300,6.985245361328125,-0.19973118603229523,-0.5263582468032837,0.09121058136224747
1772533165297179600,6.9951796875,-0.1603175699710846,0.16910573840141296,-0.5808182954788208
1772533165307112000,7.00511181640625,-0.1805569976568222,1.0093083381652832,-1.1782808303833008
1772533165317043200,7.015043212890625,-0.15392617881298065,1.8027737140655518,-1.466958999633789
1772533165326975500,7.0249755859375,-0.0846860259771347,2.1882548332214355,-1.413697361946106
1772533165336908300,7.034908203125,-0.09107742458581924,2.045646905899048,-1.1740199327468872
1772533165346840800,7.0448408203125,-0.14433906972408295,1.4737498760223389,-0.8013215661048889
1772533165356772600,7.054772705078125,-0.1912093311548233,0.7111762166023254,-0.3155752718448639
1772533165366705200,7.064705078125,-0.222101092338562,-0.00133154122158885,0.19240771234035492
1772533165376638500,7.074638427734375,-0.22103585302829742,-0.4624442756175995,0.6045197248458862
1772533165386571000,7.084571044921875,-0.13581721484661102,-0.6712299585342407,0.8633713722229004
1772533165396509000,7.094509033203125,0.029293907806277275,-0.6765561103820801,0.9527177810668945
1772533165406442000,7.10444189453125,0.2252967804670334,-0.3836170434951782,0.8868064880371094
1772533165416373500,7.11437353515625,0.39666613936424255,0.08601756393909454,0.7067821025848389
1772533165426306300,7.124306396484375,0.5042546987533569,0.47895538806915283,0.413843035697937
1772533165436213500,7.134213623046875,0.5127765536308289,0.7069152593612671,0.000665770610794425
1772533165446143700,7.144143798828125,0.4137098789215088,0.8539174199104309,-0.4955996572971344
1772533165456103400,7.154103515625,0.26031631231307983,0.9411333799362183,-0.998256504535675
1772533165466036700,7.16403662109375,0.13368675112724304,0.9379376769065857,-1.4339368343353271
1772533165475974100,7.17397412109375,0.021837277337908745,0.8975919485092163,-1.7821348905563354
1772533165485907700,7.18390771484375,-0.07722939550876617,0.8890700936317444,-2.002638101577759
1772533165495838200,7.193838134765625,-0.0953383520245552,0.943263828754425,-2.01009464263916
1772533165505771500,7.203771484375,-0.028228675946593285,1.019960641860962,-1.7832000255584717
1772533165515691800,7.21369189453125,0.062316130846738815,1.0348738431930542,-1.435002088546753
1772533165525623800,7.223623779296875,0.1059906855225563,1.0061125755310059,-1.1228888034820557
1772533165535560000,7.233559814453125,0.0644465982913971,0.9252880215644836,-0.9396686553955078
1772533165545492200,7.2434921875,0.0026630824431777,0.7175676226615906,-0.8332785367965698
1772533165555421700,7.253421630859375,0.006924014538526535,0.45552027225494385,-0.6873416304588318
1772533165565353700,7.263353759765625,0.11557777971029282,0.2617810070514679,-0.47749069333076477
1772533165575284000,7.273283935546875,0.25818586349487305,0.17762760818004608,-0.23581595718860626
1772533165585216000,7.283216064453125,0.2975994646549225,0.13608351349830627,0.03901416063308716
1772533165595167700,7.293167724609375,0.16138280928134918,0.019973119720816612,0.34673336148262024
1772533165605101800,7.303101806640625,-0.11238208413124084,-0.21224768459796906,0.6034545302391052
1772533165615017000,7.313016845703125,-0.4041227698326111,-0.5103797912597656,0.6865426898002625
1772533165624949000,7.322948974609375,-0.5372769236564636,-0.8097102642059326,0.5917369723320007
1772533165634880500,7.332880615234375,-0.43927547335624695,-1.0375369787216187,0.37869033217430115
1772533165644812500,7.3428125,-0.24979715049266815,-1.0631026029586792,-0.03874785080552101
1772533165654747400,7.352747314453125,-0.20505735278129578,-0.9874709844589233,-0.8567136526107788
1772533165664679700,7.3626796875,-0.3711005449295044,-0.6541862487792969,-1.8385921716690063
1772533165674607000,7.372607177734375,-0.37642672657966614,0.37882348895072937,-2.2166168689727783
1772533165684539000,7.382538818359375,-0.0079892473295331,1.6195536851882935,-1.6468502283096313
1772533165694483000,7.39248291015625,0.305056095123291,2.2266032695770264,-0.6852111220359802
1772533165704416000,7.402416015625,0.24859875440597534,1.9061013460159302,-0.09627043455839157
1772533165714345500,7.412345458984375,-0.056989967823028564,0.9039833545684814,-0.19640234112739563
1772533165724278300,7.4222783203125,-0.20718781650066376,0.15099677443504333,-0.48920828104019165
1772533165734218000,7.432218017578125,-0.0079892473295331,-0.09826774895191193,-0.47749069333076477
1772533165744151300,7.4421513671875,0.33381739258766174,-0.23461757600307465,-0.21238084137439728
1772533165754068500,7.452068359375,0.5873428583145142,-0.34952959418296814,0.183885857462883
1772533165764000300,7.462000244140625,0.6448654532432556,-0.4816184937953949,0.6460638046264648
1772533165773913900,7.471913818359375,0.5351464152336121,-0.6882736682891846,0.9953271150588989
1772533165783843800,7.48184375,0.370035320520401,-0.9235570430755615,1.116763710975647
1772533165793797600,7.491797607421875,0.19866596162319183,-1.0961247682571411,1.0123708248138428
1772533165803730200,7.501730224609375,0.006924014538526535,-1.0556459426879883,0.7430000305175781
1772533165813665000,7.5116650390625,-0.18268746137619019,-0.8682980537414551,0.3520595133304596
1772533165823597600,7.52159765625,-0.310515433549881,-0.7287525534629822,-0.10798799991607666
1772533165833528600,7.531528564453125,-0.3073197305202484,-0.7468615174293518,-0.5254262089729309
1772533165843461000,7.541461181640625,-0.1699046641588211,-0.7873403429985046,-0.7427337169647217
1772533165853394400,7.55139453125,-0.013315413147211075,-0.6445991396903992,-0.6649717092514038
1772533165863327000,7.561326904296875,0.049533337354660034,-0.4485962688922882,-0.3326190114021301
1772533165873266400,7.571266357421875,0.0047935484908521175,-0.36018192768096924,0.11251524090766907
1772533165883199700,7.58119970703125,-0.10386022180318832,-0.4400743842124939,0.5118444561958313
1772533165893132800,7.5911328125,-0.21677492558956146,-0.6445991396903992,0.7834789156913757
1772533165903066000,7.601066162109375,-0.29347169399261475,-0.8171668648719788,0.9453943371772766
1772533165912984800,7.61098486328125,-0.3115806579589844,-0.8448629379272461,0.9931966662406921
1772533165922916600,7.62091650390625,-0.27110180258750916,-0.745796263217926,0.8889369368553162
1772533165932857600,7.630857666015625,-0.1805569976568222,-0.5892069935798645,0.6631075739860535
1772533165942790400,7.640790283203125,-0.034620072692632675,-0.2973331809043884,0.4894745647907257
1772533165952726800,7.650726806640625,0.1177082508802414,0.03488638252019882,0.48308318853378296
1772533165962659800,7.660659912109375,0.20505735278129578,0.19999749958515167,0.5746932029724121
1772533165972575200,7.6705751953125,0.21890538930892944,0.20212796330451965,0.6694989800453186
1772533165982506500,7.680506591796875,0.19440503418445587,0.07749570161104202,0.7206301689147949
1772533165992443000,7.69044287109375,0.15179570019245148,-0.16111649572849274,0.7089125514030457
1772533166002374700,7.700374755859375,0.0964035913348198,-0.47842279076576233,0.6354115009307861
1772533166012310000,7.71031005859375,0.0079892473295331,-0.8192973732948303,0.5118444561958313
1772533166022242000,7.720241943359375,-0.11344731599092484,-1.0961247682571411,0.34566810727119446
1772533166032175400,7.73017529296875,-0.2252967804670334,-1.2260831594467163,0.16684211790561676
1772533166052043800,7.750043701171875,-0.3392767310142517,-0.6967955231666565,-0.2411421239376068
1772533166061976300,7.759976318359375,-0.34779858589172363,-0.2591179311275482,-0.5616441369056702
1772533166071903200,7.7699033203125,-0.3073197305202484,0.07749570161104202,-0.9013202786445618
1772533166081835300,7.779835205078125,-0.21890538930892944,0.2798899710178375,-1.1399325132369995
1772533166091767000,7.78976708984375,-0.14433906972408295,0.3990629315376282,-1.2070422172546387
1772533166101699000,7.799698974609375,-0.11344731599092484,0.4587159752845764,-1.09093177318573
1772533166111644000,7.809643798828125,-0.0857512578368187,0.47575968503952026,-0.7800168991088867
1772533166121577200,7.8195771484375,-0.034620072692632675,0.4523245692253113,-0.32729285955429077
1772533166131508500,7.829508544921875,-0.026098208501935005,0.32556185126304626,0.11784140020608902
1772533166141441500,7.839441650390625,-0.0964035913348198,0.16164910793304443,0.41171255707740784
1772533166151337200,7.849337158203125,-0.18694838881492615,0.05725627392530441,0.521431565284729
1772533166161266400,7.859266357421875,-0.22636201977729797,0.03488638252019882,0.5310186743736267
1772533166171225900,7.869225830078125,-0.222101092338562,0.04553871229290962,0.5331491231918335
1772533166181158100,7.879158203125,-0.2572537660598755,0.0061250897124409676,0.5086487531661987
1772533166191130600,7.889130615234375,-0.3190372884273529,-0.10785484313964844,0.41064733266830444
1772533166201067000,7.89906689453125,-0.3009283244609833,-0.25379177927970886,0.27443066239356995
1772533166210937300,7.908937255859375,-0.15605664253234863,-0.44220486283302307,0.14340700209140778
1772533166220867000,7.9188671875,0.14327384531497955,-0.8075798153877258,-0.09413997083902359
1772533166230805500,7.928805419921875,0.5639077425003052,-1.4082380533218384,-0.6447322964668274
1772533166250664000,7.948663818359375,1.0729559659957886,-1.9598956108093262,-2.251769542694092
1772533166260594400,7.958594482421875,0.7247579097747803,-0.89692622423172,-2.3103573322296143
1772533166270527700,7.96852783203125,-0.044207170605659485,0.7175676226615906,-1.7682868242263794
1772533166280458500,7.97845849609375,-0.5138418078422546,1.7697515487670898,-1.3732185363769531
1772533166290429700,7.9884296875,-0.32436347007751465,2.266016960144043,-1.3018479347229004
1772533166300364500,7.998364501953125,0.262446790933609,2.4833245277404785,-1.1431281566619873
1772533166310281700,8.00828173828125,0.9877372980117798,2.180798292160034,-0.6010577082633972
1772533166320214500,8.018214599609376,1.438330888748169,1.2340724468231201,0.3351489305496216
1772533166330127600,8.028127685546876,1.3595036268234253,-0.04287562891840935,1.4576382637023926
1772533166340058600,8.03805859375,1.021824836730957,-1.2697577476501465,2.201969861984253
1772533166349990700,8.04799072265625,0.7279536128044128,-1.8981120586395264,2.266948938369751
1772533166359922000,8.057921875,0.6182346343994141,-1.7042397260665894,1.8196842670440674
1772533166369876500,8.06787646484375,0.5628424882888794,-0.7798837423324585,1.018762230873108
1772533166379810000,8.07781005859375,0.46910199522972107,0.3979976773262024,0.06777545064687729
1772533166389728500,8.087728515625,0.3924052119255066,1.3235520124435425,-0.7406032681465149
1772533166399660500,8.09766064453125,0.29972994327545166,1.7292726039886475,-1.2262163162231445
1772533166409615400,8.107615478515624,0.1922745555639267,1.6621630191802979,-1.3604357242584229
1772533166419549700,8.1175498046875,0.09320788830518723,1.2862688302993774,-1.1463239192962646
1772533166429448000,8.127447998046875,-0.045272402465343475,0.7079805135726929,-0.7288857102394104
1772533166439378700,8.137378662109375,-0.22742724418640137,0.06151720881462097,-0.32090145349502563
1772533166449336600,8.147336669921875,-0.4446016252040863,-0.49866220355033875,-0.01744319126009941
1772533166459270000,8.157269775390626,-0.7034532427787781,-0.8118407130241394,0.20306004583835602
1772533166469203000,8.167202880859374,-0.8973256945610046,-0.8086450099945068,0.47562655806541443
1772533166479136500,8.177136474609375,-0.9069127440452576,-0.6211640238761902,0.8857412338256836
1772533166489059800,8.187059814453125,-0.7918676137924194,-0.3868127465248108,1.3074404001235962
1772533166498992000,8.1969921875,-0.6555177569389343,-0.09613727778196335,1.5800068378448486
1772533166508928800,8.2069287109375,-0.5159722566604614,0.2628462612628937,1.7025086879730225
1772533166518861600,8.216861572265625,-0.35418999195098877,0.5812177658081055,1.7419222593307495
1772533166528790000,8.2267900390625,-0.19014409184455872,0.6696321368217468,1.7323352098464966
1772533166538722300,8.236722412109375,-0.0846860259771347,0.5023905038833618,1.5938549041748047
1772533166548658000,8.246657958984375,-0.025032976642251015,0.09134373068809509,1.2627005577087402
1772533166558590700,8.2565908203125,0.017576344311237335,-0.3889431953430176,0.8239577412605286
1772533166568497200,8.2664970703125,0.08788172155618668,-0.6808170676231384,0.4905398190021515
1772533166578427100,8.27642724609375,0.1816222369670868,-0.7394048571586609,0.41171255707740784
1772533166588385000,8.286385009765626,0.2348838746547699,-0.5721632838249207,0.5576494932174683
1772533166598317800,8.29631787109375,0.25605538487434387,-0.18455162644386292,0.8058487772941589
1772533166608255500,8.30625537109375,0.24859875440597534,0.22130216658115387,0.9985228180885315
1772533166618188800,8.316188720703124,0.13155627250671387,0.3575188219547272,1.0571106672286987
1772533166628090400,8.32609033203125,-0.14007814228534698,0.21384553611278534,1.0848066806793213
1772533166638020400,8.336020263671875,-0.5308855175971985,-0.0588541254401207,1.2424612045288086
1772533166647981600,8.345981689453126,-0.902651846408844,-0.4485962688922882,1.4043766260147095
1772533166657914600,8.35591455078125,-1.2284799814224243,-0.6552514433860779,1.561897873878479
1772533166667843300,8.36584326171875,-1.5905261039733887,-0.2612484097480774,1.8559021949768066
1772533166677776100,8.375776123046874,-1.759898066520691,0.5247604250907898,2.2541661262512207
1772533166687709000,8.385708984375,-1.5203537940979004,1.2820079326629639,2.5258007049560547
1772533166697641700,8.395641845703125,-1.0825430154800415,1.6909242868423462,2.552431583404541
1772533166707549400,8.405549560546875,-0.6491263508796692,1.304377794265747,2.221143960952759
1772533166717479700,8.415479736328125,-0.2774932086467743,-0.14620323479175568,1.4384640455245972
1772533166727434000,8.42543408203125,-0.037815771996974945,-2.1429824829101562,0.3850817382335663
1772533166737366500,8.435366455078125,-0.09107742458581924,-2.964143991470337,-0.2804225981235504
1772533166747341300,8.44534130859375,-0.39773139357566833,-2.060027599334717,-0.3145100474357605
1772533166757278200,8.4552783203125,-0.5937342643737793,-0.3740299344062805,0.08588441461324692
1772533166767175400,8.465175537109374,-0.5255593657493591,1.5365986824035645,0.7142387628555298
1772533166777108500,8.4751083984375,-0.2551233172416687,2.9231326580047607,1.2616353034973145
1772533166787044900,8.485044921875,-0.11983871459960938,3.196897506713867,1.4107680320739746
1772533166796978200,8.494978271484374,-0.2551233172416687,2.401301622390747,0.8111749291419983
1772533166806893800,8.504893798828125,-0.4126446545124054,0.9549813866615295,-0.7406032681465149
1772533166816825300,8.514825439453125,-0.3796224296092987,-0.10572437942028046,-2.461620330810547
1772533166826738400,8.524738525390624,-0.09001219272613525,-0.0002663082559593022,-3.5180652141571045
1772533166836668200,8.534668212890624,0.3689700961112976,0.7079805135726929,-3.9951565265655518
1772533166846624300,8.544624267578126,0.8312812447547913,1.3363348245620728,-4.034570217132568
1772533166856556500,8.554556640625,1.3435251712799072,1.7835994958877563,-3.6448278427124023
1772533166866445000,8.564445068359374,1.9218134880065918,2.2084944248199463,-2.9376463890075684
1772533166876373000,8.574373046875,2.4095571041107178,2.4939768314361572,-2.019681930541992
1772533166886354200,8.584354248046875,2.747102737426758,2.3523008823394775,-1.0121045112609863
1772533166896287500,8.59428759765625,2.947366714477539,1.6824023723602295,-0.02596505545079708
1772533166906219000,8.604218994140625,3.013411045074463,0.5524564981460571,0.8463276624679565
1772533166916152000,8.614152099609376,2.803560256958008,-0.9075785279273987,1.5375306606292725
1772533166936015600,8.634015625,1.0857387781143188,-3.6446948051452637,1.9975782632827759
1772533166945948700,8.64394873046875,0.6757571697235107,-3.4955620765686035,1.8899897336959839
1772533166955881700,8.6538818359375,0.6906704902648926,-2.331528663635254,1.385202407836914
1772533166965814300,8.663814208984375,0.8577789068222046,-0.8958609700202942,0.4820179343223572
1772533166975747000,8.6737470703125,1.084673523902893,0.5449998378753662,-0.563774585723877
1772533166985679400,8.683679443359376,1.3861345052719116,1.7516425848007202,-1.4934567213058472
1772533166995612200,8.693612060546876,1.5692213773727417,2.2404513359069824,-2.0878567695617676
1772533167005519000,8.70351904296875,1.438330888748169,2.2159509658813477,-2.2027688026428223
1772533167015449300,8.713449462890624,0.9781502485275269,2.456693649291992,-2.0037033557891846
1772533167025409500,8.723409423828125,0.6384740471839905,2.443910837173462,-1.7288732528686523
1772533167035342800,8.7333427734375,0.4765586256980896,1.5227506160736084,-1.437132477760315
1772533167045289700,8.743289794921875,0.28907760977745056,0.3043903410434723,-0.9780170917510986
1772533167055224300,8.753224365234376,0.12303441762924194,-0.3857475221157074,-0.25712060928344727
1772533167065135000,8.763135009765625,0.10172975063323975,-0.5806851387023926,0.42982152104377747
1772533167075067100,8.773067138671875,0.25818586349487305,-0.6637732982635498,0.7813484072685242
1772533167085014500,8.7830146484375,0.4232969582080841,-0.6999912261962891,0.8260881900787354
1772533167094948400,8.7929482421875,0.496798038482666,-0.5647066831588745,0.6993255019187927
1772533167104869400,8.802869384765625,0.43821024894714355,-0.4102478623390198,0.41171255707740784
1772533167114802000,8.812802001953125,0.21784014999866486,-0.18987779319286346,0.03901416063308716
1772533167124733000,8.82273291015625,-0.018641578033566475,0.12543119490146637,-0.33155378699302673
1772533167134665200,8.832665283203125,-0.2636451721191406,0.2830856740474701,-0.6585803031921387
1772533167144595200,8.84259521484375,-0.5820167064666748,0.03275591507554054,-0.9407339096069336
1772533167154527200,8.85252734375,-0.9697614908218384,-0.2729659676551819,-1.0046478509902954
1772533167164458800,8.862458740234375,-1.330742359161377,-0.4890751242637634,-0.8034520149230957
1772533167174390800,8.872390869140625,-1.6491138935089111,-0.6243597269058228,-0.4007939398288727
1772533167184329000,8.882328857421875,-1.8770737648010254,-0.5487281680107117,0.16471165418624878
1772533167194261800,8.89226171875,-1.9686838388442993,-0.20159535109996796,0.8303491473197937
1772533167204200200,8.9022001953125,-1.9761403799057007,0.11477886140346527,1.4427249431610107
1772533167214133500,8.912133544921875,-1.8621604442596436,0.30971649289131165,1.9368599653244019
1772533167224052500,8.922052490234375,-1.5947870016098022,0.09134373068809509,2.234992027282715
1772533167233984300,8.931984375,-1.2242190837860107,-0.9565792679786682,2.088123083114624
1772533167243915000,8.9419150390625,-0.8472597002983093,-2.097310781478882,1.4917256832122803
1772533167253846800,8.9518466796875,-0.5841471552848816,-2.1568305492401123,0.8878717422485352
1772533167263777800,8.96177783203125,-0.5181027054786682,-1.3848029375076294,0.4777570068836212
1772533167273709300,8.971709228515625,-0.5937342643737793,-0.6967955231666565,0.1306242048740387
1772533167283645700,8.981645751953126,-0.68747478723526,-0.4091826379299164,-0.1985328048467636
1772533167293577700,8.99157763671875,-0.7183665037155151,-0.23142187297344208,-0.4327509105205536
1772533167303516700,9.0015166015625,-0.6448654532432556,0.1318225860595703,-0.5392742156982422
1772533167313449500,9.011449462890624,-0.4435364007949829,0.560978353023529,-0.5659050345420837
1772533167323378400,9.02137841796875,-0.17736129462718964,0.9327446818351746,-0.5446003675460815
1772533167333310700,9.031310791015626,0.012250179424881935,1.1818760633468628,-0.4732297658920288
1772533167343244300,9.041244384765625,0.060185667127370834,1.213832974433899,-0.3368799388408661
1772533167353176800,9.0511767578125,0.025032976642251015,0.9922645688056946,-0.1474016159772873
1772533167363106800,9.06110693359375,-0.036750540137290955,0.6675016283988953,0.07310161739587784
1772533167373038800,9.071038818359375,-0.09214265644550323,0.4374113082885742,0.2797568142414093
1772533167382985200,9.080985107421874,-0.12196917831897736,0.3766930401325226,0.418103963136673
1772533167392918800,9.090918701171875,-0.14540430903434753,0.4533897936344147,0.4383433759212494
1772533167402824400,9.100824462890625,-0.18801362812519073,0.5567173957824707,0.32662707567214966
1772533167412755500,9.11075537109375,-0.25938424468040466,0.5833482146263123,0.14340700209140778
1772533167422680800,9.120680908203125,-0.3414071798324585,0.5684349536895752,-0.039813082665205
1772533167432611000,9.130611083984375,-0.40518802404403687,0.5332822799682617,-0.1889457106590271
1772533167442546400,9.14054638671875,-0.4094489514827728,0.4363460838794708,-0.2814878225326538
1772533167452477200,9.150477294921876,-0.3190372884273529,0.331953227519989,-0.29640108346939087
1772533167462409500,9.160409423828124,-0.15605664253234863,0.28841185569763184,-0.2517944574356079
1772533167472340500,9.170340576171874,0.0047935484908521175,0.3043903410434723,-0.1995980441570282
1772533167482273300,9.180273193359374,0.08362079411745071,0.36071452498435974,-0.18361954391002655
1772533167492204500,9.19020458984375,0.11344731599092484,0.4736292362213135,-0.18255430459976196
1772533167502180000,9.20018017578125,0.11238208413124084,0.6515231728553772,-0.10585752874612808
1772533167512115700,9.21011572265625,0.006924014538526535,0.6323489546775818,0.36484232544898987
1772533167522036700,9.22003662109375,-0.19014409184455872,-0.33781203627586365,0.8335448503494263
1772533167531970800,9.229970703125,-0.29134124517440796,-1.4327384233474731,0.8900021910667419
1772533167541895000,9.23989501953125,-0.24979715049266815,-1.6104991436004639,0.7525871396064758
1772533167551828000,9.249827880859375,-0.15179570019245148,-1.3453893661499023,0.6620423197746277
1772533167561731000,9.25973095703125,-0.018641578033566475,-1.1163642406463623,0.6034545302391052
1772533167571661300,9.269661376953126,0.15286093950271606,-0.9161003828048706,0.5107792615890503
1772533167581594600,9.2795947265625,0.3178389072418213,-0.7010564804077148,0.36803799867630005
1772533167591525000,9.289525146484374,0.4030575454235077,-0.5327496528625488,0.17855969071388245
1772533167601480700,9.299480712890626,0.37749195098876953,-0.3772256374359131,-0.011051792651414871
