time,seconds_elapsed,z,y,x
1772533158344271600,0.042271728515625,0.17789392173290253,-0.28228676319122314,1.9969124794006348
1772533158404169500,0.10216943359375,0.44300377368927,0.07776200771331787,2.159759998321533
1772533158414085000,0.112085205078125,0.5697665214538574,-0.13528458774089813,1.757235050201416
1772533158424020500,0.1220205078125,0.6283543109893799,-0.3513937294483185,1.1874685287475586
1772533158433955600,0.13195556640625,0.619832456111908,-0.5047873258590698,0.5527228116989136
1772533158443891000,0.141890869140625,0.5889406800270081,-0.48135218024253845,0.02663082629442215
1772533158453815600,0.151815673828125,0.5580489635467529,-0.40678587555885315,-0.37482887506484985
1772533158463746600,0.16174658203125,0.5612446665763855,-0.3780245780944824,-0.7284862399101257
1772533158473697500,0.171697509765625,0.5697665214538574,-0.32369768619537354,-1.0884017944335938
1772533158483636500,0.181636474609375,0.57296222448349,-0.17576344311237335,-1.4431244134902954
1772533158493556500,0.191556396484375,0.6091801524162292,0.10439283400774002,-1.7870615720748901
1772533158503487700,0.20148779296875,0.6326152682304382,0.4312862157821655,-2.0970444679260254
1772533158513404000,0.21140380859375,0.6049191951751709,0.726355791091919,-2.2843921184539795
1772533158523329000,0.2213291015625,0.5069177746772766,0.977617621421814,-2.273739814758301
1772533158533283600,0.23128369140625,0.3375457227230072,1.1544462442398071,-2.0810658931732178
1772533158543220500,0.241220458984375,0.14274121820926666,1.0830756425857544,-1.7753440141677856
1772533158553134800,0.251134765625,-0.007456631399691105,0.7210295796394348,-1.3973194360733032
1772533158563062800,0.261062744140625,-0.1278279572725296,0.339676171541214,-0.9829437732696533
1772533158573053700,0.2710537109375,-0.2439383566379547,0.0745663121342659,-0.512243926525116
1772533158583007200,0.28100732421875,-0.3066539466381073,-0.0745663121342659,-0.05113118514418602
1772533158592862500,0.290862548828125,-0.34074142575263977,-0.0021304660476744175,0.3173062801361084
1772533158602776000,0.300776123046875,-0.3695026934146881,0.3908073604106903,0.6368761658668518
1772533158612728300,0.310728271484375,-0.37482887506484985,0.954182505607605,0.8967930674552917
1772533158622657800,0.32065771484375,-0.35458943247795105,1.3227530717849731,1.0564448833465576
1772533158632595000,0.330594970703125,-0.2854824364185333,1.4026455879211426,1.2354040145874023
1772533158642527500,0.340527587890625,-0.13421936333179474,1.5836020708084106,1.452711582183838
1772533158652456700,0.350456787109375,-0.10119713842868805,1.55803644657135,1.4899946451187134
1772533158662387700,0.3603876953125,-0.2886781394481659,1.007444143295288,1.4101022481918335
1772533158672324400,0.370324462890625,-0.5378095507621765,0.23861220479011536,1.4559072256088257
1772533158682258000,0.3802578125,-0.6635070443153381,-0.43874284625053406,1.6368637084960938
1772533158692185900,0.390185791015625,-0.634745717048645,-1.0809452533721924,1.8797367811203003
1772533158702117000,0.4001171875,-0.5314181447029114,-1.5463188886642456,2.174673318862915
1772533158712055800,0.410055908203125,-0.4866783320903778,-1.61981999874115,2.38452410697937
1772533158721987800,0.41998779296875,-0.5718969702720642,-1.4537767171859741,2.2577614784240723
1772533158731922400,0.42992236328125,-0.6560503840446472,-1.1629681587219238,1.7913224697113037
1772533158741854500,0.4398544921875,-0.6848116517066956,-1.5857324600219727,1.1544462442398071
1772533158751783000,0.449782958984375,-0.7955959439277649,-2.3451104164123535,0.7316819429397583
1772533158761714700,0.459714599609375,-0.6400718688964844,-2.041652202606201,0.5718969702720642
1772533158771647700,0.469647705078125,-0.1384802907705307,-1.3568406105041504,0.35565468668937683
1772533158781579800,0.479579833984375,0.38441595435142517,-1.1107717752456665,0.28015628457069397
1772533158791508700,0.4895087890625,0.634745717048645,-0.848857581615448,0.3673722445964813
1772533158801440300,0.499440185546875,0.5814840793609619,-0.10119713842868805,0.6177020072937012
1772533158811382800,0.5093828125,0.41850343346595764,0.596397340297699,0.9445953965187073
1772533158821315600,0.519315673828125,0.14274121820926666,0.5250267386436462,1.0607057809829712
1772533158831252500,0.52925244140625,-0.2130466103553772,-0.27163442969322205,0.7977263927459717
1772533158841185500,0.539185546875,-0.5942668914794922,-1.0053136348724365,0.3790898025035858
1772533158851103500,0.549103515625,-0.9085106253623962,-1.4910598993301392,0.18854624032974243
1772533158861035000,0.559034912109375,-0.9264864325523376,-1.459102988243103,0.22902509570121765
1772533158870972700,0.56897265625,-0.695464015007019,-0.6464632749557495,0.4632432162761688
1772533158880904700,0.57890478515625,-0.3620460629463196,0.5900059342384338,0.7615084648132324
1772533158890811100,0.58881103515625,-0.02236989326775074,1.9745426177978516,1.0212922096252441
1772533158900740900,0.598740966796875,0.1288931965827942,2.6178102493286133,1.0191617012023926
1772533158910710300,0.608710205078125,0.02663082629442215,1.9372594356536865,0.6326152682304382
1772533158920643800,0.618643798828125,-0.1501978635787964,0.3801550269126892,0.14061075448989868
1772533158930572800,0.62857275390625,-0.14167599380016327,-0.9595086574554443,-0.14700216054916382
1772533158940505900,0.638505859375,0.1278279572725296,-1.71249520778656,-0.3268933892250061
1772533158950430000,0.648429931640625,0.46111273765563965,-1.7998443841934204,-0.5410051941871643
1772533158960362200,0.6583623046875,0.7018554210662842,-1.2013165950775146,-0.810509204864502
1772533158970272800,0.668272705078125,0.8094439506530762,-0.20772044360637665,-1.0521838665008545
1772533158980202800,0.67820263671875,0.7838783264160156,0.9477910995483398,-1.1704248189926147
1772533158990143000,0.68814306640625,0.6464632749557495,1.962825059890747,-1.14592444896698
1772533159000074200,0.69807421875,0.43767762184143066,2.5922446250915527,-1.1001193523406982
1772533159010024400,0.7080244140625,0.2023942768573761,2.78385329246521,-1.1778813600540161
1772533159019957500,0.71795751953125,-0.0213046595454216,2.6636152267456055,-1.5399274826049805
1772533159029877200,0.727877197265625,-0.16724158823490143,2.455894708633423,-2.283327102661133
1772533159039808800,0.737808837890625,-0.13421936333179474,2.2620222568511963,-3.24190354347229
1772533159049731600,0.747731689453125,-0.0159784946590662,1.8839977979660034,-4.19502067565918
1772533159059662300,0.757662353515625,0.12995843589305878,1.4228850603103638,-4.813787937164307
1772533159069591600,0.767591552734375,0.2663082480430603,0.7402037978172302,-4.9128546714782715
1772533159079522300,0.777522216796875,0.2876129150390625,-0.16191542148590088,-4.497547149658203
1772533159089458200,0.787458251953125,0.3503285050392151,-0.7817478775978088,-3.5645360946655273
1772533159099389400,0.797389404296875,0.5079829692840576,-1.26949143409729,-2.2385871410369873
1772533159109323000,0.807322998046875,0.5388747453689575,-1.8701497316360474,-0.6975944638252258
1772533159119254300,0.817254150390625,0.35352420806884766,-2.493177890777588,0.8414009213447571
1772533159129187000,0.82718701171875,0.08202294260263443,-3.120466947555542,2.061891555786133
1772533159139118600,0.83711865234375,-0.1480673849582672,-3.547492265701294,2.7540268898010254
1772533159149057500,0.8470576171875,-0.31411057710647583,-3.379185438156128,2.9265944957733154
1772533159158989800,0.85698974609375,-0.46111273765563965,-2.6827893257141113,2.7158114910125732
1772533159168952300,0.866952392578125,-0.5186353325843811,-1.7327346801757812,2.3419148921966553
1772533159178887700,0.8768876953125,-0.3599156141281128,-0.8296833634376526,1.9234113693237305
1772533159188778500,0.886778564453125,-0.01704372838139534,-0.12463226169347763,1.575080156326294
1772533159198709500,0.89670947265625,0.3077192008495331,0.23009033501148224,1.4069064855575562
1772533159208651500,0.906651611328125,0.42063388228416443,0.1810896098613739,1.3632320165634155
1772533159218583600,0.91658349609375,0.40891632437705994,0.04473978653550148,1.259904384613037
1772533159228508200,0.926508056640625,0.41637295484542847,-0.0159784946590662,0.9722914695739746
1772533159238439400,0.936439453125,0.35565468668937683,-0.07989247888326645,0.5111786723136902
1772533159248401400,0.9464013671875,0.11291470378637314,-0.191741943359375,-0.06284874677658081
1772533159258336000,0.9563359375,-0.22795987129211426,-0.2119813710451126,-0.5985277891159058
1772533159268272000,0.966272216796875,-0.5303528904914856,0.07137060910463333,-0.9616391062736511
1772533159278206700,0.976206787109375,-0.7476604580879211,0.39506828784942627,-1.108641266822815
1772533159288101000,0.98610107421875,-0.8829450011253357,0.6475285291671753,-0.955247700214386
1772533159298031900,0.996031982421875,-0.9893351793289185,0.9584434032440186,-0.7519213557243347
1772533159307992800,1.005992919921875,-1.0809452533721924,0.9999874830245972,-0.6475285291671753
1772533159317926700,1.0159267578125,-1.1075760126113892,0.8712274432182312,-0.5846797823905945
1772533159327862000,1.025862060546875,-1.1065107583999634,0.5868102312088013,-0.5537880063056946
1772533159337795800,1.0357958984375,-1.1587072610855103,0.2343512624502182,-0.4994611442089081
1772533159347720700,1.045720703125,-1.306774616241455,-0.03621792420744896,-0.41850343346595764
1772533159357653800,1.05565380859375,-1.5208864212036133,-0.19387240707874298,-0.339676171541214
1772533159377500000,1.0755,-1.813692331314087,-0.848857581615448,-0.2886781394481659
1772533159397401000,1.095401123046875,-1.3195574283599854,-0.9659000635147095,0.0159784946590662
1772533159407336200,1.105336181640625,-0.9328778386116028,-1.0117050409317017,0.34074142575263977
1772533159417244200,1.115244140625,-0.6816160082817078,-1.3078398704528809,0.6560503840446472
1772533159427176200,1.12517626953125,-0.5953320860862732,-1.7071690559387207,0.7721607685089111
1772533159437108500,1.1351083984375,-0.5921363830566406,-2.1151533126831055,0.5324833393096924
1772533159447040500,1.14504052734375,-0.6230281591415405,-2.2524352073669434,-0.0106523297727108
1772533159456976600,1.1549765625,-0.57296222448349,-1.7487131357192993,-0.574027419090271
1772533159466909200,1.1649091796875,-0.27163442969322205,-0.37482887506484985,-0.825422465801239
1772533159476847400,1.174847412109375,0.32476291060447693,1.4122326374053955,-0.5516575574874878
1772533159486780400,1.184780517578125,1.0202269554138184,2.5602874755859375,0.06497921794652939
1772533159496717800,1.1947177734375,1.4995818138122559,2.46441650390625,0.680550754070282
1772533159506651100,1.204651123046875,1.542057991027832,0.8904016613960266,0.7860088348388672
1772533159516606200,1.214606201171875,1.0894670486450195,-1.0575101375579834,0.26098209619522095
1772533159526541800,1.224541748046875,0.5047873258590698,-2.159759998321533,-0.4856131076812744
1772533159536435000,1.23443505859375,0.17895914614200592,-2.474003791809082,-1.206642746925354
1772533159546366500,1.244366455078125,0.21517707407474518,-1.8605626821517944,-1.833931803703308
1772533159556300000,1.254300048828125,0.6006582975387573,-0.41956865787506104,-2.2247390747070312
1772533159566231600,1.2642314453125,1.1725552082061768,1.0436620712280273,-2.264152765274048
1772533159576165000,1.2741650390625,1.6294070482254028,1.9361941814422607,-2.0118257999420166
1772533159586097200,1.28409716796875,1.796648621559143,2.0309998989105225,-1.6144938468933105
1772533159596024800,1.29402490234375,1.6997123956680298,1.544188380241394,-1.178946614265442
1772533159605956400,1.303956298828125,1.4729509353637695,0.7732260227203369,-0.7966611385345459
1772533159615891700,1.3138916015625,1.2194255590438843,-0.06604444980621338,-0.6208977103233337
1772533159625823500,1.323823486328125,0.9488562941551208,-0.931812584400177,-0.7945306897163391
1772533159635768600,1.3337685546875,0.6006582975387573,-1.2822742462158203,-1.260969638824463
1772533159645701600,1.34370166015625,0.25991687178611755,-0.788139283657074,-1.74338698387146
1772533159655633700,1.353633544921875,0.05858781561255455,-0.07882724702358246,-2.001173496246338
1772533159665566700,1.363566650390625,0.0031956990715116262,0.4962654411792755,-1.9234113693237305
1772533159675487500,1.373487548828125,0.06924014538526535,0.8776188492774963,-1.5271446704864502
1772533159685419300,1.383419189453125,0.1587197184562683,1.0351401567459106,-0.9445953965187073
1772533159695360300,1.3933603515625,0.13102366030216217,0.969095766544342,-0.29400432109832764
1772533159705293000,1.40329296875,-0.03941362351179123,0.7774869799613953,0.3258281648159027
1772533159715213300,1.41321337890625,-0.2556559145450592,0.4227643609046936,0.8350095152854919
1772533159725144800,1.423144775390625,-0.47176507115364075,-0.004260932095348835,1.2215559482574463
1772533159735091000,1.433091064453125,-0.6656374931335449,-0.4419385492801666,1.482538104057312
1772533159745023700,1.443023681640625,-0.8062482476234436,-0.7678998708724976,1.6613640785217285
1772533159754947800,1.45294775390625,-0.8669665455818176,-0.9275516271591187,1.7998443841934204
1772533159764880000,1.4628798828125,-0.8456618785858154,-0.9296821355819702,1.888258695602417
1772533159774812000,1.47281201171875,-0.779617428779602,-0.7391385436058044,1.8477798700332642
1772533159784744000,1.482743896484375,-0.7061163187026978,-0.5058525204658508,1.6187547445297241
1772533159794671000,1.492671142578125,-0.6390066742897034,-0.40998154878616333,1.2417954206466675
1772533159804602600,1.5026025390625,-0.6251586079597473,-0.6507242321968079,0.8009220957756042
1772533159814538200,1.512538330078125,-0.6986597180366516,-1.1310111284255981,0.3460675776004791
1772533159824470300,1.52247021484375,-0.8019872903823853,-1.6347332000732422,-0.12569749355316162
1772533159834440000,1.53243994140625,-0.8552489876747131,-1.9393898248672485,-0.6145063042640686
1772533159844375600,1.54237548828125,-0.7838783264160156,-1.8147575855255127,-1.0340749025344849
1772533159854269200,1.552269287109375,-0.5655055642127991,-1.2204906940460205,-1.267361044883728
1772533159864200700,1.56220068359375,-0.26311254501342773,-0.2982652485370636,-1.2652305364608765
1772533159874108400,1.5721083984375,0.0319569893181324,0.633680522441864,-1.075619101524353
1772533159884037600,1.58203759765625,0.21091613173484802,1.2726871967315674,-0.8552489876747131
1772533159893972500,1.591972412109375,0.1906767040491104,1.3280792236328125,-0.7252905368804932
1772533159903902200,1.601902099609375,0.01917419396340847,0.7966611385345459,-0.6698983907699585
1772533159913856000,1.61185595703125,-0.15232832729816437,0.07030537724494934,-0.5388747453689575
1772533159923788000,1.6217880859375,-0.2354165017604828,-0.5069177746772766,-0.15445879101753235
1772533159933726700,1.631726806640625,-0.2535254657268524,-0.8818798065185547,0.45898228883743286
1772533159943659500,1.641659423828125,-0.29293906688690186,-0.8797492980957031,1.1299458742141724
1772533159953590000,1.651590087890625,-0.30984964966773987,-0.44939517974853516,1.7252780199050903
1772533159963522600,1.6615224609375,-0.1704372763633728,-0.05432688444852829,2.0501739978790283
1772533159973435100,1.67143505859375,0.12569749355316162,0.16511112451553345,1.9756077527999878
1772533159983365600,1.68136572265625,0.45046040415763855,0.33221954107284546,1.5495145320892334
1772533159993319400,1.6913193359375,0.6134410500526428,0.31411057710647583,0.8318138122558594
1772533160003252200,1.701252197265625,0.4760259985923767,0.36524176597595215,0.05006595328450203
1772533160013184500,1.7111845703125,0.13208889961242676,0.895727813243866,-0.4131772518157959
1772533160023117300,1.721117431640625,-0.10226237028837204,1.9266071319580078,-0.25991687178611755
1772533160033047300,1.73104736328125,0.04580501839518547,2.798766613006592,0.4973306655883789
1772533160042979800,1.740979736328125,0.484547883272171,2.609288215637207,1.3600362539291382
1772533160052918300,1.750918212890625,0.8690969944000244,1.5017122030258179,1.8541712760925293
1772533160062851300,1.760851318359375,0.9595086574554443,0.29506954550743103,1.8733453750610352
1772533160072778500,1.770778564453125,0.7753564715385437,-0.549527108669281,1.5612322092056274
1772533160082710800,1.780710693359375,0.5133091807365417,-0.7785521745681763,1.14592444896698
1772533160092654000,1.790654052734375,0.3929378390312195,-0.6208977103233337,0.7178338766098022
1772533160102587600,1.800587646484375,0.4547213613986969,-0.2439383566379547,0.2972000241279602
1772533160112516400,1.810516357421875,0.6027887463569641,0.33221954107284546,-0.05965305119752884
1772533160122449400,1.820449462890625,0.7348776459693909,0.9669652581214905,-0.36630702018737793
1772533160132369700,1.83036962890625,0.8243572115898132,1.4995818138122559,-0.6752246022224426
1772533160142301400,1.840301513671875,0.895727813243866,1.8520407676696777,-0.9531172513961792
1772533160152237600,1.850237548828125,0.9499215483665466,1.9319332838058472,-1.185338020324707
1772533160162169900,1.860169921875,0.9095758199691772,1.7583003044128418,-1.4356677532196045
1772533160172102400,1.870102294921875,0.7284862399101257,1.3642971515655518,-1.7678873538970947
1772533160182034700,1.88003466796875,0.41850343346595764,0.5718969702720642,-2.2662832736968994
1772533160191978000,1.88997802734375,0.01917419396340847,-0.40891632437705994,-2.899963855743408
1772533160201911600,1.89991162109375,-0.2897433936595917,-0.7583127617835999,-3.317535161972046
1772533160211840800,1.9098408203125,-0.32156720757484436,-0.3055887222290039,-3.2408382892608643
1772533160221773600,1.919773681640625,-0.13102366030216217,0.33328479528427124,-2.770005226135254
1772533160231672000,1.929672119140625,0.13315412402153015,0.6453980803489685,-2.1576294898986816
1772533160241601500,1.9396015625,0.33115431666374207,0.7433995008468628,-1.4697552919387817
1772533160251535600,1.94953564453125,0.32369768619537354,1.0117050409317017,-0.6794854998588562
1772533160261465600,1.959465576171875,0.16511112451553345,1.0734885931015015,0.07669677585363388
1772533160271436300,1.969436279296875,-0.01810896210372448,0.6848116517066956,0.7433995008468628
1772533160281370400,1.979370361328125,-0.20026381313800812,0.256721168756485,1.3089051246643066
1772533160291301400,1.98930126953125,-0.3460675776004791,-0.07350108027458191,1.7369955778121948
1772533160301235200,1.999235107421875,-0.43874284625053406,-0.41850343346595764,1.986260175704956
1772533160311130000,2.009130126953125,-0.4760259985923767,-0.7615084648132324,2.070413589477539
1772533160321060000,2.01906005859375,-0.4355471432209015,-1.0532491207122803,2.0267388820648193
1772533160330993000,2.028992919921875,-0.29080861806869507,-1.2045122385025024,1.878671646118164
1772533160340923100,2.038923095703125,-0.02769605815410614,-1.1363372802734375,1.657103180885315
1772533160350895900,2.048895751953125,0.3003957271575928,-0.7945306897163391,1.3951889276504517
1772533160360830500,2.05883056640625,0.5292876362800598,-0.18641577661037445,1.0969237089157104
1772533160370726100,2.06872607421875,0.7476604580879211,0.2865476906299591,0.6997249722480774
1772533160380656600,2.07865673828125,0.970160961151123,0.587875485420227,0.2226337045431137
1772533160390590700,2.0885908203125,1.0947932004928589,1.0085093975067139,-0.24180789291858673
1772533160400521700,2.098521728515625,1.2268821001052856,1.4772119522094727,-0.6464632749557495
1772533160410457000,2.10845703125,1.5208864212036133,2.000108242034912,-0.9371387362480164
1772533160420388400,2.118388427734375,1.9766730070114136,2.7614834308624268,-1.0575101375579834
1772533160430350300,2.128350341796875,2.4473729133605957,3.7328429222106934,-1.0085093975067139
1772533160440285000,2.138284912109375,2.6913111209869385,4.41871976852417,-0.8211615085601807
1772533160450204000,2.148203857421875,2.3078272342681885,4.541221618652344,-0.6240934133529663
1772533160460136700,2.15813671875,1.232208251953125,4.038431644439697,-0.5633751153945923
1772533160470073600,2.168073486328125,0.23754696547985077,2.8701372146606445,-0.6272891163825989
1772533160480007000,2.1780068359375,-0.16724158823490143,1.4069064855575562,-0.6400718688964844
1772533160489943300,2.187943359375,-0.1608501821756363,-0.10332760214805603,-0.3918725848197937
1772533160499876900,2.197876953125,-0.0053261648863554,-1.515560269355774,0.2119813710451126
1772533160509802500,2.207802490234375,0.1501978635787964,-2.717941999435425,0.9296821355819702
1772533160519735300,2.2177353515625,0.27376487851142883,-3.560275077819824,1.3461881875991821
1772533160529674000,2.227674072265625,0.3886769115924835,-3.926715135574341,1.2354040145874023
1772533160539607300,2.237607177734375,0.512243926525116,-3.6327109336853027,0.6102453470230103
1772533160549526800,2.24752685546875,0.6667027473449707,-2.6210057735443115,-0.3673722445964813
1772533160559458600,2.25745849609375,0.8850755095481873,-1.461233377456665,-1.306774616241455
1772533160569379600,2.267379638671875,1.1075760126113892,-0.48135218024253845,-1.6581683158874512
1772533160579310600,2.277310546875,1.1129021644592285,0.23009033501148224,-1.2854700088500977
1772533160589258200,2.28725830078125,0.8243572115898132,0.5452661514282227,-0.5932016372680664
1772533160599190800,2.297190673828125,0.5591141581535339,0.35458943247795105,-0.08628387749195099
1772533160609124600,2.30712451171875,0.4547213613986969,0.02236989326775074,-0.0031956990715116262
1772533160619057400,2.317057373046875,0.3716331720352173,-0.01704372838139534,-0.12037133425474167
1772533160628999200,2.326999267578125,0.275895357131958,0.0010652330238372087,-0.13528458774089813
1772533160638932700,2.3369326171875,0.2141118347644806,-0.1810896098613739,0.01917419396340847
1772533160648853200,2.346853271484375,0.19706811010837555,-0.4962654411792755,0.19493764638900757
1772533160658785500,2.35678564453125,0.18641577661037445,-0.7604432106018066,0.20772044360637665
1772533160668714500,2.366714599609375,0.1384802907705307,-0.8882712125778198,-0.01171756349503994
1772533160678646300,2.376646240234375,0.0319569893181324,-0.7913349866867065,-0.36417654156684875
1772533160688580600,2.38658056640625,-0.09054480493068695,-0.3918725848197937,-0.7433995008468628
1772533160698512600,2.3965126953125,-0.17576344311237335,0.14700216054916382,-1.091597557067871
1772533160708450600,2.406450439453125,-0.22050324082374573,0.6539199352264404,-1.3280792236328125
1772533160718383400,2.41638330078125,-0.21943800151348114,0.9850742220878601,-1.3877322673797607
1772533160728322000,2.426322021484375,-0.19706811010837555,1.0532491207122803,-1.290796160697937
1772533160738255400,2.43625537109375,-0.23754696547985077,0.7849435806274414,-1.1075760126113892
1772533160748176100,2.446176025390625,-0.3908073604106903,0.17895914614200592,-0.9063801765441895
1772533160758108200,2.456108154296875,-0.6251586079597473,-0.42063388228416443,-0.703985869884491
1772533160768046800,2.466046875,-0.8062482476234436,-0.8744231462478638,-0.5420704483985901
1772533160777979600,2.475979736328125,-0.9147688746452332,-1.1768162250518799,-0.4355471432209015
1772533160787881200,2.485881103515625,-0.9605738520622253,-1.0670971870422363,-0.2865476906299591
1772533160797811000,2.49581103515625,-0.8967930674552917,-0.6592460870742798,-0.02450035884976387
1772533160807764200,2.50576416015625,-0.742334246635437,-0.17789392173290253,0.30359140038490295
1772533160817696300,2.5156962890625,-0.574027419090271,0.27163442969322205,0.6123758554458618
1772533160827642600,2.525642578125,-0.4461994767189026,0.6603113412857056,0.8595098853111267
1772533160837576000,2.535575927734375,-0.3918725848197937,0.9488562941551208,1.0127702951431274
1772533160847499000,2.5454990234375,-0.4312862157821655,1.0979889631271362,1.0532491207122803
1772533160857431300,2.555431396484375,-0.5463314056396484,1.0702928304672241,1.0085093975067139
1772533160867345200,2.56534521484375,-0.6997249722480774,0.8627055883407593,0.8744231462478638
1772533160877275600,2.575275634765625,-0.848857581615448,0.4664389193058014,0.633680522441864
1772533160887222800,2.585222900390625,-0.9456605911254883,0.004260932095348835,0.335415244102478
1772533160897155000,2.595155029296875,-0.9382039904594421,-0.36524176597595215,0.11504516750574112
1772533160907089400,2.60508935546875,-0.8147701025009155,-0.587875485420227,0.06178351491689682
1772533160917022000,2.61502197265625,-0.5932016372680664,-0.7135729789733887,0.1395455300807953
1772533160926958000,2.6249580078125,-0.3471328020095825,-0.7924002408981323,0.29506954550743103
1772533160936891000,2.634890869140625,-0.16617634892463684,-0.7540518045425415,0.4643084406852722
1772533160946826200,2.644826171875,-0.09267527610063553,-0.57296222448349,0.5623098611831665
1772533160956759300,2.65475927734375,-0.12037133425474167,-0.335415244102478,0.5026568174362183
1772533160966685200,2.664685302734375,-0.2439383566379547,-0.15126308798789978,0.2961347699165344
1772533160976617700,2.67461767578125,-0.44939517974853516,-0.15232832729816437,0.06284874677658081
1772533160986545700,2.684545654296875,-0.7029206156730652,-0.38761165738105774,-0.08734910935163498
1772533160996477700,2.694477783203125,-0.887205958366394,-0.6294195652008057,-0.07989247888326645
1772533161006418700,2.704418701171875,-0.9200950264930725,-0.7306166887283325,0.08841434121131897
1772533161016351500,2.7143515625,-0.8307486176490784,-0.7465952038764954,0.3183715343475342
1772533161026284500,2.724284423828125,-0.6922683119773865,-0.6422023773193359,0.488808810710907
1772533161046142200,2.74414208984375,-0.48348262906074524,0.09693620353937149,0.5282224416732788
1772533161056074200,2.75407421875,-0.4983958899974823,0.4227643609046936,0.4898740351200104
1772533161066007300,2.76400732421875,-0.5260919332504272,0.4983958899974823,0.5015916228294373
1772533161075939300,2.773939208984375,-0.5569837093353271,0.18322007358074188,0.5378095507621765
1772533161085886000,2.783885986328125,-0.6517894268035889,-0.5708317756652832,0.4994611442089081
1772533161095819500,2.793819580078125,-0.8435314297676086,-1.675212025642395,0.3183715343475342
1772533161105736700,2.80373681640625,-1.045792579650879,-2.947899341583252,-0.012782796286046505
1772533161115668700,2.813668701171875,-1.0937280654907227,-3.7189948558807373,-0.4643084406852722
1772533161125606700,2.823606689453125,-0.8360747694969177,-3.41220760345459,-0.993596076965332
1772533161135539200,2.833539306640625,-0.299330472946167,-1.719951868057251,-1.414363145828247
1772533161145469700,2.8434697265625,0.30984964966773987,1.3951889276504517,-1.2354040145874023
1772533161155402000,2.853402099609375,0.8989235162734985,3.889432191848755,-0.39719876646995544
1772533161165315600,2.863315673828125,1.3248835802078247,4.465590000152588,0.5708317756652832
1772533161175246000,2.87324609375,1.3664276599884033,3.7594735622406006,1.192794680595398
1772533161185199000,2.88319921875,0.811574399471283,2.29184889793396,1.2449910640716553
1772533161195131600,2.893131591796875,0.01810896210372448,0.7455299496650696,1.0223573446273804
1772533161205069800,2.90306982421875,-0.26311254501342773,-0.28015628457069397,0.9403344392776489
1772533161215003100,2.913003173828125,0.08415340632200241,-0.7082468271255493,1.0042483806610107
1772533161224931000,2.92293115234375,0.6528546810150146,-0.6635070443153381,1.0021179914474487
1772533161234863600,2.932863525390625,1.1033151149749756,-0.37695932388305664,0.8563141822814941
1772533161244790000,2.9427900390625,1.3419272899627686,0.02450035884976387,0.5793536305427551
1772533161254722000,2.95272216796875,1.3824061155319214,0.618767261505127,0.22156846523284912
1772533161264655400,2.9626552734375,1.2268821001052856,1.2748175859451294,-0.1587197184562683
1772533161274587600,2.972587646484375,0.9520519971847534,1.665624976158142,-0.5197005867958069
1772533161284532000,2.982531982421875,0.6698983907699585,1.7114299535751343,-0.8509880304336548
1772533161294465500,2.992465576171875,0.4770912528038025,1.5484493970870972,-1.2236864566802979
1772533161304383700,3.0023837890625,0.3726983964443207,1.3152965307235718,-1.5942543745040894
1772533161314315800,3.012315673828125,0.2780258059501648,1.2854700088500977,-1.7604306936264038
1772533161324250600,3.022250732421875,0.2854824364185333,1.6038414239883423,-1.5335360765457153
1772533161334183000,3.032182861328125,0.4866783320903778,1.9127590656280518,-0.9509868025779724
1772533161344116000,3.042115966796875,0.7007901668548584,1.8776063919067383,-0.25139498710632324
1772533161354048300,3.05204833984375,0.726355791091919,1.5388622283935547,0.36524176597595215
1772533161363955500,3.06195556640625,0.5580489635467529,1.047922968864441,0.8754884004592896
1772533161373885200,3.07188525390625,0.34074142575263977,0.4856131076812744,1.283339500427246
1772533161383852500,3.0818525390625,0.17789392173290253,-0.07989247888326645,1.5473841428756714
1772533161393786000,3.0917861328125,0.06604444980621338,-0.6102453470230103,1.6134285926818848
1772533161403715600,3.101715576171875,-0.03728315606713295,-1.0532491207122803,1.4676247835159302
1772533161413649000,3.11164892578125,-0.1065233051776886,-1.2950570583343506,1.1608376502990723
1772533161423569000,3.12156884765625,-0.05965305119752884,-1.345123052597046,0.7529866099357605
1772533161433501000,3.1315009765625,0.09800143539905548,-1.2364692687988281,0.299330472946167
1772533161443413500,3.14141357421875,0.3503285050392151,-0.8999887704849243,-0.13634982705116272
1772533161453343500,3.151343505859375,0.6794854998588562,-0.40785109996795654,-0.5442008972167969
1772533161463281700,3.16128173828125,0.9648348093032837,0.11930610239505768,-0.954182505607605
1772533161473212400,3.17121240234375,1.11503267288208,0.5047873258590698,-1.3685581684112549
1772533161483178800,3.1811787109375,1.0670971870422363,0.618767261505127,-1.7678873538970947
1772533161493113000,3.191113037109375,0.8019872903823853,0.44939517974853516,-2.0778701305389404
1772533161503044400,3.20104443359375,0.3908073604106903,0.1821548491716385,-2.211956262588501
1772533161512978400,3.210978515625,-0.03621792420744896,0.02982652559876442,-2.165086030960083
1772533161522873000,3.220873046875,-0.3588503897190094,0.11291470378637314,-1.981999158859253
1772533161532803300,3.23080322265625,-0.47176507115364075,0.34287187457084656,-1.7220823764801025
1772533161542771700,3.240771728515625,-0.3790898025035858,0.5527228116989136,-1.4697552919387817
1772533161552705800,3.250705810546875,-0.16511112451553345,0.7125077247619629,-1.2588391304016113
1772533161562602800,3.260602783203125,0.05219641700387001,0.8094439506530762,-1.075619101524353
1772533161572533000,3.270532958984375,0.11504516750574112,0.7668346166610718,-0.9488562941551208
1772533161582467300,3.28046728515625,-0.03728315606713295,0.5985277891159058,-0.8584446907043457
1772533161592397800,3.290397705078125,-0.2748301327228546,0.3886769115924835,-0.7529866099357605
1772533161602371600,3.30037158203125,-0.42702528834342957,0.10865376889705658,-0.6240934133529663
1772533161612306700,3.310306640625,-0.3897421360015869,-0.24926452338695526,-0.48241740465164185
1772533161622224100,3.32022412109375,-0.17682868242263794,-0.5857450366020203,-0.3055887222290039
1772533161632157400,3.330157470703125,-0.07350108027458191,-0.5633751153945923,-0.0639139786362648
1772533161642083600,3.34008349609375,-0.48028692603111267,-0.1288931965827942,0.15765449404716492
1772533161652016000,3.35001611328125,-1.3547101020812988,0.01917419396340847,0.2577863931655884
1772533161661944800,3.35994482421875,-2.3546977043151855,-0.3929378390312195,0.2226337045431137
1772533161671877000,3.369877197265625,-3.2067508697509766,-1.077749490737915,0.18641577661037445
1772533161681815300,3.379815185546875,-3.496361017227173,-1.5038427114486694,0.37695932388305664
1772533161691748000,3.389748046875,-2.9532253742218018,-0.9168993234634399,0.9117063283920288
1772533161701686300,3.399686279296875,-1.7242127656936646,1.345123052597046,2.165086030960083
1772533161711619600,3.40961962890625,-0.7849435806274414,2.6817240715026855,3.2120771408081055
1772533161721561900,3.419561767578125,-0.9872047305107117,1.7583003044128418,2.69344162940979
1772533161731496000,3.429495849609375,-1.26949143409729,0.04154408723115921,1.0042483806610107
1772533161741409300,3.4394091796875,-1.1043803691864014,-1.0873366594314575,-0.5687012672424316
1772533161751341300,3.44934130859375,-0.8829450011253357,-1.4569724798202515,-1.4409940242767334
1772533161761273300,3.4592734375,-0.7018554210662842,-1.5537755489349365,-1.9223461151123047
1772533161771205400,3.469205322265625,-0.3599156141281128,-1.5102341175079346,-2.103435754776001
1772533161781137200,3.47913720703125,0.18748101592063904,-1.400515079498291,-1.7859963178634644
1772533161791069200,3.489069091796875,0.6507242321968079,-1.37494957447052,-1.0958584547042847
1772533161801003300,3.499003173828125,0.8893364071846008,-1.390928030014038,-0.47176507115364075
1772533161810935600,3.508935546875,0.9712262153625488,-1.2822742462158203,-0.2141118347644806
1772533161820864500,3.518864501953125,0.9808133244514465,-0.9648348093032837,-0.27269965410232544
1772533161830796500,3.528796630859375,0.9680305123329163,-0.5207657814025879,-0.48348262906074524
1772533161840734200,3.538734130859375,1.0021179914474487,-0.18854624032974243,-0.7135729789733887
1772533161850666800,3.548666748046875,1.068162441253662,-0.05858781561255455,-0.9328778386116028
1772533161860596000,3.558595947265625,1.1342068910598755,-0.16724158823490143,-1.2002513408660889
1772533161870528000,3.568528076171875,1.2183603048324585,-0.4866783320903778,-1.400515079498291
1772533161880458500,3.57845849609375,1.337666392326355,-0.47283029556274414,-1.132076382637024
1772533161890390500,3.588390625,1.5102341175079346,-0.16724158823490143,-0.23967742919921875
1772533161900323000,3.598322998046875,1.6581683158874512,0.0532616525888443,0.9850742220878601
1772533161910255000,3.608255126953125,1.6389942169189453,0.09267527610063553,2.1045010089874268
1772533161920184000,3.61818408203125,1.398384690284729,-0.0053261648863554,2.8850505352020264
1772533161930115800,3.62811572265625,0.9605738520622253,-0.22582940757274628,3.3664026260375977
1772533161940057600,3.6380576171875,0.41743817925453186,-0.6432675719261169,3.551753282546997
1772533161949990100,3.647990234375,0.02450035884976387,-1.1469897031784058,3.401555299758911
1772533161959929600,3.6579296875,-0.04687025398015976,-1.431406855583191,2.9308555126190186
1772533161969863200,3.66786328125,0.12143656611442566,-1.3089051246643066,2.1448466777801514
1772533161979784000,3.677783935546875,0.44300377368927,-0.7327471375465393,1.1395330429077148
1772533161989716200,3.68771630859375,0.8318138122558594,0.17469821870326996,0.10971900075674057
1772533161999647000,3.69764697265625,1.1608376502990723,0.9893351793289185,-0.8062482476234436
1772533162009579000,3.7075791015625,1.323818325996399,1.3099702596664429,-1.5208864212036133
1772533162019510300,3.71751025390625,1.2801437377929688,1.075619101524353,-1.9692163467407227
1772533162029442300,3.7274423828125,1.0585752725601196,0.6368761658668518,-2.1341943740844727
1772533162039374800,3.737374755859375,0.718899130821228,0.2769605815410614,-2.0533697605133057
1772533162049307000,3.747306884765625,0.34074142575263977,0.03089175745844841,-1.7828006744384766
1772533162059253000,3.7572529296875,0.07137060910463333,-0.06071828305721283,-1.3919932842254639
1772533162069186600,3.7671865234375,0.01917419396340847,-0.02982652559876442,-0.9424648880958557
1772533162079104500,3.7771044921875,0.11504516750574112,0.11078423261642456,-0.4952002167701721
1772533162089036500,3.78703662109375,0.2247641682624817,0.3258281648159027,-0.1374150663614273
1772533162098967300,3.79696728515625,0.252460241317749,0.4451342523097992,0.06710968166589737
1772533162108899000,3.806899169921875,0.17576344311237335,0.3833507299423218,0.15339355170726776
1772533162118833700,3.816833740234375,0.03834838792681694,0.16724158823490143,0.18641577661037445
1772533162128765700,3.826765625,-0.1288931965827942,-0.12463226169347763,0.20452474057674408
1772533162138700000,3.836699951171875,-0.30984964966773987,-0.3503285050392151,0.20772044360637665
1772533162148632300,3.84663232421875,-0.42596006393432617,-0.37376365065574646,0.22156846523284912
1772533162158565400,3.8565654296875,-0.3716331720352173,-0.06924014538526535,0.3268933892250061
1772533162168497700,3.86649755859375,-0.1491326242685318,0.4643084406852722,0.5410051941871643
1772533162178429200,3.87642919921875,0.10013190656900406,0.9733566641807556,0.7838783264160156
1772533162188361500,3.886361572265625,0.17895914614200592,1.2045122385025024,1.0159659385681152
1772533162198297600,3.896297607421875,-0.0010652330238372087,1.0628362894058228,1.2726871967315674
1772533162208230400,3.90623046875,-0.34180665016174316,0.549527108669281,1.4857337474822998
1772533162218156300,3.91615625,-0.6677679419517517,-0.3801550269126892,1.5622973442077637
1772533162228088000,3.926088134765625,-0.9744219183921814,-1.5867977142333984,1.459102988243103
1772533162238025500,3.936025390625,-1.3206226825714111,-2.689180850982666,1.1416635513305664
1772533162247958000,3.9459580078125,-1.6070371866226196,-3.2014245986938477,0.4664389193058014
1772533162257884700,3.955884765625,-1.602776288986206,-2.764679193496704,-0.7391385436058044
1772533162267816700,3.965816650390625,-1.0724233388900757,-1.0362054109573364,-1.9809339046478271
1772533162277779200,3.975779296875,-0.2130466103553772,1.837127447128296,-2.2204782962799072
1772533162287714000,3.985714111328125,0.33115431666374207,3.529383420944214,-1.6240808963775635
1772533162297627100,3.995627197265625,0.3087844252586365,3.1311192512512207,-1.0798799991607666
1772533162307560000,4.005559814453125,-0.0159784946590662,1.8616278171539307,-0.8573794364929199
1772533162317478100,4.01547802734375,-0.1906767040491104,0.6368761658668518,-0.5537880063056946
1772533162327409700,4.02540966796875,-0.32476291060447693,-0.21091613173484802,0.06497921794652939
1772533162337350100,4.03535009765625,-0.25991687178611755,-0.7753564715385437,0.5601794123649597
1772533162347282200,4.0452822265625,0.21730753779411316,-1.0820103883743286,0.6155715584754944
1772533162357226500,4.0552265625,0.6592460870742798,-1.169359564781189,0.4323514401912689
1772533162367160000,4.06516015625,0.7316819429397583,-0.9190297722816467,0.2673735022544861
1772533162377047600,4.075047607421875,0.5782883763313293,-0.4770912528038025,0.09161003679037094
1772533162396948700,4.09494873046875,0.4110468029975891,-0.09267527610063553,-0.35458943247795105
1772533162406885000,4.104885009765625,0.3151758313179016,-0.23009033501148224,-0.5260919332504272
1772533162416800800,4.11480078125,0.14593692123889923,-0.4451342523097992,-0.6709636449813843
1772533162426735400,4.1247353515625,0,-0.6304848194122314,-0.7710955739021301
1772533162436667000,4.1346669921875,0.004260932095348835,-0.5591141581535339,-0.6869421601295471
1772533162446601000,4.14460107421875,0.1810896098613739,-0.21091613173484802,-0.34287187457084656
1772533162456543700,4.154543701171875,0.40998154878616333,0.02023942768573761,0.19706811010837555
1772533162466478600,4.164478515625,0.5761579275131226,-0.0426093190908432,0.811574399471283
1772533162476401000,4.17440087890625,0.6667027473449707,-0.20558997988700867,1.3642971515655518
1772533162486334500,4.18433447265625,0.703985869884491,-0.2663082480430603,1.7369955778121948
1772533162496238800,4.19423876953125,0.7114425301551819,-0.18854624032974243,1.89784574508667
1772533162506169600,4.204169677734375,0.7380733489990234,-0.08734910935163498,1.8893239498138428
1772533162516132600,4.214132568359375,0.7849435806274414,-0.07882724702358246,1.7178213596343994
1772533162526066700,4.224066650390625,0.8243572115898132,-0.13102366030216217,1.4154284000396729
1772533162535996000,4.233995849609375,0.8648360371589661,-0.08202294260263443,1.0734885931015015
1772533162545929200,4.24392919921875,0.887205958366394,0.02236989326775074,0.765769362449646
1772533162555852000,4.25385205078125,0.8169005513191223,0.05645735189318657,0.44939517974853516
1772533162565784600,4.26378466796875,0.6656374931335449,-0.0532616525888443,0.07882724702358246
1772533162575720400,4.273720458984375,0.5303528904914856,-0.32369768619537354,-0.29187384247779846
1772533162585653200,4.2836533203125,0.4568518102169037,-0.5985277891159058,-0.5836145281791687
1772533162595582000,4.29358203125,0.43661239743232727,-0.6837464570999146,-0.7561823129653931
1772533162605514500,4.303514404296875,0.43661239743232727,-0.6624417901039124,-0.8414009213447571
1772533162615449000,4.313448974609375,0.4153077304363251,-0.6294195652008057,-0.9053149223327637
1772533162625381600,4.323381591796875,0.40891632437705994,-0.47176507115364075,-0.9754871129989624
1772533162635323000,4.333322998046875,0.4355471432209015,-0.20026381313800812,-1.0394011735916138
1772533162645256400,4.34325634765625,0.39506828784942627,0.01704372838139534,-1.0532491207122803
1772533162655162400,4.353162353515625,0.21943800151348114,0.11397993564605713,-0.9829437732696533
1772533162665092900,4.3630927734375,-0.02663082629442215,0.07350108027458191,-0.825422465801239
1772533162675021600,4.373021484375,-0.2023942768573761,-0.02023942768573761,-0.5857450366020203
1772533162684952000,4.3829521484375,-0.2226337045431137,-0.03302222490310669,-0.29080861806869507
1772533162694896000,4.392896240234375,-0.1384802907705307,0.06817491352558136,-0.01171756349503994
1772533162704828200,4.402828125,-0.01384802907705307,0.23009033501148224,0.18961147964000702
1772533162714751200,4.412751220703125,0.08095771074295044,0.3577851355075836,0.31411057710647583
1772533162724682500,4.4226826171875,0.08628387749195099,0.3599156141281128,0.381220281124115
1772533162734621400,4.432621337890625,-0.01491326279938221,0.23861220479011536,0.4227643609046936
1772533162744553200,4.44255322265625,-0.19493764638900757,0.03941362351179123,0.488808810710907
1772533162754483500,4.4524833984375,-0.400394469499588,-0.10758853703737259,0.6326152682304382
1772533162764415200,4.462415283203125,-0.574027419090271,-0.04793548583984375,0.8989235162734985
1772533162774380800,4.472380859375,-0.7007901668548584,0.21730753779411316,1.2311431169509888
1772533162784316000,4.48231591796875,-0.7700303196907043,0.26204732060432434,1.4878642559051514
1772533162794209800,4.492209716796875,-0.8477923274040222,-0.3066539466381073,1.5239490270614624
1772533162804140800,4.502140869140625,-0.9957265853881836,-1.2790786027908325,1.1736204624176025
1772533162814093000,4.512093017578125,-1.1938599348068237,-1.8594974279403687,0.4025249183177948
1772533162824026400,4.5220263671875,-1.3579057455062866,-1.4931904077529907,-0.7306166887283325
1772533162833976000,4.53197607421875,-1.4090369939804077,-0.275895357131958,-2.024608612060547
1772533162843911000,4.541910888671875,-1.108641266822815,1.7774744033813477,-2.7296595573425293
1772533162853828400,4.551828369140625,-0.5388747453689575,3.8958234786987305,-2.474003791809082
1772533162863761400,4.561761474609375,-0.28228676319122314,4.527373313903809,-1.8733453750610352
1772533162873693000,4.57169287109375,-0.5431357026100159,3.537905216217041,-1.377079963684082
1772533162883625700,4.581625732421875,-1.030879259109497,2.1055662631988525,-1.0873366594314575
1772533162893556000,4.591555908203125,-1.122489333152771,0.9584434032440186,-0.7700303196907043
1772533162903488500,4.601488525390625,-0.7721607685089111,-0.00852186419069767,-0.2961347699165344
1772533162913438000,4.61143798828125,-0.35565468668937683,-0.618767261505127,0.17895914614200592
1772533162923372300,4.621372314453125,0.02876129187643528,-0.8307486176490784,0.4536561071872711
1772533162933288200,4.6312880859375,0.15445879101753235,-0.6698983907699585,0.41637295484542847
1772533162943220700,4.641220703125,0.05432688444852829,-0.36311131715774536,0.17469821870326996
1772533162953147000,4.65114697265625,-0.04367455467581749,-0.26311254501342773,-0.16404588520526886
1772533162963078700,4.66107861328125,-0.0958709716796875,-0.3290238380432129,-0.534613847732544
1772533162973053700,4.6710537109375,-0.1693720519542694,-0.4227643609046936,-0.9063801765441895
1772533162982989800,4.68098974609375,-0.2641777992248535,-0.5335485935211182,-1.2812089920043945
1772533162992878000,4.690878173828125,-0.34287187457084656,-0.5623098611831665,-1.6411246061325073
1772533163002809600,4.7008095703125,-0.31304535269737244,-0.5985277891159058,-1.8776063919067383
1772533163012740900,4.710740966796875,-0.04687025398015976,-0.6656374931335449,-1.7369955778121948
1772533163022672100,4.720672119140625,0.2748301327228546,-0.5015916228294373,-1.0212922096252441
1772533163032612400,4.7306123046875,0.3471328020095825,-0.3173062801361084,0.09480573982000351
1772533163042544600,4.740544677734375,0.11397993564605713,-0.512243926525116,1.2503172159194946
1772533163052476200,4.75047607421875,-0.2577863931655884,-0.9232907295227051,2.2183477878570557
1772533163062408200,4.760408203125,-0.549527108669281,-1.148054838180542,2.8797242641448975
1772533163072403500,4.770403564453125,-0.6752246022224426,-1.0660319328308105,3.2216641902923584
1772533163082342000,4.780341796875,-0.7071815729141235,-0.7529866099357605,3.256816864013672
1772533163092206000,4.7902060546875,-0.7295514941215515,-0.42702528834342957,2.9968998432159424
1772533163102137000,4.80013720703125,-0.7348776459693909,-0.2439383566379547,2.5080912113189697
1772533163112073500,4.810073486328125,-0.657115638256073,-0.2354165017604828,1.8871934413909912
1772533163122005000,4.8200048828125,-0.4952002167701721,-0.33221954107284546,1.2705566883087158
1772533163131933000,4.829932861328125,-0.339676171541214,-0.33435001969337463,0.6816160082817078
1772533163141864000,4.839864013671875,-0.07669677585363388,-0.23861220479011536,0.15552401542663574
1772533163151807000,4.849806884765625,0.22795987129211426,-0.1491326242685318,-0.17469821870326996
1772533163161739300,4.8597392578125,0.4653736650943756,-0.02663082629442215,-0.299330472946167
1772533163171660300,4.869660400390625,0.5953320860862732,0.23222079873085022,-0.3588503897190094
1772533163181591600,4.879591552734375,0.5410051941871643,0.38441595435142517,-0.5143743753433228
1772533163191501300,4.889501220703125,0.18961147964000702,0.14593692123889923,-0.7252905368804932
1772533163201430300,4.89943017578125,-0.34500235319137573,-0.3173062801361084,-0.8137048482894897
1772533163211387400,4.909387451171875,-0.7487256526947021,-0.6603113412857056,-0.7007901668548584
1772533163221319400,4.9193193359375,-0.8467270731925964,-0.7220948338508606,-0.4685693681240082
1772533163231253000,4.9292529296875,-0.6784203052520752,-0.5708317756652832,-0.2130466103553772
1772533163241185000,4.93918505859375,-0.37482887506484985,-0.31198012828826904,0.03302222490310669
1772533163251117000,4.949116943359375,-0.09374050796031952,0.009587096981704235,0.21837277710437775
1772533163261049000,4.959049072265625,0.06071828305721283,0.2790910601615906,0.27163442969322205
1772533163270984700,4.968984619140625,0.05219641700387001,0.3609808385372162,0.16617634892463684
1772533163280917200,4.978917236328125,-0.1288931965827942,0.22689463198184967,-0.04154408723115921
1772533163290852000,4.98885205078125,-0.3705679476261139,-0.02663082629442215,-0.22050324082374573
1772533163300785000,4.998784912109375,-0.48135218024253845,-0.20772044360637665,-0.27269965410232544
1772533163310719200,5.00871923828125,-0.34393709897994995,-0.11078423261642456,-0.19600287079811096
1772533163320652000,5.018652099609375,-0.03941362351179123,0.21517707407474518,0.02769605815410614
1772533163330581800,5.028581787109375,0.17256775498390198,0.5868102312088013,0.400394469499588
1772533163340514300,5.038514404296875,0.08841434121131897,0.8041177988052368,0.7924002408981323
1772533163350441500,5.04844140625,-0.29187384247779846,0.633680522441864,1.122489333152771
1772533163360373500,5.05837353515625,-0.7806826233863831,-0.16830681264400482,1.3738843202590942
1772533163370309600,5.0683095703125,-1.0862714052200317,-1.528209924697876,1.407971739768982
1772533163380242000,5.078241943359375,-1.030879259109497,-2.5975706577301025,0.8733579516410828
1772533163400087000,5.098087158203125,-0.16830681264400482,-0.8999887704849243,-2.268413782119751
1772533163419951900,5.117951904296875,0.23861220479011536,4.018192291259766,-3.373859405517578
1772533163429912300,5.127912353515625,-0.004260932095348835,4.181172847747803,-2.5837225914001465
1772533163439847000,5.137846923828125,-0.5005263686180115,3.148163080215454,-1.5452536344528198
1772533163449767000,5.147766845703125,-0.8019872903823853,2.1045010089874268,-0.6645722389221191
1772533163459700200,5.1577001953125,-0.5005263686180115,1.1768162250518799,-0.23009033501148224
1772533163469639200,5.16763916015625,0.19813334941864014,0.1608501821756363,0.07137060910463333
1772533163479573000,5.177572998046875,0.7860088348388672,-0.6656374931335449,0.47283029556274414
1772533163489502500,5.18750244140625,0.9424648880958557,-1.1107717752456665,0.8680317401885986
1772533163499435800,5.197435791015625,0.8318138122558594,-1.253512978553772,1.1395330429077148
1772533163509361000,5.20736083984375,0.6283543109893799,-1.1704248189926147,1.1001193523406982
1772533163519293400,5.21729345703125,0.3929378390312195,-0.9648348093032837,0.6784203052520752
1772533163529227800,5.227227783203125,0.16298064589500427,-0.6997249722480774,-0.012782796286046505
1772533163539160300,5.237160400390625,-0.04580501839518547,-0.4419385492801666,-0.849922776222229
1772533163549091000,5.247091064453125,-0.05858781561255455,-0.191741943359375,-1.5388622283935547
1772533163559023600,5.257023681640625,0.2013290375471115,0.0021304660476744175,-1.706103801727295
1772533163568957200,5.266957275390625,0.45152565836906433,-0.007456631399691105,-1.370688557624817
1772533163578890000,5.276889892578125,0.5516575574874878,-0.26950395107269287,-0.8041177988052368
1772533163588820000,5.286820068359375,0.5591141581535339,-0.6603113412857056,-0.1501978635787964
1772533163598752300,5.296752197265625,0.4792217016220093,-0.8840102553367615,0.5175700783729553
1772533163608683500,5.30668359375,0.3077192008495331,-0.7732260227203369,1.0202269554138184
1772533163618615800,5.31661572265625,0.12356702983379364,-0.4355471432209015,1.2662957906723022
1772533163628562400,5.3265625,0.04687025398015976,0.0159784946590662,1.3174269199371338
1772533163638496000,5.33649609375,0.09374050796031952,0.48135218024253845,1.2098383903503418
1772533163648411400,5.346411376953125,0.19387240707874298,0.7966611385345459,0.969095766544342
1772533163658343400,5.356343505859375,0.3173062801361084,0.8563141822814941,0.7519213557243347
1772533163668276000,5.36627587890625,0.4664389193058014,0.7114425301551819,0.6922683119773865
1772533163678208000,5.3762080078125,0.5527228116989136,0.41850343346595764,0.6613765358924866
1772533163688144100,5.38614404296875,0.5143743753433228,0.13528458774089813,0.4866783320903778
1772533163698076400,5.396076416015625,0.42702528834342957,-0.06604444980621338,0.1810896098613739
1772533163708016000,5.40601611328125,0.3705679476261139,-0.23222079873085022,-0.10971900075674057
1772533163717949400,5.415949462890625,0.3929378390312195,-0.30359140038490295,-0.2790910601615906
1772533163727873800,5.425873779296875,0.4685693681240082,-0.275895357131958,-0.34393709897994995
1772533163737806000,5.43580615234375,0.5111786723136902,-0.21091613173484802,-0.4035901725292206
1772533163747733200,5.445733154296875,0.4983958899974823,-0.1278279572725296,-0.5282224416732788
1772533163757665000,5.4556650390625,0.447264701128006,-0.02982652559876442,-0.7125077247619629
1772533163767590000,5.46558984375,0.3716331720352173,0.07882724702358246,-0.8967930674552917
1772533163777521000,5.47552099609375,0.29506954550743103,0.21943800151348114,-1.0330097675323486
1772533163787478000,5.48547802734375,0.2652430236339569,0.36524176597595215,-1.0766842365264893
1772533163797411600,5.49541162109375,0.2780258059501648,0.4536561071872711,-1.0212922096252441
1772533163817241900,5.515241943359375,0.2354165017604828,0.3045234978199005,-0.742334246635437
1772533163827175200,5.525175048828125,0.16830681264400482,0.0958709716796875,-0.5420704483985901
1772533163837106000,5.53510595703125,0.05965305119752884,-0.09906667470932007,-0.3567199110984802
1772533163847036700,5.54503662109375,-0.06710968166589737,-0.1704372763633728,-0.2460688352584839
1772533163856967200,5.55496728515625,-0.10971900075674057,-0.08308817446231842,-0.17363297939300537
1772533163866930400,5.564930419921875,-0.04367455467581749,0.04580501839518547,-0.07989247888326645
1772533163876864300,5.5748642578125,0.02769605815410614,0.07563154399394989,0.07669677585363388
1772533163886768400,5.584768310546875,0.03302222490310669,-0.01810896210372448,0.31304535269737244
1772533163906633700,5.6046337890625,-0.1810896098613739,-0.20985090732574463,0.8158353567123413
1772533163916565000,5.61456494140625,-0.3055887222290039,-0.0852186381816864,0.8967930674552917
1772533163926495000,5.624494873046875,-0.35458943247795105,0.1374150663614273,0.8222267627716064
1772533163936426200,5.63442626953125,-0.3151758313179016,0.27269965410232544,0.7061163187026978
1772533163946396200,5.644396240234375,-0.32369768619537354,0.32263246178627014,0.6166367530822754
1772533163956331300,5.654331298828125,-0.5910711884498596,-0.02556559257209301,0.08734910935163498
1772533163966225400,5.664225341796875,-1.175750970840454,-1.3270140886306763,-1.2971875667572021
1772533163976156400,5.674156494140625,-1.407971739768982,-1.9479117393493652,-2.4441771507263184
1772533163986093600,5.684093505859375,-1.122489333152771,-0.5953320860862732,-2.632723331451416
1772533163996025000,5.694025146484375,-0.811574399471283,1.1363372802734375,-2.2843921184539795
1772533164005990700,5.70399072265625,-0.447264701128006,2.0203475952148438,-1.4836032390594482
1772533164015925800,5.71392578125,-0.05752258375287056,2.2013039588928223,-0.2876129150390625
1772533164025844000,5.723843994140625,0.10013190656900406,1.7455174922943115,0.8989235162734985
1772533164035777300,5.73377734375,0.15765449404716492,0.6592460870742798,1.7252780199050903
1772533164045712000,5.7437119140625,0.25139498710632324,-0.6475285291671753,2.1045010089874268
1772533164055645200,5.753645263671875,0.37695932388305664,-1.5591017007827759,2.1586947441101074
1772533164065574000,5.763573974609375,0.5314181447029114,-1.8126271963119507,1.9543031454086304
1772533164075507000,5.7735068359375,0.6251586079597473,-1.6400593519210815,1.414363145828247
1772533164085446000,5.78344580078125,0.6177020072937012,-1.290796160697937,0.5793536305427551
1772533164095379500,5.79337939453125,0.5410051941871643,-0.8467270731925964,-0.31091487407684326
1772533164105321200,5.8033212890625,0.45046040415763855,-0.4738955497741699,-1.0351401567459106
1772533164115255600,5.813255615234375,0.39826399087905884,-0.15339355170726776,-1.468690037727356
1772533164125162000,5.823161865234375,0.40572062134742737,0.21091613173484802,-1.4889295101165771
1772533164135093500,5.833093505859375,0.3684374690055847,0.5186353325843811,-1.138467788696289
1772533164145030100,5.843030029296875,0.20985090732574463,0.6006582975387573,-0.6432675719261169
1772533164154962200,5.852962158203125,-0.0053261648863554,0.48028692603111267,-0.1821548491716385
1772533164164907000,5.862906982421875,-0.18322007358074188,0.3503285050392151,0.19387240707874298
1772533164174840300,5.87284033203125,-0.28228676319122314,0.34393709897994995,0.4312862157821655
1772533164184760000,5.882760009765625,-0.2854824364185333,0.4579170346260071,0.5260919332504272
1772533164194691800,5.89269189453125,-0.2236989289522171,0.5548532605171204,0.5143743753433228
1772533164204635100,5.90263525390625,-0.11611039936542511,0.6134410500526428,0.46111273765563965
1772533164214568200,5.912568115234375,0.01810896210372448,0.6496589779853821,0.4344819188117981
1772533164224490800,5.92249072265625,0.14274121820926666,0.6006582975387573,0.41956865787506104
1772533164234422500,5.932422607421875,0.25032976269721985,0.3940030634403229,0.4110468029975891
1772533164244349700,5.942349609375,0.3077192008495331,0.06924014538526535,0.4355471432209015
1772533164254281500,5.952281494140625,0.28015628457069397,-0.23967742919921875,0.5015916228294373
1772533164264215600,5.962215576171875,0.21837277710437775,-0.4110468029975891,0.5676360726356506
1772533164274147300,5.972147216796875,0.2023942768573761,-0.4547213613986969,0.5900059342384338
1772533164284082200,5.982082275390625,0.22582940757274628,-0.47176507115364075,0.5367442965507507
1772533164294014200,5.99201416015625,0.23967742919921875,-0.5452661514282227,0.39719876646995544
1772533164303943000,6.00194287109375,0.2673735022544861,-0.6081148982048035,0.28228676319122314
1772533164313874700,6.011874755859375,0.3481980562210083,-0.5591141581535339,0.3066539466381073
1772533164323815400,6.0218154296875,0.3929378390312195,-0.40572062134742737,0.4216991364955902
1772533164333748000,6.031748046875,0.3151758313179016,-0.27269965410232544,0.534613847732544
1772533164343677700,6.041677734375,0.10119713842868805,-0.33008909225463867,0.5932016372680664
1772533164353610200,6.0516103515625,-0.20558997988700867,-0.5399399995803833,0.5953320860862732
1772533164363516700,6.0615166015625,-0.4685693681240082,-0.6134410500526428,0.5314181447029114
1772533164373446400,6.0714462890625,-0.5750926733016968,-0.3567199110984802,0.3929378390312195
1772533164383407900,6.081407958984375,-0.527157187461853,0.13421936333179474,0.2748301327228546
1772533164393325300,6.0913251953125,-0.41637295484542847,0.7050511240959167,0.24074266850948334
1772533164413191200,6.111191162109375,-0.3609808385372162,1.5431232452392578,0.2450035959482193
1772533164423135000,6.121135009765625,-0.5324833393096924,1.5825368165969849,0.2545906901359558
1772533164433068800,6.13106884765625,-0.7540518045425415,1.3792104721069336,0.3492632806301117
1772533164443003000,6.1410029296875,-0.8595098853111267,0.9648348093032837,0.5079829692840576
1772533164452936700,6.150936767578125,-0.7924002408981323,0.34287187457084656,0.6496589779853821
1772533164462876200,6.160876220703125,-0.619832456111908,-0.37376365065574646,0.6975944638252258
1772533164472810500,6.170810546875,-0.41743817925453186,-1.0266183614730835,0.6858769059181213
1772533164482727700,6.180727783203125,-0.2236989289522171,-1.5144950151443481,0.6826812028884888
1772533164492660500,6.190660400390625,-0.10439283400774002,-1.7561697959899902,0.6475285291671753
1772533164502555600,6.2005556640625,-0.14380645751953125,-1.7135604619979858,0.484547883272171
1772533164512484600,6.210484619140625,-0.34393709897994995,-1.4857337474822998,0.2247641682624817
1772533164522464500,6.220464599609375,-0.5580489635467529,-1.2620347738265991,-0.05113118514418602
1772533164532398600,6.230398681640625,-0.5889406800270081,-1.0436620712280273,-0.3695026934146881
1772533164542313000,6.24031298828125,-0.3886769115924835,-0.6517894268035889,-0.7370080947875977
1772533164552245000,6.250244873046875,-0.2013290375471115,-0.05539211630821228,-1.1022498607635498
1772533164562203100,6.260203125,-0.3716331720352173,0.5676360726356506,-1.5144950151443481
1772533164572137700,6.2701376953125,-0.8520532846450806,1.1523158550262451,-2.009695291519165
1772533164582051600,6.280051513671875,-1.0873366594314575,1.7284737825393677,-2.3451104164123535
1772533164591984000,6.289984130859375,-0.7742912769317627,2.3131535053253174,-2.1533684730529785
1772533164601921300,6.29992138671875,-0.20772044360637665,2.6721370220184326,-1.3408620357513428
1772533164611854300,6.309854248046875,0.27376487851142883,2.4005026817321777,-0.1384802907705307
1772533164621780700,6.31978076171875,0.4760259985923767,1.2993179559707642,1.0979889631271362
1772533164631713000,6.329713134765625,0.3471328020095825,-0.12143656611442566,1.986260175704956
1772533164641654500,6.339654541015625,0.10865376889705658,-1.2119688987731934,2.3206100463867188
1772533164651587800,6.349587890625,-0.01917419396340847,-1.8264751434326172,2.282261848449707
1772533164661511700,6.35951171875,-0.06924014538526535,-1.8328665494918823,2.0831964015960693
1772533164671444000,6.36944384765625,-0.1278279572725296,-1.232208251953125,1.628341794013977
1772533164681377000,6.379376953125,-0.2247641682624817,-0.49093925952911377,0.7444647550582886
1772533164691309600,6.3893095703125,-0.32476291060447693,0.2545906901359558,-0.2865476906299591
1772533164721110000,6.419110107421875,-0.30984964966773987,1.2567086219787598,-0.657115638256073
1772533164731043600,6.429043701171875,-0.3716331720352173,0.7742912769317627,-0.16404588520526886
1772533164740969000,6.438968994140625,-0.35352420806884766,0.13102366030216217,0.3716331720352173
1772533164750901500,6.448901611328125,-0.29293906688690186,-0.5665708184242249,0.7540518045425415
1772533164760845600,6.458845458984375,-0.2332860380411148,-1.1310111284255981,0.9117063283920288
1772533164770779400,6.468779296875,-0.1906767040491104,-1.3366011381149292,0.8424661755561829
1772533164780698600,6.47869873046875,-0.20558997988700867,-1.0394011735916138,0.5825493335723877
1772533164790631000,6.488630859375,-0.2780258059501648,-0.34180665016174316,0.20878566801548004
1772533164800565800,6.498565673828125,-0.3375457227230072,0.4035901725292206,-0.18854624032974243
1772533164810498300,6.508498291015625,-0.2663082480430603,0.9584434032440186,-0.44087332487106323
1772533164820438500,6.5184384765625,-0.08628387749195099,1.253512978553772,-0.4632432162761688
1772533164830371800,6.528371826171875,0.07563154399394989,1.2279473543167114,-0.3055887222290039
1772533164840275200,6.538275146484375,0.18641577661037445,0.9179645776748657,-0.00852186419069767
1772533164850205400,6.548205322265625,0.27269965410232544,0.4994611442089081,0.3673722445964813
1772533164860160000,6.558159912109375,0.339676171541214,0.0852186381816864,0.7220948338508606
1772533164870092800,6.5680927734375,0.39719876646995544,-0.3673722445964813,0.9914656281471252
1772533164880023000,6.57802294921875,0.43022099137306213,-0.7433995008468628,1.1501853466033936
1772533164889955600,6.58795556640625,0.4419385492801666,-0.887205958366394,1.1565767526626587
1772533164899886000,6.597885986328125,0.43661239743232727,-0.8328790664672852,0.970160961151123
1772533164909818400,6.607818359375,0.40785109996795654,-0.6475285291671753,0.6006582975387573
1772533164919750100,6.617750244140625,0.40785109996795654,-0.3375457227230072,0.11504516750574112
1772533164929682400,6.627682373046875,0.4643084406852722,-0.0021304660476744175,-0.3705679476261139
1772533164939622400,6.637622314453125,0.5260919332504272,0.2343512624502182,-0.7476604580879211
1772533164949555500,6.647555419921875,0.5047873258590698,0.31304535269737244,-0.978682816028595
1772533164959494700,6.65749462890625,0.3886769115924835,0.299330472946167,-1.061771035194397
1772533164969428200,6.66742822265625,0.2141118347644806,0.23754696547985077,-1.0106397867202759
1772533164979346200,6.67734619140625,0.02982652559876442,0.10865376889705658,-0.8680317401885986
1772533164989278200,6.6872783203125,-0.0958709716796875,-0.07137060910463333,-0.6539199352264404
1772533164999209000,6.697208984375,-0.1171756312251091,-0.13102366030216217,-0.37589409947395325
1772533165009141000,6.70714111328125,-0.0639139786362648,-0.06178351491689682,-0.08947957307100296
1772533165019059500,6.7170595703125,0.01384802907705307,-0.05432688444852829,0.16617634892463684
1772533165028990000,6.726989990234375,0.07137060910463333,-0.20026381313800812,0.38441595435142517
1772533165038955000,6.736955078125,0.06710968166589737,-0.3364804685115814,0.5260919332504272
1772533165048889000,6.74688916015625,-0.0159784946590662,-0.33328479528427124,0.535679042339325
1772533165058785000,6.756784912109375,-0.13315412402153015,-0.2663082480430603,0.37376365065574646
1772533165068715300,6.76671533203125,-0.24713405966758728,-0.3716331720352173,0.05858781561255455
1772533165078650000,6.776650146484375,-0.30984964966773987,-0.8041177988052368,-0.35458943247795105
1772533165088580900,6.786580810546875,-0.2865476906299591,-1.3589709997177124,-0.8137048482894897
1772533165098515000,6.796514892578125,-0.1800243854522705,-1.6858644485473633,-1.175750970840454
1772533165108446200,6.8064462890625,0.02236989326775074,-1.3621667623519897,-1.1970555782318115
1772533165118412300,6.816412353515625,0.3194367587566376,-0.20665520429611206,-0.788139283657074
1772533165128347000,6.826346923828125,0.6070496439933777,1.132076382637024,-0.09693620353937149
1772533165138242800,6.836242919921875,0.6709636449813843,1.9074329137802124,0.5761579275131226
1772533165148173600,6.846173583984375,0.49413496255874634,1.8776063919067383,0.9712262153625488
1772533165158106600,6.856106689453125,0.2577863931655884,0.970160961151123,1.0266183614730835
1772533165168037600,6.86603759765625,0.11611039936542511,-0.2556559145450592,0.7955959439277649
1772533165177973500,6.875973388671875,0.16191542148590088,-0.8744231462478638,0.43661239743232727
1772533165187905000,6.885905029296875,0.4568518102169037,-0.8339443206787109,0.12463226169347763
1772533165197857800,6.89585791015625,0.848857581615448,-0.5697665214538574,-0.0021304660476744175
1772533165207791400,6.905791259765625,1.0702928304672241,-0.20452474057674408,0.1491326242685318
1772533165217720600,6.915720458984375,1.0394011735916138,0.02236989326775074,0.5292876362800598
1772533165227653600,6.925653564453125,0.8424661755561829,-0.07669677585363388,0.9413996934890747
1772533165237587000,6.9355869140625,0.5900059342384338,-0.3929378390312195,1.2172950506210327
1772533165247520000,6.94552001953125,0.3268933892250061,-0.7402037978172302,1.3227530717849731
1772533165257463600,6.955463623046875,0.07243584841489792,-1.001052737236023,1.2684261798858643
1772533165267398000,6.96539794921875,-0.13315412402153015,-1.122489333152771,1.0489882230758667
1772533165277313000,6.97531298828125,-0.22902509570121765,-0.993596076965332,0.6560503840446472
1772533165287245300,6.985245361328125,-0.19813334941864014,-0.5260919332504272,0.09374050796031952
1772533165297179600,6.9951796875,-0.1587197184562683,0.1693720519542694,-0.5782883763313293
1772533165307112000,7.00511181640625,-0.17895914614200592,1.0095746517181396,-1.175750970840454
1772533165317043200,7.015043212890625,-0.15232832729816437,1.8030400276184082,-1.4644291400909424
1772533165326975500,7.0249755859375,-0.08308817446231842,2.188521146774292,-1.4111675024032593
1772533165336908300,7.034908203125,-0.08947957307100296,2.0459132194519043,-1.1714900732040405
1772533165346840800,7.0448408203125,-0.14274121820926666,1.4740161895751953,-0.7987915873527527
1772533165356772600,7.054772705078125,-0.18961147964000702,0.7114425301551819,-0.31304535269737244
1772533165366705200,7.064705078125,-0.22050324082374573,-0.0010652330238372087,0.19493764638900757
1772533165376638500,7.074638427734375,-0.21943800151348114,-0.46217799186706543,0.6070496439933777
1772533165386571000,7.084571044921875,-0.13421936333179474,-0.6709636449813843,0.8659012913703918
1772533165396509000,7.094509033203125,0.03089175745844841,-0.6762897968292236,0.955247700214386
1772533165406442000,7.10444189453125,0.22689463198184967,-0.3833507299423218,0.8893364071846008
1772533165416373500,7.11437353515625,0.39826399087905884,0.08628387749195099,0.7093120217323303
1772533165426306300,7.124306396484375,0.5058525204658508,0.4792217016220093,0.41637295484542847
1772533165436213500,7.134213623046875,0.5143743753433228,0.7071815729141235,0.0031956990715116262
1772533165446143700,7.144143798828125,0.4153077304363251,0.8541837334632874,-0.49306973814964294
1772533165456103400,7.154103515625,0.26204732060432434,0.9413996934890747,-0.9957265853881836
1772533165466036700,7.16403662109375,0.13528458774089813,0.9382039904594421,-1.431406855583191
1772533165475974100,7.17397412109375,0.02343512699007988,0.8978582620620728,-1.7796049118041992
1772533165485907700,7.18390771484375,-0.07563154399394989,0.8893364071846008,-2.000108242034912
1772533165495838200,7.193838134765625,-0.09374050796031952,0.9435301423072815,-2.0075647830963135
1772533165505771500,7.203771484375,-0.02663082629442215,1.0202269554138184,-1.780670166015625
1772533165515691800,7.21369189453125,0.0639139786362648,1.0351401567459106,-1.4324721097946167
1772533165535560000,7.233559814453125,0.06604444980621338,0.9254211783409119,-0.9371387362480164
1772533165545492200,7.2434921875,0.004260932095348835,0.7178338766098022,-0.8307486176490784
1772533165555421700,7.253421630859375,0.00852186419069767,0.4557865858078003,-0.6848116517066956
1772533165565353700,7.263353759765625,0.1171756312251091,0.26204732060432434,-0.4749607741832733
1772533165575284000,7.273283935546875,0.25991687178611755,0.17789392173290253,-0.2332860380411148
1772533165585216000,7.283216064453125,0.299330472946167,0.13634982705116272,0.04154408723115921
1772533165595167700,7.293167724609375,0.16298064589500427,0.02023942768573761,0.3492632806301117
1772533165605101800,7.303101806640625,-0.11078423261642456,-0.2119813710451126,0.6059844493865967
1772533165615017000,7.313016845703125,-0.4025249183177948,-0.5101134777069092,0.6890726089477539
1772533165624949000,7.322948974609375,-0.535679042339325,-0.8094439506530762,0.5942668914794922
1772533165634880500,7.332880615234375,-0.43767762184143066,-1.0372706651687622,0.381220281124115
1772533165644812500,7.3428125,-0.24819929897785187,-1.0628362894058228,-0.03621792420744896
1772533165654747400,7.352747314453125,-0.2034595012664795,-0.9872047305107117,-0.8541837334632874
1772533165664679700,7.3626796875,-0.3695026934146881,-0.6539199352264404,-1.8360623121261597
1772533165674607000,7.372607177734375,-0.37482887506484985,0.3790898025035858,-2.2140867710113525
1772533165684539000,7.382538818359375,-0.0063913981430232525,1.61981999874115,-1.6443203687667847
1772533165694483000,7.39248291015625,0.3066539466381073,2.226869583129883,-0.6826812028884888
1772533165704416000,7.402416015625,0.25032976269721985,1.9063676595687866,-0.09374050796031952
1772533165714345500,7.412345458984375,-0.05539211630821228,0.9042496681213379,-0.19387240707874298
1772533165724278300,7.4222783203125,-0.20558997988700867,0.15126308798789978,-0.4866783320903778
1772533165734218000,7.432218017578125,-0.0063913981430232525,-0.09800143539905548,-0.4749607741832733
1772533165744151300,7.4421513671875,0.335415244102478,-0.2343512624502182,-0.20985090732574463
1772533165754068500,7.452068359375,0.5889406800270081,-0.3492632806301117,0.18641577661037445
1772533165764000300,7.462000244140625,0.6464632749557495,-0.48135218024253845,0.6485937833786011
1772533165773913900,7.471913818359375,0.5367442965507507,-0.6880073547363281,0.9978570342063904
1772533165783843800,7.48184375,0.3716331720352173,-0.9232907295227051,1.1192935705184937
1772533165793797600,7.491797607421875,0.20026381313800812,-1.0958584547042847,1.014900803565979
1772533165803730200,7.501730224609375,0.00852186419069767,-1.0553796291351318,0.7455299496650696
1772533165813665000,7.5116650390625,-0.1810896098613739,-0.8680317401885986,0.35458943247795105
1772533165823597600,7.52159765625,-0.3087844252586365,-0.7284862399101257,-0.10545806586742401
1772533165833528600,7.531528564453125,-0.3055887222290039,-0.7465952038764954,-0.5228962898254395
1772533165843461000,7.541461181640625,-0.16830681264400482,-0.7870740294456482,-0.7402037978172302
1772533165853394400,7.55139453125,-0.01171756349503994,-0.6443328261375427,-0.6624417901039124
1772533165863327000,7.561326904296875,0.05113118514418602,-0.44832995533943176,-0.33008909225463867
1772533165873266400,7.571266357421875,0.0063913981430232525,-0.3599156141281128,0.11504516750574112
1772533165883199700,7.58119970703125,-0.10226237028837204,-0.43980807065963745,0.5143743753433228
1772533165893132800,7.5911328125,-0.21517707407474518,-0.6443328261375427,0.7860088348388672
1772533165903066000,7.601066162109375,-0.29187384247779846,-0.8169005513191223,0.9477910995483398
1772533165912984800,7.61098486328125,-0.30984964966773987,-0.8445966243743896,0.9957265853881836
1772533165922916600,7.62091650390625,-0.26950395107269287,-0.7455299496650696,0.8914669156074524
1772533165932857600,7.630857666015625,-0.17895914614200592,-0.5889406800270081,0.6656374931335449
1772533165942790400,7.640790283203125,-0.03302222490310669,-0.2972000241279602,0.49200451374053955
1772533165952726800,7.650726806640625,0.11930610239505768,0.03515268862247467,0.4856131076812744
1772533165962659800,7.660659912109375,0.20665520429611206,0.20026381313800812,0.5772231221199036
1772533165972575200,7.6705751953125,0.22050324082374573,0.2023942768573761,0.6720288991928101
1772533165982506500,7.680506591796875,0.19600287079811096,0.07776200771331787,0.7231600880622864
1772533165992443000,7.69044287109375,0.15339355170726776,-0.1608501821756363,0.7114425301551819
1772533166002374700,7.700374755859375,0.09800143539905548,-0.4781564772129059,0.6379414200782776
1772533166012310000,7.71031005859375,0.009587096981704235,-0.8190310597419739,0.5143743753433228
1772533166022242000,7.720241943359375,-0.11184946447610855,-1.0958584547042847,0.3481980562210083
1772533166032175400,7.73017529296875,-0.2236989289522171,-1.2258168458938599,0.1693720519542694
1772533166042107600,7.740107666015625,-0.299330472946167,-1.0862714052200317,-0.00852186419069767
1772533166052043800,7.750043701171875,-0.3375457227230072,-0.6965292692184448,-0.23861220479011536
1772533166061976300,7.759976318359375,-0.3460675776004791,-0.2588516175746918,-0.5591141581535339
1772533166071903200,7.7699033203125,-0.3055887222290039,0.07776200771331787,-0.8989235162734985
1772533166081835300,7.779835205078125,-0.21730753779411316,0.28015628457069397,-1.1374025344848633
1772533166091767000,7.78976708984375,-0.14274121820926666,0.39932921528816223,-1.2045122385025024
1772533166101699000,7.799698974609375,-0.11184946447610855,0.45898228883743286,-1.0884017944335938
1772533166111644000,7.809643798828125,-0.08415340632200241,0.4760259985923767,-0.7774869799613953
1772533166121577200,7.8195771484375,-0.03302222490310669,0.4525908827781677,-0.32476291060447693
1772533166131508500,7.829508544921875,-0.02450035884976387,0.3258281648159027,0.12037133425474167
1772533166141441500,7.839441650390625,-0.09480573982000351,0.16191542148590088,0.4142425060272217
1772533166151337200,7.849337158203125,-0.18535055220127106,0.05752258375287056,0.5239614844322205
1772533166161266400,7.859266357421875,-0.2247641682624817,0.03515268862247467,0.5335485935211182
1772533166171225900,7.869225830078125,-0.22050324082374573,0.04580501839518547,0.535679042339325
1772533166181158100,7.879158203125,-0.2556559145450592,0.0063913981430232525,0.5111786723136902
1772533166191130600,7.889130615234375,-0.3173062801361084,-0.10758853703737259,0.4131772518157959
1772533166201067000,7.89906689453125,-0.299330472946167,-0.2535254657268524,0.2769605815410614
1772533166210937300,7.908937255859375,-0.15445879101753235,-0.4419385492801666,0.14593692123889923
1772533166220867000,7.9188671875,0.14487169682979584,-0.8073135018348694,-0.09161003679037094
1772533166230805500,7.928805419921875,0.5655055642127991,-1.407971739768982,-0.6422023773193359
1772533166240736000,7.938736083984375,0.9371387362480164,-1.9543031454086304,-1.4953209161758423
1772533166260594400,7.958594482421875,0.726355791091919,-0.8967930674552917,-2.3078272342681885
1772533166270527700,7.96852783203125,-0.0426093190908432,0.7178338766098022,-1.7657568454742432
1772533166280458500,7.97845849609375,-0.512243926525116,1.7700178623199463,-1.370688557624817
1772533166290429700,7.9884296875,-0.32263246178627014,2.2662832736968994,-1.2993179559707642
1772533166300364500,7.998364501953125,0.2641777992248535,2.483590841293335,-1.1405982971191406
1772533166310281700,8.00828173828125,0.9893351793289185,2.1810646057128906,-0.5985277891159058
1772533166320214500,8.018214599609376,1.4399287700653076,1.2343387603759766,0.3375457227230072
1772533166330127600,8.028127685546876,1.361101508140564,-0.0426093190908432,1.4601681232452393
1772533166340058600,8.03805859375,1.0234225988388062,-1.26949143409729,2.2044997215270996
1772533166349990700,8.04799072265625,0.7295514941215515,-1.89784574508667,2.2694790363311768
1772533166359922000,8.057921875,0.619832456111908,-1.703973412513733,1.8222142457962036
1772533166369876500,8.06787646484375,0.5644403696060181,-0.779617428779602,1.0212922096252441
1772533166379810000,8.07781005859375,0.47069984674453735,0.39826399087905884,0.07030537724494934
1772533166389728500,8.087728515625,0.3940030634403229,1.323818325996399,-0.7380733489990234
1772533166399660500,8.09766064453125,0.30146095156669617,1.729538917541504,-1.2236864566802979
1772533166409615400,8.107615478515624,0.19387240707874298,1.6624293327331543,-1.3579057455062866
1772533166419549700,8.1175498046875,0.09480573982000351,1.2865351438522339,-1.1437939405441284
1772533166429448000,8.127447998046875,-0.04367455467581749,0.7082468271255493,-0.726355791091919
1772533166439378700,8.137378662109375,-0.22582940757274628,0.06178351491689682,-0.3183715343475342
1772533166449336600,8.147336669921875,-0.44300377368927,-0.4983958899974823,-0.01491326279938221
1772533166459270000,8.157269775390626,-0.7018554210662842,-0.811574399471283,0.20558997988700867
1772533166469203000,8.167202880859374,-0.895727813243866,-0.8083786964416504,0.4781564772129059
1772533166479136500,8.177136474609375,-0.9053149223327637,-0.6208977103233337,0.8882712125778198
1772533166489059800,8.187059814453125,-0.7902697324752808,-0.38654643297195435,1.3099702596664429
1772533166498992000,8.1969921875,-0.6539199352264404,-0.0958709716796875,1.5825368165969849
1772533166508928800,8.2069287109375,-0.5143743753433228,0.26311254501342773,1.7050386667251587
1772533166518861600,8.216861572265625,-0.35245898365974426,0.5814840793609619,1.7444522380828857
1772533166528790000,8.2267900390625,-0.18854624032974243,0.6698983907699585,1.7348651885986328
1772533166538722300,8.236722412109375,-0.08308817446231842,0.5026568174362183,1.596384882926941
1772533166548658000,8.246657958984375,-0.02343512699007988,0.09161003679037094,1.2652305364608765
1772533166558590700,8.2565908203125,0.01917419396340847,-0.3886769115924835,0.82648766040802
1772533166568497200,8.2664970703125,0.08947957307100296,-0.680550754070282,0.49306973814964294
1772533166578427100,8.27642724609375,0.18322007358074188,-0.7391385436058044,0.4142425060272217
1772533166588385000,8.286385009765626,0.23648172616958618,-0.5718969702720642,0.5601794123649597
1772533166598317800,8.29631787109375,0.2577863931655884,-0.18428531289100647,0.8083786964416504
1772533166608255500,8.30625537109375,0.25032976269721985,0.22156846523284912,1.001052737236023
1772533166618188800,8.316188720703124,0.13315412402153015,0.3577851355075836,1.0596405267715454
1772533166628090400,8.32609033203125,-0.1384802907705307,0.2141118347644806,1.0873366594314575
1772533166638020400,8.336020263671875,-0.5292876362800598,-0.05858781561255455,1.2449910640716553
1772533166647981600,8.345981689453126,-0.9010539650917053,-0.44832995533943176,1.4069064855575562
1772533166657914600,8.35591455078125,-1.2268821001052856,-0.6549851298332214,1.5644278526306152
1772533166667843300,8.36584326171875,-1.58892822265625,-0.26098209619522095,1.8584321737289429
1772533166677776100,8.375776123046874,-1.7583003044128418,0.5250267386436462,2.2566962242126465
1772533166687709000,8.385708984375,-1.5187560319900513,1.2822742462158203,2.5283305644989014
1772533166697641700,8.395641845703125,-1.0809452533721924,1.6911906003952026,2.5549614429473877
1772533166707549400,8.405549560546875,-0.6475285291671753,1.3046441078186035,2.2236738204956055
1772533166717479700,8.415479736328125,-0.275895357131958,-0.14593692123889923,1.4409940242767334
1772533166727434000,8.42543408203125,-0.03621792420744896,-2.1427161693573,0.38761165738105774
1772533166737366500,8.435366455078125,-0.08947957307100296,-2.9638776779174805,-0.2780258059501648
1772533166747341300,8.44534130859375,-0.39613354206085205,-2.0597612857818604,-0.31198012828826904
1772533166757278200,8.4552783203125,-0.5921363830566406,-0.37376365065574646,0.08841434121131897
1772533166767175400,8.465175537109374,-0.5239614844322205,1.5367318391799927,0.7167686820030212
1772533166777108500,8.4751083984375,-0.2535254657268524,2.923398971557617,1.2641652822494507
1772533166787044900,8.485044921875,-0.11824086308479309,3.1971638202667236,1.4132978916168213
1772533166796978200,8.494978271484374,-0.2535254657268524,2.4015679359436035,0.8137048482894897
1772533166806893800,8.504893798828125,-0.4110468029975891,0.955247700214386,-0.7380733489990234
1772533166816825300,8.514825439453125,-0.3780245780944824,-0.10545806586742401,-2.4590904712677
1772533166826738400,8.524738525390624,-0.08841434121131897,0,-3.515535354614258
1772533166836668200,8.534668212890624,0.3705679476261139,0.7082468271255493,-3.992626428604126
1772533166846624300,8.544624267578126,0.8328790664672852,1.3366011381149292,-4.032040119171143
1772533166856556500,8.554556640625,1.345123052597046,1.7838658094406128,-3.6422979831695557
1772533166866445000,8.564445068359374,1.9234113693237305,2.2087607383728027,-2.9351165294647217
1772533166876373000,8.574373046875,2.4111549854278564,2.4942431449890137,-2.0171518325805664
1772533166886354200,8.584354248046875,2.7487006187438965,2.352567195892334,-1.0095746517181396
1772533166896287500,8.59428759765625,2.9489643573760986,1.682668685913086,-0.02343512699007988
1772533166906219000,8.604218994140625,3.0150089263916016,0.5527228116989136,0.848857581615448
1772533166916152000,8.614152099609376,2.8051578998565674,-0.9074453711509705,1.5399274826049805
1772533166926082800,8.624082763671876,2.013956069946289,-2.516613006591797,1.9159547090530396
1772533166936015600,8.634015625,1.0873366594314575,-3.6444284915924072,2.000108242034912
1772533166945948700,8.64394873046875,0.6773550510406494,-3.495295763015747,1.8925195932388306
1772533166955881700,8.6538818359375,0.6922683119773865,-2.3312625885009766,1.3877322673797607
1772533166965814300,8.663814208984375,0.8595098853111267,-0.895727813243866,0.484547883272171
1772533166975747000,8.6737470703125,1.0862714052200317,0.5452661514282227,-0.5612446665763855
1772533166985679400,8.683679443359376,1.3877322673797607,1.7519088983535767,-1.4910598993301392
1772533166995612200,8.693612060546876,1.5708192586898804,2.240717649459839,-2.085326910018921
1772533167005519000,8.70351904296875,1.4399287700653076,2.216217279434204,-2.2002387046813965
1772533167015449300,8.713449462890624,0.9797480702400208,2.4569599628448486,-2.001173496246338
1772533167025409500,8.723409423828125,0.6400718688964844,2.4441771507263184,-1.7263432741165161
1772533167035342800,8.7333427734375,0.4781564772129059,1.5228837728500366,-1.4346026182174683
1772533167045289700,8.743289794921875,0.29080861806869507,0.3045234978199005,-0.9754871129989624
1772533167055224300,8.753224365234376,0.12463226169347763,-0.38548120856285095,-0.2545906901359558
1772533167065135000,8.763135009765625,0.10332760214805603,-0.5804188251495361,0.4323514401912689
1772533167075067100,8.773067138671875,0.25991687178611755,-0.6635070443153381,0.7838783264160156
1772533167085014500,8.7830146484375,0.4248948097229004,-0.6997249722480774,0.8286181092262268
1772533167094948400,8.7929482421875,0.4983958899974823,-0.5644403696060181,0.7018554210662842
1772533167104869400,8.802869384765625,0.43980807065963745,-0.40998154878616333,0.4142425060272217
1772533167114802000,8.812802001953125,0.21943800151348114,-0.18961147964000702,0.04154408723115921
1772533167124733000,8.82273291015625,-0.01704372838139534,0.12569749355316162,-0.3290238380432129
1772533167134665200,8.832665283203125,-0.26204732060432434,0.28335198760032654,-0.6560503840446472
1772533167144595200,8.84259521484375,-0.5804188251495361,0.03302222490310669,-0.9382039904594421
1772533167154527200,8.85252734375,-0.9680305123329163,-0.27269965410232544,-1.0021179914474487
1772533167164458800,8.862458740234375,-1.3291444778442383,-0.488808810710907,-0.8009220957756042
1772533167174390800,8.872390869140625,-1.6475160121917725,-0.6240934133529663,-0.39826399087905884
1772533167184329000,8.882328857421875,-1.8754758834838867,-0.5484618544578552,0.16724158823490143
1772533167194261800,8.89226171875,-1.9670859575271606,-0.2013290375471115,0.8328790664672852
1772533167204200200,8.9022001953125,-1.9745426177978516,0.11504516750574112,1.445254921913147
1772533167214133500,8.912133544921875,-1.8605626821517944,0.30984964966773987,1.9393898248672485
1772533167224052500,8.922052490234375,-1.5931891202926636,0.09161003679037094,2.2375218868255615
1772533167233984300,8.931984375,-1.222621202468872,-0.9563129544258118,2.0906529426574707
1772533167243915000,8.9419150390625,-0.8456618785858154,-2.0970444679260254,1.4942556619644165
1772533167253846800,8.9518466796875,-0.5825493335723877,-2.156564235687256,0.8904016613960266
1772533167263777800,8.96177783203125,-0.5165048837661743,-1.384536623954773,0.48028692603111267
1772533167273709300,8.971709228515625,-0.5921363830566406,-0.6965292692184448,0.13315412402153015
1772533167283645700,8.981645751953126,-0.6858769059181213,-0.40891632437705994,-0.19600287079811096
1772533167293577700,8.99157763671875,-0.7167686820030212,-0.23115555942058563,-0.43022099137306213
1772533167303516700,9.0015166015625,-0.6432675719261169,0.13208889961242676,-0.5367442965507507
1772533167313449500,9.011449462890624,-0.4419385492801666,0.5612446665763855,-0.5633751153945923
1772533167323378400,9.02137841796875,-0.17576344311237335,0.9328778386116028,-0.5420704483985901
1772533167333310700,9.031310791015626,0.01384802907705307,1.1821423768997192,-0.47069984674453735
1772533167343244300,9.041244384765625,0.06178351491689682,1.2140992879867554,-0.33435001969337463
1772533167353176800,9.0511767578125,0.02663082629442215,0.992530882358551,-0.14487169682979584
1772533167363106800,9.06110693359375,-0.03515268862247467,0.6677679419517517,0.07563154399394989
1772533167373038800,9.071038818359375,-0.09054480493068695,0.43767762184143066,0.28228676319122314
1772533167382985200,9.080985107421874,-0.12037133425474167,0.37695932388305664,0.42063388228416443
1772533167392918800,9.090918701171875,-0.14380645751953125,0.4536561071872711,0.44087332487106323
1772533167402824400,9.100824462890625,-0.18641577661037445,0.5569837093353271,0.3290238380432129
1772533167412755500,9.11075537109375,-0.2577863931655884,0.5836145281791687,0.14593692123889923
1772533167422680800,9.120680908203125,-0.339676171541214,0.5687012672424316,-0.03728315606713295
1772533167432611000,9.130611083984375,-0.4035901725292206,0.5335485935211182,-0.18641577661037445
1772533167442546400,9.14054638671875,-0.40785109996795654,0.43661239743232727,-0.2790910601615906
1772533167452477200,9.150477294921876,-0.3173062801361084,0.33221954107284546,-0.29400432109832764
1772533167462409500,9.160409423828124,-0.15445879101753235,0.2886781394481659,-0.24926452338695526
1772533167472340500,9.170340576171874,0.0063913981430232525,0.3045234978199005,-0.19706811010837555
1772533167492204500,9.19020458984375,0.11504516750574112,0.4738955497741699,-0.1800243854522705
1772533167502180000,9.20018017578125,0.11397993564605713,0.6517894268035889,-0.10332760214805603
1772533167512115700,9.21011572265625,0.00852186419069767,0.6326152682304382,0.3673722445964813
1772533167522036700,9.22003662109375,-0.18854624032974243,-0.3375457227230072,0.8360747694969177
1772533167531970800,9.229970703125,-0.2897433936595917,-1.4324721097946167,0.8925321102142334
1772533167541895000,9.23989501953125,-0.24819929897785187,-1.6102328300476074,0.7551170587539673
1772533167551828000,9.249827880859375,-0.1501978635787964,-1.345123052597046,0.6645722389221191
1772533167561731000,9.25973095703125,-0.01704372838139534,-1.1160979270935059,0.6059844493865967
1772533167571661300,9.269661376953126,0.15445879101753235,-0.9158340692520142,0.5133091807365417
1772533167581594600,9.2795947265625,0.3194367587566376,-0.7007901668548584,0.3705679476261139
1772533167591525000,9.289525146484374,0.404655396938324,-0.5324833393096924,0.1810896098613739
1772533167601480700,9.299480712890626,0.3790898025035858,-0.37695932388305664,-0.00852186419069767
