time,seconds_elapsed,z,y,x
1772533158433955600,0.13195556640625,9.954740524291992,4.198207378387451,0.5006981492042542
1772533158443891000,0.141890869140625,10.16590690612793,3.5084762573242188,0.7836494445800781
1772533158453815600,0.151815673828125,9.758528709411621,2.967698335647583,0.6251249313354492
1772533158463746600,0.16174658203125,9.246464729309082,2.958127021789551,0.3810569941997528
1772533158473697500,0.171697509765625,8.834300994873047,2.8624141216278076,0.2566302418708801
1772533158483636500,0.181636474609375,8.63330364227295,2.2779672145843506,0.251844584941864
1772533158493556500,0.191556396484375,8.446663856506348,1.5690934658050537,0.5724828243255615
1772533158503487700,0.20148779296875,8.700303077697754,1.4685949087142944,1.1425727605819702
1772533158513404000,0.21140380859375,9.327820777893066,1.6648063659667969,1.8323038816452026
1772533158523329000,0.2213291015625,9.437891006469727,1.6265212297439575,2.334796667098999
1772533158533283600,0.23128369140625,8.513663291931152,1.3872389793395996,2.1194427013397217
1772533158543220500,0.241220458984375,7.4362945556640625,1.3680963516235352,1.1282159090042114
1772533158553134800,0.251134765625,7.029514789581299,1.6839489936828613,0.47676992416381836
1772533158563062800,0.261062744140625,7.283154010772705,1.540379524230957,0.3332005441188812
1772533158573053700,0.2710537109375,7.350152969360352,1.0139585733413696,0.2566302418708801
1772533158583007200,0.28100732421875,7.173084259033203,0.7501499056816101,0.23270200192928314
1772533158592862500,0.290862548828125,7.043871879577637,0.5108676552772522,0.28534409403800964
1772533158602776000,0.300776123046875,6.425925254821777,0.15672987699508667,0.4097708761692047
1772533158612728300,0.310728271484375,4.864608287811279,-0.7435696125030518,0.1178465187549591
1772533158622657800,0.32065771484375,3.696312665939331,-1.5433706045150757,0.7016952633857727
1772533158632595000,0.330594970703125,3.2273194789886475,-0.2793620526790619,0.33798620104789734
1772533158642527500,0.340527587890625,1.1635099649429321,0.6879364848136902,0.2470589429140091
1772533158652456700,0.350456787109375,-0.5988038778305054,0.8177471160888672,1.4009976387023926
1772533158662387700,0.3603876953125,-0.08614161610603333,1.119242787361145,1.6402798891067505
1772533158672324400,0.370324462890625,1.3692927360534668,1.4925230741500854,0.39062830805778503
1772533158682258000,0.3802578125,2.7864420413970947,1.1479566097259521,-0.5670989751815796
1772533158692185900,0.390185791015625,4.6061835289001465,0.5443671345710754,-0.8207381963729858
1772533158702117000,0.4001171875,5.860620975494385,0.09451649338006973,-0.25064817070961
1772533158712055800,0.410055908203125,5.13320255279541,-0.1782652884721756,0.8937192559242249
1772533158721987800,0.41998779296875,3.8733816146850586,0.5395814776420593,1.1569297313690186
1772533158731922400,0.42992236328125,3.0454649925231934,1.8035900592803955,0.9990034699440002
1772533158741854500,0.4398544921875,3.232105255126953,2.076970100402832,1.8993029594421387
1772533158751783000,0.449782958984375,4.295116424560547,1.5068800449371338,1.592423439025879
1772533158761714700,0.459714599609375,3.6053855419158936,0.7986045479774475,0.3523431420326233
1772533158771647700,0.469647705078125,3.9361932277679443,0.8225327730178833,-1.1126625537872314
1772533158781579800,0.479579833984375,5.25762939453125,1.272383451461792,-2.1469600200653076
1772533158791508700,0.4895087890625,6.866204738616943,1.9669002294540405,-2.693121910095215
1772533158801440300,0.499440185546875,8.10688304901123,3.3026933670043945,-2.3096721172332764
1772533158811382800,0.5093828125,7.369295597076416,4.533202648162842,0.4815555512905121
1772533158821315600,0.519315673828125,5.7409796714782715,5.959922790527344,3.3068809509277344
1772533158831252500,0.52925244140625,6.330212116241455,7.655237674713135,4.19282341003418
1772533158841185500,0.539185546875,9.476176261901855,8.081758499145508,3.689732551574707
1772533158851103500,0.549103515625,14.044074058532715,7.114459991455078,2.38265323638916
1772533158861035000,0.559034912109375,18.588642120361328,6.238088607788086,1.0133603811264038
1772533158870972700,0.56897265625,18.54557228088379,6.429514408111572,-0.29431718587875366
1772533158880904700,0.57890478515625,18.018552780151367,7.82273530960083,-1.342971682548523
1772533158890811100,0.58881103515625,16.39083480834961,9.278767585754395,-0.973878800868988
1772533158900740900,0.598740966796875,13.59900951385498,11.006983757019043,0.0029910283628851175
1772533158910710300,0.608710205078125,12.488141059875488,12.39123249053955,-0.049651071429252625
1772533158920643800,0.618643798828125,14.681163787841797,12.146566390991211,-0.5527420043945312
1772533158930572800,0.62857275390625,17.59263038635254,11.002198219299316,-0.13579268753528595
1772533158940505900,0.638505859375,20.072790145874023,10.566704750061035,0.5341976284980774
1772533158950430000,0.648429931640625,22.045673370361328,10.815558433532715,1.3962119817733765
1772533158960362200,0.6583623046875,23.290538787841797,11.117053985595703,3.1489546298980713
1772533158970272800,0.668272705078125,24.114269256591797,10.87298583984375,4.743172645568848
1772533158980202800,0.67820263671875,23.784059524536133,10.317851066589355,5.050052165985107
1772533158990143000,0.68814306640625,21.55694007873535,9.771689414978027,4.417748928070068
1772533159000074200,0.69807421875,17.6213436126709,9.465408325195312,3.507878065109253
1772533159010024400,0.7080244140625,12.516855239868164,9.22134017944336,2.5836503505706787
1772533159019957500,0.71795751953125,7.211369037628174,8.622536659240723,0.9272187948226929
1772533159029877200,0.727877197265625,3.2751760482788086,6.6352972984313965,-1.414756417274475
1772533159039808800,0.737808837890625,1.3836497068405151,3.786043643951416,-2.6739792823791504
1772533159049731600,0.747731689453125,2.954537868499756,1.3776676654815674,-3.2721848487854004
1772533159059662300,0.757662353515625,6.000002861022949,-0.7148557901382446,-3.0759735107421875
1772533159069591600,0.767591552734375,9.54796028137207,-1.9645073413848877,-1.922034740447998
1772533159079522300,0.777522216796875,13.517653465270996,-3.147160053253174,-1.7688941955566406
1772533159089458200,0.787458251953125,15.001801490783691,-4.377668857574463,-1.5822539329528809
1772533159099389400,0.797389404296875,14.216357231140137,-4.071387767791748,-0.18364913761615753
1772533159109323000,0.807322998046875,12.55992603302002,-2.6398816108703613,1.0660024881362915
1772533159119254300,0.817254150390625,9.150752067565918,-1.7204394340515137,1.755135416984558
1772533159129187000,0.82718701171875,4.902893543243408,-1.399801254272461,1.8658034801483154
1772533159139118600,0.83711865234375,1.8245272636413574,-1.3902299404144287,1.2095718383789062
1772533159149057500,0.8470576171875,0.11006984114646912,-1.5050854682922363,1.1808580160140991
1772533159158989800,0.85698974609375,-0.737587571144104,-1.6342978477478027,1.1234302520751953
1772533159168952300,0.866952392578125,-1.6522440910339355,-2.3234307765960693,-1.587039589881897
1772533159178887700,0.8768876953125,-1.7479569911956787,-3.147160053253174,-3.1238300800323486
1772533159188778500,0.886778564453125,-2.0685951709747314,-2.7499513626098633,-2.3916261196136475
1772533159198709500,0.89670947265625,-2.820539712905884,-1.5625132322311401,-0.9451649188995361
1772533159208651500,0.906651611328125,-3.596412420272827,-0.7387840151786804,-0.11665010452270508
1772533159218583600,0.91658349609375,-4.223331928253174,-0.24047867953777313,0.10348957777023315
1772533159228508200,0.926508056640625,-4.5684967041015625,0.3433700501918793,1.0612168312072754
1772533159238439400,0.936439453125,-4.347758769989014,1.090528964996338,2.679363250732422
1772533159248401400,0.9464013671875,-2.988037347793579,1.4925230741500854,3.751945972442627
1772533159258336000,0.9563359375,-0.4743770956993103,1.454237937927246,3.8428730964660645
1772533159268272000,0.966272216796875,1.7330018281936646,1.3680963516235352,3.603590965270996
1772533159278206700,0.976206787109375,4.390829563140869,1.7413766384124756,3.043670415878296
1772533159288101000,0.98610107421875,4.682754039764404,1.6552350521087646,2.822932481765747
1772533159298031900,0.996031982421875,4.161118507385254,1.1623135805130005,2.8905298709869385
1772533159307992800,1.005992919921875,4.084548473358154,1.186241865158081,1.913659930229187
1772533159317926700,1.0159267578125,3.9074792861938477,1.2580264806747437,1.3387842178344727
1772533159327862000,1.025862060546875,4.381258487701416,1.4877375364303589,2.0237298011779785
1772533159337795800,1.0357958984375,4.8502516746521,1.540379524230957,3.1824541091918945
1772533159347720700,1.045720703125,4.821537494659424,1.5212370157241821,4.05403995513916
1772533159357653800,1.05565380859375,4.811966419219971,1.7461622953414917,3.8763725757598877
1772533159377500000,1.0755,7.216155052185059,2.0673987865448,-0.4331009089946747
1772533159397401000,1.095401123046875,10.079167366027832,2.2396819591522217,-2.6021945476531982
1772533159407336200,1.105336181640625,10.448260307312012,3.4271202087402344,-1.6348960399627686
1772533159417244200,1.115244140625,10.654043197631836,5.20379114151001,-0.27038896083831787
1772533159427176200,1.12517626953125,10.965109825134277,6.721438884735107,0.5581258535385132
1772533159437108500,1.1351083984375,12.54556941986084,7.152745246887207,1.4009976387023926
1772533159447040500,1.14504052734375,16.198810577392578,7.176673412322998,1.6546368598937988
1772533159456976600,1.1549765625,21.658035278320312,7.69830846786499,-0.3278166949748993
1772533159466909200,1.1649091796875,26.675785064697266,7.918448448181152,-3.5264222621917725
1772533159476847400,1.174847412109375,27.81596565246582,7.626523971557617,-5.010570526123047
1772533159486780400,1.184780517578125,24.803998947143555,7.119245529174805,-2.851048231124878
1772533159496717800,1.1947177734375,19.249061584472656,7.296314239501953,1.3818551301956177
1772533159506651100,1.204651123046875,16.261024475097656,8.684749603271484,4.623531341552734
1772533159516606200,1.214606201171875,17.712270736694336,9.302696228027344,6.165705680847168
1772533159526541800,1.224541748046875,20.350358963012695,8.187042236328125,6.644270420074463
1772533159536435000,1.23443505859375,24.109481811523438,6.63051176071167,5.653043270111084
1772533159546366500,1.244366455078125,27.84467887878418,5.103292465209961,3.7088751792907715
1772533159556300000,1.254300048828125,29.319255828857422,3.968496322631836,1.8658034801483154
1772533159566231600,1.2642314453125,28.24188804626465,3.5946178436279297,1.2717852592468262
1772533159576165000,1.2741650390625,24.70828628540039,3.685544967651367,1.8897316455841064
1772533159586097200,1.28409716796875,20.024934768676758,3.9876389503479004,2.760719060897827
1772533159596024800,1.29402490234375,15.016158103942871,4.293920040130615,3.091526746749878
1772533159605956400,1.303956298828125,9.954740524291992,4.059423446655273,2.9718856811523438
1772533159615891700,1.3138916015625,5.343770980834961,3.2691938877105713,3.383451223373413
1772533159625823500,1.323823486328125,3.4953157901763916,2.4358935356140137,4.8675994873046875
1772533159635768600,1.3337685546875,4.366901397705078,1.44945228099823,5.2941203117370605
1772533159645701600,1.34370166015625,5.434698581695557,-0.18305093050003052,4.412963390350342
1772533159655633700,1.353633544921875,6.306283950805664,-1.5864413976669312,2.909672260284424
1772533159665566700,1.363566650390625,6.569494724273682,-2.424527645111084,1.357926845550537
1772533159685419300,1.383419189453125,4.687539577484131,-2.8791637420654297,1.6259230375289917
1772533159695360300,1.3933603515625,3.318246841430664,-2.4580271244049072,1.9902302026748657
1772533159705293000,1.40329296875,1.7617156505584717,-1.9884356260299683,2.2295124530792236
1772533159715213300,1.41321337890625,0.24885354936122894,-1.5385849475860596,2.1194427013397217
1772533159725144800,1.423144775390625,-0.7998009920120239,-1.4811571836471558,1.846660852432251
1772533159735091000,1.433091064453125,-1.2592228651046753,-1.7204394340515137,1.6546368598937988
1772533159745023700,1.443023681640625,-1.412961721420288,-1.7587246894836426,1.171286702156067
1772533159754947800,1.45294775390625,-1.456032633781433,-1.5720844268798828,0.6442674994468689
1772533159764880000,1.4628798828125,-1.4895321130752563,-1.1934202909469604,0.28534409403800964
1772533159774812000,1.47281201171875,-1.8293129205703735,-0.5856433510780334,-0.1501496136188507
1772533159784744000,1.482743896484375,-2.2791635990142822,0.02273181453347206,-0.6436693072319031
1772533159794671000,1.492671142578125,-2.7487549781799316,0.7549355626106262,-0.47617170214653015
1772533159804602600,1.5026025390625,-2.734398126602173,1.5451651811599731,-0.14057832956314087
1772533159814538200,1.512538330078125,-2.490330219268799,1.9621145725250244,-0.001794616924598813
1772533159824470300,1.52247021484375,-1.8771693706512451,2.1918256282806396,0.20398813486099243
1772533159834440000,1.53243994140625,-0.019142581149935722,1.9956140518188477,-0.001794616924598813
1772533159844375600,1.54237548828125,3.122035264968872,1.4638092517852783,-0.5383850932121277
1772533159854269200,1.552269287109375,6.1675004959106445,1.0235298871994019,-0.8303094506263733
1772533159864200700,1.56220068359375,7.919644832611084,0.9517452120780945,-0.7441678643226624
1772533159874108400,1.5721083984375,8.212167739868164,1.2005987167358398,-0.1740778535604477
1772533159884037600,1.58203759765625,7.359724044799805,1.3728820085525513,0.6873382925987244
1772533159893972500,1.591972412109375,6.315855503082275,1.3824533224105835,1.3244273662567139
1772533159903902200,1.601902099609375,6.291927337646484,1.181456208229065,1.439282774925232
1772533159913856000,1.61185595703125,8.020143508911133,1.2436695098876953,0.9559326171875
1772533159923788000,1.6217880859375,10.40040397644043,1.6456637382507324,0.5964110493659973
1772533159933726700,1.631726806640625,12.21057415008545,1.7461622953414917,1.171286702156067
1772533159943659500,1.641659423828125,13.498510360717773,1.8903298377990723,1.573280930519104
1772533159953590000,1.651590087890625,13.608580589294434,2.201396942138672,0.9798609018325806
1772533159963522600,1.6615224609375,13.345370292663574,2.7421748638153076,0.1417747437953949
1772533159973435100,1.67143505859375,13.292728424072266,3.551547050476074,0.6586244106292725
1772533159983365600,1.68136572265625,13.412368774414062,4.628915309906006,3.211168050765991
1772533159993319400,1.6913193359375,15.480964660644531,5.663212776184082,6.567699909210205
1772533160003252200,1.701252197265625,20.374286651611328,6.678368091583252,8.363512992858887
1772533160013184500,1.7111845703125,26.091936111450195,7.463811874389648,6.4289164543151855
1772533160023117300,1.721117431640625,28.768308639526367,6.515655994415283,1.999801516532898
1772533160033047300,1.73104736328125,26.551359176635742,3.8386857509613037,-0.44745782017707825
1772533160042979800,1.740979736328125,22.634904861450195,2.3736801147460938,0.09870393574237823
1772533160052918300,1.750918212890625,20.120647430419922,3.2691938877105713,2.444866418838501
1772533160062851300,1.760851318359375,19.680368423461914,4.8777689933776855,4.786243438720703
1772533160082710800,1.780710693359375,21.892532348632812,6.893722057342529,5.270191669464111
1772533160092654000,1.790654052734375,22.548166275024414,6.845865726470947,4.19282341003418
1772533160102587600,1.800587646484375,22.855045318603516,6.597012042999268,3.641875982284546
1772533160112516400,1.810516357421875,21.964317321777344,6.209374904632568,3.920041799545288
1772533160122449400,1.820449462890625,19.871793746948242,5.5962138175964355,4.020540237426758
1772533160132369700,1.83036962890625,16.979469299316406,5.055436134338379,3.460021495819092
1772533160142301400,1.840301513671875,13.522439002990723,4.8299126625061035,2.7846474647521973
1772533160152237600,1.850237548828125,9.610174179077148,4.815555572509766,2.6362924575805664
1772533160162169900,1.860169921875,5.7792649269104,4.423132419586182,2.7080769538879395
1772533160182034700,1.88003466796875,1.6468602418899536,1.0043872594833374,2.736790895462036
1772533160191978000,1.88997802734375,3.8781673908233643,-1.667797327041626,2.765504837036133
1772533160201911600,1.89991162109375,7.163512706756592,-3.5641093254089355,1.7982062101364136
1772533160211840800,1.9098408203125,8.63330364227295,-4.459623336791992,0.44327038526535034
1772533160231672000,1.929672119140625,5.995217323303223,-5.546562671661377,0.11306086927652359
1772533160241601500,1.9396015625,5.13320255279541,-4.36809778213501,-0.41874396800994873
1772533160251535600,1.94953564453125,3.768097400665283,-3.5545380115509033,0.08434699475765228
1772533160261465600,1.959465576171875,1.7186448574066162,-3.4444682598114014,0.8267202377319336
1772533160271436300,1.969436279296875,0.1866401731967926,-3.434896945953369,0.9942178130149841
1772533160281370400,1.979370361328125,-0.7615157961845398,-3.0370900630950928,0.5198407173156738
1772533160291301400,1.98930126953125,-1.934597134590149,-2.788236618041992,0.046061836183071136
1772533160301235200,1.999235107421875,-2.988037347793579,-2.826521635055542,-0.4139583110809326
1772533160311130000,2.009130126953125,-3.4959139823913574,-2.682952404022217,-0.8207381963729858
1772533160321060000,2.01906005859375,-3.428914785385132,-2.386242389678955,-1.275374412536621
1772533160330993000,2.028992919921875,-2.940180778503418,-1.954936146736145,-1.9124635457992554
1772533160340923100,2.038923095703125,-2.3222343921661377,-1.337587833404541,-2.300100803375244
1772533160350895900,2.048895751953125,-1.7479569911956787,-0.8679963946342468,-1.6923238039016724
1772533160360830500,2.05883056640625,-1.5756736993789673,0.0849452018737793,-0.7776673436164856
1772533160370726100,2.06872607421875,-1.566102385520935,1.3010972738265991,-0.6197410821914673
1772533160380656600,2.07865673828125,-1.1635099649429321,1.5978072881698608,-0.2847459018230438
1772533160390590700,2.0885908203125,-0.6801598072052002,1.3298112154006958,-0.03529413416981697
1772533160400521700,2.098521728515625,0.2919243574142456,0.8560323119163513,-0.36610186100006104
1772533160410457000,2.10845703125,1.9010975360870361,0.12801600992679596,-1.093519926071167
1772533160420388400,2.118388427734375,3.7154552936553955,-0.5473581552505493,-1.6061822175979614
1772533160430350300,2.128350341796875,4.151547431945801,-0.4372883439064026,-1.0456634759902954
1772533160440285000,2.138284912109375,2.671586513519287,0.6592226624488831,0.8554341197013855
1772533160450204000,2.148203857421875,0.9385846853256226,2.7182464599609375,3.704089403152466
1772533160460136700,2.15813671875,-0.17228323221206665,4.442275047302246,4.11625337600708
1772533160470073600,2.168073486328125,0.4546363055706024,3.762115478515625,1.1665010452270508
1772533160480007000,2.1780068359375,2.8971099853515625,1.5738791227340698,-1.6396816968917847
1772533160489943300,2.187943359375,6.038288116455078,0.36729827523231506,-2.726621389389038
1772533160499876900,2.197876953125,8.666803359985352,0.8512466549873352,-2.9898319244384766
1772533160509802500,2.207802490234375,9.768099784851074,2.311466693878174,-2.8223342895507812
1772533160519735300,2.2177353515625,9.92124080657959,3.5850465297698975,-2.103889226913452
1772533160529674000,2.227674072265625,10.811968803405762,4.159922122955322,-1.2705888748168945
1772533160539607300,2.237607177734375,13.919647216796875,3.8865420818328857,0.04127619042992592
1772533160549526800,2.24752685546875,18.751354217529297,3.1304101943969727,1.2526426315307617
1772533160559458600,2.25745849609375,25.402204513549805,3.297907829284668,1.7216359376907349
1772533160569379600,2.267379638671875,31.263423919677734,4.073780536651611,2.6362924575805664
1772533160579310600,2.277310546875,33.667015075683594,3.809971809387207,4.594817638397217
1772533160589258200,2.28725830078125,32.30250930786133,2.3736801147460938,5.150550842285156
1772533160599190800,2.297190673828125,29.89413070678711,1.8376877307891846,4.312464714050293
1772533160609124600,2.30712451171875,29.180471420288086,2.344966173171997,3.9487555027008057
1772533160619057400,2.317057373046875,29.228328704833984,2.6608188152313232,3.8189449310302734
1772533160628999200,2.326999267578125,28.816164016723633,2.905484914779663,3.2159535884857178
1772533160638932700,2.3369326171875,27.399015426635742,3.685544967651367,2.3204398155212402
1772533160648853200,2.346853271484375,25.086353302001953,4.8538408279418945,1.8849459886550903
1772533160658785500,2.35678564453125,22.423738479614258,5.792425632476807,2.3635106086730957
1772533160668714500,2.366714599609375,20.393428802490234,6.214160442352295,3.3547372817993164
1772533160678646300,2.376646240234375,18.9379940032959,6.0466628074646,3.8811583518981934
1772533160688580600,2.38658056640625,17.66441535949707,5.2181477546691895,3.9535412788391113
1772533160698512600,2.3965126953125,16.725830078125,4.11206579208374,3.570091485977173
1772533160708450600,2.406450439453125,15.739389419555664,2.9772696495056152,2.8809585571289062
1772533160718383400,2.41638330078125,14.350954055786133,2.076970100402832,2.191227436065674
1772533160728322000,2.426322021484375,12.291930198669434,1.516451358795166,2.0476579666137695
1772533160738255400,2.43625537109375,9.763314247131348,1.0761719942092896,2.6362924575805664
1772533160748176100,2.446176025390625,7.603792190551758,0.4773681163787842,2.8516464233398438
1772533160758108200,2.456108154296875,5.927619934082031,-0.4325026869773865,2.765504837036133
1772533160768046800,2.466046875,5.027918815612793,-1.31365966796875,2.712862730026245
1772533160777979600,2.475979736328125,5.659623622894287,-2.400599241256714,2.1194427013397217
1772533160787881200,2.485881103515625,6.119643688201904,-3.425325632095337,1.171286702156067
1772533160797811000,2.49581103515625,5.736194133758545,-4.076173305511475,0.4815555512905121
1772533160807764200,2.50576416015625,4.639683246612549,-4.253242015838623,0.1944168359041214
1772533160817696300,2.5156962890625,3.2033913135528564,-3.9948174953460693,0.23748764395713806
1772533160827642600,2.525642578125,1.3549357652664185,-3.3672995567321777,0.5341976284980774
1772533160837576000,2.535575927734375,-0.6131607890129089,-2.6877379417419434,0.9990034699440002
1772533160847499000,2.5454990234375,-2.586043119430542,-1.9836499691009521,1.353141188621521
1772533160857431300,2.555431396484375,-4.314259052276611,-1.4811571836471558,1.3004990816116333
1772533160867345200,2.56534521484375,-5.540580749511719,-1.236491084098816,0.9702895879745483
1772533160877275600,2.575275634765625,-5.636293888092041,-1.150349497795105,0.3475574851036072
1772533160887222800,2.585222900390625,-4.477569580078125,-1.174277663230896,-0.5718846321105957
1772533160897155000,2.595155029296875,-2.4951157569885254,-1.0259226560592651,-1.6253247261047363
1772533160907089400,2.60508935546875,-0.6370890140533447,-0.7004988193511963,-2.583052158355713
1772533160917022000,2.61502197265625,0.641276478767395,-0.4372883439064026,-2.908475875854492
1772533160926958000,2.6249580078125,1.4841482639312744,-0.1543370634317398,-2.3533411026000977
1772533160936891000,2.634890869140625,1.7569299936294556,0.2667997181415558,-1.414756417274475
1772533160946826200,2.644826171875,1.2735798358917236,0.745364248752594,-0.45224347710609436
1772533160956759300,2.65475927734375,0.607776939868927,0.9996016621589661,0.4289134442806244
1772533160966685200,2.664685302734375,0.3924229145050049,1.2005987167358398,0.9702895879745483
1772533160976617700,2.67461767578125,0.9625129103660583,1.2867404222488403,1.1234302520751953
1772533160986545700,2.684545654296875,2.5232315063476562,1.0378868579864502,0.5485545992851257
1772533160996477700,2.694477783203125,4.0079779624938965,0.5970092415809631,-0.42352959513664246
1772533161006418700,2.704418701171875,4.701896667480469,0.20458634197711945,-1.1461620330810547
1772533161016351500,2.7143515625,4.898108005523682,-0.06340979784727097,-1.347757339477539
1772533161026284500,2.724284423828125,5.042275428771973,-0.10169496387243271,-0.9978070259094238
1772533161036217300,2.73421728515625,5.1427741050720215,0.24287149310112,-0.41874396800994873
1772533161046142200,2.74414208984375,5.511268615722656,0.8991031050682068,-0.24586252868175507
1772533161056074200,2.75407421875,6.019145488739014,1.5547364950180054,-0.5718846321105957
1772533161066007300,2.76400732421875,6.2297139167785645,2.4837498664855957,-0.7058826684951782
1772533161075939300,2.773939208984375,6.531209468841553,3.920639991760254,-0.4953143000602722
1772533161085886000,2.783885986328125,7.790432453155518,5.849853038787842,-0.605384111404419
1772533161095819500,2.793819580078125,10.816754341125488,7.124031066894531,-0.8303094506263733
1772533161105736700,2.80373681640625,15.9834566116333,6.2668023109436035,-0.10707881301641464
1772533161115668700,2.813668701171875,23.017757415771484,4.207778453826904,1.6019947528839111
1772533161125606700,2.823606689453125,31.454849243164062,3.360121250152588,3.3164522647857666
1772533161135539200,2.833539306640625,40.8640251159668,4.983651161193848,2.2199411392211914
1772533161145469700,2.8434697265625,44.51308059692383,5.103292465209961,0.6251249313354492
1772533161155402000,2.853402099609375,40.691741943359375,2.1200408935546875,1.3914263248443604
1772533161165315600,2.863315673828125,34.72523880004883,1.4781662225723267,3.603590965270996
1772533161175246000,2.87324609375,28.610382080078125,2.66560435295105,6.175277233123779
1772533161185199000,2.88319921875,25.22035026550293,3.3074791431427,6.223133563995361
1772533161195131600,2.893131591796875,25.3830623626709,2.9150562286376953,2.138585329055786
1772533161205069800,2.90306982421875,25.660629272460938,1.7988044023513794,-2.1708884239196777
1772533161215003100,2.913003173828125,24.683759689331055,1.358525037765503,-3.4402806758880615
1772533161224931000,2.92293115234375,22.883758544921875,1.856830358505249,-2.1948165893554688
1772533161234863600,2.932863525390625,20.614166259765625,2.210968017578125,-0.07836493849754333
1772533161244790000,2.9427900390625,18.540786743164062,2.3736801147460938,1.8370895385742188
1772533161254722000,2.95272216796875,16.275381088256836,2.823530673980713,3.014956474304199
1772533161264655400,2.9626552734375,13.14377498626709,3.111267566680908,3.2063822746276855
1772533161274587600,2.972587646484375,9.514460563659668,2.723032236099243,2.397010087966919
1772533161284532000,2.982531982421875,5.976074695587158,1.8376877307891846,1.01814603805542
1772533161294465500,2.992465576171875,3.4809587001800537,0.41515472531318665,0.5916253924369812
1772533161304383700,3.0023837890625,3.6532418727874756,-1.3758729696273804,1.0372886657714844
1772533161314315800,3.012315673828125,5.961119174957275,-2.9653055667877197,0.5581258535385132
1772533161324250600,3.022250732421875,7.05344295501709,-4.0426740646362305,-0.576670229434967
1772533161334183000,3.032182861328125,5.683551788330078,-4.507479667663574,-0.6101697683334351
1772533161344116000,3.042115966796875,3.2512478828430176,-3.789034605026245,0.5150550603866577
1772533161354048300,3.05204833984375,0.9146564602851868,-2.280359983444214,1.6019947528839111
1772533161363955500,3.06195556640625,-1.389033555984497,-1.2891331911087036,1.9423737525939941
1772533161373885200,3.07188525390625,-3.8117663860321045,-0.7674978375434875,1.6354942321777344
1772533161383852500,3.0818525390625,-6.100501537322998,-0.39421752095222473,1.4344971179962158
1772533161393786000,3.0917861328125,-7.867600917816162,-0.26979073882102966,1.6115660667419434
1772533161403715600,3.101715576171875,-8.633902549743652,-0.29850462079048157,1.4297115802764893
1772533161413649000,3.11164892578125,-8.542376518249512,-0.3320041298866272,0.5533402562141418
1772533161423569000,3.12156884765625,-7.776673793792725,-0.5138586759567261,-0.6867401003837585
1772533161433501000,3.1315009765625,-6.406782627105713,-0.8105686902999878,-1.8741782903671265
1772533161443413500,3.14141357421875,-4.965705394744873,-0.48514479398727417,-2.5495524406433105
1772533161453343500,3.151343505859375,-3.902693748474121,-0.24047867953777313,-2.42512583732605
1772533161463281700,3.16128173828125,-3.3613176345825195,-0.32243284583091736,-1.4673985242843628
1772533161473212400,3.17121240234375,-2.916252613067627,-0.18783657252788544,0.13220344483852386
1772533161483178800,3.1811787109375,-1.9776679277420044,0.3194418251514435,1.8849459886550903
1772533161493113000,3.191113037109375,-0.12442677468061447,0.7262216806411743,3.115455150604248
1772533161503044400,3.20104443359375,2.063809633255005,0.6352944374084473,3.397808074951172
1772533161512978400,3.210978515625,4.089334011077881,0.008374879136681557,2.9001009464263916
1772533161522873000,3.220873046875,5.44426965713501,-0.6047859191894531,1.5493526458740234
1772533161532803300,3.23080322265625,5.980860233306885,-0.8967102766036987,-0.01136590726673603
1772533161542771700,3.240771728515625,6.014359951019287,-1.0163514614105225,-1.031306505203247
1772533161552705800,3.250705810546875,5.487340450286865,-1.0354939699172974,-0.9786644577980042
1772533161562602800,3.260602783203125,4.543970108032227,-0.753140926361084,0.4815555512905121
1772533161572533000,3.270532958984375,4.012763500213623,-0.1495514214038849,2.076371908187866
1772533161582467300,3.28046728515625,4.275974273681641,0.36729827523231506,2.5405795574188232
1772533161592397800,3.290397705078125,4.72582483291626,-0.010767702013254166,1.8658034801483154
1772533161602371600,3.30037158203125,5.530411243438721,-0.786640465259552,0.357128769159317
1772533161612306700,3.310306640625,7.058228492736816,-0.8153542876243591,-0.4905286431312561
1772533161622224100,3.32022412109375,9.81117057800293,0.6017948985099792,0.9176474809646606
1772533161632157400,3.330157470703125,12.966706275939941,3.7669010162353516,4.647459983825684
1772533161642083600,3.34008349609375,15.121442794799805,8.737391471862793,7.200003147125244
1772533161652016000,3.35001611328125,17.08953857421875,12.189637184143066,7.10429048538208
1772533161661944800,3.35994482421875,19.694725036621094,10.64806079864502,6.017350673675537
1772533161671877000,3.369877197265625,23.731416702270508,5.1080780029296875,3.469592809677124
1772533161681815300,3.379815185546875,28.94597625732422,-0.7244270443916321,-1.0791629552841187
1772533161691748000,3.389748046875,36.860836029052734,-2.4532413482666016,-6.140581130981445
1772533161701686300,3.399686279296875,34.17489242553711,-0.07776673883199692,-6.102295875549316
1772533161711619600,3.40961962890625,20.513071060180664,1.2867404222488403,-1.2562319040298462
1772533161721561900,3.419561767578125,11.372488021850586,-1.0067801475524902,-0.6867401003837585
1772533161731496000,3.429495849609375,12.53599739074707,-3.9326040744781494,-3.7944185733795166
1772533161741409300,3.4394091796875,18.521644592285156,-4.195814609527588,-4.862215518951416
1772533161751341300,3.44934130859375,22.816761016845703,-4.861617565155029,-4.167698860168457
1772533161761273300,3.4592734375,26.278575897216797,-6.748358249664307,-5.149354457855225
1772533161771205400,3.469205322265625,29.93720245361328,-7.241279602050781,-6.9690961837768555
1772533161781137200,3.47913720703125,31.775487899780273,-5.953342914581299,-6.595815658569336
1772533161791069200,3.489069091796875,30.607192993164062,-3.9182469844818115,-4.599005222320557
1772533161801003300,3.499003173828125,27.308088302612305,-2.117648124694824,-2.410768747329712
1772533161810935600,3.508935546875,23.707489013671875,-0.7818548083305359,-0.33738797903060913
1772533161820864500,3.518864501953125,20.422143936157227,0.12323036789894104,0.898504912853241
1772533161830796500,3.528796630859375,17.041683197021484,0.8656035661697388,1.1521440744400024
1772533161840734200,3.538734130859375,13.551153182983398,1.5547364950180054,0.9655039310455322
1772533161850666800,3.548666748046875,10.223334312438965,1.9621145725250244,0.7256234884262085
1772533161860596000,3.558595947265625,8.738588333129883,1.3920245170593262,0.37148571014404297
1772533161870528000,3.568528076171875,11.11346435546875,-0.25004997849464417,0.050847481936216354
1772533161880458500,3.57845849609375,13.551153182983398,-1.5194423198699951,-0.3756731450557709
1772533161890390500,3.588390625,13.177274703979492,-1.9932212829589844,-0.28953152894973755
1772533161900323000,3.598322998046875,9.949954986572266,-2.007578134536743,0.5676971673965454
1772533161910255000,3.608255126953125,5.157131195068359,-1.667797327041626,2.0141584873199463
1772533161920184000,3.61818408203125,0.4163511395454407,-1.179063320159912,3.345165967941284
1772533161930115800,3.62811572265625,-3.9984066486358643,-0.7483552694320679,3.814159393310547
1772533161940057600,3.6380576171875,-7.398009300231934,-0.355932354927063,2.507079839706421
1772533161949990100,3.647990234375,-9.126823425292969,-0.5234299302101135,0.23270200192928314
1772533161959929600,3.6579296875,-9.701699256896973,-1.179063320159912,-0.9930213689804077
1772533161969863200,3.66786328125,-9.46181869506836,-1.8592232465744019,-1.9028922319412231
1772533161979784000,3.677783935546875,-7.977670669555664,-2.1367905139923096,-2.530410051345825
1772533161989716200,3.68771630859375,-6.565307140350342,-1.8831514120101929,-2.630908489227295
1772533161999647000,3.69764697265625,-5.665007591247559,-1.179063320159912,-1.831107497215271
1772533162009579000,3.7075791015625,-4.501497745513916,-0.6478567123413086,-0.4139583110809326
1772533162019510300,3.71751025390625,-2.466402053833008,-0.3080759048461914,0.9415757060050964
1772533162029442300,3.7274423828125,0.14835500717163086,-0.04426721855998039,2.272583246231079
1772533162039374800,3.737374755859375,2.7864420413970947,0.07537391036748886,3.0628130435943604
1772533162049307000,3.747306884765625,5.0087761878967285,-0.29371899366378784,2.5836503505706787
1772533162059253000,3.7572529296875,6.358926296234131,-0.9397810697555542,1.5541383028030396
1772533162069186600,3.7671865234375,7.039085865020752,-1.2221341133117676,0.6777670383453369
1772533162079104500,3.7771044921875,6.890132904052734,-0.9254241585731506,0.39541393518447876
1772533162089036500,3.78703662109375,5.6931233406066895,-0.31764721870422363,0.7304090857505798
1772533162098967300,3.79696728515625,4.046263217926025,0.2955136001110077,1.4632110595703125
1772533162108899000,3.806899169921875,2.6907291412353516,0.8512466549873352,1.82273268699646
1772533162118833700,3.816833740234375,1.8628123998641968,1.1575279235839844,2.1098713874816895
1772533162128765700,3.826765625,1.6660027503967285,1.0378868579864502,2.4017956256866455
1772533162138700000,3.836699951171875,2.3988046646118164,0.23808585107326508,2.3156540393829346
1772533162148632300,3.84663232421875,3.8883368968963623,-0.844068169593811,1.5158531665802002
1772533162158565400,3.8565654296875,5.415555953979492,-1.6342978477478027,0.6681957244873047
1772533162168497700,3.86649755859375,6.234499454498291,-1.8352949619293213,0.6394818425178528
1772533162178429200,3.87642919921875,6.08614444732666,-1.064207911491394,1.7982062101364136
1772533162188361500,3.886361572265625,5.30548620223999,0.4055834412574768,3.326023578643799
1772533162198297600,3.896297607421875,4.371686935424805,2.201396942138672,4.049253940582275
1772533162208230400,3.90623046875,3.955335855484009,3.666402578353882,3.1680972576141357
1772533162218156300,3.91615625,4.453042984008789,5.237290382385254,1.6498512029647827
1772533162228088000,3.926088134765625,6.215356826782227,6.908079147338867,0.8554341197013855
1772533162238025500,3.936025390625,9.126823425292969,6.6352972984313965,1.5206388235092163
1772533162247958000,3.9459580078125,13.594223976135254,4.016352653503418,2.454437732696533
1772533162257884700,3.955884765625,22.40459632873535,1.7653049230575562,0.649053156375885
1772533162267816700,3.965816650390625,35.362327575683594,2.5842485427856445,-3.741776466369629
1772533162277779200,3.975779296875,39.944583892822266,0.8943174481391907,-2.348555326461792
1772533162287714000,3.985714111328125,36.128631591796875,-1.4189438819885254,1.9184455871582031
1772533162297627100,3.995627197265625,32.98207092285156,-0.3367897868156433,2.6937201023101807
1772533162307560000,4.005559814453125,32.87199783325195,-0.45164528489112854,1.511067509651184
1772533162317478100,4.01547802734375,33.633514404296875,-1.7204394340515137,1.8945173025131226
1772533162327409700,4.02540966796875,32.03451156616211,-1.7922241687774658,0.18963119387626648
1772533162337350100,4.03535009765625,28.596025466918945,-2.352742910385132,-2.2713868618011475
1772533162347282200,4.0452822265625,25.934009552001953,-2.0267207622528076,-1.275374412536621
1772533162357226500,4.0552265625,25.052852630615234,-0.19740787148475647,1.750349760055542
1772533162367160000,4.06516015625,23.66920280456543,1.0618150234222412,3.7423746585845947
1772533162377047600,4.075047607421875,21.355941772460938,1.7748762369155884,3.397808074951172
1772533162396948700,4.09494873046875,16.37647819519043,2.407179594039917,2.7942185401916504
1772533162406885000,4.104885009765625,14.015360832214355,2.2157537937164307,3.1824541091918945
1772533162416800800,4.11480078125,12.166905403137207,1.119242787361145,2.8516464233398438
1772533162426735400,4.1247353515625,11.92762279510498,-0.8392825126647949,1.750349760055542
1772533162436667000,4.1346669921875,12.5742826461792,-2.5776681900024414,0.28534409403800964
1772533162446601000,4.14460107421875,11.760125160217285,-3.5784661769866943,-0.7585247755050659
1772533162456543700,4.154543701171875,9.399605751037598,-3.889533281326294,-1.1270195245742798
1772533162466478600,4.164478515625,6.626922130584717,-3.726821184158325,-0.9260223507881165
1772533162476401000,4.17440087890625,3.686741590499878,-3.4923245906829834,-0.6580262184143066
1772533162486334500,4.18433447265625,0.8141579031944275,-3.022733211517334,-0.6245267391204834
1772533162496238800,4.19423876953125,-1.9680966138839722,-2.3575284481048584,-0.8973084688186646
1772533162506169600,4.204169677734375,-4.654638290405273,-1.643869161605835,-1.1318050622940063
1772533162516132600,4.214132568359375,-6.541378974914551,-1.212562918663025,-1.031306505203247
1772533162526066700,4.224066650390625,-7.043871879577637,-1.0019944906234741,-0.8733802437782288
1772533162535996000,4.233995849609375,-7.139584541320801,-0.7674978375434875,-0.5144568681716919
1772533162545929200,4.24392919921875,-7.585247993469238,-0.4660021960735321,0.23270200192928314
1772533162555852000,4.25385205078125,-7.944170951843262,-0.2069791555404663,0.6299105882644653
1772533162565784600,4.26378466796875,-7.657032489776611,-0.1495514214038849,0.4576273262500763
1772533162575720400,4.273720458984375,-6.454638957977295,-0.2309073805809021,0.14656038582324982
1772533162585653200,4.2836533203125,-4.491926193237305,-0.32243284583091736,-0.030508488416671753
1772533162595582000,4.29358203125,-2.710469961166382,-0.28893333673477173,0.046061836183071136
1772533162605514500,4.303514404296875,-1.2640085220336914,-0.3846462368965149,0.34277185797691345
1772533162615449000,4.313448974609375,0.22971096634864807,-0.7722834944725037,0.5054838061332703
1772533162625381600,4.323381591796875,1.709073543548584,-1.179063320159912,0.8219345808029175
1772533162635323000,4.333322998046875,3.0933215618133545,-1.1599208116531372,1.9854445457458496
1772533162645256400,4.34325634765625,4.4721856117248535,-0.6574280261993408,3.0580272674560547
1772533162655162400,4.353162353515625,5.348556995391846,-0.2841476798057556,3.2829527854919434
1772533162665092900,4.3630927734375,5.995217323303223,-0.39900317788124084,2.665006160736084
1772533162675021600,4.373021484375,6.545566558837891,-0.6957131624221802,1.5589239597320557
1772533162684952000,4.3829521484375,6.512066841125488,-0.8297112584114075,0.9702895879745483
1772533162694896000,4.392896240234375,5.908477306365967,-0.7627122402191162,0.8841479420661926
1772533162704828200,4.402828125,4.989633560180664,-0.4468596279621124,1.1473584175109863
1772533162714751200,4.412751220703125,3.9601213932037354,0.037088751792907715,1.7886348962783813
1772533162724682500,4.4226826171875,3.2751760482788086,0.5730810165405273,2.665006160736084
1772533162734621400,4.432621337890625,3.2895328998565674,1.1383854150772095,3.187239646911621
1772533162744553200,4.44255322265625,4.208974838256836,1.5068800449371338,3.373879909515381
1772533162754483500,4.4524833984375,5.640480995178223,1.8999011516571045,3.469592809677124
1772533162764415200,4.462415283203125,6.445067882537842,2.6464617252349854,3.4265220165252686
1772533162774380800,4.472380859375,6.076572895050049,3.6089746952056885,2.8420751094818115
1772533162784316000,4.48231591796875,4.797609329223633,4.762913703918457,1.851446509361267
1772533162794209800,4.492209716796875,3.964907169342041,6.118447303771973,1.659422516822815
1772533162804140800,4.502140869140625,6.124429702758789,7.363313674926758,2.4496521949768066
1772533162814093000,4.512093017578125,11.151749610900879,7.128817081451416,4.049253940582275
1772533162824026400,4.5220263671875,18.41097640991211,5.261219024658203,5.385047435760498
1772533162833976000,4.53197607421875,29.458040237426758,4.4374895095825195,2.760719060897827
1772533162843911000,4.541910888671875,39.17349624633789,4.394418716430664,-1.4051851034164429
1772533162853828400,4.551828369140625,39.57130432128906,-0.08733802288770676,0.8506484627723694
1772533162863761400,4.561761474609375,36.41098403930664,-1.7682958841323853,3.775874137878418
1772533162873693000,4.57169287109375,34.72523880004883,-0.7292127013206482,3.4648072719573975
1772533162883625700,4.581625732421875,34.37110137939453,-2.65423846244812,0.7495517134666443
1772533162893556000,4.591555908203125,33.58565902709961,-5.019543647766113,-1.2610175609588623
1772533162903488500,4.601488525390625,31.895130157470703,-5.575276851654053,-1.2562319040298462
1772533162913438000,4.61143798828125,29.065616607666016,-4.770689964294434,-0.4666004180908203
1772533162923372300,4.621372314453125,25.6175594329834,-3.2620155811309814,1.7742780447006226
1772533162933288200,4.6312880859375,22.208385467529297,-1.6199408769607544,2.871387243270874
1772533162943220700,4.641220703125,18.679569244384766,-0.6957131624221802,2.076371908187866
1772533162953147000,4.65114697265625,15.90688705444336,0.15194423496723175,0.8745766878128052
1772533162963078700,4.66107861328125,13.718650817871094,1.3058829307556152,0.5581258535385132
1772533162973053700,4.6710537109375,11.4921293258667,1.9716858863830566,0.9655039310455322
1772533162982989800,4.68098974609375,9.748957633972168,1.755733609199524,1.085145115852356
1772533162992878000,4.690878173828125,9.844670295715332,0.47258245944976807,-0.2554338276386261
1772533163002809600,4.7008095703125,12.061620712280273,-1.8975083827972412,-1.8885352611541748
1772533163012740900,4.710740966796875,14.528022766113281,-3.6167514324188232,-1.9316060543060303
1772533163022672100,4.720672119140625,14.6668062210083,-3.4061830043792725,-0.5240281820297241
1772533163032612400,4.7306123046875,11.879766464233398,-2.4580271244049072,1.439282774925232
1772533163042544600,4.740544677734375,7.8765740394592285,-1.7874385118484497,2.531008243560791
1772533163052476200,4.75047607421875,4.0319061279296875,-1.4428720474243164,1.9663020372390747
1772533163062408200,4.760408203125,0.48813581466674805,-1.2652050256729126,0.6203392744064331
1772533163072403500,4.770403564453125,-2.7535407543182373,-1.0450652837753296,-0.34695929288864136
1772533163082342000,4.780341796875,-5.933003902435303,-0.8679963946342468,-0.8781659007072449
1772533163092206000,4.7902060546875,-8.508877754211426,-0.8344969153404236,-1.2370892763137817
1772533163102137000,4.80013720703125,-9.993623733520508,-0.8009973764419556,-1.831107497215271
1772533163112073500,4.810073486328125,-9.552745819091797,-0.633499801158905,-2.6500511169433594
1772533163122005000,4.8200048828125,-8.571090698242188,-2.304288148880005,-2.7314071655273438
1772533163131933000,4.829932861328125,-7.058228492736816,-2.6015963554382324,-3.689134359359741
1772533163141864000,4.839864013671875,-4.405186653137207,-1.5337992906570435,-4.1629133224487305
1772533163151807000,4.849806884765625,-2.073380708694458,-0.8823533654212952,-3.521636724472046
1772533163171660300,4.869660400390625,-0.5557330846786499,-0.8871390223503113,-0.3900300860404968
1772533163181591600,4.879591552734375,-1.0390832424163818,-0.31764721870422363,2.0237298011779785
1772533163191501300,4.889501220703125,-0.3978067636489868,0.5060819983482361,3.5126636028289795
1772533163201430300,4.89943017578125,1.197009563446045,0.534795880317688,3.005385160446167
1772533163211387400,4.909387451171875,2.877967357635498,-0.32721850275993347,1.3004990816116333
1772533163221319400,4.9193193359375,3.8159539699554443,-1.2269197702407837,-0.275174617767334
1772533163231253000,4.9292529296875,4.118047714233398,-1.5433706045150757,-1.184447169303894
1772533163241185000,4.93918505859375,3.7872400283813477,-1.2029916048049927,-1.2418749332427979
1772533163251117000,4.949116943359375,2.4370899200439453,-0.6287141442298889,-0.45224347710609436
1772533163261049000,4.959049072265625,0.4977070987224579,-0.058624155819416046,0.898504912853241
1772533163270984700,4.968984619140625,-0.9720842242240906,0.7166503667831421,2.4113669395446777
1772533163280917200,4.978917236328125,-0.9625129103660583,1.3489537239074707,2.9862427711486816
1772533163290852000,4.98885205078125,0.46899324655532837,1.095314621925354,2.2773690223693848
1772533163300785000,4.998784912109375,2.8827531337738037,0.17108681797981262,0.8267202377319336
1772533163310719200,5.00871923828125,5.24327278137207,-0.3080759048461914,-0.15493527054786682
1772533163320652000,5.018652099609375,6.952346324920654,0.39601215720176697,0.15134602785110474
1772533163330581800,5.028581787109375,7.4841508865356445,1.828116536140442,1.8323038816452026
1772533163340514300,5.038514404296875,7.287939548492432,3.47019100189209,3.6370904445648193
1772533163350441500,5.04844140625,6.7417778968811035,5.1320061683654785,3.8333017826080322
1772533163360373500,5.05837353515625,6.119643688201904,6.271588325500488,2.0811574459075928
1772533163370309600,5.0683095703125,7.17786979675293,6.932007312774658,-0.11186445504426956
1772533163380242000,5.078241943359375,10.3621187210083,6.654439926147461,-0.28953152894973755
1772533163400087000,5.098087158203125,29.941987991333008,6.932007312774658,3.139383316040039
1772533163419951900,5.117951904296875,42.698123931884766,3.331407308578491,5.576473236083984
1772533163429912300,5.127912353515625,41.907894134521484,0.0849452018737793,6.620342254638672
1772533163439847000,5.137846923828125,39.85365676879883,-0.8057830333709717,3.3164522647857666
1772533163449767000,5.147766845703125,36.0849609375,-1.9645073413848877,-1.898106575012207
1772533163459700200,5.1577001953125,33.23152160644531,-2.682952404022217,-4.541577339172363
1772533163469639200,5.16763916015625,31.57927703857422,-1.9166508913040161,-3.1764719486236572
1772533163479573000,5.177572998046875,29.185256958007812,-0.7962117195129395,0.6921239495277405
1772533163489502500,5.18750244140625,26.168506622314453,0.6831508874893188,3.445664644241333
1772533163499435800,5.197435791015625,21.949960708618164,2.3497519493103027,4.700101852416992
1772533163509361000,5.20736083984375,17.17568016052246,3.809971809387207,5.102694511413574
1772533163519293400,5.21729345703125,12.942777633666992,5.1080780029296875,4.858027935028076
1772533163529227800,5.227227783203125,10.18026351928711,5.648856163024902,4.044468402862549
1772533163539160300,5.237160400390625,10.754541397094727,4.423132419586182,1.7886348962783813
1772533163549091000,5.247091064453125,13.292728424072266,1.5930216312408447,-0.4713860750198364
1772533163559023600,5.257023681640625,14.618949890136719,-0.058624155819416046,-1.2035897970199585
1772533163568957200,5.266957275390625,13.967503547668457,-0.5138586759567261,-1.031306505203247
1772533163578890000,5.276889892578125,12.023335456848145,-1.0115658044815063,-0.5096712112426758
1772533163588820000,5.286820068359375,9.830313682556152,-1.31365966796875,0.18484555184841156
1772533163598752300,5.296752197265625,7.182655334472656,-1.212562918663025,1.0995019674301147
1772533163608683500,5.30668359375,4.0319061279296875,-1.1455638408660889,1.2957134246826172
1772533163618615800,5.31661572265625,1.043868899345398,-1.3567304611206055,0.4815555512905121
1772533163628562400,5.3265625,-1.6091731786727905,-1.5433706045150757,-0.7537391185760498
1772533163638496000,5.33649609375,-3.955335855484009,-1.5960127115249634,-1.80717933177948
1772533163648411400,5.346411376953125,-5.18105936050415,-1.9166508913040161,-2.520838737487793
1772533163658343400,5.356343505859375,-5.473581790924072,-2.1894326210021973,-2.8462624549865723
1772533163668276000,5.36627587890625,-6.134000778198242,-2.1990039348602295,-2.1373889446258545
1772533163678208000,5.3762080078125,-6.986443996429443,-1.8544375896453857,-0.8638089895248413
1772533163688144100,5.38614404296875,-7.206583499908447,-1.667797327041626,-0.1788634955883026
1772533163698076400,5.396076416015625,-6.358926296234131,-1.8496519327163696,-0.2267199456691742
1772533163708016000,5.40601611328125,-4.5684967041015625,-1.9884356260299683,-0.6963114142417908
1772533163717949400,5.415949462890625,-2.9832515716552734,-1.8592232465744019,-1.007378339767456
1772533163727873800,5.425873779296875,-2.0781664848327637,-1.6582261323928833,-0.5958128571510315
1772533163737806000,5.43580615234375,-1.7048860788345337,-1.4811571836471558,0.07956135272979736
1772533163747733200,5.445733154296875,-1.2352946996688843,-1.3471591472625732,0.5198407173156738
1772533163757665000,5.4556650390625,-0.4265206456184387,-1.179063320159912,1.0085747241973877
1772533163767590000,5.46558984375,0.7226324677467346,-1.0546365976333618,1.3866406679153442
1772533163777521000,5.47552099609375,1.9824535846710205,-1.0450652837753296,1.1808580160140991
1772533163787478000,5.48547802734375,2.8151557445526123,-0.8632107973098755,0.7980063557624817
1772533163797411600,5.49541162109375,3.2991042137145996,-0.5138586759567261,0.7016952633857727
1772533163807311600,5.5053115234375,3.452244758605957,-0.26979073882102966,0.8745766878128052
1772533163817241900,5.515241943359375,3.3613176345825195,0.061016976833343506,1.1904292106628418
1772533163827175200,5.525175048828125,3.1268210411071777,0.6305087804794312,1.7599210739135742
1772533163837106000,5.53510595703125,2.973680257797241,0.9804590940475464,2.191227436065674
1772533163847036700,5.54503662109375,3.3517463207244873,0.7214360237121582,1.812563180923462
1772533163856967200,5.55496728515625,4.074976921081543,0.20937198400497437,1.2382856607437134
1772533163866930400,5.564930419921875,4.874179840087891,0.09451649338006973,1.2239288091659546
1772533163876864300,5.5748642578125,5.6931233406066895,0.2667997181415558,1.7072789669036865
1772533163886768400,5.584768310546875,6.507281303405762,0.5970092415809631,2.4017956256866455
1772533163906633700,5.6046337890625,8.34138011932373,1.8616160154342651,3.201596736907959
1772533163916565000,5.61456494140625,9.136395454406738,2.982055187225342,2.215155601501465
1772533163926495000,5.624494873046875,10.462616920471191,4.217350006103516,0.8315058946609497
1772533163936426200,5.63442626953125,12.023335456848145,6.113661766052246,0.2183450609445572
1772533163946396200,5.644396240234375,10.993824005126953,7.41117000579834,1.444068431854248
1772533163956331300,5.654331298828125,9.289535522460938,6.687939167022705,4.355535507202148
1772533163966225400,5.664225341796875,17.439489364624023,5.577071189880371,2.334796667098999
1772533163976156400,5.674156494140625,28.922046661376953,0.6352944374084473,0.3284149169921875
1772533163986093600,5.684093505859375,33.99243927001953,-6.853642463684082,2.8277182579040527
1772533164005990700,5.70399072265625,36.85126495361328,-8.26121997833252,0.2183450609445572
1772533164015925800,5.71392578125,32.92942810058594,-7.461419105529785,1.0755738019943237
1772533164025844000,5.723843994140625,26.560930252075195,-5.244469165802002,0.9176474809646606
1772533164035777300,5.73377734375,20.321643829345703,-3.37687087059021,0.3332005441188812
1772533164045712000,5.7437119140625,16.07917022705078,-2.1415762901306152,0.1944168359041214
1772533164055645200,5.753645263671875,13.450654029846191,-0.32721850275993347,0.1417747437953949
1772533164065574000,5.763573974609375,10.926824569702148,1.669592022895813,0.9320043921470642
1772533164075507000,5.7735068359375,9.107681274414062,2.881556749343872,2.1960129737854004
1772533164085446000,5.78344580078125,9.05444049835205,3.250051259994507,2.8809585571289062
1772533164095379500,5.79337939453125,10.567901611328125,2.9246275424957275,2.957528829574585
1772533164105321200,5.8033212890625,13.26401424407959,1.852044701576233,2.7463622093200684
1772533164115255600,5.813255615234375,16.634902954101562,0.8943174481391907,2.2295124530792236
1772533164125162000,5.823161865234375,19.177276611328125,0.3433700501918793,2.105085611343384
1772533164135093500,5.833093505859375,19.733009338378906,0.02273181453347206,2.626721143722534
1772533164145030100,5.843030029296875,18.842281341552734,-0.11605189740657806,2.933600664138794
1772533164154962200,5.852962158203125,17.535202026367188,-0.35114672780036926,2.7463622093200684
1772533164164907000,5.862906982421875,15.849458694458008,-0.7483552694320679,2.2773690223693848
1772533164174840300,5.87284033203125,14.149358749389648,-1.1694921255111694,1.4679967164993286
1772533164184760000,5.882760009765625,12.473784446716309,-1.5433706045150757,0.706480860710144
1772533164194691800,5.89269189453125,11.281560897827148,-1.9166508913040161,0.06041877344250679
1772533164204635100,5.90263525390625,10.280762672424316,-1.97407865524292,-0.3756731450557709
1772533164214568200,5.912568115234375,9.160323143005371,-1.820937991142273,-0.6005984544754028
1772533164224490800,5.92249072265625,8.073383331298828,-1.5146567821502686,-0.6963114142417908
1772533164234422500,5.932422607421875,7.173084259033203,-1.1407781839370728,-0.20757736265659332
1772533164244349700,5.942349609375,6.449853420257568,-0.6526423692703247,0.5389832854270935
1772533164254281500,5.952281494140625,5.855835437774658,-0.13519448041915894,0.9176474809646606
1772533164264215600,5.962215576171875,5.080560684204102,0.17108681797981262,0.8889335989952087
1772533164274147300,5.972147216796875,3.94097900390625,0.3577269911766052,0.8458628058433533
1772533164284082200,5.982082275390625,2.925823926925659,0.5539384484291077,1.01814603805542
1772533164294014200,5.99201416015625,3.0215368270874023,0.50129634141922,1.0516455173492432
1772533164303943000,6.00194287109375,3.844667673110962,0.1950150430202484,1.0516455173492432
1772533164313874700,6.011874755859375,4.333401679992676,0.02751746028661728,1.6019947528839111
1772533164323815400,6.0218154296875,3.94097900390625,0.21415762603282928,2.4735803604125977
1772533164333748000,6.031748046875,2.7912275791168213,0.6735795736312866,3.239881753921509
1772533164343677700,6.041677734375,1.8963119983673096,1.119242787361145,3.7950167655944824
1772533164353610200,6.0516103515625,1.800000786781311,1.0139585733413696,3.5126636028289795
1772533164363516700,6.0615166015625,2.2408783435821533,0.30508488416671753,2.3922245502471924
1772533164373446400,6.0714462890625,2.8827531337738037,-0.4181457459926605,1.1521440744400024
1772533164383407900,6.081407958984375,3.169891834259033,-0.877567708492279,0.5581258535385132
1772533164393325300,6.0913251953125,2.700300455093384,-1.0737791061401367,0.44805604219436646
1772533164413191200,6.111191162109375,0.363709032535553,-0.6382854580879211,1.2335001230239868
1772533164423135000,6.121135009765625,-0.32602208852767944,-0.2841476798057556,0.989432156085968
1772533164433068800,6.13106884765625,-0.9290133714675903,-0.24047867953777313,-0.2847459018230438
1772533164443003000,6.1410029296875,-1.805384635925293,-0.39900317788124084,-1.8693926334381104
1772533164452936700,6.150936767578125,-2.307877540588379,-0.600000262260437,-2.7696921825408936
1772533164462876200,6.160876220703125,-2.049452543258667,-0.31764721870422363,-3.1477582454681396
1772533164472810500,6.170810546875,-0.9481559991836548,0.41994038224220276,-2.803191661834717
1772533164482727700,6.180727783203125,0.2584248483181,1.1335997581481934,-1.5343974828720093
1772533164492660500,6.190660400390625,1.6133606433868408,1.7653049230575562,0.1657029688358307
1772533164502555600,6.2005556640625,3.7776687145233154,2.493321180343628,1.4632110595703125
1772533164512484600,6.210484619140625,6.492924213409424,3.1064820289611816,2.1242282390594482
1772533164522464500,6.220464599609375,9.591031074523926,3.197409152984619,2.0141584873199463
1772533164532398600,6.230398681640625,13.321441650390625,3.3170504570007324,1.6211373805999756
1772533164542313000,6.24031298828125,17.29532241821289,4.432703971862793,2.272583246231079
1772533164552245000,6.250244873046875,20.3695011138916,5.648856163024902,4.781457901000977
1772533164562203100,6.260203125,22.96511459350586,4.906482696533203,6.950551509857178
1772533164572137700,6.2701376953125,26.584857940673828,1.688734531402588,5.643472194671631
1772533164582051600,6.280051513671875,31.545778274536133,-1.088136076927185,1.176072359085083
1772533164591984000,6.289984130859375,35.13261795043945,-2.012363910675049,-2.213959217071533
1772533164601921300,6.29992138671875,35.18047332763672,-1.8735800981521606,-2.96111798286438
1772533164611854300,6.309854248046875,31.947771072387695,-0.9541380405426025,-1.1174482107162476
1772533164621780700,6.31978076171875,27.317659378051758,0.2476571500301361,2.090728759765625
1772533164631713000,6.329713134765625,22.9364013671875,1.1910275220870972,4.2693939208984375
1772533164641654500,6.339654541015625,20.154146194458008,1.51166570186615,4.8675994873046875
1772533164651587800,6.349587890625,18.947566986083984,1.8951154947280884,5.227120876312256
1772533164661511700,6.35951171875,17.28096580505371,3.0346972942352295,5.566901683807373
1772533164671444000,6.36944384765625,14.69073486328125,4.490131855010986,5.408975601196289
1772533164681377000,6.379376953125,13.694722175598145,5.232504844665527,4.561318397521973
1772533164691309600,6.3893095703125,15.380465507507324,4.671986103057861,2.895315408706665
1772533164701204500,6.39920458984375,17.30967903137207,3.8530426025390625,1.1569297313690186
1772533164721110000,6.419110107421875,16.663616180419922,3.273979663848877,-0.672383189201355
1772533164731043600,6.429043701171875,14.992230415344238,2.4981069564819336,-1.673181176185608
1772533164740969000,6.438968994140625,11.961122512817383,1.852044701576233,-2.0895323753356934
1772533164750901500,6.448901611328125,8.590232849121094,1.6504493951797485,-2.022533416748047
1772533164760845600,6.458845458984375,5.760122299194336,1.51166570186615,-1.563111424446106
1772533164770779400,6.468779296875,3.8111681938171387,1.277169108390808,-0.39481574296951294
1772533164780698600,6.47869873046875,2.4945175647735596,0.9756734371185303,0.46719861030578613
1772533164790631000,6.488630859375,1.469791293144226,0.3194418251514435,0.07956135272979736
1772533164800565800,6.498565673828125,1.2065808773040771,-1.0737791061401367,-1.2275179624557495
1772533164810498300,6.508498291015625,1.1491531133651733,-2.448455810546875,-2.4634108543395996
1772533164820438500,6.5184384765625,0.8093722462654114,-3.1232316493988037,-2.9036903381347656
1772533164830371800,6.528371826171875,0.27756741642951965,-3.2333016395568848,-2.740978240966797
1772533164840275200,6.538275146484375,-0.17228323221206665,-3.2476584911346436,-2.2857437133789062
1772533164850205400,6.548205322265625,-0.8333004713058472,-3.305086374282837,-1.7593228816986084
1772533164870092800,6.5680927734375,-2.734398126602173,-2.874378204345703,-0.48095735907554626
1772533164880023000,6.57802294921875,-3.452843189239502,-2.2995026111602783,0.14656038582324982
1772533164889955600,6.58795556640625,-4.309473514556885,-1.7252250909805298,0.7208378314971924
1772533164899886000,6.597885986328125,-4.932205677032471,-1.1312068700790405,1.1665010452270508
1772533164909818400,6.607818359375,-4.831707000732422,-0.6191428303718567,0.9846464991569519
1772533164919750100,6.617750244140625,-4.036691665649414,-0.3607180118560791,0.6873382925987244
1772533164929682400,6.627682373046875,-2.8636105060577393,-0.21655045449733734,0.6825526356697083
1772533164939622400,6.637622314453125,-1.5326029062271118,0.13280165195465088,1.022931694984436
1772533164949555500,6.647555419921875,0.004785645287483931,0.5730810165405273,1.534995675086975
1772533164959494700,6.65749462890625,1.4171491861343384,0.8273184299468994,1.82273268699646
1772533164969428200,6.66742822265625,2.5088746547698975,0.8225327730178833,1.7694923877716064
1772533164979346200,6.67734619140625,3.614956855773926,0.5443671345710754,1.3722838163375854
1772533164989278200,6.6872783203125,4.878965377807617,0.3433700501918793,0.706480860710144
1772533164999209000,6.697208984375,5.616552829742432,0.43908295035362244,0.09870393574237823
1772533165009141000,6.70714111328125,5.6069817543029785,0.7692924737930298,-0.2027917206287384
1772533165019059500,6.7170595703125,5.233701229095459,1.4398809671401978,-0.15972091257572174
1772533165028990000,6.726989990234375,5.123631477355957,2.407179594039917,0.28534409403800964
1772533165038955000,6.736955078125,5.075775146484375,3.2213375568389893,0.8458628058433533
1772533165048889000,6.74688916015625,4.9704909324646,3.6711881160736084,1.1665010452270508
1772533165058785000,6.756784912109375,5.085346221923828,3.978067636489868,1.113858938217163
1772533165068715300,6.76671533203125,6.181857109069824,4.131208419799805,0.7639086246490479
1772533165078650000,6.776650146484375,9.068798065185547,3.9637107849121094,0.37148571014404297
1772533165088580900,6.786580810546875,13.938790321350098,3.360121250152588,0.23270200192928314
1772533165098515000,6.796514892578125,21.16451644897461,2.5124638080596924,0.706480860710144
1772533165108446200,6.8064462890625,29.123044967651367,2.038684844970703,1.6450655460357666
1772533165118412300,6.816412353515625,34.50031661987305,2.201396942138672,2.4017956256866455
1772533165128347000,6.826346923828125,35.18526077270508,2.675175666809082,3.7232320308685303
1772533165138242800,6.836242919921875,32.41257858276367,2.8863422870635986,4.551746845245361
1772533165148173600,6.846173583984375,28.304100036621094,3.029911756515503,3.90568470954895
1772533165158106600,6.856106689453125,25.445276260375977,2.967698335647583,2.760719060897827
1772533165168037600,6.86603759765625,25.502704620361328,2.431107759475708,1.726421594619751
1772533165177973500,6.875973388671875,26.939594268798828,1.7653049230575562,0.7836494445800781
1772533165187905000,6.885905029296875,28.51466941833496,1.5451651811599731,1.1473584175109863
1772533165197857800,6.89585791015625,29.93720245361328,2.3162522315979004,2.837289333343506
1772533165207791400,6.905791259765625,29.726036071777344,3.556332588195801,4.331607341766357
1772533165217720600,6.915720458984375,27.202804565429688,4.839483737945557,4.881956577301025
1772533165227653600,6.925653564453125,23.429323196411133,6.075376510620117,4.810171604156494
1772533165237587000,6.9355869140625,19.541584014892578,6.711867332458496,4.7096734046936035
1772533165247520000,6.94552001953125,15.710675239562988,6.97986364364624,4.594817638397217
1772533165257463600,6.955463623046875,11.793624877929688,6.874579429626465,4.235894203186035
1772533165267398000,6.96539794921875,8.188239097595215,6.113661766052246,3.4983067512512207
1772533165277313000,6.97531298828125,5.161916732788086,4.820341110229492,2.665006160736084
1772533165287245300,6.985245361328125,3.098107099533081,3.360121250152588,2.468794822692871
1772533165297179600,6.9951796875,2.8103702068328857,1.923829436302185,2.3060827255249023
1772533165307112000,7.00511181640625,3.5192439556121826,0.38644084334373474,1.2191431522369385
1772533165317043200,7.015043212890625,3.2416765689849854,-1.0259226560592651,0.13698910176753998
1772533165326975500,7.0249755859375,2.097309112548828,-1.8592232465744019,-0.4570291340351105
1772533165336908300,7.034908203125,0.8045865893363953,-2.4532413482666016,-0.8973084688186646
1772533165346840800,7.0448408203125,-0.1866401731967926,-2.9653055667877197,-1.1461620330810547
1772533165356772600,7.054772705078125,-0.9768698215484619,-3.2141590118408203,-1.2179467678070068
1772533165366705200,7.064705078125,-1.657029628753662,-3.2859437465667725,-1.3286148309707642
1772533165376638500,7.074638427734375,-2.437688112258911,-3.3966116905212402,-1.6109678745269775
1772533165386571000,7.084571044921875,-3.0837502479553223,-3.3433713912963867,-1.8837496042251587
1772533165396509000,7.094509033203125,-3.3852458000183105,-2.8456642627716064,-1.8837496042251587
1772533165406442000,7.10444189453125,-3.806980848312378,-2.462812662124634,-1.5583257675170898
1772533165416373500,7.11437353515625,-4.5924248695373535,-2.0410776138305664,-0.8207381963729858
1772533165426306300,7.124306396484375,-5.453841209411621,-1.2699905633926392,0.16091732680797577
1772533165436213500,7.134213623046875,-5.732006549835205,-0.45643091201782227,1.0707881450653076
1772533165446143700,7.144143798828125,-5.295914649963379,0.10408778488636017,1.4536397457122803
1772533165456103400,7.154103515625,-4.362115859985352,0.4055834412574768,1.200000524520874
1772533165466036700,7.16403662109375,-2.9688947200775146,0.4007977843284607,0.9272187948226929
1772533165475974100,7.17397412109375,-1.043868899345398,0.06580262631177902,0.5772684812545776
1772533165485907700,7.18390771484375,1.2352946996688843,-0.48035913705825806,-0.10707881301641464
1772533165495838200,7.193838134765625,3.3134610652923584,-0.8488538265228271,-0.849452018737793
1772533165505771500,7.203771484375,4.409972190856934,-0.8201399445533752,-1.1413763761520386
1772533165515691800,7.21369189453125,4.481756687164307,-0.666999340057373,-0.7441678643226624
1772533165525623800,7.223623779296875,3.902693748474121,-0.5569294691085815,-0.1501496136188507
1772533165535560000,7.233559814453125,3.4091739654541016,-0.5186443328857422,-0.12622138857841492
1772533165545492200,7.2434921875,3.638885021209717,-0.6382854580879211,-0.3900300860404968
1772533165555421700,7.253421630859375,4.175475597381592,-0.9014959335327148,-0.6245267391204834
1772533165565353700,7.263353759765625,4.66361141204834,-0.9780662655830383,-0.3613162338733673
1772533165575284000,7.273283935546875,5.104488849639893,-0.37507495284080505,0.45284169912338257
1772533165585216000,7.283216064453125,5.372485160827637,0.6161518096923828,1.6450655460357666
1772533165595167700,7.293167724609375,5.24327278137207,1.5212370157241821,2.846860647201538
1772533165605101800,7.303101806640625,5.003990173339844,2.2444677352905273,2.846860647201538
1772533165615017000,7.313016845703125,5.482554912567139,2.6273193359375,1.4967105388641357
1772533165624949000,7.322948974609375,7.125227451324463,2.799602508544922,0.0029910283628851175
1772533165634880500,7.332880615234375,9.442676544189453,2.87198543548584,-0.5670989751815796
1772533165644812500,7.3428125,11.71705436706543,2.6608188152313232,0.5102694034576416
1772533165654747400,7.352747314453125,16.529619216918945,2.0578274726867676,2.4400808811187744
1772533165664679700,7.3626796875,26.206790924072266,1.9956140518188477,0.9990034699440002
1772533165674607000,7.372607177734375,35.63511276245117,2.0003998279571533,-2.8414769172668457
1772533165684539000,7.382538818359375,38.54657745361328,0.6640082597732544,-3.008974552154541
1772533165694483000,7.39248291015625,35.338401794433594,-0.7004988193511963,-0.5479564070701599
1772533165704416000,7.402416015625,30.032915115356445,-1.150349497795105,1.085145115852356
1772533165714345500,7.412345458984375,29.13261604309082,-1.730010747909546,0.1704886108636856
1772533165724278300,7.4222783203125,31.234710693359375,-3.142374277114868,-1.7976080179214478
1772533165734218000,7.432218017578125,31.967512130737305,-3.8464624881744385,-2.449054002761841
1772533165744151300,7.4421513671875,31.641490936279297,-2.9557342529296875,-2.022533416748047
1772533165754068500,7.452068359375,30.573692321777344,-1.3184453248977661,-1.1748759746551514
1772533165764000300,7.462000244140625,28.074390411376953,0.3481557071208954,-0.4713860750198364
1772533165773913900,7.471913818359375,24.92842674255371,1.688734531402588,-0.24107688665390015
1772533165783843800,7.48184375,21.854248046875,2.5698914527893066,0.07477571070194244
1772533165793797600,7.491797607421875,19.028921127319336,3.202194929122925,0.7160521745681763
1772533165803730200,7.501730224609375,16.261024475097656,3.479762315750122,1.0325030088424683
1772533165813665000,7.5116650390625,13.517653465270996,3.1591241359710693,0.7016952633857727
1772533165823597600,7.52159765625,11.597413063049316,2.1535403728485107,-0.12622138857841492
1772533165833528600,7.531528564453125,11.405987739562988,0.6113662123680115,-0.6197410821914673
1772533165843461000,7.541461181640625,12.138191223144531,-0.753140926361084,-0.23629122972488403
1772533165853394400,7.55139453125,12.023335456848145,-1.4859428405761719,0.8554341197013855
1772533165863327000,7.561326904296875,10.62532901763916,-1.6917256116867065,1.8077775239944458
1772533165873266400,7.571266357421875,7.972286701202393,-1.7156537771224976,2.066800594329834
1772533165883199700,7.58119970703125,4.816751956939697,-1.8161523342132568,1.8945173025131226
1772533165893132800,7.5911328125,2.14516544342041,-1.9405791759490967,1.4536397457122803
1772533165903066000,7.601066162109375,-0.11006984114646912,-2.0793628692626953,0.9176474809646606
1772533165912984800,7.61098486328125,-2.063809633255005,-2.227717876434326,0.4097708761692047
1772533165922916600,7.62091650390625,-3.4337005615234375,-2.3186452388763428,-0.1501496136188507
1772533165932857600,7.630857666015625,-3.3613176345825195,-2.434098720550537,-0.7250252366065979
1772533165942790400,7.640790283203125,-2.9114668369293213,-2.203789710998535,-0.9499505758285522
1772533165952726800,7.650726806640625,-3.1028928756713867,-1.6917256116867065,-0.6149554252624512
1772533165962659800,7.660659912109375,-3.5820555686950684,-1.3232308626174927,-0.26081767678260803
1772533165972575200,7.6705751953125,-4.098905086517334,-1.1455638408660889,-0.15493527054786682
1772533165982506500,7.680506591796875,-4.692923545837402,-0.8823533654212952,-0.15972091257572174
1772533165992443000,7.69044287109375,-4.999204635620117,-0.47557350993156433,-0.1501496136188507
1772533166002374700,7.700374755859375,-4.90827751159668,0.07058826833963394,-0.006580262444913387
1772533166012310000,7.71031005859375,-4.328616142272949,0.5874379873275757,0.09391828626394272
1772533166022242000,7.720241943359375,-3.3708889484405518,0.6687939167022705,0.14656038582324982
1772533166032175400,7.73017529296875,-2.059023857116699,0.49172505736351013,0.1944168359041214
1772533166042107600,7.740107666015625,-1.0965110063552856,0.2955136001110077,0.12263216078281403
1772533166052043800,7.750043701171875,-0.646660327911377,-0.039481572806835175,-0.11186445504426956
1772533166061976300,7.759976318359375,-0.13878370821475983,-0.4995017349720001,-0.6532405614852905
1772533166071903200,7.7699033203125,0.8955138921737671,-0.8488538265228271,-1.1940184831619263
1772533166081835300,7.779835205078125,2.3844478130340576,-0.9828519225120544,-1.1700903177261353
1772533166091767000,7.78976708984375,3.9122650623321533,-0.9828519225120544,-0.8207381963729858
1772533166101699000,7.799698974609375,5.286343574523926,-1.0737791061401367,-0.5431707501411438
1772533166111644000,7.809643798828125,6.057430744171143,-1.083350419998169,-0.3038884699344635
1772533166121577200,7.8195771484375,5.702694416046143,-0.8536394834518433,0.3332005441188812
1772533166131508500,7.829508544921875,4.591826438903809,-0.34636107087135315,1.0277173519134521
1772533166141441500,7.839441650390625,3.500101327896118,0.1663011759519577,1.4679967164993286
1772533166151337200,7.849337158203125,3.0167510509490967,0.5874379873275757,1.3483555316925049
1772533166161266400,7.859266357421875,3.0311081409454346,1.1335997581481934,1.0755738019943237
1772533166171225900,7.869225830078125,3.1411778926849365,1.7653049230575562,1.2239288091659546
1772533166181158100,7.879158203125,3.4618160724639893,2.359323024749756,1.0085747241973877
1772533166191130600,7.889130615234375,4.634897232055664,2.943770170211792,-0.04486542567610741
1772533166201067000,7.89906689453125,6.722635269165039,3.652045488357544,-1.5487544536590576
1772533166210937300,7.908937255859375,8.886942863464355,4.293920040130615,-2.8797619342803955
1772533166220867000,7.9188671875,10.783255577087402,4.212564468383789,-2.6739792823791504
1772533166230805500,7.928805419921875,14.240285873413086,3.628117322921753,-0.10707881301641464
1772533166240736000,7.938736083984375,21.854248046875,3.9972102642059326,4.231108665466309
1772533166260594400,7.958594482421875,41.103309631347656,2.794816732406616,14.502300262451172
1772533166270527700,7.96852783203125,41.160736083984375,-3.1758737564086914,13.40578842163086
1772533166280458500,7.97845849609375,38.924644470214844,-6.125626087188721,7.094718933105469
1772533166290429700,7.9884296875,38.143985748291016,-7.159923553466797,1.8610178232192993
1772533166300364500,7.998364501953125,37.708492279052734,-7.001997470855713,-0.8063812255859375
1772533166310281700,8.00828173828125,36.123844146728516,-5.651846885681152,0.06520441919565201
1772533166320214500,8.018214599609376,33.15016555786133,-3.204587697982788,2.9479575157165527
1772533166330127600,8.028127685546876,27.303302764892578,0.137587308883667,3.982254981994629
1772533166340058600,8.03805859375,21.327228546142578,2.6177480220794678,3.8189449310302734
1772533166349990700,8.04799072265625,17.669200897216797,4.432703971862793,3.2542388439178467
1772533166359922000,8.057921875,15.39482307434082,5.529214859008789,3.4265220165252686
1772533166369876500,8.06787646484375,13.268799781799316,5.457430362701416,3.943969964981079
1772533166379810000,8.07781005859375,11.645269393920898,4.604987144470215,3.579662561416626
1772533166389728500,8.087728515625,10.443474769592285,3.652045488357544,2.650649309158325
1772533166399660500,8.09766064453125,9.653244972229004,2.7326035499572754,1.4344971179962158
1772533166409615400,8.107615478515624,8.877371788024902,1.9046868085861206,0.7884350419044495
1772533166419549700,8.1175498046875,7.283154010772705,1.4638092517852783,1.046859860420227
1772533166429448000,8.127447998046875,4.835894584655762,1.358525037765503,1.5541383028030396
1772533166439378700,8.137378662109375,2.528017044067383,1.296311616897583,2.38265323638916
1772533166449336600,8.147336669921875,1.536790370941162,0.9996016621589661,2.981456995010376
1772533166459270000,8.157269775390626,1.9106688499450684,0.02751746028661728,2.5740790367126465
1772533166469203000,8.167202880859374,2.4370899200439453,-1.0163514614105225,1.2813565731048584
1772533166479136500,8.177136474609375,2.0925233364105225,-1.5242279767990112,0.07956135272979736
1772533166489059800,8.187059814453125,1.0007981061935425,-1.7539390325546265,-0.4331009089946747
1772533166498992000,8.1969921875,-0.014356935396790504,-1.8783657550811768,-0.7441678643226624
1772533166508928800,8.2069287109375,-0.8715856671333313,-1.557727575302124,-1.1700903177261353
1772533166518861600,8.216861572265625,-2.20737886428833,-1.0019944906234741,-1.5056836605072021
1772533166528790000,8.2267900390625,-3.955335855484009,-0.5282155871391296,-1.5487544536590576
1772533166538722300,8.236722412109375,-5.68893575668335,-0.2793620526790619,-1.472184181213379
1772533166548658000,8.246657958984375,-5.746363639831543,-0.2069791555404663,-1.7353945970535278
1772533166558590700,8.2565908203125,-3.3756744861602783,-0.11605189740657806,-2.2474586963653564
1772533166568497200,8.2664970703125,-0.1866401731967926,-0.2309073805809021,-2.4538395404815674
1772533166578427100,8.27642724609375,2.6763720512390137,-0.47557350993156433,-2.0273189544677734
1772533166588385000,8.286385009765626,4.60139799118042,-0.5473581552505493,-1.6827524900436401
1772533166598317800,8.29631787109375,5.19541597366333,-0.6095715761184692,-1.4913266897201538
1772533166608255500,8.30625537109375,4.826323509216309,-0.5282155871391296,-1.0648061037063599
1772533166618188800,8.316188720703124,4.438685894012451,0.08015955984592438,-0.32303106784820557
1772533166628090400,8.32609033203125,4.989633560180664,0.9852447509765625,0.6634100675582886
1772533166638020400,8.336020263671875,4.88853645324707,1.3202399015426636,1.9519450664520264
1772533166647981600,8.345981689453126,5.109274387359619,1.5499508380889893,2.8277182579040527
1772533166657914600,8.35591455078125,6.521637916564941,2.1056840419769287,3.2303106784820557
1772533166667843300,8.36584326171875,7.766504287719727,3.1830523014068604,2.435295343399048
1772533166677776100,8.375776123046874,7.311867713928223,4.001996040344238,-0.030508488416671753
1772533166687709000,8.385708984375,5.951548099517822,3.3026933670043945,-1.3381860256195068
1772533166697641700,8.395641845703125,5.027918815612793,2.368894338607788,-1.649253010749817
1772533166707549400,8.405549560546875,4.999204635620117,2.234896421432495,-1.5200406312942505
1772533166717479700,8.415479736328125,6.000002861022949,2.723032236099243,-0.020937198773026466
1772533166727434000,8.42543408203125,11.041680335998535,3.6089746952056885,1.9663020372390747
1772533166737366500,8.435366455078125,17.463417053222656,4.662415027618408,3.1920254230499268
1772533166747341300,8.44534130859375,20.307287216186523,5.5387864112854,3.0245277881622314
1772533166757278200,8.4552783203125,20.235502243041992,6.262016773223877,1.4009976387023926
1772533166767175400,8.465175537109374,17.554344177246094,5.404788017272949,0.5868397355079651
1772533166777108500,8.4751083984375,13.661222457885742,2.823530673980713,1.9615163803100586
1772533166787044900,8.485044921875,9.370891571044922,2.1822543144226074,2.492722988128662
1772533166796978200,8.494978271484374,3.9122650623321533,3.202194929122925,0.34277185797691345
1772533166806893800,8.504893798828125,2.748156785964966,3.6711881160736084,-1.716252088546753
1772533166816825300,8.514825439453125,7.905287742614746,3.3074791431427,-3.6029927730560303
1772533166826738400,8.524738525390624,12.985848426818848,2.273181438446045,-4.105485439300537
1772533166836668200,8.534668212890624,16.34238052368164,1.2340983152389526,-3.2004003524780273
1772533166846624300,8.544624267578126,19.53679847717285,0.3194418251514435,-2.86061954498291
1772533166856556500,8.554556640625,20.81516456604004,-0.7579265832901001,-2.348555326461792
1772533166866445000,8.564445068359374,20.130218505859375,-1.064207911491394,-1.2275179624557495
1772533166876373000,8.574373046875,18.526430130004883,-0.5569294691085815,-0.1453639715909958
1772533166886354200,8.584354248046875,16.179668426513672,0.39601215720176697,0.3858426511287689
1772533166896287500,8.59428759765625,12.942777633666992,1.3489537239074707,0.1657029688358307
1772533166906219000,8.604218994140625,9.605388641357422,2.919841766357422,-0.12622138857841492
1772533166916152000,8.614152099609376,6.9236321449279785,6.022734642028809,0.9415757060050964
1772533166926082800,8.624082763671876,6.090929985046387,8.531609535217285,2.0620148181915283
1772533166936015600,8.634015625,7.843074321746826,7.645666599273682,1.1856436729431152
1772533166945948700,8.64394873046875,8.422736167907715,5.074578762054443,-0.7202396392822266
1772533166955881700,8.6538818359375,7.058228492736816,3.3266217708587646,-1.965105652809143
1772533166965814300,8.663814208984375,6.368497371673584,2.7900311946868896,-2.7696921825408936
1772533166975747000,8.6737470703125,6.894918441772461,1.9764715433120728,-2.8797619342803955
1772533166985679400,8.683679443359376,8.087740898132324,0.908674418926239,-1.8167506456375122
1772533166995612200,8.693612060546876,10.036096572875977,0.5300102233886719,0.022133609279990196
1772533167005519000,8.70351904296875,11.961122512817383,0.7357929348945618,2.2438695430755615
1772533167015449300,8.713449462890624,12.602996826171875,0.6209374666213989,3.1441688537597656
1772533167025409500,8.723409423828125,12.818350791931152,0.8225327730178833,3.177668571472168
1772533167035342800,8.7333427734375,13.895719528198242,1.5690934658050537,2.943171739578247
1772533167045289700,8.743289794921875,15.255440711975098,1.2580264806747437,2.1960129737854004
1772533167055224300,8.753224365234376,14.93001651763916,0.28594231605529785,1.812563180923462
1772533167065135000,8.763135009765625,12.78485107421875,-0.3032902777194977,0.5006981492042542
1772533167075067100,8.773067138671875,10.52483081817627,-0.13998012244701385,-0.4666004180908203
1772533167085014500,8.7830146484375,9.284749984741211,0.31465616822242737,-0.41874396800994873
1772533167094948400,8.7929482421875,7.910073280334473,0.5108676552772522,0.8219345808029175
1772533167104869400,8.802869384765625,7.335795879364014,0.6400800347328186,1.8418751955032349
1772533167114802000,8.812802001953125,6.971488952636719,0.5730810165405273,2.1672990322113037
1772533167124733000,8.82273291015625,6.894918441772461,0.8512466549873352,2.334796667098999
1772533167134665200,8.832665283203125,6.473781585693359,1.4398809671401978,2.349153518676758
1772533167144595200,8.84259521484375,7.230511665344238,2.0721843242645264,2.7798616886138916
1772533167154527200,8.85252734375,8.523234367370605,2.60339093208313,2.6315066814422607
1772533167164458800,8.862458740234375,9.701101303100586,2.8624141216278076,2.114656925201416
1772533167184329000,8.882328857421875,11.81755256652832,2.3018953800201416,-0.32303106784820557
1772533167194261800,8.89226171875,11.922837257385254,0.8225327730178833,-0.4378865361213684
1772533167204200200,8.9022001953125,11.626127243041992,-0.7100701332092285,-0.29431718587875366
1772533167214133500,8.912133544921875,11.151749610900879,-1.8448662757873535,-0.34217363595962524
1772533167224052500,8.922052490234375,9.524032592773438,-2.0171494483947754,-0.5288137793540955
1772533167233984300,8.931984375,7.321439266204834,-0.6909275650978088,-0.8111668825149536
1772533167243915000,8.9419150390625,7.168298244476318,1.2388839721679688,-0.4666004180908203
1772533167253846800,8.9518466796875,7.905287742614746,2.3736801147460938,0.7734799385070801
1772533167263777800,8.96177783203125,7.967501163482666,2.555534601211548,1.750349760055542
1772533167273709300,8.971709228515625,7.886145114898682,2.4023938179016113,1.7216359376907349
1772533167283645700,8.981645751953126,8.250452041625977,2.3018953800201416,0.9798609018325806
1772533167293577700,8.99157763671875,9.059226989746094,2.3736801147460938,0.15134602785110474
1772533167303516700,9.0015166015625,9.653244972229004,2.1678972244262695,-0.1788634955883026
1772533167313449500,9.011449462890624,9.882955551147461,1.8855443000793457,-0.04007977992296219
1772533167323378400,9.02137841796875,9.969097137451172,1.7174484729766846,0.33798620104789734
1772533167333310700,9.031310791015626,9.940383911132812,1.7653049230575562,0.5246263742446899
1772533167343244300,9.041244384765625,9.787242889404297,1.8035900592803955,0.21355941891670227
1772533167353176800,9.0511767578125,9.57188892364502,1.7940187454223633,-0.006580262444913387
1772533167363106800,9.06110693359375,9.351749420166016,1.8759729862213135,0.0364905446767807
1772533167373038800,9.071038818359375,9.016156196594238,1.9046868085861206,0.26141586899757385
1772533167382985200,9.080985107421874,8.417949676513672,1.9573289155960083,0.5102694034576416
1772533167392918800,9.090918701171875,7.622934818267822,2.201396942138672,0.615553617477417
1772533167402824400,9.100824462890625,7.058228492736816,2.5746772289276123,0.4384847581386566
1772533167412755500,9.11075537109375,7.000202655792236,2.833101987838745,0.04127619042992592
1772533167422680800,9.120680908203125,7.331010341644287,2.794816732406616,-0.4618147611618042
1772533167432611000,9.130611083984375,7.823931694030762,2.383251428604126,-1.1270195245742798
1772533167442546400,9.14054638671875,8.537590980529785,1.852044701576233,-1.7066807746887207
1772533167452477200,9.150477294921876,9.227322578430176,1.4925230741500854,-1.9555343389511108
1772533167462409500,9.160409423828124,9.500103950500488,1.4015958309173584,-1.7018951177597046
1772533167472340500,9.170340576171874,9.581459999084473,1.6313068866729736,-1.0600204467773438
1772533167492204500,9.19020458984375,9.92124080657959,2.2636101245880127,-0.2315055876970291
1772533167502180000,9.20018017578125,10.52483081817627,2.1535403728485107,-0.22193430364131927
1772533167512115700,9.21011572265625,9.748957633972168,2.431107759475708,-0.6580262184143066
1772533167522036700,9.22003662109375,8.566305160522461,2.6943182945251465,-1.4051851034164429
1772533167531970800,9.229970703125,9.21296501159668,2.68953275680542,-1.4913266897201538
1772533167541895000,9.23989501953125,10.323833465576172,2.0817556381225586,-1.1940184831619263
1772533167551828000,9.249827880859375,10.730612754821777,1.540379524230957,-1.0169496536254883
1772533167561731000,9.25973095703125,10.577472686767578,1.540379524230957,-1.2035897970199585
1772533167571661300,9.269661376953126,10.247262954711914,1.7892330884933472,-1.160519003868103
1772533167581594600,9.2795947265625,9.748957633972168,2.1822543144226074,-0.5288137793540955
1772533167591525000,9.289525146484374,9.126823425292969,2.5220351219177246,0.18963119387626648
1772533167601480700,9.299480712890626,8.652446746826172,2.478964328765869,0.2566302418708801
