time,seconds_elapsed,z,y,x
1772535212585276200,0.052276123046875,0.002583586752414703,0.010483217428438364,-0.0014012177005875855
1772535212595292200,0.062292236328125,0.01111351468861103,0.009977752124331891,-0.007700071249622851
1772535212605308200,0.07230810546875,0.003931494230031967,0.0026213797458447515,-0.0012526852085255086
1772535212615324000,0.082323974609375,-0.0013064064234495163,0.0007247340779751539,0.011323239315999671
1772535212625340000,0.09233984375,-0.0059463411837816236,0.00044156975504010916,-0.004867395973810926
1772535212635356000,0.10235595703125,-0.01626958227753639,-0.00022498612860217689,0.009220293953688815
1772535212645372000,0.112371826171875,-0.003850830209255218,0.009908577611949295,0.00011280359155498444
1772535212655388200,0.12238818359375,-0.005494505763053894,0.00654768634410575,0.0012022153966128825
1772535212665404200,0.132404052734375,0.015156652599573134,0.007713058595359325,0.0018419654717203228
1772535212675420200,0.142420166015625,0.015008184039592741,-0.004713986377231776,-0.006449806327046826
1772535212685436000,0.152435791015625,0.0006435586005449295,-0.0069897858221083875,0.0017685531756374984
1772535212695452000,0.162451904296875,0.002588262927532196,0.008992211685702205,0.0011265198118984698
1772535212705468000,0.172468017578125,0.002588262927532196,0.0037439540349878367,-0.001742943810345605
1772535212715484000,0.18248388671875,-0.009082885643839836,0.0028423107538372277,0.0005357234450522809
1772535212725500200,0.192500244140625,-0.0008539864808320999,-0.0006842194044962525,-0.0008140380629338324
1772535212735516200,0.20251611328125,0.0015390461355447769,0.011373736527375876,0.00520004372796975
1772535212745532200,0.2125322265625,-0.0014525368958711623,0.01805471212863922,-0.009766164333419874
1772535212755548000,0.2225478515625,0.006028758770227432,0.00367498045200482,-0.005928896858636289
1772535212765564000,0.23256396484375,0.0019885434687137602,0.00741834996510297,-0.0074247888390440485
1772535212775580000,0.242579833984375,-0.0036947628647089003,-0.0004793627484701574,-0.006173263541143387
1772535212785596000,0.252595947265625,0.004086392530798912,0.0035704606316052374,-0.012897904754197224
1772535212795612200,0.262612060546875,-0.011477087303996086,0.006734514153096825,-0.004405724145658314
1772535212805628200,0.272628173828125,-0.005792027404904365,0.003168072109483182,-0.0014480068512260913
1772535212815645000,0.28264501953125,-0.004444119927287101,0.005562858291529119,-0.00002487871292978525
1772535212825661000,0.292660888671875,0.01680734241604805,0.0023191088636405764,-0.0034007118215784427
1772535212835677000,0.302677001953125,-0.004590834921598434,0.0036396168776787817,0.004939949753368273
1772535212845693200,0.312693115234375,-0.011174304965138434,0.0015543533025309442,0.00037911724438890814
1772535212855709200,0.322709228515625,0.005438976183533668,0.014016085996013134,-0.00505878122691065
1772535212865725000,0.332724853515625,-0.0018926818788051604,0.0038146263847127554,-0.002800672702351585
1772535212875741000,0.342740966796875,-0.009225508984923362,0.01387475956287235,0.002589048378821462
1772535212885757000,0.3527568359375,-0.006381809991598129,0.005041793559491634,-0.012492337894299998
1772535212895773000,0.36277294921875,0.0005032733470201492,-0.004012085185572505,0.0012732256730552762
1772535212905789000,0.372788818359375,0.0012514613658189773,-0.0012255962722003458,-0.0008806552920490502
1772535212915805200,0.38280517578125,-0.0003968903630971908,-0.002323985968157649,-0.00359474568949081
1772535212925821200,0.3928212890625,0.007834931409358977,0.013206925037596373,0.007688919667946175
1772535212935837000,0.4028369140625,0.020105214917659757,0.0004985971719026565,-0.004853467913158238
1772535212945853000,0.41285302734375,0.0013999299257993697,0.014558978967368602,-0.00548667864962481
1772535212955869000,0.422868896484375,0.006337970849871635,0.007369852914568036,0.0030307277317158875
1772535212965885000,0.432885009765625,0.002747252881526947,-0.001497252820432186,-0.00643417036649771
1772535212975901200,0.442901123046875,0.0058902270823717115,0.01146678510569036,0.007482967033376917
1772535212985917200,0.452917236328125,-0.007877016985416412,0.0001353168174624443,0.013921402583038433
1772535212995933000,0.462932861328125,0.005590367352962493,0.0010661861930973827,0.004359044592874124
1772535213005949000,0.472948974609375,0.010378770673274994,0.0020238522441126403,0.002166009794315323
1772535213015965000,0.48296484375,-0.00802607006728649,-0.0028041524342261254,-0.0021739373724441974
1772535213025981000,0.49298095703125,0.011276596295833587,-0.0016866196463815866,-0.0033394100883975624
1772535213035997000,0.502996826171875,-0.009372808501124381,0.006832184107601642,-0.003160948248952627
1772535213046013200,0.51301318359375,-0.006530863073468208,0.013448697904217988,0.0033735498200170694
1772535213056029200,0.523029296875,0.003644493982195854,0.0033852037251926956,0.004073733978625387
1772535213066045000,0.533044921875,0.0008013795107603073,0.008750822411570698,0.00017659867592155932
1772535213076061000,0.54306103515625,0.0013999299257993697,0.007386931913532316,0.007618292983993888
1772535213086077000,0.553076904296875,-0.002042319482564926,0.006215093388874084,-0.00691753343665041
1772535213096093000,0.563093017578125,-0.0050362406015396115,0.006826448486559092,0.005468485405808314
1772535213106109000,0.57310888671875,0.004990063372254372,0.005755056395381689,-0.0012781484433449803
1772535213116125200,0.583125244140625,0.012025368836522101,0.00042255452731624244,-0.0024416483979206533
1772535213126141200,0.59314111328125,-0.009822305834293365,0.006690346217807382,0.0006701360802166163
1772535213136157000,0.603156982421875,0.005441898792982101,0.007221822746004909,-0.017141031349822877
1772535213146173000,0.6131728515625,0.022950082954764365,0.008697758783772587,0.0028900862851645795
1772535213156189000,0.62318896484375,0.014420155018568038,0.016188443332724272,-0.008804297031322494
1772535213166205000,0.633204833984375,0.009781389302015305,0.0075334825110621745,-0.00009481127713806927
1772535213176221000,0.643220947265625,0.013074001106619835,0.011474931879527866,0.008094669190933927
1772535213186237200,0.6532373046875,0.0024468086302280425,-0.0042293081328272815,0.01482315546204336
1772535213196253200,0.663253173828125,-0.005634206494688988,-0.008968209755606948,0.0020051932094153017
1772535213206269000,0.67326904296875,-0.008326514318585396,0.008223236607201397,-0.0004728782087564468
1772535213216285000,0.683284912109375,-0.011766425639390945,0.00231521813981235,-0.0037461003263015297
1772535213226301000,0.693301025390625,-0.012514613658189773,0.009018259442411363,0.0007136190289165824
1772535213236317000,0.70331689453125,-0.002638531810045242,-0.003986019162554293,0.005957036107731983
1772535213246334000,0.713333984375,0.006941197440028191,0.006259571851417422,-0.0021809059693478046
1772535213256350000,0.723349853515625,0.00365033920109272,0.003327080329786986,-0.011931781402090563
1772535213266366000,0.733365966796875,0.007990998753905297,0.00925391309550032,-0.002668652953673154
1772535213276382000,0.7433818359375,0.004698971471190453,-0.006134557232260703,0.00396624588300474
1772535213286398000,0.75339794921875,0.009039046502113342,0.010751403377950192,0.00982447039191611
1772535213296414000,0.7634140625,0.0020054946035146714,0.023187490173522382,0.002029642664082348
1772535213306430000,0.773429931640625,-0.005327332502603531,0.009908869872894138,-0.0023227347259875387
1772535213316446000,0.783446044921875,0.008737433207035064,0.010872983931005,-0.006491837104177102
1772535213326462000,0.7934619140625,0.016071429356932638,0.010394315302278846,0.004496900427294895
1772535213336478000,0.80347802734375,0.0012584756284952164,0.014148187943082303,0.003104624084988609
1772535213346494000,0.813493896484375,-0.008617606219649314,0.02019764244146645,-0.004897170057566836
1772535213356510000,0.823510009765625,0.0014069441884756089,-0.00029076310750097035,-0.0076323123761918394
1772535213366526000,0.83352587890625,0.0033522330373525616,0.0058639783962629735,0.004215398338483646
1772535213376542000,0.8435419921875,0.005897825866937637,0.014639971781708299,0.005162689125956967
1772535213386558000,0.853557861328125,0.006498129847645759,-0.001557038449961692,0.0027015323099680243
1772535213396574000,0.863573974609375,-0.0059212067425251005,0.019188976855576037,-0.010959392705978826
1772535213406590000,0.87358984375,0.004105097231268883,0.002858969627693295,0.016274806441925464
1772535213416606000,0.88360595703125,-0.006819032365083694,0.005614387549366801,-0.0025225133480969815
1772535213426622000,0.8936220703125,0.0029079964011907576,-0.00281323078982532,-0.0017801888145040719
1772535213436638000,0.903637939453125,-0.002779401585459709,0.005322455398086458,0.017185665075993166
1772535213446654200,0.913654296875,0.006648936495184898,0.00150092434855178,0.0010232694999780505
1772535213456670000,0.923669921875,-0.004422492617368698,0.003206449624802917,-0.003026855274196714
1772535213466686000,0.93368603515625,0.008746201035380362,0.005888418717775494,0.0004487849471159279
1772535213476702000,0.943701904296875,0.018774258574843404,-0.0010557195980101823,-0.007987108030077069
1772535213486718000,0.953718017578125,0.012787000858783721,-0.0031064598490484056,0.004509294117987155
1772535213496734000,0.96373388671875,-0.0033744448691606518,0.006184533853828907,0.013455922229448332
1772535213506750000,0.97375,0.0006663549542427063,0.009305277956556529,-0.008531014781584963
1772535213516766000,0.983765869140625,0.0024608371555805207,0.005035984873212874,-0.011505253952555358
1772535213526782000,0.993781982421875,-0.0015805471897125244,0.0002868358510546386,-0.007949689495982602
1772535213536798000,1.0037978515625,0.020863924330472947,0.004219663521647453,0.001768078251602128
1772535213546814000,1.01381396484375,0.006498129847645759,0.01652894559977576,0.0008584617265500128
1772535213556830000,1.023829833984375,0.0021586393386125564,0.013701065230090171,0.002240262340614572
1772535213566846000,1.033845947265625,-0.006818447843194008,-0.0014560257609002292,0.0031807580611202865
1772535213576862000,1.043862060546875,-0.008462123396992684,0.009057148414384573,-0.006715782053163275
1772535213586878000,1.0538779296875,-0.004571545699238777,0.009360113416332751,-0.002642623463273048
1772535213596894000,1.06389404296875,-0.0062158057749271385,-0.006574537818413227,0.011153590970672667
1772535213606910000,1.073909912109375,0.006504559588432312,0.012712784845102578,0.0017701697439886628
1772535213616926000,1.083926025390625,-0.003969488152861595,0.003913063524197787,0.005617118362570181
1772535213626942000,1.09394189453125,0.0047118309527635575,-0.0085466233426705,0.007824099488090723
1772535213636958000,1.1039580078125,-0.008156418448686599,-0.002724146000575274,0.000815243639331311
1772535213646974200,1.11397412109375,0.0033639234751462934,0.012613251727074384,0.010669734710175544
1772535213656990000,1.123989990234375,-0.0012748422414064406,0.005694905439671129,-0.0011982333412393926
1772535213667006000,1.134005859375,0.002616319978237152,0.004947521138470619,0.007346682101534679
1772535213677022000,1.14402197265625,0.00815291131734848,0.002388045914005488,-0.002675046161841601
1772535213687038000,1.154037841796875,0.0002209492743015289,0.012471468636207282,-0.0020972462738864123
1772535213697054000,1.164053955078125,0.004409048613905907,0.005367463583592325,0.0026569807821884748
1772535213707070000,1.174070068359375,0.016380056914687156,0.004149941019993275,0.009826963743101805
1772535213717086000,1.1840859375,0.008897592204809188,0.004924761317390948,-0.005285466122254729
1772535213727102000,1.19410205078125,-0.004119710278511047,0.007433529267925769,-0.002279699301859364
1772535213737118000,1.204117919921875,-0.00022796353697776794,0.007827314358484,-0.008542686953069641
1772535213747134000,1.214134033203125,-0.005167173504829406,0.0002630896492861211,0.00030456330399028953
1772535213757150000,1.22414990234375,0.005007014507055282,0.0004559270739555359,-0.0012226371301338075
1772535213767166000,1.234166015625,-0.006665887629985809,0.00811827839538455,-0.011134594009257853
1772535213777182000,1.244181884765625,0.011140987217426299,0.005751421399880201,0.0005437606210354715
1772535213787198000,1.254197998046875,-0.004720598781108856,0.012047489336784928,0.0008720518604852258
1772535213797214000,1.2642138671875,-0.007111877831816673,0.015086710902210324,0.00004821392274461686
1772535213807230000,1.27422998046875,-0.001277180328965187,0.007346490305289626,-0.004614243196649477
1772535213817246000,1.284245849609375,0.011592822638154029,0.0037449586819857357,0.0020454338882584123
1772535213827262000,1.294261962890625,0.003064648267626762,0.011787358829565345,0.0026726806748192757
1772535213837278000,1.30427783203125,-0.009353519278764724,0.009292838600091636,0.011184278369881211
1772535213847294000,1.3142939453125,0.006060322952270507,0.005250212145783007,0.007217064372496679
1772535213857310000,1.32431005859375,0.004115034103393554,0.0021318243969231845,0.0003710070031695068
1772535213867326000,1.334325927734375,0.0027659575819969176,0.0038876733546145256,-0.006824338727863505
1772535213877342000,1.344342041015625,0.004560439783334732,-0.0005354220509529113,-0.00802296479474753
1772535213887358000,1.35435791015625,0.007703998506069183,-0.0027908545612357555,0.004623641212657094
1772535213897374000,1.3643740234375,-0.005913023436069489,0.009796714735310524,0.005974462166568264
1772535213907390000,1.374389892578125,-0.002471358549594879,-0.013243640318792313,0.00989298731717281
1772535213917406200,1.38440625,-0.001723170530796051,0.004573207933362573,0.0030076847828458993
1772535213927422000,1.394421875,0.005309796845912933,0.012640212799236177,-0.01000923410798423
1772535213937438000,1.40443798828125,-0.0011246201157569884,0.002159333458356559,0.0015035820965189485
1772535213947454000,1.414453857421875,0.0020171850413084028,0.012552845043037086,-0.01583334628473967
1772535213957470000,1.424469970703125,0.009198036456108092,0.004045914389938116,-0.00707732710824348
1772535213967486000,1.43448583984375,0.002762450450658798,0.009647880849149077,0.009693153896136208
1772535213977502000,1.444501953125,-0.001426233410835266,0.0035829547869972883,-0.0004995104873552919
1772535213987518000,1.45451806640625,0.003960135802626609,0.010759787613805383,-0.0020571060597430915
1772535213997534000,1.464533935546875,0.00994447090923786,0.005109799028094858,-0.0077739219371229405
1772535214007550000,1.474550048828125,0.007402385210990905,-0.0007665273930877447,-0.012184851980861276
1772535214017566000,1.48456591796875,0.00395838223695755,0.010546619787160306,-0.021381545863253994
1772535214027582000,1.49458203125,0.0006663549542427063,0.005724789121281356,-0.00927960465918295
1772535214037599000,1.504598876953125,0.003661445116996765,0.013737579581886528,0.0025840616764500734
1772535214047614000,1.514614013671875,-0.004717091649770736,0.0000767002317123115,0.010395484346058219
1772535214057631000,1.524630859375,0.005311550411581992,0.009252817116957157,-0.0007388539348728954
1772535214067647000,1.53464697265625,-0.0033656770408153533,0.013040792956762016,-0.00013745397562161087
1772535214077663000,1.5446630859375,-0.01084814175069332,0.0027515089315362272,-0.0032894882657565176
1772535214087679000,1.554678955078125,-0.00007306523621082306,0.010987294493056833,-0.005900629745377227
1772535214097695000,1.564695068359375,0.007258008304238319,0.006231733996421098,-0.00145910363397561
1772535214107711000,1.5747109375,0.007106617134809493,0.003850738877709955,-0.005877486331807449
1772535214117727000,1.58472705078125,0.013690087178349495,-0.00006321969563141465,-0.005385876023117453
1772535214127743000,1.594742919921875,0.0029167642295360565,-0.0008437390814535319,0.0059969388598576185
1772535214137759000,1.604759033203125,-0.00007540332376956939,0.006449833726510405,0.0010500296427402645
1772535214147775000,1.61477490234375,-0.003218377524614334,0.010182736644521354,-0.003633808191400021
1772535214157791000,1.624791015625,0.0048632221221923825,0.009954882705397903,0.008317417696677147
1772535214167807000,1.634806884765625,-0.0015700257956981658,-0.002682845875807106,-0.0032027872298378496
1772535214177823000,1.644822998046875,-0.0023199673801660536,0.0027406222113408145,-0.0037234409699216484
1772535214187839000,1.6548388671875,0.007703998506069183,0.01073182189464569,0.004434137389389798
1772535214197855000,1.66485498046875,0.005458265405893325,0.007796663491893559,0.006228464327100664
1772535214207871000,1.67487109375,-0.0011257891595363616,-0.00506985061019659,0.008921585001749917
1772535214217887000,1.684886962890625,0.0021656536012887953,0.0082705098150298,-0.006357232672767713
1772535214227903000,1.694903076171875,0.0020160159975290298,-0.005282470447570085,0.004204073226870969
1772535214237919000,1.7049189453125,0.008749708166718483,0.001279481883905828,0.0035868637771345672
1772535214247934500,1.7149345703125,-0.012049334233999252,0.013966255504917353,-0.004642711239308118
1772535214257950200,1.7249501953125,0.00022036475241184232,0.020565379775315522,-0.004383978104731068
1772535214267966200,1.73496630859375,0.005457680884003639,0.006217997732013464,0.004920560066308826
1772535214277982200,1.744982177734375,0.00725274760723114,0.005627265297248959,0.004005856374185532
1772535214287998500,1.75499853515625,0.003510638469457626,0.004474789060186594,0.001133022617921233
1772535214298014500,1.765014404296875,-0.002474281159043312,0.0022251104372553528,-0.003906578984484077
1772535214308030500,1.775030517578125,0.012038812839984894,-0.002350782643537968,0.0017372173224575816
1772535214318046200,1.785046142578125,-0.0008288520395755767,0.010021262472495436,-0.0025884912563953547
1772535214328062200,1.795062255859375,0.002613397368788719,-0.0007542889660224318,0.0014811967347748577
1772535214338078200,1.805078125,-0.0027747254103422164,0.02126037630215287,-0.0035029574865009633
1772535214348094500,1.815094482421875,0.004109188884496688,0.0003270217309705913,0.0034558395422995087
1772535214358110500,1.8251103515625,0.012936638462543486,0.000636325142160058,0.002025779339717701
1772535214368126500,1.83512646484375,0.0048550388157367706,0.006966569343302398,-0.008772760248742998
1772535214378142500,1.845142578125,-0.008162848189473151,0.01552528498256579,0.0019115144434385001
1772535214388158200,1.855158203125,0.005003507375717163,-0.004136661413311958,0.004635651310859247
1772535214398174200,1.86517431640625,-0.006218728384375572,-0.0014503997377119957,0.0007735690552275628
1772535214408190200,1.875190185546875,-0.009810030874609946,0.005431304333731532,0.001674052425753325
1772535214418206500,1.88520654296875,0.0068003276646137235,-0.0031811142541468143,0.002189354137284681
1772535214428222500,1.895222412109375,0.0011123451560735701,-0.00028289032829925415,0.007652213519904762
1772535214438238500,1.905238525390625,0.006200608205795288,-0.0008236278751865029,-0.0017093155353795737
1772535214448254500,1.91525439453125,0.0036579379856586454,-0.0008569821555167436,-0.010318838913273065
1772535214458270200,1.925270263671875,0.012636778733134268,0.009611768356151879,0.0028626228895038365
1772535214468286200,1.9352861328125,-0.003825695767998695,0.010971110543236136,-0.010277374391723423
1772535214478302200,1.94530224609375,0.0012608137160539626,-0.0012249934840016065,-0.006403537766216322
1772535214488318500,1.955318359375,0.006498714369535446,0.00966127005368471,-0.003270920562604442
1772535214498334500,1.96533447265625,0.00889583863914013,0.007979856305383145,-0.006107760556880384
1772535214508350500,1.9753505859375,0.014283961418271063,0.001389426798094064,0.00938498299610801
1772535214518366500,1.985366455078125,-0.009657470661401749,-0.010055840595532209,0.003078411931497976
1772535214528382200,1.99538232421875,0.006504559588432312,0.0018661226654425262,-0.00903532017506659
1772535214538398200,2.005398193359375,0.006953472399711609,0.011451295275613664,0.010273593265749514
1772535214548414200,2.015414306640625,0.007103110003471374,-0.00020242723692208528,0.009080803284607827
1772535214558430500,2.025430419921875,-0.005763970354199409,-0.002393945931829512,0.009833293019188567
1772535214568446500,2.035446533203125,0.007104863569140434,0.0026665705944411457,0.0003755918467417359
1772535214578462500,2.04546240234375,0.006956395009160041,0.0026436829091981053,0.007605095575703307
1772535214588478200,2.055478271484375,0.003065232789516449,0.005482102939207106,-0.0004887972970958799
1772535214598494200,2.065494140625,0.011295300996303558,-0.00020556904207915067,0.0008383779197465628
1772535214608510200,2.07551025390625,-0.008756722429394721,0.005053630127757788,0.001717791102780029
1772535214618526500,2.0855263671875,-0.0047165071278810495,0.006822356833331287,-0.0009915957200806588
1772535214628542500,2.09554248046875,0.009050736939907074,-0.005640581436548382,0.00452390716522932
1772535214638558500,2.105558349609375,0.004561024305224418,0.005733812677953392,-0.004634409201843664
1772535214648574500,2.115574462890625,-0.0002291325807571411,0.012040913465525955,0.0015492387359961866
1772535214658590200,2.125590087890625,0.0038116672426462173,0.011107121480442583,0.001987630153261125
1772535214668606200,2.135606201171875,-0.000678045392036438,-0.004552329542115331,-0.00382748586628586
1772535214678622200,2.145622314453125,0.008000935626029968,0.005621036485861986,0.004678778066532686
1772535214688638500,2.155638427734375,0.019222586864233015,0.0048848128994926805,-0.0014905125523917376
1772535214698654500,2.165654541015625,0.006202946293354034,0.0025223032855428754,0.0029343912177719174
1772535214708670500,2.17567041015625,0.0036567689418792724,0.0007012801371514797,-0.0003546221239492297
1772535214718686500,2.1856865234375,-0.004724690434336662,0.004955010325182229,-0.0017433365359902381
1772535214728702200,2.1957021484375,-0.002329319730401039,0.0022010902408510446,0.008126635231776163
1772535214738718200,2.20571826171875,0.004255319356918335,-0.0005729958486743271,-0.008673455459577963
1772535214748734200,2.215734130859375,0.0009627075523138045,0.004957951200939715,-0.005135755453258752
1772535214758750500,2.22575048828125,0.003505377772450447,0.013213117316365241,0.012897822555806487
1772535214768766500,2.235766357421875,0.00784311471581459,0.007127806053310632,0.0005696074483450502
1772535214778782500,2.245782470703125,-0.009964344653487205,0.01849547816608101,0.0023380784255918113
1772535214788798200,2.255798095703125,0.0015577508360147476,0.005465663261059671,-0.012645701825106515
1772535214798814200,2.265814208984375,0.002304185289144516,0.0023601349937729535,-0.014359200345259159
1772535214808830200,2.275830322265625,-0.00038870705664157865,0.015042963092029094,-0.006906555384909733
1772535214818846200,2.28584619140625,0.019212065470218656,0.00611515841204673,-0.001735646419879049
1772535214828862500,2.295862548828125,0.008438157999515533,0.007727123653329908,-0.007019285911228508
1772535214838878500,2.30587841796875,-0.004728197565674781,0.0005952442131005227,0.001832521789940074
1772535214848894500,2.31589453125,0.004849778118729591,0.005351297900080681,-0.00620596023434773
1772535214858910200,2.32591015625,0.003502455163002014,0.003716390174627304,-0.00654515646030195
1772535214868926200,2.33592626953125,-0.012658990564942359,0.007942099844571202,0.0004927428198512644
1772535214878942200,2.345942138671875,0.0038011458486318585,0.012590327509213238,0.000497546859132126
1772535214888958500,2.35595849609375,0.00814238992333412,-0.001702493068948388,-0.004875314418785273
1772535214898974500,2.365974365234375,-0.004277531188726425,-0.005789342257473617,-0.004918130647204816
1772535214908990500,2.375990478515625,0.0027536826223134993,-0.00398302348786965,-0.0014326631516218184
1772535214919006500,2.38600634765625,0.01442658475935459,0.009289550664462149,-0.000818221047706902
1772535214929022200,2.396022216796875,0.0102390699416399,0.015658537707105277,-0.003571684474311769
1772535214939038200,2.4060380859375,0.001561257967352867,0.008012297270260751,-0.007277461923379451
1772535214949054200,2.41605419921875,-0.009512509232759475,-0.003349493090994656,-0.011317284499248488
1772535214959070500,2.426070556640625,0.0035047932505607605,-0.000501483248732984,-0.0034706626520957795
1772535214969086500,2.43608642578125,0.0009597849428653717,0.012990012617595493,0.007693029587483033
1772535214979102500,2.4461025390625,-0.0005348375290632248,0.01680686749201268,0.002770451094023883
1772535214989118500,2.456118408203125,0.006200608205795288,0.0027824155264534055,-0.0011288122336845844
1772535214999134200,2.46613427734375,0.011288871255517006,0.00425177569296211,-0.009197123140655458
1772535215009150200,2.476150146484375,0.0068003276646137235,0.001477141614165157,-0.001459697289019823
1772535215019166200,2.486166259765625,0.0014139584511518477,0.004402801536209881,0.005066023818450048
1772535215029182500,2.496182373046875,-0.009957330390810966,0.006176259215828031,-0.011667477043252437
1772535215039198500,2.506198486328125,0.003211363261938095,0.0018425956593826412,-0.0009805080704856663
1772535215049214500,2.51621435546875,0.004406126004457473,-0.0015203414350748062,0.0021097312961239367
1772535215059230200,2.526230224609375,0.002160977426171303,0.017043306596390903,0.008958720408054068
1772535215069246200,2.53624609375,-0.002028290957212448,-0.006073748689424246,0.0026307412292342633
1772535215079262200,2.54626220703125,-0.004422492617368698,0.014417250675428659,0.009793125405581667
1772535215089278500,2.556278564453125,0.011290040299296379,0.004836900370847433,0.002624293222138658
1772535215099294500,2.56629443359375,-0.002477203768491745,0.0009385412254370748,0.004824470147537068
1772535215109310500,2.576310546875,0.007096680262684822,0.011668755684886126,-0.006296150135295465
1772535215119326500,2.586326416015625,-0.002179097604751587,0.017855280566401777,0.005224867641972377
1772535215129342200,2.59634228515625,0.0075467621177434914,-0.00501455849269405,0.006416452046716585
1772535215139358200,2.606358154296875,0.005750526350736617,0.008050400790944694,0.00013049451187252997
1772535215149374200,2.616374267578125,0.0015595044016838073,0.014544621648453175,-0.002416587021900341
1772535215159390500,2.626390380859375,0.015323825860023498,0.011909414306655526,0.0022986597306560723
1772535215169406500,2.636406494140625,-0.001437339326739311,0.010324008278734982,0.004033109707292169
1772535215179422500,2.64642236328125,0.01457213070988655,0.004286664343252778,0.013305709236953407
1772535215189438500,2.6564384765625,0.007089666000008582,0.01223990663634613,0.008530229330295696
1772535215199454200,2.6664541015625,0.0014046061009168624,0.00291800633855164,-0.0028432149361353365
1772535215209470200,2.67647021484375,-0.007424597042798996,0.004758976296428591,-0.012839635228319093
1772535215219486200,2.686486328125,0.0058913961261510845,0.0006607654636725783,0.013336935492279007
1772535215229502500,2.69650244140625,0.0031979192584753032,0.006847144214715808,0.0006828037655446678
1772535215239518500,2.7065185546875,-0.004433598533272743,0.002025258749909699,-0.006975684231519699
1772535215249534200,2.7165341796875,0.0024485621958971024,-0.003907419234700501,0.00017030593245290218
1772535215259550200,2.72655029296875,-0.00009644611179828643,0.009739723851066083,0.002541784304147586
1772535215269566200,2.736566162109375,0.006936521264910698,0.007175773380883038,0.0011613262637984007
1772535215279582200,2.746582275390625,0.0006517419070005417,0.0026830102725885806,-0.0015368815779220311
1772535215289598200,2.75659814453125,-0.004435352098941803,0.006867602480854839,-0.01109613429554738
1772535215299614200,2.7666142578125,0.0015489830076694487,0.013321381730120629,0.0024781262170989063
1772535215309630200,2.776630126953125,0.0004991816937923431,0.003386555432062596,0.0003385203725192696
1772535215319646200,2.786646240234375,0.003941431102156639,0.009484543513599782,0.006156111476942896
1772535215329662200,2.796662109375,-0.011321604481339453,0.004502535583637655,0.0004075852870475501
1772535215339678200,2.80667822265625,-0.0038385552495718,0.00519871942056343,-0.005107433541072532
1772535215349694200,2.816694091796875,0.008579612296819687,0.0028607779922895133,-0.008302302325936034
1772535215359711200,2.826711181640625,0.005287000492215156,0.003050802405364811,-0.01144113920778036
1772535215369726200,2.836726318359375,0.010972060391306876,0.007700016450695693,-0.0017841526035685092
1772535215379742200,2.8467421875,0.015012275692820548,-0.0022322525640949605,0.002185837872792035
1772535215389759200,2.85675927734375,0.012765373548865318,0.018927713837195187,0.009904339828249066
1772535215399775200,2.866775146484375,0.007526888373494148,0.014324768352694809,0.002064933173172176
1772535215409791200,2.876791259765625,0.0031868133425712584,0.0002632723123766482,-0.0018464863832108676
1772535215419807200,2.88680712890625,0.006178396373987197,-0.002734009807463735,-0.0032991420100908723
1772535215429823200,2.8968232421875,0.0009410802423954009,-0.0045082346720620985,-0.003241749267047271
1772535215439839200,2.906839111328125,0.004532382732629776,0.00014194748764857648,0.0016884554104413835
1772535215449855200,2.916855224609375,0.0007920271605253219,-0.0038776268846355375,0.002209483609860763
1772535215459871200,2.926871337890625,0.002139350116252899,0.014479283060971647,0.004741367574501783
1772535215469887200,2.93688720703125,0.007975801184773444,0.01624612833671272,-0.004984647411620244
1772535215479903200,2.9469033203125,0.013811667731404303,0.0027610074122436344,-0.0029176318792160597
1772535215489919200,2.956919189453125,0.0006423895567655563,0.007841945672035217,-0.0028500648020301014
1772535215499935200,2.966935302734375,-0.0035480478703975677,-0.0007790763474069535,0.003912835195334628
1772535215509951200,2.976951171875,0.0019879589468240737,0.017102361573558298,-0.0032234829579945654
1772535215519967200,2.98696728515625,0.012760697373747824,0.015328008844796567,0.0028824235685169695
1772535215529983200,2.996983154296875,-0.00025718963146209714,0.009796312876511365,-0.003653965063439682
1772535215539999200,3.006999267578125,0.008122516179084778,0.005162004139367491,-0.004273147274553775
1772535215550015200,3.01701513671875,0.002286649632453918,0.0044458369603380555,0.008509816729929297
1772535215560031200,3.02703125,0.010817162090539931,0.009788458363618701,-0.006285592208663001
1772535215570047200,3.037047119140625,-0.009235445857048033,0.011422745034564285,0.005583645351231098
1772535215580063200,3.047063232421875,0.0007914426386356353,0.007479304638411849,0.0045357346003409476
1772535215590079200,3.057079345703125,0.00812193165719509,0.010379647456109524,0.002573047092091292
1772535215600095200,3.06709521484375,-0.00699263536632061,0.007580646121036261,-0.007777200739597901
1772535215610111200,3.077111328125,0.003332359293103218,0.002302194261457771,-0.004843412310024723
1772535215620127200,3.087127197265625,0.0021340894192457198,0.0029428302525542674,-0.0020379812341649083
1772535215630143200,3.097143310546875,0.003779518538713455,0.010720460250414907,-0.0053959590257145465
1772535215640159200,3.1071591796875,-0.002057517051696777,-0.0022966778361238538,0.004125500698480755
1772535215650175200,3.11717529296875,-0.00011398176848888397,0.004199095657654106,0.002282841107016429
1772535215660191200,3.127191162109375,0.008115501916408538,0.0010811097675934433,-0.009118294883938506
1772535215670207200,3.137207275390625,0.0031768764704465866,-0.0017742431309074162,-0.009004358781222254
1772535215680223200,3.14722314453125,-0.00505202269256115,0.007152447304222732,-0.008700334333349019
1772535215690239200,3.1572392578125,0.0024304420173168182,0.007426734200958162,0.001767767724348232
1772535215700255200,3.167255126953125,0.003029576954245567,0.002461787003651261,0.00746570537132211
1772535215710271200,3.177271240234375,-0.0059463411837816236,0.011342154079023748,-0.013455438172258435
1772535215720287200,3.187287353515625,-0.007293079617619514,-0.000051839785091578956,-0.004469345700088888
1772535215730303200,3.19730322265625,0.005426116701960563,0.009092913847509772,-0.012240555090317502
1772535215740319200,3.2073193359375,0.0037818566262722013,0.008464041359443217,-0.0039492125498130914
1772535215750335200,3.217335205078125,0.010963292562961578,0.00743921009004116,0.0003569876109715551
1772535215760351200,3.227351318359375,-0.0063958385169506065,0.003396857630368322,0.00759124058028683
1772535215770367200,3.2373671875,-0.008341711887717247,-0.0007930318075232207,-0.007987199361622333
1772535215780383200,3.24738330078125,0.008866612544655799,0.012703268098086118,-0.001994132959283888
1772535215790399200,3.257399169921875,-0.0010088847815990446,0.001469067905563861,-0.00047387372259981926
1772535215800415200,3.267415283203125,0.001983867293596268,0.0007288805301301181,-0.010756983735365792
1772535215810431200,3.27743115234375,0.006025251638889313,0.009676211894489825,-0.0059313902098219835
1772535215820447200,3.287447265625,-0.00938859059214592,0.011129388111177831,-0.0033421957005281
1772535215830463200,3.297463134765625,0.0031797990798950195,0.009385211324971169,-0.0033650651194620873
1772535215840479200,3.307479248046875,0.002880523872375488,0.004182400251179933,0.003866484436113387
1772535215850495200,3.3174951171875,-0.0011591069072484968,0.008175251013319939,-0.004506837299419567
1772535215860511200,3.32751123046875,-0.006693944680690765,0.015340667396970093,0.002430204555299133
1772535215870527200,3.33752734375,0.014855039304494857,0.012924217372387647,-0.0033854503203649073
1772535215880543200,3.347543212890625,-0.004448796102404594,0.009205562175437807,0.005905022792704403
1772535215890559200,3.357559326171875,0.0012380173623561857,0.009513879205938429,0.002665584213752299
1772535215900575200,3.3675751953125,-0.00893675517141819,0.019685400336701422,0.0009127857296727598
1772535215910591200,3.37759130859375,0.003931494230031967,0.002158164414577186,0.0036865612919442354
1772535215920607200,3.387607177734375,-0.004597849184274673,0.006809186824504285,-0.0006412844450678676
1772535215930623200,3.397623291015625,0.0069254153490066524,0.00003381093805655837,-0.004229143736045807
1772535215940639200,3.40763916015625,0.00527940170764923,0.004441653975564986,-0.003865735517442226
1772535215950655200,3.4176552734375,0.009768529820442198,0.0017563604143448174,-0.008966145662683993
1772535215960671200,3.427671142578125,-0.008338789278268813,0.006708228934369981,-0.00496652723303996
1772535215970687200,3.437687255859375,0.002585340318083763,0.003697996001411229,-0.002718236849596724
1772535215980703200,3.447703125,-0.0019043723165988922,-0.0009819967746734618,-0.006414470152184367
1772535215990719200,3.45771923828125,0.00587678307890892,0.003274436827097088,-0.013996906371507793
1772535216000735200,3.4677353515625,0.005876198557019234,0.010914886843971907,0.004675800658157095
1772535216010751200,3.477751220703125,0.006323942324519157,0.011674326909147202,-0.0042222847369965165
1772535216020767200,3.487767333984375,0.01350771634876728,0.0042869931368157265,-0.002720209610974416
1772535216030783200,3.497783203125,0.010066635984182358,-0.004112111493945122,-0.001206599310785532
1772535216040799200,3.50779931640625,-0.0044482115805149075,0.002470043375343084,0.0034517570222262293
1772535216050815200,3.517815185546875,0.015007014995813368,0.0028138701106421647,-0.004592725484585389
1772535216060831200,3.527831298828125,0.009920505511760712,0.0060867908340878785,0.0008289707705844194
1772535216070847200,3.53784716796875,0.006028758770227432,-0.003826590817142278,-0.010187038360303267
1772535216080863200,3.54786328125,0.010519055926799773,0.0095548688034527,-0.001209366656607017
1772535216090879200,3.557879150390625,-0.004141337588429451,-0.0020876199290156363,0.0008366882861591875
1772535216100895200,3.567895263671875,-0.003394318613409996,-0.0036889176458120344,-0.006787532115122303
1772535216110911200,3.5779111328125,-0.0007014262676239013,-0.0032258484450168904,-0.001604868780216202
1772535216120927200,3.58792724609375,0.0012438625812530516,0.013224643357377499,0.011106646556407213
1772535216130943200,3.597943115234375,0.004537058907747268,-0.0130346189443022,-0.009103681836696341
1772535216140959200,3.607959228515625,-0.001149170035123825,0.0004294043932110071,-0.007006755223218351
1772535216150975200,3.617975341796875,0.004237199178338051,0.008698745164461433,-0.002201254637632519
1772535216160991200,3.6279912109375,0.009923428121209143,0.00691703111315146,0.004992529323976487
1772535216171007200,3.63800732421875,-0.010877367845177649,-0.005603920954279602,-0.006844586931448429
1772535216181023200,3.648023193359375,0.007077391040325165,0.0012126454590819776,0.004644629201758652
1772535216191039200,3.658039306640625,0.011714403191208839,-0.0010847630294039845,-0.01808140833931975
1772535216201055200,3.66805517578125,0.0027338088780641556,0.006493855531327426,0.0025465152781922367
1772535216211071200,3.6780712890625,0.006623217532038688,0.009227207751665264,0.0016220573770347982
1772535216221087200,3.688087158203125,0.012161562436819076,0.002117083485517651,-0.0075056263897567985
1772535216231103200,3.698103271484375,0.006624386575818061,0.00975367931118235,-0.006206645220937207
1772535216241119200,3.708119140625,0.005727729997038841,0.007302176239527762,0.005196134737832471
1772535216251135500,3.718135498046875,-0.0016045125871896743,0.011352017885912209,0.00280509314914234
1772535216261151500,3.7281513671875,0.000789104551076889,0.010482596373930573,-0.006169080556370317
1772535216271167500,3.73816748046875,0.004681435814499855,0.007998871533107013,-0.0012365377913229167
1772535216281183500,3.74818359375,-0.0005570493608713149,0.002082596694026142,0.0016094170911703258
1772535216291199500,3.758199462890625,0.00407996279001236,-0.006678071258123964,-0.0036355069581419227
1772535216301215500,3.768215576171875,-0.00026069676280021664,0.007363514505326747,-0.0026845629088580606
1772535216311231500,3.7782314453125,-0.0043003275424242015,0.0020936660773120818,0.0025759605683851987
1772535216321247500,3.78824755859375,0.00018821604847908018,0.006092161128949373,0.0008732848363462835
1772535216331263500,3.798263427734375,0.0018336451679468154,-0.0045035402306355535,0.0016103943387046455
1772535216341279500,3.808279541015625,-0.00011398176848888397,0.008763006039708853,0.0059278739453293375
1772535216351295500,3.81829541015625,0.012603460985422133,0.004335033529624343,0.00706450415928848
1772535216361311500,3.8283115234375,0.000630114597082138,0.002724894919246435,-0.007857800828292965
1772535216371327500,3.838327392578125,0.002423427754640579,0.004641176869347691,0.002149597515631467
1772535216381343500,3.848343505859375,0.011250877332687377,0.008244644721411168,-0.009124596760561689
1772535216391359500,3.858359375,0.003916881182789802,0.0017197364646941422,-0.0031995814925990995
1772535216401375500,3.86837548828125,-0.0025198738664388657,-0.0013618994703516363,0.001673504436481744
1772535216411391500,3.8783916015625,-0.003119593325257301,0.011258037725836037,-0.0004682842320296913
1772535216421407500,3.888407470703125,-0.002521627432107925,0.006873118906188756,-0.011317092703003436
1772535216431423500,3.898423583984375,0.0012204817056655883,-0.003405114002060145,0.00416337589030154
1772535216441439700,3.908439697265625,-0.011350830575823784,0.002753152899350971,0.006919451399100944
1772535216451455500,3.91845556640625,-0.0026712650358676907,0.009885836057178675,-0.01524286044514738
1772535216461471500,3.928471435546875,-0.003118424281477928,0.01195237666554749,0.0021852533509023487
1772535216471487500,3.938487548828125,-0.00012567220628261565,0.010333598090987653,0.0005975366348866373
1772535216481503500,3.94850341796875,0.007805120792984962,0.014049202814325689,-0.004526720176823437
1772535216491519500,3.95851953125,-0.0019213234513998031,0.017608119138609615,-0.008594134012516588
1772535216501535500,3.968535400390625,0.005559387692809104,0.015551405804511158,0.005267062815884128
1772535216511551700,3.9785517578125,0.0009182838886976242,0.015346969273593275,-0.0011936484976671636
1772535216521567500,3.9885673828125,0.013488427126407623,0.006631583501584827,-0.004667553419619799
1772535216531583500,3.99858349609375,0.008251695516705513,0.016033727695047854,-0.0011957765226718038
1772535216541599500,4.008599609375,0.012591186025738716,0.003918360753823072,0.0003102532592602074
1772535216551615500,4.018615478515625,0.005409165567159652,0.0027229038915596903,0.0005037208715919405
1772535216561631500,4.028631591796875,0.004962006321549415,0.0011576456025242806,0.013100085395947097
1772535216571647500,4.0386474609375,0.010648819786310196,0.002370729453023523,0.008659728328324854
1772535216581663500,4.04866357421875,0.004365793994069099,0.009649798811599612,-0.0032522523947525767
1772535216591679500,4.058679443359375,-0.005360065728425979,0.005747019219398498,0.0020269392503425476
1772535216601695500,4.068695556640625,-0.002966448590159416,0.006691844055149704,0.002025642342399806
1772535216611711500,4.07871142578125,0.005563479346036911,0.012172248227614908,0.008141348743718116
1772535216621727500,4.0887275390625,0.007209492987394333,-0.0031097112520597874,-0.009996347226947545
1772535216631743500,4.098743408203125,0.005263619616627693,0.0028757380994036794,-0.00404512893864885
1772535216641759500,4.108759521484375,-0.006409282520413399,0.0037928529443219303,0.0005340064120013267
1772535216651775500,4.118775390625,-0.002070961055159569,0.0021841025734320283,-0.007892196288239211
1772535216661791500,4.12879150390625,-0.006409867042303085,0.007102708144672214,-0.005478431411087513
1772535216671807500,4.138807373046875,0.0003232406049966812,0.006214691530074924,-0.0017358838818967342
1772535216681823500,4.148823486328125,-0.008506547060608863,0.00626030250377953,-0.0019083635051269083
1772535216691839500,4.158839599609375,0.008700023806095122,0.010382606598176062,-0.007498849589098244
1772535216701855500,4.16885546875,-0.00656476534307003,-0.0028621114328503607,-0.013324751864140852
1772535216711871700,4.178871826171875,-0.0002794014632701874,0.009717402421403676,-0.009234751737304031
1772535216721887500,4.188887451171875,-0.012998013260960579,0.006409538248740136,0.004394024574710056
1772535216731903500,4.198903564453125,-0.0037210663497447964,0.01104269620841369,0.004334622537670657
1772535216741919500,4.20891943359375,-0.003422375664114952,-0.004337992671690881,-0.001658471264131367
1772535216751935500,4.218935546875,0.002415244448184967,0.014038425691984593,-0.00620821612351574
1772535216761951500,4.228951416015625,-0.0052151042997837065,0.004852883391268551,0.0006830594938714057
1772535216771967500,4.238967529296875,0.003163432466983795,0.00310594839239493,-0.0074071070518810294
1772535216781983500,4.2489833984375,0.013337035956978797,0.002715962694119662,-0.0060957595918327565
1772535216791999500,4.25899951171875,0.0015156652599573135,0.011852898346446454,-0.005179366266122087
1772535216802015500,4.269015380859375,-0.011804419562220572,0.008928918924834578,-0.015734717349009587
1772535216812031500,4.279031494140625,0.004805938977003097,0.003335756826587021,0.007274320118222385
1772535216822047500,4.289047607421875,0.0004658639460802078,0.01759714108686894,-0.008135713587375358
1772535216832063500,4.2990634765625,0.002859481084346771,0.005781359880417585,0.0020009097599424422
1772535216842079500,4.30907958984375,-0.007015431720018387,0.011433412559051066,-0.00677917527873069
1772535216852095500,4.319095458984375,0.01258884793817997,0.015125819069892167,-0.011354748699115588
1772535216862111500,4.329111572265625,-0.0023719898283481597,0.015450301783904432,-0.014314584885397925
1772535216872127500,4.33912744140625,-0.0035690906584262844,0.011104783392883837,-0.0034017621343489734
1772535216882143500,4.3491435546875,0.009898878201842307,-0.003264116362482309,-0.0021558993922546504
1772535216892159500,4.359159423828125,0.010198737931251525,0.013280574795696883,0.005569790355814621
1772535216902175500,4.369175537109375,0.0019698387682437896,0.020520444655045867,-0.000579178994288668
1772535216912191700,4.379191650390625,0.010201076018810271,0.011304269754048437,0.0005660272517707198
1772535216922208500,4.38920849609375,0.0025689737051725384,0.007567256916500628,0.004885351755609736
1772535216932223500,4.399223388671875,-0.004614215797185898,0.01714435581807047,-0.003994147670082748
1772535216942239500,4.409239501953125,0.0025689737051725384,0.004237253977265209,-0.0023523809455800802
1772535216952256500,4.419256591796875,0.021423311778903005,0.008834445574413985,-0.012119065868807956
1772535216962272500,4.4292724609375,0.011848258703947066,0.00460066219586879,-0.0059396191820502275
1772535216972288500,4.43928857421875,-0.005809563061594963,0.010437843916751444,0.0007668927192687987
1772535216982304500,4.449304443359375,0.016190087300539016,0.0020537724583409725,-0.00883072838052176
1772535216992320500,4.459320556640625,0.008410685470700263,0.004226842181105166,-0.016702776929875835
1772535217002336500,4.46933642578125,-0.004905892220139503,0.013211254152841865,-0.008705932957073673
1772535217012352500,4.4793525390625,0.012601122897863387,0.0011082169702276586,-0.014865715962136164
1772535217022368500,4.489368408203125,0.004071779483556747,0.001214782617241144,-0.007889611605508252
1772535217032384500,4.499384521484375,0.010657587614655495,0.0017417108344845473,-0.006778252830123528
1772535217042400500,4.509400390625,0.009611877954006195,0.0063252757650800046,-0.008224423917289822
1772535217052416500,4.51941650390625,0.004525368469953537,-0.008377459054533392,-0.005795516269933432
1772535217062432500,4.5294326171875,0.0010848726272583008,-0.000020330401975661514,-0.012772214281605555
1772535217072448500,4.539448486328125,-0.0025075989067554474,-0.004897087859176099,-0.0006546188506763428
1772535217082464500,4.549464599609375,0.0034779052436351775,0.0001737308654002845,-0.01265180277233012
1772535217092480500,4.55948046875,-0.0016086042404174804,0.014809647526498883,0.001450637199729681
1772535217102496500,4.56949658203125,-0.004750993919372558,0.010297814391553401,0.002450032633775845
1772535217112512500,4.579512451171875,0.0036281273692846294,0.00703300390932709,-0.00023579065040685236
1772535217122528500,4.589528564453125,-0.0019061258822679519,0.00560006676306948,-0.005133600028790534
1772535217132544500,4.59954443359375,0.0015367080479860304,0.009692578507401049,-0.00021616350132972002
1772535217142560500,4.609560546875,0.007522212198376655,0.0036916210595518348,0.0031964944863691926
1772535217152576500,4.619576416015625,0.007521627676486968,0.01598124858913943,0.0006216664291452616
1772535217162592500,4.629592529296875,0.001087210714817047,0.00926410569595173,-0.014915199393359944
1772535217172608500,4.6396083984375,0.01814531302154064,0.004966499833576381,-0.010869321536039932
1772535217182624500,4.64962451171875,0.0021335048973560333,0.020416418024990706,0.0021865137262269854
1772535217192640500,4.659640625,0.005426116701960563,0.008744136942457407,0.004900805053068324
1772535217202656500,4.669656494140625,-0.006694529202580452,0.0022810601418837904,-0.0015491382712963968
1772535217212672500,4.679672607421875,-0.0029535891085863113,0.0043685704730451105,-0.004109873871086165
1772535217222688500,4.6896884765625,0.012010755789279936,0.0013353950559161602,-0.01625816583437845
1772535217232704500,4.69970458984375,0.004081716355681419,-0.002920874149072915,-0.005750087959319352
1772535217242720500,4.709720458984375,0.0067763622671365735,-0.0003040609804913401,-0.01205610190150328
1772535217252736500,4.719736572265625,0.01754968521595001,0.0036294425435364243,-0.0002169215531554073
1772535217262752500,4.72975244140625,0.02009293995797634,-0.004599073026981204,-0.0045925336883403355
1772535217272768500,4.7397685546875,0.006026420682668686,-0.007023541961237788,-0.009138387823896482
1772535217282784500,4.749784423828125,-0.0044482115805149075,0.0010787534137256442,-0.00043368784268386657
1772535217292800500,4.759800537109375,0.01320844114124775,-0.004431607505585998,-0.009299304873496294
1772535217302816500,4.76981640625,0.006622633010149002,0.0019364296889863907,-0.0031638617252465334
1772535217312832500,4.77983251953125,0.00018996961414813993,-0.005912073587998747,0.003925046222936362
1772535217322848500,4.7898486328125,0.0031838907331228255,-0.001590611926000565,-0.0030780740047805007
1772535217332864500,4.799864501953125,0.00003974748849868774,0.005381528641562909,-0.01773470466034487
1772535217342880500,4.809880615234375,0.004229015871882439,0.003874631209950894,0.005695343831088394
1772535217352896500,4.819896484375,0.004829319852590561,-0.007555803940724581,-0.006681423125835135
1772535217362912500,4.82991259765625,-0.004447627058625221,0.009023392275255173,-0.0005269830161705613
1772535217372928500,4.839928466796875,0.0015372925698757171,0.012748623343463987,0.008700288667576387
1772535217382944500,4.849944580078125,0.0034837504625320433,-0.002097684665303677,-0.0014391659576445818
1772535217392960500,4.85996044921875,0.005129764103889465,0.008093856340181081,-0.009380233755754306
1772535217402976500,4.8699765625,-0.002951251021027565,0.010680402234662323,-0.016384833554504437
1772535217412992500,4.879992431640625,-0.002649637725949287,0.0050585802975110705,-0.0073412387414369725
1772535217423008500,4.890008544921875,-0.00609247165620327,0.001679587117396295,-0.00045908714542165394
1772535217433024500,4.9000244140625,0.009169979405403136,-0.0006791231042705476,0.008516611796896905
1772535217443040500,4.91004052734375,0.01111702181994915,-0.00017447978407144545,0.00028257066789083183
1772535217453056500,4.920056396484375,0.0048310734182596205,0.007036437975428998,-0.0015502799156121908
1772535217463072500,4.930072509765625,-0.002951251021027565,-0.0004414601571857929,0.00017777685285545885
1772535217473088500,4.940088623046875,-0.009684358668327332,0.008351301699969917,-0.007325246587861329
1772535217483104500,4.9501044921875,0.0015372925698757171,-0.0010697846559807659,-0.0020204638437833636
1772535217493120500,4.96012060546875,0.011860533663630485,-0.0035651816682890055,-0.0016061200223863124
1772535217503136500,4.970136474609375,0.0010883797585964203,0.007466518222074955,-0.00935062406877987
1772535217513152500,4.980152587890625,0.00931669439971447,0.007689860382862388,-0.002495844536880031
1772535217523168500,4.99016845703125,0.010362988582253456,0.001875146222114563,-0.004760583731625229
1772535217533184500,5.0001845703125,-0.006546645164489746,0.0011813552716746925,-0.0008478124683722853
1772535217543200500,5.010200439453125,0.008863689935207366,0.011440445088036358,-0.0018058803781867026
1772535217553216500,5.020216552734375,0.007666004583239555,0.0008490363110788166,-0.01121859163143672
1772535217563232500,5.030232421875,-0.0004155950635671615,0.0035632637058384715,-0.014427196680707856
1772535217573248500,5.04024853515625,-0.0019131401449441908,-0.0010670629759319127,-0.01943411072306335
1772535217583264500,5.050264404296875,0.012451485294103622,0.010032825046125798,-0.0038740192885976282
1772535217593280500,5.060280517578125,-0.007298340314626693,0.002265186719316989,0.004034214818989858
1772535217603296500,5.070296630859375,0.0030289924323558806,0.0017218370902352034,0.002444406610587612
1772535217613312500,5.0803125,-0.004601940837502479,0.012336992068961262,0.0024589191931299863
1772535217623328500,5.09032861328125,0.0022808044135570523,0.01628328200932592,0.002183938176650554
1772535217633344500,5.100344482421875,0.00362637380361557,-0.0023841734564863143,-0.014924780072458087
1772535217643360500,5.110360595703125,-0.00445464132130146,0.0037512422922998663,0.007216635114233941
1772535217653376500,5.12037646484375,0.006321019715070724,-0.0009055340049788355,-0.005123580958275124
1772535217663392500,5.130392578125,-0.0007137012273073196,-0.008180822237581015,-0.008456661770585924
1772535217673408500,5.140408447265625,-0.005501520025730133,0.0028513891094364223,-0.018034893183317035
1772535217683424500,5.150424560546875,0.005571078130602836,-0.002135696854442358,-0.0033111429751385003
1772535217693440500,5.1604404296875,0.005871522381901741,0.002896178099233657,0.004505933117121458
1772535217703456500,5.17045654296875,0.004525952991843224,0.0017784991809166968,-0.0013355868521612137
1772535217713472500,5.180472412109375,-0.00011339724659919739,0.008239639752730727,-0.00241263236599043
1772535217723488500,5.190488525390625,0.00003682487905025482,0.006520049418509006,-0.003790989780798554
1772535217733504500,5.20050439453125,-0.002655482944846153,0.002151405880227685,-0.0019582487951498475
1772535217743520500,5.2105205078125,0.0072188453376293175,0.0008574022806249558,-0.00949093672176823
1772535217753536500,5.22053662109375,0.003326514074206352,0.0022663009641692043,0.002569138101954013
1772535217763552500,5.230552490234375,0.009459902262687683,-0.0007788388853892683,0.0002014317230787128
1772535217773568500,5.240568603515625,0.010358312407135964,0.005334237167425453,-0.0005358147765975445
1772535217783584500,5.25058447265625,0.00048281508088111874,0.0007912051766179502,0.0004620828201062977
1772535217793600500,5.2606005859375,0.0025771570116281508,0.007267561583872884,0.0015478778959717601
1772535217803616500,5.270616455078125,0.007964110746979712,0.0033823541809804734,-0.011492458403063937
1772535217813632500,5.280632568359375,0.0033241759866476056,0.004437982447445392,-0.008861534510739148
1772535217823648500,5.2906484375,-0.006402852779626846,0.0034519488184712823,-0.003155249160528183
1772535217833664500,5.30066455078125,0.009459317740797996,0.00437518287692219,0.0014078392376191914
1772535217843680500,5.310680419921875,0.010955109256505965,0.007366656310483813,-0.009992072910629212
1772535217861834500,5.32883447265625,0.010955109256505965,0.007372008339036256,-0.009999881757749244
1772535217871850500,5.3388505859375,0.0036228666722774505,0.0034692652794532475,-0.001015387587621808
1772535217881866500,5.348866455078125,0.0034720600247383116,-0.0027187026404775676,-0.000540536617487669
1772535217891882500,5.358882568359375,-0.00909925225675106,0.008068703632615507,-0.002276365700457245
1772535217901898500,5.3688984375,-0.0014689035087823868,0.00805164289996028,-0.005945610531419516
1772535217911914500,5.37891455078125,0.01633680229485035,-0.002685896349418908,-0.0044780678626615555
1772535217921930500,5.388930419921875,0.012596446722745895,0.0022266448072157797,-0.0061216612180694935
1772535217931946500,5.398946533203125,-0.0008697685718536376,0.01545656712790951,-0.010924001732189208
1772535217941962500,5.40896240234375,0.005264788660407066,0.0006472666612826288,-0.016632515572104604
1772535217951978500,5.418978515625,0.004515431597828865,0.007882259416114538,-0.006052815499249845
1772535217961994500,5.428994384765625,-0.005211597168445587,0.009703647890686989,-0.007092369413748383
1772535217972010500,5.439010498046875,0.006459551402926445,0.010198792730178683,-0.0007790306816343218
1772535217982026500,5.449026611328125,0.013342881175875662,0.010066526386328042,-0.008846720534097402
1772535217992042500,5.45904248046875,0.0075064301073551176,0.008787994350492954,-0.00687075341916643
1772535218002058500,5.46905859375,0.006757073044776916,-0.001940576141141355,-0.005534837773442268
1772535218012074500,5.479074462890625,0.009599602994322776,0.012179518218617886,-0.012514732389198615
1772535218022090500,5.489090576171875,0.014536474874615669,0.0012104169693775474,0.008032298878673464
1772535218032106500,5.4991064453125,0.0036123452782630917,0.011716083691641687,0.009809090159693732
1772535218042122500,5.50912255859375,-0.005665770676732063,0.0005169913451187312,-0.0023145422863774
1772535218052138500,5.519138427734375,-0.004768529576063156,0.01294421898080036,-0.015067458212468772
1772535218062154500,5.529154541015625,0.000019289222359657286,0.0026428791915997863,-0.011943371375184506
1772535218072170500,5.53917041015625,0.0045078328132629394,0.008057506385166198,-0.0035538200240582225
1772535218082186500,5.5491865234375,0.0003179799079895019,0.0130123340472579,0.0007928856770507991
1772535218092202500,5.559202392578125,0.01902151133418083,0.004520162571873516,0.006321631636423989
1772535218102218800,5.56921875,-0.001329202777147293,-0.002048785755969584,0.005438857452524826
1772535218112234500,5.579234375,0.006002455285191536,0.007087583640776574,-0.0019406583395320922
1772535218122250500,5.58925048828125,0.023059388548135756,0.0011795469070784747,-0.007349202852183953
1772535218132266500,5.5992666015625,0.008694178587198257,0.0022323986945673824,0.0011746241367887704
1772535218142282500,5.609282470703125,-0.009561024549603461,0.012358363650552928,-0.004837311362801119
1772535218152298500,5.619298583984375,-0.0017769465446472166,-0.000049830491095781326,-0.002833597724419087
1772535218162314500,5.629314453125,0.004059504523873329,0.015666337421070785,0.00408051077928394
1772535218172330500,5.63933056640625,0.007051087555289268,0.0053700756657868625,-0.008676387202180922
1772535218182346500,5.649346435546875,0.00031739538609981536,-0.0022664836272597313,-0.013162857567006721
1772535218192362500,5.659362548828125,0.0018143559455871582,-0.004497731544356793,-0.012680462611233815
1772535218203004700,5.670004638671875,0.006902034473419189,0.009724946407042443,0.00349169630696997
1772535218213020700,5.680020751953125,0.009446458259224891,0.00913509075511247,-0.00018578662937507033
1772535218223036400,5.690036376953125,-0.01360007080733776,-0.004408354494161904,0.00020334055237472055
1772535218233052400,5.700052490234375,-0.003575520399212837,-0.00028389497529715296,0.00381323814522475
1772535218243068400,5.710068359375,0.011387070932984352,0.0010997779354453086,0.0014020396844949573
1772535218253084700,5.720084716796875,-0.004776128360629081,0.002371149578131735,-0.010342137590469792
1772535218263100700,5.7301005859375,0.00914192235469818,-0.002819076008722186,-0.010375135677773505
1772535218273116700,5.74011669921875,0.01797112549841404,-0.002373469399381429,-0.009132743534399195
1772535218283132700,5.750132568359375,0.009141337832808493,0.0036509054566733535,-0.0018241558203939347
1772535218293148400,5.7601484375,0.007794599398970603,0.009041548986453563,-0.006631300373794511
1772535218303164400,5.770164306640625,0.005101707053184509,0.005282872306369245,-0.0056803380582015955
1772535218313180700,5.7801806640625,0.008393734335899353,0.01050458901003003,-0.0007697605297900735
1772535218323196700,5.79019677734375,0.011835399222373961,0.012328772229887545,0.0004403550454881042
1772535218333212700,5.800212646484375,0.003455108889937401,0.010971895994525402,-0.004968280798709019
1772535218343228700,5.810228759765625,0.0016600421667098998,0.003189681153092533,-0.014083068551309407
1772535218353244400,5.820244384765625,0.013928572109341621,0.0017974048107862472,0.0013574607572518287
1772535218363260400,5.830260498046875,0.00016249708533287046,0.008553692404273897,-0.005480915629118681
1772535218373276700,5.840276611328125,-0.005973813712596893,0.006500376603659242,-0.0017332991991657763
1772535218383292700,5.850292724609375,-0.0008843816190958022,0.010310619074199348,-0.002347713903617114
1772535218393308700,5.86030859375,-0.002980477115511894,0.005945336536783725,0.0002678023570217192
1772535218403324700,5.87032470703125,0.0033037177205085754,-0.007098579958826303,-0.00313524755211547
1772535218413340700,5.880340576171875,-0.004327215549349785,0.013834482351411133,0.00933620281778276
1772535218423356400,5.8903564453125,-0.0005868599772453308,0.007003759548533707,-0.008604564074985683
1772535218433372400,5.900372314453125,-0.008518822020292282,0.0009585976327769458,-0.00889237717357464
1772535218443388700,5.910388671875,0.0018038345515727996,0.0008968209755606948,-0.011314206626173108
1772535218453404700,5.92040478515625,0.005693827727437019,0.002280402554757893,-0.012494475052459165
1772535218463420700,5.930420654296875,0.0083873045951128,0.013320669344067573,-0.00942279425584711
1772535218473436700,5.940436767578125,-0.01046820252239704,0.009601100831665097,-0.003920534444600343
1772535218483452700,5.95045263671875,-0.0020896657556295395,0.01266574909929186,0.0005771970997564494
1772535218493468400,5.960468505859375,0.0026969839990139007,-0.004468596781417727,-0.008113885348057374
1772535218503484400,5.970484375,-0.0014928689062595367,0.008239895481057465,-0.001994206024520099
1772535218513500700,5.980500732421875,0.0017997428983449935,0.010722615674883126,0.002731288127414882
1772535218523516700,5.9905166015625,-0.014063012143969536,0.001139598489180207,0.0019016415033955127
1772535218533532700,6.00053271484375,0.0010503858357667922,0.01263139017196372,0.0030571682140696794
1772535218543548700,6.010548583984375,0.003893500307202339,0.006189410958345979,-0.002928536865720525
1772535218553564700,6.020564697265625,-0.0038888241320848465,0.002228453171811998,-0.0045463016601279375
1772535218563580400,6.030580322265625,0.009277531433105468,-0.005222356024477631,-0.015263209113432093
1772535218573596400,6.040596435546875,0.013316577690839767,0.003984740520920604,-0.0032583533419761803
1772535218583612700,6.05061279296875,0.011671733093261718,0.0021500724396668375,-0.00010598112512379884
1772535218593628700,6.060628662109375,0.00673252312541008,0.005932385723665356,0.01093529031118378
1772535218603644700,6.070644775390625,0.00329085823893547,0.0010933116620406508,0.009518938973546028
1772535218613660700,6.08066064453125,0.004486790025234222,0.005916603632643819,-0.011012712062103674
1772535218623676400,6.090676513671875,0.001194178220629692,0.01833798604942858,-0.007154602728690952
1772535218633692400,6.1006923828125,0.006879238119721413,-0.0021181977303698658,-0.0011787157900165766
1772535218643708700,6.110708740234375,-0.008980594313144684,0.0026240466269664463,-0.007849873250164091
1772535218653724700,6.120724609375,-0.005088263049721717,0.0005836633731611073,-0.0077205751815345135
1772535218663740700,6.13074072265625,0.011373042407631873,0.00447665222370997,-0.0019485128524247557
1772535218673756700,6.140756591796875,-0.014963175854086875,0.003906816446501761,-0.00474628121163696
1772535218683772700,6.150772705078125,0.0050888475716114046,-0.011990608050394803,-0.017639628521725535
1772535218693788400,6.160788330078125,0.011522095489501952,0.007772917290125042,-0.0009480397061444819
1772535218703804400,6.170804443359375,-0.001346153911948204,0.007596044619567692,-0.0064716071669012306
1772535218713820700,6.180820556640625,-0.0011953472644090652,0.010972334385942667,-0.006761566556803882
1772535218723836700,6.190836669921875,0.007786416092514991,0.0017848375901579857,0.0008689374547917395
1772535218733852700,6.200852783203125,0.0019499650239944457,0.0055630592209286985,-0.009749541992181912
1772535218743868700,6.21086865234375,0.0006014730244874954,-0.0008192987599410116,-0.010813965486455707
1772535218753884700,6.220884765625,0.007784662526845932,-0.0005484459293074906,-0.012010929319215938
1772535218763900400,6.230900390625,0.0013508300870656966,0.01201948708500713,0.0005904219075106084
1772535218773916400,6.24091650390625,-0.0037362639188766476,0.007918006582930683,-0.003661700845323503
1772535218783932700,6.2509326171875,0.0035971477091312405,-0.004009637500159442,0.003199225299572572
1772535218793948700,6.26094873046875,0.014073533537983893,-0.00451992510985583,0.0036701855458784846
1772535218803964700,6.270964599609375,-0.002385433831810951,0.005453662296012044,-0.001264266048464924
1772535218813980700,6.280980712890625,-0.0034328970581293103,0.009026990738138556,-0.00008104761326685547
1772535218823996400,6.290996337890625,0.005694996771216392,-0.0036686055101454256,-0.0073738349699415265
1772535218834012400,6.301012451171875,-0.0010369418323040009,0.007990176769997925,-0.015202236173814162
1772535218844028700,6.311028564453125,0.0016577040791511534,0.0024568551002070306,-0.011820137721160426
1772535218854044700,6.321044677734375,0.007645546317100524,0.00430220897225663,0.006175263701984658
1772535218864060700,6.331060791015625,0.009740472769737243,0.010779990151617675,-0.005606670033792034
1772535218874076700,6.34107666015625,-0.0022299510091543196,0.008336834783200174,-0.0033906105526722964
1772535218884092700,6.3510927734375,0.003456277933716774,0.0006109167062677442,-0.002883757009077817
1772535218894108400,6.3611083984375,-0.010159574964642525,0.008331939412374048,-0.0145741582701914
1772535218904124400,6.37112451171875,-0.004921089789271354,0.010688256747554987,-0.0037468675112817436
1772535218914140700,6.381140625,-0.005368833556771278,0.01062494572037831,-0.005993586992146447
1772535218924156700,6.39115673828125,-0.012848960179090499,0.006655274904426187,-0.003730500898370519
1772535218934172700,6.401172607421875,-0.0013245266020298003,0.008324157964717596,-0.003732546724984422
1772535218944188700,6.411188720703125,0.008254618126153945,0.00019121172316372394,0.00038436880824156103
1772535218954204700,6.42120458984375,0.008106149566173552,0.007793412088882177,-0.009578423208976164
1772535218964220400,6.431220458984375,0.009304419440031051,0.0037137780924327668,-0.002993683656957
1772535218974236400,6.441236328125,-0.004312017980217933,-0.005002466196101158,-0.0008898249791935086
1772535218984252700,6.451252685546875,0.012747253370285034,-0.003669902418088168,-0.0037228473148774354
1772535218994268700,6.4612685546875,0.007809796968102455,0.01455477771628648,-0.004923857135092839
1772535219004284700,6.47128466796875,0.003022562691569328,0.005529650141671299,-0.0035540757523849606
1772535219014300700,6.48130078125,0.004669745376706123,0.0032321868542581796,-0.0032347989364527163
1772535219024316700,6.491316650390625,0.012899229061603545,0.007295034112688154,-0.01297804818516597
1772535219034332400,6.50133251953125,0.00018120178580284117,0.0072624104847200215,-0.010541943612042814
1772535219044348400,6.511348388671875,0.011554244193434714,0.0053434251208789646,0.0016496121042408047
1772535219054364700,6.52136474609375,-0.00206219322681427,0.010400379716884345,-0.003416713108308613
1772535219064380700,6.531380615234375,0.0049731122374534606,0.01829343452164903,-0.014694423648994415
1772535219074396700,6.541396728515625,0.0031797990798950195,0.006993640013318508,-0.013877015452040358
1772535219084412700,6.55141259765625,0.004826397243142128,0.0017664251506328583,-0.003950107598956674
1772535219094428400,6.561428466796875,0.006621463966369629,0.002143441769480705,-0.021688894779374822
1772535219104444400,6.5714443359375,-0.002356207737326622,0.01017433414235711,-0.0016393099059350787
1772535219114460700,6.581460693359375,-0.0010083002597093581,0.0068155982989817855,0.0017926099046599118
1772535219124476700,6.5914765625,0.004529460123181343,0.008681319105625153,-0.0036314335712231693
1772535219134492700,6.60149267578125,0.003333528336882591,0.008574789991229771,0.005891542256623506
1772535219144508700,6.6115087890625,0.009021510845422744,0.011354538636561483,0.0008327427634038031
1772535219154524700,6.621524658203125,-0.00504325486421585,0.003660458736307919,-0.0014083872268907725
1772535219164540400,6.63154052734375,-0.002949497455358505,0.00013067717496305703,-0.0030587573829572645
1772535219174556400,6.641556396484375,0.003184475255012512,0.004675097405258566,-0.001248968014633283
1772535219184572700,6.65157275390625,0.0000415010541677475,0.005756974357832223,-0.008712983752368017
1772535219194588700,6.661588623046875,-0.0007066869646310806,0.007236983782518655,-0.0091974154016003
1772535219204604700,6.671604736328125,0.0006418050348758697,0.005681351838354021,-0.004971559601183981
1772535219214620700,6.68162060546875,0.009321955096721648,0.015965886623226105,-0.0004582651615142822
1772535219224636700,6.69163671875,0.0027367314875125885,-0.0052904528246261176,-0.0050496115397661925
1772535219234652400,6.70165234375,0.00812193165719509,-0.008567574799153953,-0.009180601264117285
1772535219244668400,6.71166845703125,0.004081131833791733,0.006348419178649783,0.0029938480537384745
1772535219254684400,6.721684326171875,-0.013127777120471,0.0024598325085826217,-0.00408411837532185
1772535219264700400,6.731700439453125,0.006324526846408844,0.008898359389789402,-0.004275768489902839
1772535219274716400,6.74171630859375,-0.0005576338827610015,-0.01256785994907841,-0.0005152651789132505
1772535219284732700,6.751732666015625,0.0027349779218435286,-0.0025640783343464134,-0.005150742959836497
1772535219294748700,6.761748779296875,-0.002802197939157486,0.009080730219371617,0.0012120426708832383
1772535219304764400,6.771764404296875,0.0030360066950321195,-0.0017398476709611713,0.0002445219461340457
1772535219314780400,6.781780517578125,0.011714403191208839,0.010708240089658648,-0.005143061976879835
1772535219324796400,6.79179638671875,0.0006406359910964965,0.001713050995580852,0.007378940403321758
1772535219334812400,6.8018125,-0.0025017536878585815,-0.005644490426685661,0.010333561558369547
1772535219344828400,6.811828369140625,0.0024368717581033706,0.006911277225799858,-0.008340104452520609
1772535219354844700,6.8218447265625,0.007073299387097358,-0.00003214870393276214,0.00014482443132437766
1772535219364860400,6.8318603515625,0.0033329438149929044,-0.003279350464232266,-0.009525350448023528
1772535219374876400,6.84187646484375,-0.004895955348014831,0.007315510645136237,0.0039696342833340165
1772535219384892400,6.851892333984375,0.0006412205129861831,0.011782025067321955,-0.009328750163689255
1772535219394908400,6.861908447265625,-0.0020528408765792846,-0.0007654314145445824,-0.01816219109110534
1772535219404924400,6.87192431640625,0.0003407762616872787,0.01079960816754028,-0.0027580117375589908
1772535219414940400,6.8819404296875,0.012613397857546806,-0.000639740941952914,-0.00027630532388575374
1772535219424956700,6.891956787109375,0.00483282698392868,-0.001088014432415366,-0.005162040671985596
1772535219434972400,6.901972412109375,0.010370587366819381,-0.0026663879313506183,-0.016431622705142944
1772535219444988400,6.911988525390625,-0.011027005448937416,0.00177190504334867,-0.004162069849204272
1772535219455004400,6.92200439453125,-0.009231354203820229,0.009703099901415407,-0.0017803349449764937
1772535219465020400,6.9320205078125,-0.006836568021774292,-0.00441730498559773,-0.0004487666808068752
1772535219475036400,6.942036376953125,0.002140519160032272,-0.002437456279993057,-0.0013870795773807912
1772535219485052700,6.952052734375,0.0027390695750713345,0.009222878636419773,-0.000966808338696137
1772535219495068700,6.962068603515625,0.008574936121702193,0.012908051688876002,-0.007003713882761076
1772535219505084400,6.97208447265625,0.012017185530066489,-0.0002490611239336431,-0.0014460432230029255
1772535219515100400,6.982100341796875,-0.002348608952760696,-0.00609051716113463,-0.000860461887391284
1772535219525116400,6.992116455078125,-0.0033966567009687423,0.009328494435362517,-0.000026239552954211828
1772535219535132400,7.00213232421875,0.006033434945344925,-0.006832951292581856,-0.002987144318316132
1772535219545148400,7.0121484375,0.011571195328235626,-0.0028737470717169343,-0.003159834004100412
1772535219555164700,7.02216455078125,0.008728665378689765,0.008743899480439722,-0.00708644199646078
1772535219565180400,7.032180419921875,0.008279752567410469,-0.002647244839463383,-0.010983741695946082
1772535219575196400,7.042196533203125,0.006634323447942733,0.008098623846843837,-0.0073942293039988725
1772535219585212400,7.05221240234375,0.002443301498889923,-0.008303096910379826,-0.008754192545590922
1772535219595228400,7.062228515625,0.007980477359890938,0.0016702712997794151,-0.007865280881850048
1772535219605244400,7.072244384765625,0.001695113480091095,-0.005045519886538386,0.00839226389802061
1772535219615260400,7.082260498046875,-0.0035439562171697614,0.004413743055332452,0.009242213524552062
1772535219625276700,7.092276611328125,-0.0018991116195917128,0.001810446955449879,-0.004519285789038986
1772535219635292400,7.10229248046875,0.01261456690132618,0.007414495773892849,0.0016366978237405418
1772535219645308400,7.112308349609375,0.0024397943675518036,-0.015191687380336225,0.004501978461211547
1772535219655324400,7.122324462890625,0.008725158247351646,0.0010623320018872619,0.0025449991745408623
1772535219665340400,7.13234033203125,0.004237199178338051,-0.00988214626275003,0.003334304655017331
1772535219675356400,7.1423564453125,0.0064805941909551615,-0.0023621808203868567,-0.015092766183661297
1772535219685372400,7.152372314453125,-0.001900280663371086,0.008453629563283174,-0.010632434907089918
1772535219695388700,7.162388671875,-0.001152092644572258,0.014575893569551407,0.0038353769117966292
1772535219705404400,7.172404296875,-0.0014513678520917891,0.007927450264710933,0.009011263446044176
1772535219715420400,7.18242041015625,-0.0019014497071504592,-0.0002467961016111076,-0.003893856500228867
1772535219725436400,7.1924365234375,0.002586509361863136,0.011495627607684581,-0.010906612205971031
1772535219735452400,7.202452392578125,0.005728899040818214,0.00758813530774787,-0.0011787340563256293
1772535219745468400,7.212468505859375,0.0027338088780641556,0.004406326933857054,-0.011691204978711902
1772535219755484700,7.222484619140625,-0.00040974984467029567,0.012364647260867058,-0.016670144168753176
1772535219765500700,7.232500732421875,-0.00220423204600811,-0.0002942154399119317,-0.015209515297971665
1772535219775516400,7.242516357421875,0.0018365677773952483,-0.0007655044797807932,0.0011221176314167678
1772535219785532400,7.252532470703125,0.0004909983873367309,0.00048486090749502177,0.003627981238812208
1772535219795548400,7.26254833984375,-0.009983049353957175,0.0006440883235074579,-0.005472239132318645
1772535219805564400,7.272564453125,0.002439209845662117,0.005196070805750787,0.0005690229264553636
1772535219815580400,7.282580322265625,0.00887654941678047,0.0147027713522315,-0.005014476294303313
1772535219825596700,7.2925966796875,0.0015437223106622695,0.013239000676292925,-0.0043842977651394905
1772535219835612400,7.3026123046875,-0.013420038065314293,0.011324636688642203,-0.0016536763580050318
1772535219845628400,7.31262841796875,0.010074819290637969,0.007062083873338997,-0.0061117517454084
1772535219855644400,7.32264453125,-0.001146247425675392,0.011372731880377978,-0.005745156055875123
1772535219865660400,7.332660400390625,-0.008029577198624611,-0.0031783560414798554,-0.010254030048754066
1772535219875676400,7.342676513671875,-0.0017436287969350814,0.00260725988894701,-0.009048700246447697
1772535219885692400,7.3526923828125,-0.003988192853331566,0.003946399538218975,-0.009658009517518803
1772535219895708700,7.362708740234375,-0.0014426000237464905,0.00025075989067554474,-0.0054810891590546815
1772535219905724400,7.372724365234375,0.00708674339056015,0.001125953556317836,-0.005230174004752189
1772535219915740400,7.382740478515625,0.010228548547625541,0.00022834712946787476,-0.006607974297134205
1772535219925756400,7.39275634765625,-0.006829553759098053,-0.004109919536858797,-0.002973289322899654
1772535219935772400,7.4027724609375,0.00424245987534523,0.00893675517141819,-0.00811752947671339
1772535219945788400,7.412788330078125,0.012172668352723121,0.005026906517613679,0.005151628875825554
1772535219955804700,7.4228046875,0.007385434076189994,0.005156907839141786,0.0011626414380501956
1772535219965820700,7.432820556640625,0.013819266515970229,0.008609240250103175,-0.0020209753004368394
1772535219975836400,7.44283642578125,-0.0020417349606752394,-0.0005628032482229173,0.00903499138150364
1772535219985852400,7.452852294921875,0.014718261182308196,0.014324640488531439,0.009457290180493145
1772535219995868400,7.462868408203125,0.0030488661766052243,0.007378145818877965,0.012077382151549682
1772535220005884400,7.472884521484375,0.0018535189121961593,0.0019470789471641183,-0.0011656005801167339
1772535220015900400,7.482900390625,0.00694295100569725,0.0023564086667262015,-0.0042359753356315194
1772535220025916700,7.492916748046875,0.010083587118983267,0.00048599341865628953,0.002914252612041309
1772535220035932400,7.502932373046875,0.0005091185659170151,0.0011551248518750072,-0.005097049144376069
1772535220045948400,7.512948486328125,0.01412730955183506,0.008582955031376332,-0.008858931561699137
1772535220055964400,7.52296435546875,-0.005025134685635566,-0.00497040882371366,-0.006767512240400538
1772535220065980400,7.53298046875,0.007693477112054824,-0.003897975552920252,-0.004242341144336388
1772535220075996400,7.542996337890625,0.013081015369296073,0.003564743276871741,-0.007519289588928222
1772535220086012400,7.553012451171875,0.001561257967352867,0.003288081759959459,-0.006007396321790292
1772535220096028700,7.563028564453125,0.002308276942372322,0.006941672364063561,-0.019210540233412756
1772535220106044400,7.57304443359375,0.004551087433099747,0.002153689168859273,-0.0037471780385356394
1772535220116060400,7.583060302734375,0.009490881922841072,0.0032699981139972805,-0.000155574154201895
1772535220126076400,7.593076416015625,-0.006969839012622833,0.0025281485044397413,-0.0022824940471444276
1772535220136092400,7.603092529296875,-0.00263210206925869,0.0000497574258595705,-0.009178454972803592
1772535220146108400,7.6131083984375,-0.0005389291822910309,-0.0010968187933787703,0.0036145189690403637
1772535220156124400,7.62312451171875,-0.007122983747720718,-0.0012306012408807873,-0.004720151256537065
1772535220166140700,7.633140625,0.0011094225466251372,0.010355280199833214,0.0014313936431426554
1772535220176156400,7.643156494140625,0.015175941821932791,0.002369980534352362,0.0011282368449494241
1772535220186172400,7.65317236328125,0.007543839508295059,0.0059745808975771066,-0.012984605790115893
1772535220196188400,7.6631884765625,0.008740355816483497,-0.0013674889609217643,0.0032728750576730818
1772535220206204400,7.673204345703125,0.0033539866030216216,-0.0009386325569823384,0.004643989880941808
1772535220216220400,7.683220458984375,0.005301613539457321,0.007350801154226064,-0.004712799067143351
1772535220226236700,7.693236572265625,-0.0005324994415044785,0.008003017985261976,-0.010694503825251013
1772535220236252700,7.703252685546875,0.005603811356425285,0.013564140977431088,-0.004606635278929024
1772535220246268400,7.713268310546875,0.010243161594867706,0.005424783261399716,-0.007487031287141144
1772535220256284700,7.72328466796875,-0.0014285714983940123,-0.007615151178836822,-0.002574006073316559
1772535220266300700,7.73330078125,0.002163315513730049,0.0049166145435534415,-0.01036841367604211
1772535220276316700,7.743316650390625,0.009346505016088484,0.008003072784189134,-0.007540250178566202
1772535220286332700,7.753332763671875,0.005158405676484108,0.003292374342586845,-0.00004434146522544324
1772535220296349000,7.763348876953125,0.014436521631479262,0.0007337759009562432,-0.002281544199073687
1772535220306364700,7.77336474609375,-0.0068096800148487084,0.0056031172366812826,-0.003992668099049478
1772535220316380700,7.783380615234375,-0.006060322952270507,0.011978241759166121,-0.00039750228445045645
1772535220326396700,7.793396728515625,0.0051630818516016,-0.013454890182986855,-0.007394749893806874
1772535220336412700,7.80341259765625,0.013244681498408318,0.007434113789815455,0.0010212328065186739
1772535220346428700,7.8134287109375,0.0044184009641408915,-0.006708904787804931,-0.0029741935051977634
1772535220356445000,7.82344482421875,-0.00246259072124958,0.0051770555780269205,-0.006786764930142089
1772535220366461000,7.8334609375,0.0032242227435111998,-0.002779602514859289,-0.007674571482185274
1772535220376476700,7.8434765625,0.00890928264260292,0.007129632684215903,-0.013115063769370317
1772535220386492700,7.85349267578125,-0.00485854594707489,0.00493597683114931,-0.001604786581825465
1772535220396508700,7.8635087890625,-0.006204115337133408,-0.008246672281716019,0.003546431302046403
1772535220406524700,7.873524658203125,-0.0008177461236715316,0.006888846198283135,-0.012329137556068598
1772535220416540700,7.883540771484375,-0.005754618003964424,0.0048844293070025736,0.00636585437064059
1772535220426557000,7.893556884765625,0.013099720069766044,-0.0012747326435521243,0.0005163246248383075
1772535220436572700,7.90357275390625,-0.0012666589349508285,0.00537363759605214,-0.006054011942492798
1772535220446588700,7.913588623046875,0.008459785309433936,-0.001071574754267931,-0.0019163184827193616
1772535220456604700,7.923604736328125,0.0030740006178617474,-0.00275618510665372,0.006378686452750117
1772535220466620700,7.93362060546875,0.004869067341089248,0.000052661768998950716,0.0013304083535447715
1772535220476636700,7.94363671875,0.00008241758644580841,-0.002565466573834419,-0.00731279809824191
1772535220486652700,7.953652587890625,-0.003509469425678253,0.0040496772496029735,-0.017016281592147423
1772535220496669000,7.9636689453125,-0.003509469425678253,0.006597955226618797,-0.00850270200255327
1772535220506684700,7.9736845703125,0.0005324994415044785,0.002625818458944559,-0.013129640283994376
1772535220516700700,7.98370068359375,0.001880406919121742,-0.0026721052860841153,-0.0006898819603025913
1772535220526716700,7.993716552734375,0.014600187760591505,0.009021364714950323,-0.002730429610889405
1772535220536732700,8.003732666015624,0.015496844339370727,0.0071392407627776265,-0.01516124657629989
1772535220546748700,8.013748779296876,0.009511340188980102,0.003696260702051222,-0.008574004539940505
1772535220556764700,8.0237646484375,-0.0006634323447942734,0.004547214975580573,0.005353681653412059
1772535220566781000,8.033781005859375,-0.0008113163828849792,0.00040642537642270326,-0.009794778506550937
1772535220576796700,8.043796630859376,-0.00036298809349536896,-0.0032961372022517026,-0.005287840742431581
1772535220586812700,8.053812744140625,-0.00036240357160568235,-0.004033091440983116,-0.0022394677561707794
1772535220596828700,8.06382861328125,-0.0011123451560735701,0.002454243018012494,-0.007087400977686047
1772535220606844700,8.0738447265625,0.009063011899590492,-0.0012115312142297625,-0.008381258446816354
1772535220616860700,8.083860595703126,0.005622516056895256,-0.021449834459647536,0.002898689716728404
1772535220626877000,8.093876953125,-0.0020095862567424774,0.002814399833604693,0.0007941551855299621
1772535220636892700,8.103892578125,-0.0015600889235734938,-0.00121596992732957,-0.002441849327320233
1772535220646908700,8.11390869140625,0.013852584263682365,0.001396806386951357,0.0034445966290775685
1772535220656924700,8.123924560546875,0.0017307693153619766,0.0020331132628023624,-0.0022488657721783964
1772535220666940700,8.133940673828125,0.0017319383591413496,-0.0002649528128094971,-0.008091819646721706
1772535220676956700,8.143956787109374,0.01220540157854557,0.0006715060533955693,-0.00017944822013378142
1772535220686972700,8.15397265625,-0.00006429740786552428,-0.0016140476005151866,-0.004827858547866344
1772535220696989000,8.163989013671875,0.0009837503403425216,-0.005471398882102221,-0.004606361284293234
1772535220707004700,8.174004638671875,0.012953005075454712,0.010909406951256096,-0.0005881751514971256
1772535220717020700,8.184020751953126,-0.008294365614652632,0.012173545135557651,0.005685516556818038
1772535220727036700,8.19403662109375,0.0017284312278032302,-0.0017690920317545533,-0.0135399198516272
1772535220737052700,8.204052734375,-0.015182371562719343,0.0052045646394602955,0.0018817586259916423
1772535220747068700,8.214068603515624,-0.015033903002738951,0.004227499768231064,-0.007225384676270186
1772535220757084700,8.224084716796876,-0.005009352594614029,-0.009783106335066257,-0.008290136964106931
1772535220767101000,8.234100830078125,0.0012742577195167541,-0.0031669395983219143,-0.007597323261201381
1772535220777116700,8.24411669921875,0.009953823259472847,0.0054787236720323556,-0.007446580545743927
1772535220787132700,8.254132568359376,0.002171498820185661,-0.0013585384694859385,-0.021821416851552203
1772535220797148700,8.264148681640625,0.008158756536245346,0.007239413201622665,-0.0044740949404425915
1772535220807164700,8.27416455078125,-0.0008189151674509048,-0.006849226573947816,-0.00415473592611961
1772535220817180700,8.2841806640625,-0.0008206687331199646,-0.0065374754773452875,0.005629009729763493
1772535220827197000,8.294197021484376,0.0065115738511085505,0.002888487983122468,0.0011410780602134764
1772535220837213000,8.304212890625,0.011898527586460112,0.0052692456398159265,-0.0035153329108841714
1772535220847228700,8.314228759765625,0.008607669347524643,0.004035740055795759,-0.00976209094650112
1772535220857244700,8.32424462890625,0.006514496460556984,-0.0009267777224071323,0.00032980734310112894
1772535220867260700,8.3342607421875,-0.010244330638647079,-0.0010819682841189204,-0.008750420552771539
1772535220877276700,8.344276611328125,0.014148352339863775,0.01245256300633773,-0.010219013534300029
1772535220887292700,8.354292724609374,0.002777063497900963,-0.00616201149476692,0.0017428798782639205
1772535220897309000,8.364308837890626,-0.0056026423126459115,0.003049450698494911,0.00046853082720190283
1772535220907324700,8.37432470703125,-0.0035071313381195065,0.002406184358894825,-0.007912554089678451
1772535220917340700,8.384340576171875,-0.008592471778392792,-0.0078711900328286,0.0013619908018968998
1772535220927356700,8.394356689453126,0.012057517540454863,-0.013367467627860605,-0.0029186365262139588
1772535220937372700,8.40437255859375,0.012507014873623847,0.005324081099592149,0.003243667229497805
1772535220947388700,8.414388671875,-0.007992752319574355,0.008429262307006866,-0.0045545306323561815
1772535220957404700,8.42440478515625,-0.0006605097353458404,0.0010377638162113725,-0.00896089409883134
1772535220967421000,8.4344208984375,0.012207739666104316,0.013177479747403412,-0.011369115151185542
1772535220977436700,8.444436767578125,-0.007544424030184745,0.00519974233387038,-0.004831566608604044
1772535220987452700,8.45445263671875,-0.010385200414061546,0.008597604611236601,-0.005023216723185032
1772535220997468700,8.46446875,0.001437339326739311,0.0009053148092702031,0.001878516356134787
1772535221007484700,8.474484619140625,0.00592646743953228,0.0004642747771926224,-0.0051555013333447275
1772535221017500700,8.484500732421875,0.011312836652994155,-0.002307199230138212,0.001483763151196763
1772535221027516700,8.4945166015625,0.001437339326739311,-0.0009493548803962766,0.008862959282845258
1772535221037533000,8.504532958984376,-0.0006558335602283477,0.009143694186676293,0.010390862969867885
1772535221047548700,8.514548583984375,0.004582651615142822,0.010751860035676509,-0.0020160890627652405
1772535221057564700,8.524564697265625,-0.00005611410140991211,-0.0015359043303877114,-0.002022929795505479
1772535221067580700,8.53458056640625,0.0033837972193956375,-0.014773407169338315,-0.004136990206874907
1772535221077596700,8.5445966796875,0.0021884499549865723,-0.001093731787148863,-0.009681490857806056
1772535221087612700,8.55461279296875,0.0008422960430383682,0.016373444510810076,-0.0008462232994847
1772535221097629000,8.56462890625,-0.002598199799656868,0.0026922164923511445,-0.0025025300059933215
1772535221107644700,8.574644775390626,0.0020405659168958664,-0.0025497940806671975,-0.012968622769694774
1772535221117660700,8.58466064453125,-0.00035363574326038356,0.00003527224278077483,-0.0037952914965804665
1772535221127676700,8.5946767578125,0.008327683362364769,-0.0027468510227277873,-0.0028413061068393287
1772535221137692700,8.604692626953126,0.0005476970106363296,-0.0039939650069922205,-0.0038922764644958078
1772535221147708700,8.614708740234375,-0.001547229442000389,-0.0007326433897949754,-0.004373365379171446
1772535221157724700,8.624724609375,0.013566753059625625,-0.004803874884080141,-0.007951790121523663
1772535221167741000,8.634740966796874,-0.005286415970325469,0.015371044268924742,-0.006556070579960942
1772535221177756700,8.644756591796876,-0.00513736288845539,-0.006810976922791451,0.0009893032982945442
1772535221187772700,8.654772705078125,-0.0141167881578207,0.006699570703878999,0.0004961312201805412
1772535221197788700,8.66478857421875,-0.004089899662137031,0.0028037140428088603,-0.014375703955488279
1772535221207804700,8.6748046875,-0.008578443253040312,0.00003947349386289716,-0.011427001084573566
1772535221217820700,8.684820556640625,0.003542202651500702,0.005562967889383435,0.003808635035343468
1772535221227836700,8.694836669921875,-0.006031681379675865,0.0026195713812485334,-0.0047831791559234255
1772535221237853000,8.70485302734375,-0.0009440028518438339,0.004258899553492665,0.006134548099106177
1772535221247868700,8.71486865234375,0.002347439908981323,0.007278594434540719,0.000576046322286129
1772535221257884700,8.724884765625,-0.005133855757117271,-0.0010981522339396177,-0.011063684197515248
1772535221267900700,8.734900634765625,-0.004984802675247192,0.005815390014182776,-0.012985601303959265
1772535221277916700,8.744916748046874,0.002797521764039993,-0.006934420639369636,-0.005912722041970119
1772535221287933000,8.754932861328125,-0.0036363106757402418,-0.008257924328092485,-0.0051087852479424324
1772535221297949000,8.764948974609375,0.0014525368958711623,0.009470441923011094,-0.006604065306996926
1772535221307965000,8.77496484375,-0.007676525977253913,-0.010538290350232273,-0.004083058929396793
1772535221317980700,8.784980712890626,0.002348608952760696,0.001732595946267247,-0.004005198787059635
1772535221327996700,8.79499658203125,0.005041501298546791,0.0023045871479436754,-0.011692127427319064
1772535221338012700,8.8050126953125,0.01970657098889351,0.0055249922328628595,-0.016672619253629818
1772535221348028700,8.815028564453126,0.006838906109333038,-0.00936502705346793,0.0007957991533447057
1772535221358045000,8.825044921875,-0.005279986229538917,0.002359860999137163,-0.007868806279497221
1772535221368061000,8.83506103515625,0.007888122901320457,-0.0042203028424642975,0.0006440335245802998
1772535221378076700,8.84507666015625,-0.007675941455364227,0.016498404331039638,-0.006567907148227095
1772535221388092700,8.8550927734375,-0.0006423895567655563,0.020712935019843278,-0.0019760767127852885
1772535221398108700,8.865108642578125,0.0016010054558515548,-0.0006360328812152146,0.011018319818982854
1772535221408124700,8.875124755859375,0.012226444366574286,0.006349021966848522,-0.003041970644937828
1772535221418140700,8.885140625,-0.007075637474656104,0.002400485270470381,-0.00152168400879018
1772535221428157000,8.895156982421875,0.004595511096715927,-0.006386376568861305,-0.00047924401746131476
1772535221438173000,8.9051728515625,0.0047451487004756925,-0.005200947910267859,-0.0018424403957556933
1772535221448188700,8.915188720703124,-0.0015378770917654036,-0.00348636254472658,0.0020544939775485544
1772535221458204700,8.92520458984375,0.0013064064234495163,0.0021358612512238323,-0.008232114033401012
1772535221468220700,8.935220703125,-0.00003799392282962799,0.013181059943977743,-0.017867683390248565
1772535221478236700,8.945236572265625,0.007743161472678184,-0.007430186533369123,0.0019429781607817858
1772535221488253000,8.9552529296875,0.006844751328229904,-0.001168532322719693,-0.013210687897261231
1772535221498269000,8.96526904296875,0.01058627594411373,0.01573549366714433,0.003406849301420152
1772535221508285000,8.975284912109375,-0.000037409400939941404,0.0113846963128075,-0.008380463862372562
1772535221518300700,8.98530078125,0.0002624503284692764,-0.010158022328373045,-0.0039998376253526655
1772535221528316700,8.995316650390626,0.0005611410140991211,0.003477119792345911,-0.0023467549223918464
1772535221538332700,9.005332763671875,0.007145780101418495,-0.00018089125854894517,-0.011982443010248244
1772535221548348700,9.0153486328125,0.011038695886731146,-0.0020779935841448603,-0.002090095013892278
1772535221558365000,9.025364990234374,0.013581950628757476,-0.009841357594635338,-0.00029144809409044684
1772535221568381000,9.035380859375,0.0010129764348268508,-0.00457211195481941,-0.0006752049809787422
1772535221578396700,9.045396728515625,-0.0018295535147190092,0.0031781916446983814,-0.00036340821860358116
1772535221588412700,9.05541259765625,0.005503858113288879,-0.0026806539187207816,0.00042921259696595366
1772535221598428700,9.0654287109375,0.0038572599500417705,0.00018565876521170138,-0.009433644443424418
1772535221608444700,9.075444580078125,-0.00078209028840065,0.002140080768615007,0.004286536479089409
1772535221618460700,9.085460693359375,-0.0037730887979269025,-0.005889149370137602,0.008774267219239846
1772535221628477000,9.095476806640624,-0.0052700493574142455,-0.005294617543090134,-0.00848880134136416
1772535221638493000,9.105492919921875,0.010592121163010596,0.012341850907169282,-0.006370667543075978
1772535221648508700,9.1155087890625,0.009995324313640594,0.004178089402243495,-0.0018768997877836226
1772535221658524700,9.125524658203124,0.004461071062088012,-0.0015334749112837017,-0.0077409877819009125
1772535221668540700,9.135540771484376,0.0022194296151399613,0.002859152290783822,-0.0018529526566155253
1772535221678556700,9.145556640625,-0.001373041918873787,0.005286963959597051,0.0017135259196162222
1772535221688572700,9.15557275390625,0.007753098344802856,-0.005771623937692493,-0.0006134009242989122
1772535221698589000,9.1655888671875,0.0020657003581523894,-0.00870568636190146,-0.004227116175740957
1772535221708605000,9.17560498046875,0.013887071055173873,0.013928261582087724,-0.0022443083280697463
1772535221718620700,9.18562060546875,0.005807809495925903,0.010261263507138936,-0.004344842537585646
1772535221728636700,9.19563671875,0.017629764714837074,0.003996193496696651,-0.0024743268248159436
1772535221738652700,9.205652587890626,-0.01364274090528488,0.001861483022943139,0.0013192293724045157
1772535221748668700,9.215668701171875,-0.00900339066684246,-0.00866469676438719,-0.006791961695067584
1772535221758685000,9.225684814453125,0.009850947406888008,0.003266728444676846,-0.01219302615416236
1772535221768701000,9.235700927734374,0.014042553877830504,-0.004211589813046157,-0.009390974345477298
1772535221778717000,9.245717041015626,-0.002567220139503479,-0.0002757299351505935,-0.005757677610730752
1772535221788732700,9.255732666015625,0.006410451564192772,0.009774411571957171,0.002163342913193628
1772535221798748700,9.265748779296874,-0.003464461240172386,0.0027030118810012936,-0.003017712986515835
1772535221808764700,9.2757646484375,0.008508300626277924,-0.0014080036344006656,0.00300698152994737
1772535221818780700,9.28578076171875,0.014343582651019095,0.00020175138348713515,-0.001573030603537336
1772535221828797000,9.295796875,0.01733750376999378,-0.00030594241032376885,0.0003831358323805034
1772535221838813000,9.30581298828125,0.011502806267142295,0.00567081217803061,0.007939259433513507
1772535221853210600,9.320210693359375,0.010007014751434326,-0.003714453945867717,-0.0012655446900986134
1772535221863226600,9.3302265625,-0.0001689268261194229,-0.0013504464945755898,-0.005830286189215258
1772535221873243000,9.340242919921875,-0.000768061763048172,0.00283962560640648,0.007314085873030125
1772535221883259000,9.3502587890625,0.00790975021123886,0.0011243278548121452,0.004780786269437521
1772535221893275000,9.36027490234375,0.010901917764544486,0.0017232801286503673,-0.009025967824831605
1772535221903290600,9.37029052734375,0.0007265607088804244,0.0027624869832769037,-0.00382110179127194
1772535221913306600,9.380306640625,0.0022229367464780807,0.00264276959374547,-0.0003194777453318238
1772535221923322600,9.390322509765625,0.0071603931486606594,0.00221712806019932,0.001458272516913712
1772535221933338600,9.400338623046874,0.0017740239351987839,-0.0071117499676533035,-0.010679616783373057
1772535221943355000,9.41035498046875,0.0031219314128160475,0.007079820459429174,-0.010039199987985192
1772535221953371000,9.420370849609375,-0.002713350611925125,0.00493752946741879,-0.0016855602004565299
1772535221963387000,9.430386962890625,-0.0021148001968860626,-0.0009427972754463553,-0.002324552223738283
1772535221973402600,9.440402587890626,0.0022258593559265137,-0.006821717512514442,0.0015828030788805334
1772535221983418600,9.450418701171875,0.006415712261199951,0.0002247121339663863,-0.0031793150227051228
1772535221993434600,9.4604345703125,0.008960720568895339,-0.0016188333734869955,-0.010473371887858957
1772535222003451000,9.470450927734374,0.006268412744998932,-0.002573485483508557,-0.008091536518931389
1772535222013467000,9.480466796875,-0.0009141922354698181,0.014332513267733157,-0.0021239333514124154
1772535222023483000,9.49048291015625,-0.010193477234244346,-0.0022423538330011068,-0.007710409980546683
1772535222033499000,9.500498779296874,0.00851239227950573,0.003852949101105332,-0.005604012285824865
1772535222043514600,9.5105146484375,0.01928688427209854,-0.0006570756692439318,-0.00813117440957576
1772535222053530600,9.520530517578125,0.00791501090824604,0.003334825244825333,0.001599407153809443
1772535222063546600,9.530546630859375,-0.006749474260210991,-0.010434117589704691,0.005163666373491287
1772535222073563000,9.54056298828125,-0.0037561376631259917,0.0170973018059507,-0.0076739047619048505
1772535222083579000,9.550578857421876,-0.007196633505821228,0.007184084551502019,-0.016444372588861732
1772535222093595000,9.560594970703125,0.010011690926551818,0.005516827192716301,-0.0023951697745360433
1772535222103611000,9.57061083984375,-0.0021077859342098237,-0.006454911760427057,0.004845814329665154
1772535222113626600,9.580626708984376,-0.0012099603116512297,-0.0036378998446278273,-0.009257383694220333
1772535222123642600,9.590642578125,0.005224456650018691,0.004443535405397415,-0.012998250722978263
1772535222133658600,9.60065869140625,0.004323708418011665,-0.004858235419820994,0.004024314479483291
1772535222143675000,9.6106748046875,0.007464344531297683,0.0018566607173532246,-0.004755478298244998
1772535222153691000,9.62069091796875,0.005669277808070182,-0.00048149990662932395,-0.003038728375080973
1772535222163707000,9.630706787109375,0.011654781958460807,0.00623653803570196,-0.00708529121899046
1772535222173722600,9.64072265625,-0.006451952618360519,-0.003209755826741457,0.0007591295379213988
1772535222183738600,9.650738525390626,0.012400631889700888,0.00009421762209385632,-0.00563337537762709
1772535222193754600,9.660754638671875,-0.0006184241592884064,0.012088606798462569,-0.000415658995648846
1772535222204396800,9.671396728515624,-0.005405658435821533,-0.01239118820792064,-0.014373840791964902
1772535222214412800,9.681412841796876,0.004022095122933387,0.008181077965907751,0.0025096721328329292
1772535222224428500,9.691428466796875,0.003574351355433464,-0.0056093643143773075,0.002679886733740568
1772535222234444800,9.70144482421875,-0.003308393895626068,0.0009699775433167814,0.0006355944897979498
1772535222244460800,9.711460693359374,0.008811082965135573,0.0043461942444555455,-0.01279772318219766
1772535222254476500,9.7214765625,-0.005703764599561691,0.005397237667348236,-0.001439768745843321
1772535222264492800,9.731492919921875,0.0065653498649597165,0.0019759214491583406,0.009138990612095221
1772535222274508800,9.7415087890625,0.0052186114311218255,-0.0007101392970420419,-0.009099718047631903
1772535222284524800,9.75152490234375,0.002375496959686279,-0.0001302935824729502,-0.008217930244421585
1772535222294540500,9.76154052734375,-0.000018120178580284118,-0.0013850611502304673,-0.007050064641982316
1772535222304556500,9.771556640625,-0.0015127426505088806,-0.014112586906738578,-0.0056132276387419544
1772535222314572500,9.781572509765626,-0.000765139153599739,-0.0015261501213535665,-0.018651298915455118
1772535222324588500,9.791588623046875,0.002825578814744949,0.00370961337396875,-0.005649294465966522
1772535222334604800,9.801604736328125,-0.0013648586124181746,0.006362429437693208,0.002611223678011447
1772535222344620800,9.811620849609374,-0.005556465083360672,-0.0003939860199578106,-0.004664429880771786
1772535222354636500,9.821636474609376,-0.004059504523873329,0.004129464487545192,-0.0063888059879653155
1772535222364652500,9.831652587890625,0.004769698619842529,0.008886486288905144,-0.004576441070064902
1772535222374668500,9.84166845703125,0.013599486285448074,0.005388232376985252,0.011277701407531275
1772535222384684500,9.8516845703125,0.012401800933480263,-0.003248608266096562,-0.00022798180328682064
1772535222394700500,9.861700439453125,-0.001664133819937706,0.010221095893532038,0.00037275143568404017
1772535222404716800,9.871716796875,-0.004507248291373253,0.0013803667088039219,0.0033386063707992433
1772535222414732800,9.88173291015625,-0.002412321838736534,-0.0023868403376080096,-0.010454183130199088
1772535222424748500,9.89174853515625,0.0001309329032897949,-0.002066467543132603,-0.0014894257070031016
1772535222434763800,9.901763671875,0.0007294833183288574,-0.0037368849733844397,0.007440580063220113
1772535222444780500,9.911780517578125,0.007015431720018387,0.001309146369807422,0.0008870758996810764
1772535222454796500,9.921796630859374,0.0031231004565954205,0.0013607486928813159,-0.008142444722261279
1772535222464812500,9.9318125,0.005817161846160888,-0.0041810668106190855,-0.01062606909838505
1772535222474827500,9.94182763671875,-0.007500584888458252,0.0038220059735700486,0.008902633706107735
1772535222484844800,9.9518447265625,-0.0012152210086584091,0.010042469657305627,0.0028793913612142202
1772535222494859800,9.96185986328125,0.014346505260467528,0.0031796894820407032,0.0024191625714767725
1772535222504875800,9.971875732421875,0.0067155719906091685,0.0022647483278997243,-0.00819645819813013
1772535222514891500,9.9818916015625,-0.006900865429639816,-0.006756196261942386,0.0009257822085637599
1772535222524907500,9.991907470703126,0.00177636202275753,-0.001946037767548114,-0.004401102769467979
1772535222534923500,10.001923583984375,-0.0003191489517688751,-0.0043265944948419925,0.004388818676630035
1772535222544939500,10.011939453125,0.003271569016575813,0.00314766864227131,0.0008877060873433947
1772535222554955800,10.021955810546874,0.019133739537000656,-0.0016586904598399996,0.0015407449022866785
1772535222564971800,10.0319716796875,0.0005780921489000321,-0.0026739684496074915,-0.004180920680146664
1772535222574987800,10.04198779296875,-0.007351531806588173,-0.00024296017671003936,-0.01812430676613003
1772535222585003500,10.05200341796875,-0.004358195209503174,-0.006838796511478722,-0.011364630772313103
1772535222595019500,10.06201953125,0.0071639002799987785,-0.0005692329890094697,-0.010646070706797763
1772535222605035500,10.072035400390625,0.014047230052947998,-0.009878328604158014,0.0015591756081208587
1772535222615051800,10.0820517578125,-0.000768061763048172,-0.007303911538887768,-0.01150202081585303
1772535222625067800,10.09206787109375,0.001477086815237999,0.003255732126627117,-0.009121856814203784
1772535222635083800,10.102083740234375,-0.001218143618106842,-0.0017518303696997463,-0.011687341654347256
1772535222645099500,10.112099609375,0.01269815353155136,-0.0033647819916717706,0.0010442666222341358
1772535222655115500,10.122115478515624,0.00880816035568714,-0.005608834591414779,0.0006673778675496578
1772535222665131500,10.132131591796876,-0.005558218649029731,-0.003141275434102863,-0.012486026884522288
1772535222675147500,10.1421474609375,-0.008399579554796218,-0.008979516600910573,-0.008042107886634767
1772535222685163800,10.152163818359375,-0.000019289222359657286,-0.0016420133196748791,-0.004421341839898377
1772535222695179800,10.1621796875,-0.0022667758882045745,-0.0012427118037827312,-0.00356534606507048
1772535222705195800,10.17219580078125,0.0031201778471469876,-0.012724219554569571,-0.00082769212895073
1772535222715211500,10.18221142578125,-0.00899988353550434,0.001658416465204209,-0.0007669109855778515
1772535222725227500,10.1922275390625,-0.004808277064561843,0.00042609819127246735,-0.0002490793902426958
1772535222735243500,10.202243408203126,0.00013268646895885466,0.006630706718750297,-0.0050664622098673135
1772535222745259500,10.212259521484375,0.014202128353714942,-0.0008757964538410306,-0.0018983261683024465
1772535222755275800,10.22227587890625,0.01240706163048744,-0.004605776762403547,-0.0009663516809698193
1772535222765291800,10.232291748046874,0.005372925209999084,0.0022953078629449008,0.0024443244121968746
1772535222775307800,10.242307861328126,0.006719079121947288,-0.009350286142062396,0.0009141009039245545
1772535222785323500,10.252323486328125,0.011359598404169082,0.00340021863123402,-0.0043269872204866255
1772535222795339500,10.262339599609374,0.008516483932733535,0.0016026859562844036,0.002376967397565022
1772535222805355500,10.27235546875,0.007917933517694473,-0.0028821130412630736,0.0035977961631026116
1772535222815371800,10.282371826171875,0.0014841010779142378,-0.0015832506034523248,0.0058309620426502074
1772535222825387800,10.2923876953125,-0.0009112696260213852,0.008152746920567005,-0.0008335373478475958
1772535222835403800,10.30240380859375,0.00043429976403713225,-0.0048361697184853255,0.007500575755303726
1772535222845419500,10.31241943359375,0.004174655336141586,-0.005584595199301838,-0.006746843911707401
1772535222855435500,10.322435546875,0.0014800094246864319,0.007683613305166363,0.00015814057062380014
1772535222865451500,10.332451416015624,0.005969137537479401,-0.00397155224578455,-0.0012984788453206419
1772535222875467500,10.342467529296876,0.001329202777147293,0.007322835435066372,-0.00625158947436139
1772535222885483800,10.35248388671875,0.012553776624798774,-0.00228611990949139,-0.008248909904574974
1772535222895499800,10.362499755859375,-0.0022626842349767686,-0.01023771823477,-0.004061276355851441
1772535222905515800,10.372515869140624,0.008210778984427451,-0.005725903366133571,0.0009557206891011446
1772535222915531500,10.382531494140625,0.015244330883026121,0.004404810830205679,0.0026107122213579713
1772535222925547500,10.392547607421875,0.0019248305827379226,0.010760974923893808,-0.006244310350203886
1772535222935563500,10.4025634765625,-0.00002104278802871704,0.005085724032763392,-0.00732173945652321
1772535222945579500,10.41257958984375,0.0007265607088804244,-0.003359192501101643,0.007085409949999302
1772535222955595800,10.422595703125,0.012248071676492691,0.004930570003669709,-0.004404463770333677
1772535222965611800,10.43261181640625,-0.0009212064981460571,0.0031053638705052433,-0.0006058569386601447
1772535222975627800,10.442627685546874,0.010000585010647774,0.005410352877248078,-0.012509298162255435
1772535222985643500,10.4526435546875,0.005061375042796135,-0.007294449590798467,0.000006356675550341606
1772535222995659500,10.462659423828125,0.012094926941394805,-0.011974570231046528,-0.005549770481092855
1772535223005675500,10.472675537109374,0.003119593325257301,0.004405249221622944,-0.004101590099930763
1772535223015691500,10.48269140625,0.009553425765037536,0.017455997316818683,-0.0016728194498922674
1772535223025707800,10.492707763671875,0.007009586501121521,-0.007937021810654551,-0.010444593317946418
1772535223035723800,10.502723876953125,0.0014747487276792525,-0.004576532401610166,-0.005931865133857355
1772535223045739800,10.51273974609375,0.005814239236712456,-0.0007001293596811592,-0.00729514371054247
1772535223055755500,10.522755615234376,0.0005775076270103454,0.00046948067527264356,-0.00026904446603730317
1772535223065771500,10.532771484375,0.0008756137907505035,-0.001787723666988313,0.006077995606279
1772535223075787500,10.54278759765625,0.009702478846907616,0.0005347827301360667,0.0048553858756087715
1772535223085803800,10.5528037109375,0.004913491004705429,0.0016462876359932123,0.00861426348509267
1772535223095819800,10.56281982421875,0.0025198738664388657,-0.0069309135080315165,-0.0003647416591644287
1772535223105835800,10.572835693359375,-0.010797288346290589,-0.002795549002662301,-0.005343224191479385
1772535223115851500,10.5828515625,0.003119593325257301,-0.0056501347161829465,-0.0024795692555140704
1772535223125867500,10.592867431640625,0.004616553884744644,-0.005206720063928514,0.0037101156974676994
1772535223135883500,10.602883544921875,0.0011766425639390945,0.0010153145223855973,0.0005806311658583582
1772535223145899500,10.6128994140625,0.0014765022933483122,0.005626571177504956,0.0001472721167374402
1772535223155915800,10.622915771484376,0.002971709287166595,0.006858286663237958,0.01794139708043076
1772535223165931800,10.632931884765625,0.0013274492114782332,-0.004854509092774242,-0.003115775666665286
1772535223175947800,10.64294775390625,0.0067144029468297955,0.004273129008244723,-0.0049157925596460695
1772535223185963500,10.652963623046874,-0.009895955592393875,-0.0033446159864775836,-0.014052554682036861
1772535223195979500,10.6629794921875,0.006714987468719482,-0.007581413306016475,-0.007906526207691058
1772535223205995500,10.67299560546875,0.008508300626277924,0.00281167815355584,0.005963246652809903
1772535223216011500,10.683011474609375,0.004316694155335426,-0.00328572540609166,-0.007895794751122594
1772535223226027800,10.69302783203125,-0.00571077886223793,0.009307214185316114,-0.008292858644155784
1772535223236043800,10.703043701171875,-0.0061596916735172265,0.014978446488454937,-0.003378719185478985
1772535223246059800,10.713059814453125,-0.002267360410094261,-0.0004915829092264175,0.006238401199225336
1772535223256075500,10.723075439453124,0.0053641573816537854,0.0041038185896351935,-0.014294491945439948
1772535223266091500,10.733091552734376,-0.0045113399446010585,-0.009570961421728134,-0.010121982900612055
1772535223276107500,10.743107421875,-0.0027156886994838714,0.0023126973891630766,0.002354006647085771
1772535223286123500,10.75312353515625,0.007160977670550346,0.00037356428643688555,0.006587351634213701
1772535223296139500,10.763139404296876,-0.0031646015107631683,-0.003340853126812726,0.0022659721706062555
1772535223306155500,10.773155517578125,0.003269230929017067,-0.0022436142083257435,-0.006413438105722889
1772535223316171500,10.783171630859375,-0.00017418752312660217,-0.0015872326588258147,-0.0010894300713669507
1772535223326187500,10.7931875,-0.0004734627306461334,0.0018744155697524546,0.005099487696634605
1772535223336203500,10.80320361328125,0.01239361762702465,-0.010128449174016714,-0.006116080860653892
1772535223346219500,10.813219482421875,0.002366144609451294,-0.005226575541868806,-0.014901992851914837
1772535223356235500,10.823235595703125,-0.0022708675414323805,-0.0021007899378426374,0.0079336425434798
1772535223366251500,10.83325146484375,0.008653262054920195,0.0037253771986812353,-0.005372477685427293
1772535223376267500,10.843267578125,0.020324995148181913,0.0024061660925857723,-0.019521167952008544
1772535223386283500,10.853283447265625,0.0031172552376985546,-0.0010080445313826202,-0.003761115232342854
1772535223396299500,10.863299560546874,0.003866612300276756,-0.006868296600598842,-0.0017661237565334885
1772535223406315500,10.8733154296875,-0.00331657720208168,-0.0020768793392926454,-0.011078571239393204
1772535223416331500,10.88333154296875,0.012995090651512145,-0.006492156764585524,0.004646930756699294
1772535223426347500,10.893347412109375,0.006112345400452614,-0.006283464183658361,-0.012777657641703263
1772535223436363500,10.903363525390626,0.0031190088033676146,0.002147496890090406,-0.0007743819059804082
1772535223446379500,10.913379638671875,0.016436171016097068,-0.002893675614893436,-0.0024046225894708184
1772535223456395500,10.9233955078125,-0.0057090252965688705,0.002308587469626218,-0.00460782258901745
1772535223466411500,10.93341162109375,0.0070125091105699535,-0.0016091339633800088,0.006740076244203373
1772535223476427500,10.943427490234376,0.009257657688856124,0.00399679628489539,0.014012478399975225
1772535223486443500,10.953443603515625,0.004765022444725036,0.008886011364869772,-0.008560432672314345
1772535223496459500,10.96345947265625,0.015377601873874663,0.0010432802415452898,-0.004081277964264154
1772535223506475500,10.9734755859375,-0.015602642801403999,-0.005038852683734148,-0.009431023228075354
1772535223516491500,10.983491455078125,0.0008522329151630402,-0.0015525997368618844,-0.00731192131540738
1772535223526507500,10.993507568359375,0.005488660544157028,0.005443487961869687,-0.005544701580330729
1772535223536523500,11.0035234375,0.012219430103898048,-0.00252672373233363,-0.0009516747016459703
1772535223546539500,11.01353955078125,-0.0015478139638900755,0.004684486288111657,-0.008446770564233883
1772535223556555500,11.023555419921875,-0.006034603989124298,0.011332929592952132,-0.0051170416196342555
1772535223566571500,11.033571533203125,0.0030967969715595244,0.00584883562605828,0.005212309554498642
1772535223576587500,11.04358740234375,0.00639525399506092,-0.004956288966815919,-0.0005898282524663955
1772535223586603500,11.053603515625,-0.00003039513826370239,-0.002755600584764033,-0.009374881727201863
1772535223596619500,11.06361962890625,0.0004208557605743408,0.0018478563563898204,-0.00040910139069892464
