time,seconds_elapsed,z,y,x
1772535212579016000,0.046015869140625,-1.0002288818359375,-0.0174407958984375,0.013885498046875
1772535212589032000,0.056031982421875,-0.999114990234375,-0.0178070068359375,0.013885498046875
1772535212599048000,0.0660478515625,-0.998321533203125,-0.0182342529296875,0.0130615234375
1772535212609064200,0.076064208984375,-0.9998626708984375,-0.01849365234375,0.014862060546875
1772535212619080200,0.086080078125,-0.9999847412109375,-0.0176239013671875,0.0139007568359375
1772535212629096000,0.096095947265625,-1.0003509521484375,-0.018463134765625,0.014312744140625
1772535212639112000,0.10611181640625,-1.000335693359375,-0.017303466796875,0.0136871337890625
1772535212649128000,0.1161279296875,-0.9997100830078125,-0.0178070068359375,0.014190673828125
1772535212659144000,0.12614404296875,-0.999298095703125,-0.0176544189453125,0.0142364501953125
1772535212669160200,0.13616015625,-0.997802734375,-0.0185546875,0.0139923095703125
1772535212679176200,0.14617626953125,-0.99884033203125,-0.018798828125,0.01287841796875
1772535212689192000,0.15619189453125,-0.999603271484375,-0.01849365234375,0.0142059326171875
1772535212699208000,0.1662080078125,-0.9990234375,-0.017791748046875,0.0142364501953125
1772535212709224000,0.176223876953125,-0.9998016357421875,-0.0185089111328125,0.013885498046875
1772535212719240000,0.186239990234375,-1.0007476806640625,-0.0185394287109375,0.013519287109375
1772535212729256000,0.196255859375,-0.9990234375,-0.01812744140625,0.0141754150390625
1772535212739272200,0.206272216796875,-1.0000762939453125,-0.0172119140625,0.014434814453125
1772535212749288200,0.2162880859375,-0.999542236328125,-0.0175933837890625,0.0128631591796875
1772535212759304000,0.226303955078125,-0.9993438720703125,-0.01800537109375,0.0135650634765625
1772535212769320000,0.23631982421875,-0.99945068359375,-0.0185546875,0.0139312744140625
1772535212779336000,0.2463359375,-0.9989471435546875,-0.0185089111328125,0.012969970703125
1772535212789352000,0.25635205078125,-1.0007476806640625,-0.0184783935546875,0.01275634765625
1772535212799368000,0.266367919921875,-1.0001373291015625,-0.0185699462890625,0.013519287109375
1772535212809384200,0.27638427734375,-1.000213623046875,-0.0182952880859375,0.0142974853515625
1772535212819401000,0.28640087890625,-0.997894287109375,-0.01751708984375,0.013824462890625
1772535212829416000,0.296416015625,-0.9994049072265625,-0.0187225341796875,0.013519287109375
1772535212839433000,0.306432861328125,-1.000457763671875,-0.0182037353515625,0.0151214599609375
1772535212849449000,0.316448974609375,-1.0001983642578125,-0.0177459716796875,0.0142059326171875
1772535212859465200,0.32646533203125,-1.0000152587890625,-0.0185546875,0.0142059326171875
1772535212869481000,0.33648095703125,-1.000885009765625,-0.01800537109375,0.013916015625
1772535212879497000,0.3464970703125,-1.0010986328125,-0.0171051025390625,0.01385498046875
1772535212889513000,0.356512939453125,-0.999755859375,-0.0189361572265625,0.01318359375
1772535212899529000,0.366529052734375,-0.9995269775390625,-0.0181884765625,0.0146026611328125
1772535212909545000,0.376544921875,-0.999053955078125,-0.018524169921875,0.0131988525390625
1772535212919561000,0.38656103515625,-1.0001373291015625,-0.017303466796875,0.0146331787109375
1772535212929577200,0.3965771484375,-0.998046875,-0.0180511474609375,0.0139617919921875
1772535212939593000,0.406593017578125,-0.9991455078125,-0.0172271728515625,0.0134735107421875
1772535212949609000,0.41660888671875,-0.9996490478515625,-0.01751708984375,0.0141143798828125
1772535212959625000,0.426625,-0.9993896484375,-0.0179595947265625,0.0132598876953125
1772535212969641000,0.436640869140625,-0.9995574951171875,-0.01861572265625,0.0140533447265625
1772535212979657000,0.446656982421875,-0.9999847412109375,-0.0180511474609375,0.01513671875
1772535212989673000,0.4566728515625,-1.0009002685546875,-0.018096923828125,0.0144500732421875
1772535212999689200,0.466689208984375,-0.999237060546875,-0.0179290771484375,0.01434326171875
1772535213009705000,0.476705078125,-0.9996795654296875,-0.0177764892578125,0.013153076171875
1772535213019721000,0.486720947265625,-1.0002593994140625,-0.0190887451171875,0.0142364501953125
1772535213029737000,0.496737060546875,-0.9994354248046875,-0.01824951171875,0.0137786865234375
1772535213039753000,0.5067529296875,-1.000885009765625,-0.017181396484375,0.013702392578125
1772535213049769000,0.51676904296875,-0.9990386962890625,-0.0184173583984375,0.0145416259765625
1772535213059785200,0.52678515625,-0.9994659423828125,-0.0180816650390625,0.0146331787109375
1772535213069801200,0.53680126953125,-0.9999847412109375,-0.0182342529296875,0.013824462890625
1772535213079817000,0.54681689453125,-1.0006103515625,-0.0185394287109375,0.0137176513671875
1772535213089833000,0.5568330078125,-0.9993133544921875,-0.01812744140625,0.0134429931640625
1772535213099849000,0.566848876953125,-1.0000457763671875,-0.0179290771484375,0.0144500732421875
1772535213109865000,0.576864990234375,-0.9979705810546875,-0.0181121826171875,0.0133056640625
1772535213119881000,0.586880859375,-0.999603271484375,-0.01806640625,0.014801025390625
1772535213129897200,0.596897216796875,-1.0001068115234375,-0.01824951171875,0.0131988525390625
1772535213139913000,0.606912841796875,-0.998138427734375,-0.0180816650390625,0.013458251953125
1772535213149929000,0.616928955078125,-0.997650146484375,-0.0170440673828125,0.0135345458984375
1772535213159945000,0.626945068359375,-0.99810791015625,-0.0169677734375,0.014251708984375
1772535213169961000,0.6369609375,-0.9988861083984375,-0.0181732177734375,0.0150299072265625
1772535213179977000,0.64697705078125,-0.9983673095703125,-0.017578125,0.0156402587890625
1772535213189993000,0.656992919921875,-1.0004730224609375,-0.018951416015625,0.015228271484375
1772535213200009200,0.66700927734375,-0.999755859375,-0.018310546875,0.0140380859375
1772535213210025000,0.67702490234375,-1.0016021728515625,-0.0187530517578125,0.014251708984375
1772535213220041000,0.687041015625,-1.000946044921875,-0.0185546875,0.0137176513671875
1772535213230057000,0.697056884765625,-1.0002899169921875,-0.01788330078125,0.014373779296875
1772535213240073000,0.707072998046875,-0.9988555908203125,-0.0186309814453125,0.0145416259765625
1772535213250090000,0.717090087890625,-0.99951171875,-0.0173492431640625,0.01300048828125
1772535213260106000,0.72710595703125,-0.9999237060546875,-0.017364501953125,0.0128631591796875
1772535213270122000,0.7371220703125,-0.99896240234375,-0.018524169921875,0.0140838623046875
1772535213280138000,0.747137939453125,-0.9995574951171875,-0.0184478759765625,0.0146026611328125
1772535213290154000,0.757154052734375,-0.9990081787109375,-0.0167236328125,0.0148773193359375
1772535213300170000,0.767169921875,-1.00048828125,-0.0160980224609375,0.014068603515625
1772535213310186000,0.77718603515625,-0.9988555908203125,-0.0179595947265625,0.0129547119140625
1772535213320202000,0.787201904296875,-0.997955322265625,-0.0177459716796875,0.013214111328125
1772535213330218000,0.797218017578125,-0.998870849609375,-0.017852783203125,0.0144805908203125
1772535213340234000,0.80723388671875,-1.0005950927734375,-0.0170745849609375,0.0143890380859375
1772535213350250000,0.81725,-0.9997711181640625,-0.0169525146484375,0.013092041015625
1772535213360266000,0.827265869140625,-0.9996795654296875,-0.0181427001953125,0.0135040283203125
1772535213370282000,0.837281982421875,-0.99957275390625,-0.0168914794921875,0.0142822265625
1772535213380298000,0.847298095703125,-0.9993133544921875,-0.0182647705078125,0.0152740478515625
1772535213390314000,0.85731396484375,-1.0004730224609375,-0.01708984375,0.0134429931640625
1772535213400330000,0.867330078125,-0.999298095703125,-0.0172271728515625,0.0142059326171875
1772535213410346000,0.877345947265625,-0.9996337890625,-0.01861572265625,0.0150146484375
1772535213420362000,0.887362060546875,-0.999359130859375,-0.01849365234375,0.013763427734375
1772535213430378000,0.8973779296875,-0.9992828369140625,-0.0179901123046875,0.015045166015625
1772535213440394000,0.90739404296875,-0.9988555908203125,-0.0189056396484375,0.0147857666015625
1772535213450410000,0.917409912109375,-0.998931884765625,-0.0182952880859375,0.013763427734375
1772535213460425700,0.92742578125,-1.0006256103515625,-0.017913818359375,0.0137939453125
1772535213470442000,0.93744189453125,-0.9983062744140625,-0.0185089111328125,0.0137176513671875
1772535213480458000,0.9474580078125,-0.99853515625,-0.0182647705078125,0.013427734375
1772535213490474000,0.957473876953125,-1.0001220703125,-0.0179290771484375,0.015350341796875
1772535213500490000,0.967489990234375,-0.9994354248046875,-0.018341064453125,0.013946533203125
1772535213510506000,0.977506103515625,-0.99945068359375,-0.0177154541015625,0.01287841796875
1772535213520522000,0.98752197265625,-0.9999237060546875,-0.0182037353515625,0.01251220703125
1772535213530538000,0.9975380859375,-0.9989013671875,-0.0191192626953125,0.0142364501953125
1772535213540554000,1.007553955078125,-0.998138427734375,-0.0172119140625,0.0141754150390625
1772535213550570000,1.017570068359375,-0.998992919921875,-0.0174102783203125,0.01373291015625
1772535213560586000,1.0275859375,-0.999847412109375,-0.0178985595703125,0.0146942138671875
1772535213570602000,1.03760205078125,-1.000335693359375,-0.01873779296875,0.0142364501953125
1772535213580618000,1.047617919921875,-1.000274658203125,-0.0173492431640625,0.0125732421875
1772535213590634000,1.057634033203125,-0.9998016357421875,-0.018280029296875,0.014007568359375
1772535213600650000,1.06764990234375,-1.0004119873046875,-0.0182342529296875,0.0142974853515625
1772535213610666000,1.077666015625,-0.998931884765625,-0.0176239013671875,0.013458251953125
1772535213620682000,1.087681884765625,-0.999908447265625,-0.018646240234375,0.014892578125
1772535213630698000,1.097697998046875,-1.000274658203125,-0.0199432373046875,0.0135498046875
1772535213640714000,1.1077138671875,-0.999481201171875,-0.0183258056640625,0.0142669677734375
1772535213650730000,1.11772998046875,-0.99908447265625,-0.0179290771484375,0.0147857666015625
1772535213660746000,1.12774609375,-0.9991607666015625,-0.017974853515625,0.01373291015625
1772535213670762000,1.137761962890625,-0.9997711181640625,-0.0186614990234375,0.0144500732421875
1772535213680778000,1.147778076171875,-0.999114990234375,-0.017303466796875,0.0140228271484375
1772535213690794000,1.1577939453125,-0.999114990234375,-0.0168304443359375,0.013885498046875
1772535213700810000,1.16781005859375,-0.9986572265625,-0.0175018310546875,0.014617919921875
1772535213710826000,1.177825927734375,-0.9983062744140625,-0.0182037353515625,0.0138092041015625
1772535213720842000,1.187842041015625,-0.9991607666015625,-0.0167236328125,0.014129638671875
1772535213730858000,1.19785791015625,-0.999542236328125,-0.0178985595703125,0.013458251953125
1772535213740874000,1.2078740234375,-1.000152587890625,-0.0183868408203125,0.01287841796875
1772535213750890000,1.217889892578125,-0.99981689453125,-0.0179443359375,0.0143280029296875
1772535213760906000,1.227906005859375,-1,-0.017822265625,0.0127105712890625
1772535213770922000,1.237921875,-0.9990081787109375,-0.0178985595703125,0.0130462646484375
1772535213780938000,1.24793798828125,-0.99951171875,-0.018524169921875,0.0142364501953125
1772535213790954000,1.2579541015625,-1.0001220703125,-0.01690673828125,0.013641357421875
1772535213800970000,1.267969970703125,-1.0000457763671875,-0.0177459716796875,0.013336181640625
1772535213810986000,1.277986083984375,-0.9987335205078125,-0.01806640625,0.013885498046875
1772535213821002000,1.288001953125,-0.9989013671875,-0.0177764892578125,0.0141754150390625
1772535213831018000,1.29801806640625,-1.0002288818359375,-0.0178680419921875,0.0137939453125
1772535213841034000,1.308033935546875,-0.9997100830078125,-0.0184478759765625,0.0140380859375
1772535213851050000,1.318050048828125,-0.9990692138671875,-0.018096923828125,0.0138702392578125
1772535213861066000,1.32806591796875,-0.9996490478515625,-0.018218994140625,0.0133056640625
1772535213871082000,1.33808203125,-1.0005035400390625,-0.0186309814453125,0.012939453125
1772535213881098000,1.348097900390625,-0.999359130859375,-0.019561767578125,0.0132598876953125
1772535213891114000,1.358114013671875,-0.9998779296875,-0.01812744140625,0.0136871337890625
1772535213901130000,1.3681298828125,-0.999755859375,-0.0189666748046875,0.0141754150390625
1772535213911146000,1.37814599609375,-0.9992218017578125,-0.0194549560546875,0.0153961181640625
1772535213921162000,1.388161865234375,-1.000335693359375,-0.0173187255859375,0.01287841796875
1772535213931177700,1.398177734375,-0.999114990234375,-0.01806640625,0.01287841796875
1772535213941194000,1.408194091796875,-1.0003814697265625,-0.0183563232421875,0.0131072998046875
1772535213951210000,1.4182099609375,-0.998626708984375,-0.01837158203125,0.012298583984375
1772535213961226000,1.42822607421875,-0.9996185302734375,-0.0177154541015625,0.0139007568359375
1772535213971242000,1.438241943359375,-0.998992919921875,-0.017913818359375,0.0147705078125
1772535213981258000,1.448258056640625,-0.999542236328125,-0.017608642578125,0.0142822265625
1772535213991274000,1.45827392578125,-0.9989166259765625,-0.017578125,0.0128631591796875
1772535214001290000,1.4682900390625,-0.9991912841796875,-0.0182342529296875,0.0142974853515625
1772535214011306000,1.478305908203125,-0.9990386962890625,-0.017791748046875,0.012359619140625
1772535214021322000,1.488322021484375,-1.00048828125,-0.018280029296875,0.012969970703125
1772535214031339000,1.498339111328125,-0.9989166259765625,-0.017425537109375,0.01385498046875
1772535214041354000,1.50835400390625,-1.00030517578125,-0.0174407958984375,0.0145416259765625
1772535214051370000,1.518369873046875,-1,-0.0183563232421875,0.013763427734375
1772535214061387000,1.528386962890625,-0.999298095703125,-0.0167999267578125,0.013641357421875
1772535214071403000,1.538403076171875,-1.000335693359375,-0.0179290771484375,0.01318359375
1772535214081419000,1.5484189453125,-1.000274658203125,-0.018218994140625,0.0136871337890625
1772535214091435000,1.55843505859375,-0.998260498046875,-0.018035888671875,0.0130615234375
1772535214101451000,1.568450927734375,-0.99969482421875,-0.01788330078125,0.013641357421875
1772535214111467000,1.578467041015625,-0.9980621337890625,-0.01776123046875,0.0135650634765625
1772535214121483000,1.58848291015625,-0.998687744140625,-0.018157958984375,0.0132598876953125
1772535214131499000,1.5984990234375,-0.9993438720703125,-0.0182952880859375,0.0145416259765625
1772535214141515000,1.608514892578125,-0.9994659423828125,-0.018096923828125,0.013336181640625
1772535214151531000,1.618531005859375,-0.999725341796875,-0.016937255859375,0.01348876953125
1772535214161547000,1.628547119140625,-0.9996337890625,-0.0174713134765625,0.014923095703125
1772535214171563000,1.63856298828125,-0.999908447265625,-0.0193328857421875,0.0133209228515625
1772535214181578800,1.648578857421875,-0.999847412109375,-0.018310546875,0.0149688720703125
1772535214191595000,1.658594970703125,-0.999114990234375,-0.0169677734375,0.01385498046875
1772535214201611000,1.668611083984375,-0.99969482421875,-0.0180206298828125,0.0142364501953125
1772535214211627000,1.678626953125,-0.99920654296875,-0.018463134765625,0.0141448974609375
1772535214221643000,1.68864306640625,-0.999267578125,-0.01800537109375,0.0140380859375
1772535214231659000,1.698658935546875,-0.99920654296875,-0.0193634033203125,0.014434814453125
1772535214241675000,1.708675048828125,-0.999908447265625,-0.0181121826171875,0.0139923095703125
1772535214251690500,1.7186904296875,-1.0002593994140625,-0.0165557861328125,0.01336669921875
1772535214261706200,1.728706298828125,-0.999420166015625,-0.01715087890625,0.01416015625
1772535214271722200,1.73872216796875,-0.9996337890625,-0.0174713134765625,0.0140380859375
1772535214281738200,1.74873828125,-0.999176025390625,-0.0177001953125,0.0148162841796875
1772535214291754200,1.758754150390625,-0.999176025390625,-0.0178375244140625,0.0135955810546875
1772535214301770500,1.7687705078125,-0.9993438720703125,-0.01904296875,0.0142974853515625
1772535214311786500,1.778786376953125,-0.9989471435546875,-0.0176239013671875,0.0132904052734375
1772535214321802500,1.788802490234375,-0.9998626708984375,-0.0189971923828125,0.0143890380859375
1772535214331818200,1.798818359375,-0.99957275390625,-0.01702880859375,0.013702392578125
1772535214341834200,1.808834228515625,-1.0002288818359375,-0.01727294921875,0.013092041015625
1772535214351850200,1.818850341796875,-0.999176025390625,-0.0183563232421875,0.0145721435546875
1772535214361866200,1.8288662109375,-0.9976654052734375,-0.01898193359375,0.013885498046875
1772535214371882500,1.838882568359375,-0.9998321533203125,-0.0170440673828125,0.0129852294921875
1772535214381898500,1.8488984375,-0.99981689453125,-0.0173797607421875,0.0144195556640625
1772535214391914200,1.858914306640625,-0.998138427734375,-0.0193023681640625,0.014556884765625
1772535214401930200,1.86893017578125,-1.0011444091796875,-0.0181121826171875,0.0142059326171875
1772535214411946200,1.8789462890625,-1.00018310546875,-0.01861572265625,0.0138397216796875
1772535214421962200,1.888962158203125,-0.9990386962890625,-0.0194549560546875,0.0145721435546875
1772535214431978200,1.898978271484375,-0.99932861328125,-0.018280029296875,0.0134735107421875
1772535214441994500,1.908994384765625,-0.999786376953125,-0.018157958984375,0.013092041015625
1772535214452010500,1.919010498046875,-0.999603271484375,-0.01873779296875,0.0137176513671875
1772535214462026200,1.929026123046875,-0.9991455078125,-0.0171966552734375,0.0139617919921875
1772535214472042200,1.939042236328125,-1.0005950927734375,-0.017791748046875,0.0128326416015625
1772535214482058200,1.949058349609375,-0.9990997314453125,-0.018310546875,0.0134735107421875
1772535214492074200,1.95907421875,-0.999114990234375,-0.0181884765625,0.013671875
1772535214502090500,1.969090576171875,-0.9986114501953125,-0.018035888671875,0.013946533203125
1772535214512106500,1.9791064453125,-0.99969482421875,-0.0186614990234375,0.01446533203125
1772535214522122500,1.98912255859375,-1.0001373291015625,-0.0198822021484375,0.0133514404296875
1772535214532138200,1.99913818359375,-0.9987945556640625,-0.0173492431640625,0.0141754150390625
1772535214542154200,2.009154296875,-0.99810791015625,-0.0180816650390625,0.015045166015625
1772535214552170200,2.019170166015625,-0.999847412109375,-0.019256591796875,0.015106201171875
1772535214562186200,2.029186279296875,-0.99908447265625,-0.0186920166015625,0.0142669677734375
1772535214572202500,2.039202392578125,-0.9993896484375,-0.0180511474609375,0.0147857666015625
1772535214582218500,2.049218505859375,-0.999053955078125,-0.0180511474609375,0.013824462890625
1772535214592234500,2.059234375,-0.9990081787109375,-0.01727294921875,0.014495849609375
1772535214602250200,2.069250244140625,-0.9994964599609375,-0.0186614990234375,0.01409912109375
1772535214612266200,2.079266357421875,-1.0000457763671875,-0.016693115234375,0.01336669921875
1772535214622282200,2.0892822265625,-0.99932861328125,-0.0184783935546875,0.01446533203125
1772535214632298200,2.09929833984375,-0.9987640380859375,-0.0188751220703125,0.014190673828125
1772535214642314500,2.109314453125,-0.999725341796875,-0.0171051025390625,0.0135498046875
1772535214652330500,2.11933056640625,-0.9996185302734375,-0.0165863037109375,0.014404296875
1772535214662346200,2.12934619140625,-0.9998321533203125,-0.0185394287109375,0.013519287109375
1772535214672362200,2.1393623046875,-0.9996795654296875,-0.018524169921875,0.0142059326171875
1772535214682378200,2.149378173828125,-0.9980316162109375,-0.0182647705078125,0.0140228271484375
1772535214692394200,2.159394287109375,-0.997650146484375,-0.0178070068359375,0.013427734375
1772535214702410500,2.169410400390625,-0.999267578125,-0.01806640625,0.0140228271484375
1772535214712426500,2.179426513671875,-0.9989471435546875,-0.0191802978515625,0.013427734375
1772535214722442500,2.1894423828125,-1.0000762939453125,-0.0173492431640625,0.0150146484375
1772535214732458200,2.199458251953125,-1.0001373291015625,-0.01849365234375,0.0143890380859375
1772535214742474200,2.20947412109375,-0.9996337890625,-0.018768310546875,0.0127716064453125
1772535214752490200,2.219490234375,-1.000213623046875,-0.0169525146484375,0.0146331787109375
1772535214762506200,2.22950634765625,-0.997894287109375,-0.0176239013671875,0.014312744140625
1772535214772522500,2.2395224609375,-0.9990692138671875,-0.0174407958984375,0.01409912109375
1772535214782538500,2.24953857421875,-0.9996795654296875,-0.0181884765625,0.013275146484375
1772535214792554500,2.259554443359375,-0.999603271484375,-0.0186614990234375,0.012237548828125
1772535214802570200,2.2695703125,-0.9996795654296875,-0.0175628662109375,0.01336669921875
1772535214812586200,2.279586181640625,-0.9990234375,-0.016876220703125,0.0134735107421875
1772535214822602200,2.289602294921875,-0.9980316162109375,-0.0184173583984375,0.0128631591796875
1772535214832618200,2.2996181640625,-0.999969482421875,-0.017822265625,0.0141448974609375
1772535214842634500,2.309634521484375,-1.000091552734375,-0.0174407958984375,0.0140533447265625
1772535214852650500,2.319650390625,-0.9982757568359375,-0.01837158203125,0.012725830078125
1772535214862666500,2.32966650390625,-1.00030517578125,-0.017303466796875,0.01318359375
1772535214872682200,2.33968212890625,-1.0001983642578125,-0.0172576904296875,0.0140380859375
1772535214882698200,2.3496982421875,-0.99908447265625,-0.0174102783203125,0.0134429931640625
1772535214892714200,2.35971435546875,-1.0001068115234375,-0.0190887451171875,0.01336669921875
1772535214902730200,2.369730224609375,-0.999969482421875,-0.0189361572265625,0.0143280029296875
1772535214912746500,2.37974658203125,-0.99871826171875,-0.01806640625,0.0139923095703125
1772535214922762500,2.389762451171875,-0.9982147216796875,-0.016937255859375,0.0135498046875
1772535214932778200,2.3997783203125,-0.9989776611328125,-0.01739501953125,0.0140228271484375
1772535214942794200,2.409794189453125,-1.0007476806640625,-0.0175628662109375,0.01324462890625
1772535214952810200,2.419810302734375,-0.999603271484375,-0.0189666748046875,0.0126800537109375
1772535214962826200,2.429826171875,-0.99957275390625,-0.017822265625,0.0141448974609375
1772535214972842500,2.439842529296875,-0.9998626708984375,-0.0178375244140625,0.0143890380859375
1772535214982858500,2.4498583984375,-1.0000762939453125,-0.0168914794921875,0.015167236328125
1772535214992874500,2.45987451171875,-0.9990234375,-0.0174713134765625,0.0134124755859375
1772535215002890200,2.46989013671875,-0.9990234375,-0.018646240234375,0.0133819580078125
1772535215012906200,2.47990625,-0.9992523193359375,-0.0181732177734375,0.014678955078125
1772535215022922200,2.489922119140625,-0.999725341796875,-0.017913818359375,0.0139617919921875
1772535215032938200,2.499938232421875,-1.00054931640625,-0.0181884765625,0.0128173828125
1772535215042954500,2.50995458984375,-0.999053955078125,-0.01849365234375,0.01385498046875
1772535215052970500,2.519970458984375,-0.9993133544921875,-0.017181396484375,0.014373779296875
1772535215062986500,2.529986572265625,-0.9998931884765625,-0.01806640625,0.014801025390625
1772535215073002200,2.540002197265625,-1,-0.0179595947265625,0.0142364501953125
1772535215083018200,2.550018310546875,-0.9988250732421875,-0.01690673828125,0.0150909423828125
1772535215093034200,2.5600341796875,-0.9988861083984375,-0.0179443359375,0.0144805908203125
1772535215103050200,2.57005029296875,-0.9994964599609375,-0.0177001953125,0.01446533203125
1772535215113066500,2.58006640625,-1.00030517578125,-0.0167388916015625,0.013458251953125
1772535215123082500,2.59008251953125,-0.999359130859375,-0.0173187255859375,0.013946533203125
1772535215133098200,2.60009814453125,-0.998779296875,-0.0185546875,0.0138397216796875
1772535215143114200,2.6101142578125,-0.999237060546875,-0.0165557861328125,0.0130767822265625
1772535215153130200,2.620130126953125,-0.9985198974609375,-0.0178680419921875,0.014007568359375
1772535215163146200,2.630146240234375,-0.9988555908203125,-0.0173492431640625,0.01470947265625
1772535215173162500,2.64016259765625,-0.999053955078125,-0.0179290771484375,0.013916015625
1772535215183178500,2.650178466796875,-0.9984588623046875,-0.017822265625,0.0151214599609375
1772535215193194500,2.660194580078125,-0.9993438720703125,-0.017669677734375,0.01385498046875
1772535215203210200,2.670210205078125,-0.999267578125,-0.019317626953125,0.0126800537109375
1772535215213226200,2.680226318359375,-0.999908447265625,-0.017791748046875,0.0144805908203125
1772535215223242200,2.6902421875,-0.99871826171875,-0.0189666748046875,0.0143585205078125
1772535215233258200,2.70025830078125,-0.9997711181640625,-0.0180206298828125,0.0133514404296875
1772535215243274500,2.7102744140625,-0.9999847412109375,-0.0189971923828125,0.014404296875
1772535215253290200,2.720290283203125,-1.000152587890625,-0.01837158203125,0.0146484375
1772535215263306200,2.73030615234375,-0.99908447265625,-0.016998291015625,0.013885498046875
1772535215273322000,2.740322021484375,-0.9987945556640625,-0.0180206298828125,0.01416015625
1772535215283338200,2.750338134765625,-0.9996795654296875,-0.0174560546875,0.0132293701171875
1772535215293354200,2.760354248046875,-0.9997406005859375,-0.018096923828125,0.0127716064453125
1772535215303370200,2.770370361328125,-0.9992828369140625,-0.0174560546875,0.01397705078125
1772535215313386200,2.78038623046875,-0.9998779296875,-0.0176239013671875,0.013885498046875
1772535215323402200,2.79040234375,-1.00067138671875,-0.0180816650390625,0.014404296875
1772535215333418200,2.800418212890625,-1.0009002685546875,-0.0188751220703125,0.013885498046875
1772535215343434200,2.810434326171875,-0.9996337890625,-0.0178680419921875,0.01287841796875
1772535215353451300,2.820451171875,-0.9990997314453125,-0.0183868408203125,0.0140380859375
1772535215363467300,2.83046728515625,-0.9997100830078125,-0.017333984375,0.013214111328125
1772535215373482200,2.840482177734375,-0.9986419677734375,-0.017852783203125,0.0140228271484375
1772535215383499300,2.850499267578125,-0.99798583984375,-0.0181427001953125,0.0141448974609375
1772535215393515000,2.860514892578125,-0.9988861083984375,-0.017333984375,0.0148162841796875
1772535215403531300,2.87053125,-0.9993743896484375,-0.0178375244140625,0.013641357421875
1772535215413547300,2.88054736328125,-0.9994049072265625,-0.0187835693359375,0.013824462890625
1772535215423563300,2.890563232421875,-0.9997406005859375,-0.01849365234375,0.0140533447265625
1772535215433579300,2.900579345703125,-0.9990234375,-0.0177459716796875,0.0137786865234375
1772535215443595300,2.91059521484375,-0.9997406005859375,-0.0184173583984375,0.01422119140625
1772535215453611000,2.920611083984375,-1.000244140625,-0.0181427001953125,0.01434326171875
1772535215463627300,2.930627197265625,-0.999664306640625,-0.0159759521484375,0.0141143798828125
1772535215473643300,2.940643310546875,-0.998443603515625,-0.018035888671875,0.0139007568359375
1772535215483659300,2.9506591796875,-0.9992828369140625,-0.01806640625,0.013946533203125
1772535215493675300,2.96067529296875,-0.99945068359375,-0.0185089111328125,0.0145721435546875
1772535215503691300,2.970691162109375,-1.000030517578125,-0.017333984375,0.0144500732421875
1772535215513707300,2.980707275390625,-0.9989471435546875,-0.0165557861328125,0.014007568359375
1772535215523723000,2.990722900390625,-0.9995880126953125,-0.017669677734375,0.0140228271484375
1772535215533739300,3.0007392578125,-0.999755859375,-0.0179443359375,0.013336181640625
1772535215543755300,3.01075537109375,-0.9991302490234375,-0.018310546875,0.01483154296875
1772535215553771300,3.020771240234375,-0.998809814453125,-0.018218994140625,0.014495849609375
1772535215563787300,3.030787353515625,-1.000457763671875,-0.0169677734375,0.0133056640625
1772535215573803300,3.04080322265625,-0.9998626708984375,-0.0182342529296875,0.014434814453125
1772535215583819300,3.0508193359375,-0.998931884765625,-0.01763916015625,0.014434814453125
1772535215593835000,3.0608349609375,-0.999481201171875,-0.01788330078125,0.013916015625
1772535215603851300,3.070851318359375,-1.0000457763671875,-0.017303466796875,0.013580322265625
1772535215613867300,3.0808671875,-0.9994354248046875,-0.018157958984375,0.014007568359375
1772535215623883300,3.09088330078125,-0.9993743896484375,-0.0179595947265625,0.01348876953125
1772535215633899300,3.100899169921875,-1.0001678466796875,-0.0173492431640625,0.013885498046875
1772535215643915300,3.110915283203125,-0.999267578125,-0.01837158203125,0.014556884765625
1772535215653931300,3.12093115234375,-0.9994659423828125,-0.0186767578125,0.0137786865234375
1772535215663947000,3.130947021484375,-0.998199462890625,-0.0182037353515625,0.01312255859375
1772535215673963300,3.14096337890625,-0.999603271484375,-0.018707275390625,0.012908935546875
1772535215683979300,3.150979248046875,-0.9993438720703125,-0.0170440673828125,0.01336669921875
1772535215693995300,3.160995361328125,-0.999755859375,-0.0180816650390625,0.0147705078125
1772535215704011300,3.17101123046875,-0.999786376953125,-0.017974853515625,0.012847900390625
1772535215714027300,3.18102734375,-0.9998626708984375,-0.0181732177734375,0.013641357421875
1772535215724043000,3.19104296875,-0.9999542236328125,-0.0182647705078125,0.013458251953125
1772535215734059300,3.201059326171875,-0.99945068359375,-0.0181121826171875,0.0137939453125
1772535215744075300,3.2110751953125,-0.9991607666015625,-0.01751708984375,0.01397705078125
1772535215754091300,3.22109130859375,-0.999755859375,-0.0183868408203125,0.0151519775390625
1772535215764107300,3.231107177734375,-1.0007781982421875,-0.0189971923828125,0.0132904052734375
1772535215774123300,3.241123291015625,-0.9992523193359375,-0.0173797607421875,0.0135650634765625
1772535215784139300,3.25113916015625,-0.999298095703125,-0.0178070068359375,0.0144805908203125
1772535215794155000,3.261155029296875,-0.9997406005859375,-0.0180511474609375,0.01348876953125
1772535215804171300,3.271171142578125,-0.9997406005859375,-0.0181427001953125,0.0130615234375
1772535215814187300,3.281187255859375,-0.9997100830078125,-0.01739501953125,0.0128631591796875
1772535215824203300,3.291203369140625,-1.0007781982421875,-0.017059326171875,0.014434814453125
1772535215834219300,3.30121923828125,-0.99908447265625,-0.017669677734375,0.01373291015625
1772535215844235300,3.3112353515625,-0.9994659423828125,-0.0181121826171875,0.0135345458984375
1772535215854251300,3.321251220703125,-1.0005340576171875,-0.016998291015625,0.0133819580078125
1772535215864267000,3.33126708984375,-0.998779296875,-0.0167999267578125,0.01470947265625
1772535215874283300,3.341283203125,-0.9997711181640625,-0.017852783203125,0.0143585205078125
1772535215884299300,3.35129931640625,-0.99932861328125,-0.0179290771484375,0.0146331787109375
1772535215894315300,3.361315185546875,-0.9994659423828125,-0.016571044921875,0.0141448974609375
1772535215904331300,3.371331298828125,-1.0003662109375,-0.017913818359375,0.0140228271484375
1772535215914347300,3.38134716796875,-0.9997406005859375,-0.017791748046875,0.01397705078125
1772535215924363300,3.39136328125,-0.999542236328125,-0.0178985595703125,0.013092041015625
1772535215934379000,3.40137890625,-0.9991607666015625,-0.0178070068359375,0.013580322265625
1772535215944395300,3.411395263671875,-0.9995574951171875,-0.0179290771484375,0.0136871337890625
1772535215954411300,3.421411376953125,-1.0003204345703125,-0.0181427001953125,0.013092041015625
1772535215964427300,3.43142724609375,-1.00018310546875,-0.017852783203125,0.01422119140625
1772535215974443300,3.441443359375,-0.999420166015625,-0.0181121826171875,0.01318359375
1772535215984459300,3.451459228515625,-0.9997406005859375,-0.0181427001953125,0.0130615234375
1772535215994475000,3.46147509765625,-0.9988555908203125,-0.017486572265625,0.0137786865234375
1772535216004491300,3.4714912109375,-1.0001220703125,-0.016815185546875,0.014373779296875
1772535216014507300,3.48150732421875,-0.9985809326171875,-0.0175323486328125,0.01446533203125
1772535216024523300,3.491523193359375,-0.9980621337890625,-0.0176239013671875,0.0134735107421875
1772535216034539300,3.501539306640625,-1.0003509521484375,-0.0187225341796875,0.0150146484375
1772535216044555300,3.51155517578125,-0.9996490478515625,-0.0179901123046875,0.01434326171875
1772535216054571300,3.5215712890625,-0.9989013671875,-0.018035888671875,0.0142822265625
1772535216064587000,3.5315869140625,-0.998382568359375,-0.0185089111328125,0.0135650634765625
1772535216074603300,3.541603271484375,-0.999420166015625,-0.0178070068359375,0.013763427734375
1772535216084619300,3.551619384765625,-1.000091552734375,-0.017822265625,0.013824462890625
1772535216094635300,3.56163525390625,-1.0001678466796875,-0.018218994140625,0.0131988525390625
1772535216104651300,3.5716513671875,-0.999420166015625,-0.018585205078125,0.013153076171875
1772535216114667300,3.581667236328125,-0.9999847412109375,-0.0179595947265625,0.0148773193359375
1772535216124683300,3.591683349609375,-0.9989776611328125,-0.018096923828125,0.014312744140625
1772535216134699000,3.601698974609375,-1.00042724609375,-0.0198516845703125,0.0124053955078125
1772535216144715300,3.61171533203125,-0.9997711181640625,-0.0176849365234375,0.0132598876953125
1772535216154731300,3.621731201171875,-0.999237060546875,-0.0172882080078125,0.0143585205078125
1772535216164747300,3.631747314453125,-0.9997100830078125,-0.0182037353515625,0.01409912109375
1772535216174763300,3.64176318359375,-1.0001373291015625,-0.0185394287109375,0.0135345458984375
1772535216184779300,3.651779296875,-0.998809814453125,-0.017791748046875,0.0130157470703125
1772535216194795000,3.661794921875,-0.99957275390625,-0.01824951171875,0.013275146484375
1772535216204811300,3.671811279296875,-0.9986724853515625,-0.0180511474609375,0.0139007568359375
1772535216214827300,3.6818271484375,-0.9991302490234375,-0.0178375244140625,0.013824462890625
1772535216224843300,3.69184326171875,-0.999176025390625,-0.0184783935546875,0.0123443603515625
1772535216234859300,3.701859375,-0.9985504150390625,-0.0175628662109375,0.0147857666015625
1772535216244875300,3.711875244140625,-0.999725341796875,-0.017364501953125,0.01422119140625
1772535216254891500,3.7218916015625,-0.999786376953125,-0.017059326171875,0.0139617919921875
1772535216264907500,3.731907470703125,-0.9990081787109375,-0.0178070068359375,0.0137939453125
1772535216274923500,3.741923583984375,-0.999786376953125,-0.0180206298828125,0.0136566162109375
1772535216284939500,3.751939453125,-0.9994049072265625,-0.0182647705078125,0.013580322265625
1772535216294955500,3.76195556640625,-0.999176025390625,-0.018798828125,0.0139923095703125
1772535216304971500,3.771971435546875,-0.999725341796875,-0.0175018310546875,0.0142974853515625
1772535216314987500,3.781987548828125,-0.9991455078125,-0.01849365234375,0.014251708984375
1772535216325003500,3.79200341796875,-0.9996795654296875,-0.0174102783203125,0.0144805908203125
1772535216335019500,3.80201953125,-0.999053955078125,-0.0188446044921875,0.0135498046875
1772535216345035500,3.812035400390625,-0.9989013671875,-0.0177001953125,0.014190673828125
1772535216355051500,3.822051513671875,-0.9994659423828125,-0.017974853515625,0.0138702392578125
1772535216365067500,3.832067626953125,-1.0000762939453125,-0.0175018310546875,0.01434326171875
1772535216375083500,3.84208349609375,-0.99969482421875,-0.0181427001953125,0.0141143798828125
1772535216385099500,3.852099609375,-0.9987030029296875,-0.0177764892578125,0.0124969482421875
1772535216395115500,3.862115478515625,-0.99957275390625,-0.0191192626953125,0.0135345458984375
1772535216405131500,3.872131591796875,-0.9994964599609375,-0.0171661376953125,0.0142059326171875
1772535216415147500,3.8821474609375,-1.000579833984375,-0.01788330078125,0.01300048828125
1772535216425163500,3.89216357421875,-0.9995880126953125,-0.018341064453125,0.0132293701171875
1772535216435179500,3.902179443359375,-0.9998626708984375,-0.0191497802734375,0.0148773193359375
1772535216445195500,3.912195556640625,-1.000396728515625,-0.0183868408203125,0.01361083984375
1772535216455211500,3.92221142578125,-0.999847412109375,-0.0172882080078125,0.0136260986328125
1772535216465227500,3.9322275390625,-0.9995269775390625,-0.017425537109375,0.014190673828125
1772535216475243500,3.942243408203125,-1.0001373291015625,-0.0169525146484375,0.013397216796875
1772535216485259500,3.952259521484375,-0.999542236328125,-0.016815185546875,0.0130767822265625
1772535216495275500,3.962275634765625,-0.9997406005859375,-0.016815185546875,0.014434814453125
1772535216505291500,3.97229150390625,-0.9993438720703125,-0.0172882080078125,0.0141448974609375
1772535216515307500,3.9823076171875,-0.9984130859375,-0.01739501953125,0.0137481689453125
1772535216525323500,3.992323486328125,-0.999237060546875,-0.0178375244140625,0.014617919921875
1772535216535339500,4.002339599609375,-0.998870849609375,-0.017578125,0.014739990234375
1772535216545355500,4.01235546875,-0.9987945556640625,-0.017578125,0.0136260986328125
1772535216555371500,4.02237158203125,-0.9999847412109375,-0.018035888671875,0.014312744140625
1772535216565387500,4.032387451171875,-0.99786376953125,-0.0185089111328125,0.0152130126953125
1772535216575403500,4.042403564453125,-0.999786376953125,-0.0179595947265625,0.0143280029296875
1772535216585419500,4.05241943359375,-0.9999237060546875,-0.0180511474609375,0.0139617919921875
1772535216595435500,4.062435546875,-1.000030517578125,-0.018463134765625,0.0142669677734375
1772535216605451500,4.072451416015625,-1.0001983642578125,-0.01806640625,0.015777587890625
1772535216615467500,4.082467529296875,-0.998443603515625,-0.018585205078125,0.013153076171875
1772535216625483500,4.0924833984375,-0.999420166015625,-0.01806640625,0.013763427734375
1772535216635499500,4.10249951171875,-1.0003204345703125,-0.0179901123046875,0.0135345458984375
1772535216645515500,4.112515625,-0.999603271484375,-0.018341064453125,0.0138397216796875
1772535216655531500,4.122531494140625,-1.0004730224609375,-0.0175628662109375,0.0135498046875
1772535216665547500,4.132547607421875,-1.000579833984375,-0.017547607421875,0.0137481689453125
1772535216675563500,4.1425634765625,-1.000701904296875,-0.0186614990234375,0.013580322265625
1772535216685579500,4.15257958984375,-0.9990081787109375,-0.01654052734375,0.01361083984375
1772535216695595500,4.162595458984375,-1.0001220703125,-0.0181427001953125,0.0128326416015625
1772535216705611500,4.172611572265625,-1.0001373291015625,-0.0181121826171875,0.0127105712890625
1772535216715627500,4.18262744140625,-1.00030517578125,-0.01751708984375,0.01397705078125
1772535216725643500,4.1926435546875,-1.0005950927734375,-0.017547607421875,0.0142669677734375
1772535216735659500,4.202659423828125,-1.0004730224609375,-0.0181427001953125,0.0150909423828125
1772535216745675500,4.212675537109375,-0.9994659423828125,-0.0187225341796875,0.01361083984375
1772535216755691500,4.22269140625,-0.9998016357421875,-0.017791748046875,0.01409912109375
1772535216765707500,4.23270751953125,-1.00030517578125,-0.0182037353515625,0.013153076171875
1772535216775723500,4.2427236328125,-0.9986419677734375,-0.01812744140625,0.0139007568359375
1772535216785739500,4.252739501953125,-0.9988861083984375,-0.017608642578125,0.0138702392578125
1772535216795755500,4.262755615234375,-0.9998321533203125,-0.017547607421875,0.0130462646484375
1772535216805771500,4.272771484375,-0.9997406005859375,-0.0175628662109375,0.0132904052734375
1772535216815787500,4.28278759765625,-0.9990081787109375,-0.017181396484375,0.0141448974609375
1772535216825803500,4.292803466796875,-0.99945068359375,-0.01727294921875,0.01312255859375
1772535216835819500,4.302819580078125,-1.00018310546875,-0.017425537109375,0.014129638671875
1772535216845835500,4.31283544921875,-0.9999542236328125,-0.0177154541015625,0.0129241943359375
1772535216855851500,4.3228515625,-0.998443603515625,-0.0167999267578125,0.0128021240234375
1772535216865867500,4.332867431640625,-1.000457763671875,-0.0171356201171875,0.01348876953125
1772535216875883500,4.342883544921875,-0.999237060546875,-0.0180511474609375,0.0135498046875
1772535216885899500,4.3528994140625,-0.9987640380859375,-0.0184783935546875,0.013946533203125
1772535216895915500,4.36291552734375,-0.9988861083984375,-0.0169219970703125,0.0133209228515625
1772535216905931500,4.372931640625,-0.99908447265625,-0.0167236328125,0.0144805908203125
1772535216915948500,4.382948486328125,-0.9991455078125,-0.01800537109375,0.014007568359375
1772535216925963500,4.392963623046875,-1.000244140625,-0.01751708984375,0.0139007568359375
1772535216935979500,4.4029794921875,-0.9996795654296875,-0.0174102783203125,0.013641357421875
1772535216945996500,4.41299658203125,-0.998931884765625,-0.0179595947265625,0.013214111328125
1772535216956011500,4.423011474609375,-0.99755859375,-0.018402099609375,0.0128173828125
1772535216966028500,4.433028564453125,-0.99993896484375,-0.017730712890625,0.0147247314453125
1772535216976044500,4.44304443359375,-1.0001373291015625,-0.017669677734375,0.01385498046875
1772535216986060500,4.453060546875,-0.99786376953125,-0.0180206298828125,0.0124664306640625
1772535216996076500,4.46307666015625,-1.00042724609375,-0.0179595947265625,0.013397216796875
1772535217006092500,4.473092529296875,-0.99920654296875,-0.017242431640625,0.01312255859375
1772535217016108500,4.483108642578125,-0.9984588623046875,-0.0186767578125,0.01300048828125
1772535217026124500,4.49312451171875,-0.9999542236328125,-0.018707275390625,0.01446533203125
1772535217036140500,4.503140625,-0.9983062744140625,-0.0182037353515625,0.0131378173828125
1772535217046156300,4.51315625,-0.998931884765625,-0.0179595947265625,0.0141448974609375
1772535217056172500,4.523172607421875,-0.999053955078125,-0.019134521484375,0.0135650634765625
1772535217066188500,4.5331884765625,-0.9998016357421875,-0.018402099609375,0.012725830078125
1772535217076204500,4.54320458984375,-0.998809814453125,-0.0184326171875,0.0138702392578125
1772535217086220500,4.553220458984375,-0.9991302490234375,-0.0179901123046875,0.01348876953125
1772535217096236500,4.563236572265625,-0.9998626708984375,-0.0168304443359375,0.0141143798828125
1772535217106252500,4.57325244140625,-0.9991302490234375,-0.01885986328125,0.0142974853515625
1772535217116268300,4.583268310546875,-1.0002288818359375,-0.0177459716796875,0.0140838623046875
1772535217126284500,4.593284423828125,-0.9996185302734375,-0.0174560546875,0.01300048828125
1772535217136300500,4.603300537109375,-0.9994049072265625,-0.018341064453125,0.0140838623046875
1772535217146316500,4.613316650390625,-0.998779296875,-0.01763916015625,0.014190673828125
1772535217156332500,4.62333251953125,-0.999786376953125,-0.0167694091796875,0.0135345458984375
1772535217166348500,4.6333486328125,-0.99810791015625,-0.0174713134765625,0.01318359375
1772535217176364500,4.643364501953125,-0.9987945556640625,-0.017425537109375,0.0132598876953125
1772535217186380500,4.653380615234375,-0.9996185302734375,-0.0176239013671875,0.0149078369140625
1772535217196396500,4.663396484375,-0.999176025390625,-0.0174560546875,0.0147857666015625
1772535217206412500,4.67341259765625,-1.000274658203125,-0.017822265625,0.01373291015625
1772535217216428500,4.683428466796875,-0.9993438720703125,-0.0178680419921875,0.0132293701171875
1772535217226444500,4.693444580078125,-0.998992919921875,-0.0189361572265625,0.013580322265625
1772535217236460500,4.70346044921875,-0.9992218017578125,-0.01837158203125,0.0134124755859375
1772535217246476300,4.713476318359375,-0.9991912841796875,-0.0181732177734375,0.0138397216796875
1772535217256492500,4.723492431640625,-0.998321533203125,-0.0185699462890625,0.01434326171875
1772535217266508500,4.733508544921875,-0.9981536865234375,-0.0189971923828125,0.0128173828125
1772535217276524500,4.743524658203125,-1,-0.0189361572265625,0.014373779296875
1772535217286540500,4.75354052734375,-0.9996490478515625,-0.018218994140625,0.0140380859375
1772535217296556500,4.763556640625,-0.9994049072265625,-0.0179901123046875,0.013397216796875
1772535217306572500,4.773572509765625,-0.9999237060546875,-0.0189056396484375,0.0142059326171875
1772535217316588300,4.78358837890625,-0.99920654296875,-0.0184783935546875,0.0137939453125
1772535217326604500,4.7936044921875,-0.9994354248046875,-0.0186309814453125,0.0127105712890625
1772535217336620500,4.80362060546875,-1.0002899169921875,-0.017059326171875,0.0130462646484375
1772535217346636500,4.813636474609375,-0.9990386962890625,-0.0186309814453125,0.013824462890625
1772535217356652500,4.823652587890625,-0.999603271484375,-0.018310546875,0.012481689453125
1772535217366668500,4.83366845703125,-1.000579833984375,-0.0180206298828125,0.01513671875
1772535217376684500,4.8436845703125,-1.00042724609375,-0.0175628662109375,0.0140838623046875
1772535217386700500,4.853700439453125,-0.9995574951171875,-0.01837158203125,0.01409912109375
1772535217396716500,4.863716552734375,-0.9991912841796875,-0.01751708984375,0.01287841796875
1772535217406732500,4.873732666015625,-0.9992828369140625,-0.01788330078125,0.0118560791015625
1772535217416748500,4.88374853515625,-0.9999237060546875,-0.0178070068359375,0.014862060546875
1772535217426764500,4.8937646484375,-0.9997711181640625,-0.018798828125,0.0137786865234375
1772535217436780500,4.903780517578125,-0.998016357421875,-0.0184326171875,0.0144500732421875
1772535217446796500,4.913796630859375,-0.9990386962890625,-0.0179290771484375,0.0131988525390625
1772535217456812500,4.9238125,-0.9990692138671875,-0.0183868408203125,0.01385498046875
1772535217466828500,4.93382861328125,-1.0001373291015625,-0.0184783935546875,0.0134735107421875
1772535217476844500,4.943844482421875,-1.0001068115234375,-0.0177459716796875,0.013946533203125
1772535217486860500,4.953860595703125,-0.9984588623046875,-0.0189666748046875,0.01361083984375
1772535217496876500,4.96387646484375,-0.9993438720703125,-0.0178680419921875,0.013824462890625
1772535217506892500,4.973892578125,-1.0001373291015625,-0.017578125,0.014068603515625
1772535217516908300,4.983908203125,-0.998260498046875,-0.0184783935546875,0.013641357421875
1772535217526924500,4.993924560546875,-0.9997406005859375,-0.0182952880859375,0.0137481689453125
1772535217536940500,5.0039404296875,-0.9999237060546875,-0.0172119140625,0.014617919921875
1772535217546956500,5.01395654296875,-0.9985504150390625,-0.0175323486328125,0.013824462890625
1772535217556972500,5.02397265625,-1.0000762939453125,-0.018585205078125,0.013427734375
1772535217566988500,5.033988525390625,-1.0003662109375,-0.017974853515625,0.012664794921875
1772535217577004500,5.044004638671875,-0.9993896484375,-0.017913818359375,0.0129852294921875
1772535217587020300,5.054020263671875,-0.999786376953125,-0.0181732177734375,0.0134124755859375
1772535217597036500,5.06403662109375,-0.9998931884765625,-0.0179901123046875,0.0151214599609375
1772535217607052500,5.074052490234375,-0.999755859375,-0.0180816650390625,0.01416015625
1772535217617068500,5.084068603515625,-0.9996795654296875,-0.0171661376953125,0.014068603515625
1772535217627084500,5.09408447265625,-0.998931884765625,-0.0180816650390625,0.0130615234375
1772535217637100500,5.1041005859375,-1.00030517578125,-0.0193634033203125,0.0137176513671875
1772535217647116500,5.114116455078125,-0.9993743896484375,-0.0174560546875,0.01470947265625
1772535217657132500,5.124132568359375,-0.9994659423828125,-0.0186614990234375,0.0128631591796875
1772535217667148500,5.1341484375,-1.0003204345703125,-0.018035888671875,0.0128326416015625
1772535217677164500,5.14416455078125,-1.000030517578125,-0.0185699462890625,0.01373291015625
1772535217687180500,5.1541806640625,-0.9992828369140625,-0.0181427001953125,0.013580322265625
1772535217697196500,5.164196533203125,-0.9996185302734375,-0.018035888671875,0.0142974853515625
1772535217707212500,5.174212646484375,-0.9993743896484375,-0.0171661376953125,0.0142364501953125
1772535217717228300,5.184228271484375,-1.0003204345703125,-0.0178680419921875,0.01348876953125
1772535217727244500,5.19424462890625,-0.9995269775390625,-0.01788330078125,0.013275146484375
1772535217737260500,5.204260498046875,-0.9996490478515625,-0.0184326171875,0.0131988525390625
1772535217747276500,5.214276611328125,-0.998779296875,-0.0181884765625,0.0133514404296875
1772535217757292500,5.22429248046875,-0.9990386962890625,-0.0183563232421875,0.0146942138671875
1772535217767308500,5.23430859375,-0.998077392578125,-0.0178680419921875,0.01361083984375
1772535217777324500,5.244324462890625,-0.9990081787109375,-0.0172882080078125,0.0142974853515625
1772535217787340300,5.25434033203125,-0.999725341796875,-0.0185394287109375,0.0142059326171875
1772535217797356500,5.2643564453125,-0.9981689453125,-0.0175933837890625,0.0141754150390625
1772535217807372500,5.27437255859375,-1,-0.0175933837890625,0.012969970703125
1772535217817388500,5.284388427734375,-1.000213623046875,-0.0182647705078125,0.01324462890625
1772535217827404500,5.294404541015625,-0.9992218017578125,-0.0180206298828125,0.014007568359375
1772535217837420500,5.304420654296875,-1.000030517578125,-0.0182647705078125,0.0131378173828125
1772535217851818500,5.318818603515625,-0.9989776611328125,-0.0176239013671875,0.013916015625
1772535217861834500,5.32883447265625,-0.9990692138671875,-0.0184173583984375,0.0134124755859375
1772535217871850500,5.3388505859375,-0.998779296875,-0.0183563232421875,0.014251708984375
1772535217881866500,5.348866455078125,-1.000152587890625,-0.0185089111328125,0.013214111328125
1772535217891882500,5.358882568359375,-0.9998321533203125,-0.0173797607421875,0.0144195556640625
1772535217901898500,5.3688984375,-0.998046875,-0.0185394287109375,0.0129547119140625
1772535217911914500,5.37891455078125,-0.99871826171875,-0.01837158203125,0.0139312744140625
1772535217921930500,5.388930419921875,-0.99969482421875,-0.0175323486328125,0.0135955810546875
1772535217931946500,5.398946533203125,-0.9997100830078125,-0.0185089111328125,0.0131072998046875
1772535217941962500,5.40896240234375,-0.9992523193359375,-0.01739501953125,0.01318359375
1772535217951978500,5.418978515625,-1.000640869140625,-0.0174560546875,0.0136566162109375
1772535217961994500,5.428994384765625,-0.9997406005859375,-0.0182037353515625,0.0141448974609375
1772535217972010500,5.439010498046875,-0.9989776611328125,-0.0176544189453125,0.0138702392578125
1772535217982026500,5.449026611328125,-0.9987945556640625,-0.0175323486328125,0.013519287109375
1772535217992042500,5.45904248046875,-0.9993133544921875,-0.01849365234375,0.0139312744140625
1772535218002058500,5.46905859375,-0.9983673095703125,-0.0176544189453125,0.0135345458984375
1772535218012074500,5.479074462890625,-0.998077392578125,-0.018463134765625,0.0138702392578125
1772535218022090500,5.489090576171875,-0.99920654296875,-0.0175323486328125,0.0151214599609375
1772535218032106500,5.4991064453125,-0.99981689453125,-0.0185394287109375,0.0143280029296875
1772535218042122500,5.50912255859375,-0.99951171875,-0.017791748046875,0.0134124755859375
1772535218052138500,5.519138427734375,-0.9996795654296875,-0.0173187255859375,0.012939453125
1772535218062154500,5.529154541015625,-0.99920654296875,-0.01885986328125,0.014129638671875
1772535218072170500,5.53917041015625,-1.0002899169921875,-0.01727294921875,0.0139923095703125
1772535218082186500,5.5491865234375,-0.997955322265625,-0.0170135498046875,0.0148468017578125
1772535218092202500,5.559202392578125,-0.99908447265625,-0.018829345703125,0.014801025390625
1772535218102218800,5.56921875,-0.9991455078125,-0.0177764892578125,0.0131988525390625
1772535218112234500,5.579234375,-0.99755859375,-0.0185394287109375,0.013519287109375
1772535218122250500,5.58925048828125,-0.9984588623046875,-0.018707275390625,0.014678955078125
1772535218132266500,5.5992666015625,-1.000213623046875,-0.01708984375,0.0136871337890625
1772535218142282500,5.609282470703125,-0.9996490478515625,-0.018890380859375,0.0145721435546875
1772535218152298500,5.619298583984375,-1.0001983642578125,-0.0174102783203125,0.013916015625
1772535218162314500,5.629314453125,-0.9993896484375,-0.0173187255859375,0.013946533203125
1772535218172330500,5.63933056640625,-0.999755859375,-0.0189361572265625,0.0125732421875
1772535218182346500,5.649346435546875,-0.9989166259765625,-0.0184478759765625,0.0128326416015625
1772535218192362500,5.659362548828125,-0.9998321533203125,-0.017730712890625,0.01385498046875
1772535218203004700,5.670004638671875,-0.9995269775390625,-0.0172119140625,0.0147857666015625
1772535218213020700,5.680020751953125,-0.99920654296875,-0.0177459716796875,0.01446533203125
1772535218223036400,5.690036376953125,-1.0005035400390625,-0.01861572265625,0.0136566162109375
1772535218233052400,5.700052490234375,-1.000701904296875,-0.018890380859375,0.0145721435546875
1772535218243068400,5.710068359375,-0.99853515625,-0.0181732177734375,0.0136566162109375
1772535218253084700,5.720084716796875,-0.99993896484375,-0.0183258056640625,0.0130767822265625
1772535218263100700,5.7301005859375,-0.99932861328125,-0.0188751220703125,0.012664794921875
1772535218273116700,5.74011669921875,-0.9983062744140625,-0.017974853515625,0.0132598876953125
1772535218283132700,5.750132568359375,-0.997467041015625,-0.0189208984375,0.014129638671875
1772535218293148400,5.7601484375,-0.999969482421875,-0.0186767578125,0.013763427734375
1772535218303164400,5.770164306640625,-0.998931884765625,-0.0177001953125,0.0129241943359375
1772535218313180700,5.7801806640625,-0.9999542236328125,-0.017669677734375,0.013916015625
1772535218323196700,5.79019677734375,-0.998443603515625,-0.0174713134765625,0.01483154296875
1772535218333212700,5.800212646484375,-0.9984283447265625,-0.0179443359375,0.01409912109375
1772535218343228700,5.810228759765625,-0.9998931884765625,-0.0177154541015625,0.0126495361328125
1772535218353244400,5.820244384765625,-0.9986724853515625,-0.0185089111328125,0.0144805908203125
1772535218363260400,5.830260498046875,-1.00006103515625,-0.01861572265625,0.0142669677734375
1772535218373276700,5.840276611328125,-1.00030517578125,-0.017669677734375,0.0142364501953125
1772535218383292700,5.850292724609375,-0.999603271484375,-0.018402099609375,0.014007568359375
1772535218393308700,5.86030859375,-0.9999542236328125,-0.0177001953125,0.01324462890625
1772535218403324700,5.87032470703125,-0.9998931884765625,-0.0185546875,0.013214111328125
1772535218413340700,5.880340576171875,-0.9995269775390625,-0.01806640625,0.014739990234375
1772535218423356400,5.8903564453125,-0.9993743896484375,-0.0173187255859375,0.0138702392578125
1772535218433372400,5.900372314453125,-1.000762939453125,-0.018890380859375,0.0133056640625
1772535218443388700,5.910388671875,-0.999908447265625,-0.018096923828125,0.0131683349609375
1772535218453404700,5.92040478515625,-0.9998931884765625,-0.017852783203125,0.0130767822265625
1772535218463420700,5.930420654296875,-0.9982757568359375,-0.01751708984375,0.0128173828125
1772535218473436700,5.940436767578125,-0.9997711181640625,-0.0169525146484375,0.0142669677734375
1772535218483452700,5.95045263671875,-1.0001983642578125,-0.0168914794921875,0.0149078369140625
1772535218493468400,5.960468505859375,-0.9993438720703125,-0.0184326171875,0.012664794921875
1772535218503484400,5.970484375,-1.0001983642578125,-0.0188751220703125,0.0140228271484375
1772535218513500700,5.980500732421875,-0.9990997314453125,-0.01739501953125,0.0141754150390625
1772535218523516700,5.9905166015625,-1.0003509521484375,-0.01861572265625,0.0137939453125
1772535218533532700,6.00053271484375,-1.000152587890625,-0.0177154541015625,0.0144500732421875
1772535218543548700,6.010548583984375,-0.9996337890625,-0.0176544189453125,0.014129638671875
1772535218553564700,6.020564697265625,-1.000335693359375,-0.01776123046875,0.01385498046875
1772535218563580400,6.030580322265625,-0.999664306640625,-0.0190887451171875,0.013031005859375
1772535218573596400,6.040596435546875,-0.999542236328125,-0.017730712890625,0.013092041015625
1772535218583612700,6.05061279296875,-0.99853515625,-0.0183258056640625,0.0131378173828125
1772535218593628700,6.060628662109375,-0.9983367919921875,-0.01824951171875,0.0152740478515625
1772535218603644700,6.070644775390625,-0.9995269775390625,-0.018524169921875,0.0142974853515625
1772535218613660700,6.08066064453125,-0.999786376953125,-0.0190277099609375,0.013946533203125
1772535218623676400,6.090676513671875,-0.9987640380859375,-0.0166778564453125,0.013092041015625
1772535218633692400,6.1006923828125,-0.999847412109375,-0.0184173583984375,0.014129638671875
1772535218643708700,6.110708740234375,-1.0002593994140625,-0.018646240234375,0.0131988525390625
1772535218653724700,6.120724609375,-1.0004730224609375,-0.018829345703125,0.013702392578125
1772535218663740700,6.13074072265625,-0.9983062744140625,-0.0182647705078125,0.0137481689453125
1772535218673756700,6.140756591796875,-1.0005645751953125,-0.0181884765625,0.0143585205078125
1772535218683772700,6.150772705078125,-1.00030517578125,-0.0200347900390625,0.0123138427734375
1772535218693788400,6.160788330078125,-0.998748779296875,-0.0177001953125,0.0140838623046875
1772535218703804400,6.170804443359375,-0.9995574951171875,-0.0178680419921875,0.01470947265625
1772535218713820700,6.180820556640625,-0.9996795654296875,-0.01715087890625,0.0131683349609375
1772535218723836700,6.190836669921875,-0.9991302490234375,-0.01824951171875,0.014434814453125
1772535218733852700,6.200852783203125,-0.9991912841796875,-0.01812744140625,0.0130615234375
1772535218743868700,6.21086865234375,-0.9997100830078125,-0.0188140869140625,0.0131988525390625
1772535218753884700,6.220884765625,-0.9990692138671875,-0.0183868408203125,0.013427734375
1772535218763900400,6.230900390625,-1.0001373291015625,-0.017608642578125,0.0146484375
1772535218773916400,6.24091650390625,-0.9996185302734375,-0.0174713134765625,0.0132904052734375
1772535218783932700,6.2509326171875,-1.0003814697265625,-0.0185546875,0.0140838623046875
1772535218793948700,6.26094873046875,-0.9982147216796875,-0.01898193359375,0.0142364501953125
1772535218803964700,6.270964599609375,-1.0002288818359375,-0.0175323486328125,0.0135650634765625
1772535218813980700,6.280980712890625,-1.000762939453125,-0.017547607421875,0.014923095703125
1772535218823996400,6.290996337890625,-0.99951171875,-0.0178375244140625,0.012969970703125
1772535218834012400,6.301012451171875,-0.9990692138671875,-0.018341064453125,0.0129547119140625
1772535218844028700,6.311028564453125,-0.9996795654296875,-0.0183563232421875,0.01287841796875
1772535218854044700,6.321044677734375,-0.9996337890625,-0.018341064453125,0.01416015625
1772535218864060700,6.331060791015625,-0.9988555908203125,-0.017913818359375,0.013153076171875
1772535218874076700,6.34107666015625,-0.99932861328125,-0.0176849365234375,0.0135040283203125
1772535218884092700,6.3510927734375,-0.9999847412109375,-0.0185699462890625,0.0135498046875
1772535218894108400,6.3611083984375,-1.000457763671875,-0.0179901123046875,0.01239013671875
1772535218904124400,6.37112451171875,-0.9997711181640625,-0.0177001953125,0.0137176513671875
1772535218914140700,6.381140625,-0.9998016357421875,-0.017364501953125,0.0135345458984375
1772535218924156700,6.39115673828125,-1.0008087158203125,-0.0175628662109375,0.0137939453125
1772535218934172700,6.401172607421875,-0.9999847412109375,-0.0178070068359375,0.013916015625
1772535218944188700,6.411188720703125,-0.999237060546875,-0.01849365234375,0.014007568359375
1772535218954204700,6.42120458984375,-0.998992919921875,-0.01751708984375,0.0135955810546875
1772535218964220400,6.431220458984375,-0.9985504150390625,-0.0170135498046875,0.0143585205078125
1772535218974236400,6.441236328125,-0.9991912841796875,-0.018280029296875,0.0145111083984375
1772535218984252700,6.451252685546875,-0.9990234375,-0.019439697265625,0.01373291015625
1772535218994268700,6.4612685546875,-0.9981842041015625,-0.0175323486328125,0.013824462890625
1772535219004284700,6.47128466796875,-0.998687744140625,-0.0178680419921875,0.0134735107421875
1772535219014300700,6.48130078125,-0.99951171875,-0.0177459716796875,0.014373779296875
1772535219024316700,6.491316650390625,-0.99786376953125,-0.017547607421875,0.01287841796875
1772535219034332400,6.50133251953125,-0.9999237060546875,-0.01806640625,0.0134429931640625
1772535219044348400,6.511348388671875,-0.9990997314453125,-0.0172271728515625,0.0133514404296875
1772535219054364700,6.52136474609375,-0.99957275390625,-0.0179290771484375,0.014312744140625
1772535219064380700,6.531380615234375,-1.00018310546875,-0.016754150390625,0.0133514404296875
1772535219074396700,6.541396728515625,-0.999237060546875,-0.0171356201171875,0.013519287109375
1772535219084412700,6.55141259765625,-0.9993438720703125,-0.0189361572265625,0.0137481689453125
1772535219094428400,6.561428466796875,-0.9987945556640625,-0.01715087890625,0.012359619140625
1772535219104444400,6.5714443359375,-0.9990692138671875,-0.0178985595703125,0.0135345458984375
1772535219114460700,6.581460693359375,-1.0004425048828125,-0.017669677734375,0.014129638671875
1772535219124476700,6.5914765625,-0.99908447265625,-0.0178375244140625,0.0131683349609375
1772535219134492700,6.60149267578125,-0.9987030029296875,-0.0178375244140625,0.0135955810546875
1772535219144508700,6.6115087890625,-0.9992523193359375,-0.017364501953125,0.014129638671875
1772535219154524700,6.621524658203125,-0.999786376953125,-0.0179595947265625,0.013702392578125
1772535219164540400,6.63154052734375,-1.0009765625,-0.0186920166015625,0.0134124755859375
1772535219174556400,6.641556396484375,-0.999114990234375,-0.018096923828125,0.0144500732421875
1772535219184572700,6.65157275390625,-1.0001983642578125,-0.0180816650390625,0.0131988525390625
1772535219194588700,6.661588623046875,-1.0001373291015625,-0.0172271728515625,0.0135345458984375
1772535219204604700,6.671604736328125,-0.9997406005859375,-0.01812744140625,0.0135955810546875
1772535219214620700,6.68162060546875,-0.999176025390625,-0.0169219970703125,0.014434814453125
1772535219224636700,6.69163671875,-0.9995880126953125,-0.0179901123046875,0.013641357421875
1772535219234652400,6.70165234375,-0.99908447265625,-0.0196380615234375,0.0138702392578125
1772535219244668400,6.71166845703125,-0.9989013671875,-0.0177154541015625,0.01458740234375
1772535219254684400,6.721684326171875,-1.0013580322265625,-0.01751708984375,0.0138702392578125
1772535219264700400,6.731700439453125,-0.99920654296875,-0.018218994140625,0.0136871337890625
1772535219274716400,6.74171630859375,-0.9995880126953125,-0.0186767578125,0.01446533203125
1772535219284732700,6.751732666015625,-0.9998016357421875,-0.0193634033203125,0.0142364501953125
1772535219294748700,6.761748779296875,-0.9998626708984375,-0.01751708984375,0.0139312744140625
1772535219304764400,6.771764404296875,-1.0000152587890625,-0.0186614990234375,0.0143585205078125
1772535219314780400,6.781780517578125,-0.99884033203125,-0.0173492431640625,0.014068603515625
1772535219324796400,6.79179638671875,-0.999542236328125,-0.0176544189453125,0.0148468017578125
1772535219334812400,6.8018125,-1.00030517578125,-0.018341064453125,0.015106201171875
1772535219344828400,6.811828369140625,-0.998748779296875,-0.01788330078125,0.013397216796875
1772535219354844700,6.8218447265625,-0.9991912841796875,-0.0180816650390625,0.0148773193359375
1772535219364860400,6.8318603515625,-0.9995269775390625,-0.01873779296875,0.013916015625
1772535219374876400,6.84187646484375,-0.9998931884765625,-0.0177154541015625,0.0150146484375
1772535219384892400,6.851892333984375,-0.9992218017578125,-0.0164947509765625,0.0137176513671875
1772535219394908400,6.861908447265625,-0.9989166259765625,-0.018798828125,0.0124053955078125
1772535219404924400,6.87192431640625,-0.9998779296875,-0.0179290771484375,0.0142822265625
1772535219414940400,6.8819404296875,-0.9988250732421875,-0.0187835693359375,0.01446533203125
1772535219424956700,6.891956787109375,-0.9989013671875,-0.01873779296875,0.013885498046875
1772535219434972400,6.901972412109375,-0.99822998046875,-0.018798828125,0.012908935546875
1772535219444988400,6.911988525390625,-1.000244140625,-0.018646240234375,0.014068603515625
1772535219455004400,6.92200439453125,-1.00048828125,-0.0171966552734375,0.014617919921875
1772535219465020400,6.9320205078125,-0.999908447265625,-0.018585205078125,0.0143890380859375
1772535219475036400,6.942036376953125,-0.99993896484375,-0.0189056396484375,0.0135040283203125
1772535219485052700,6.952052734375,-0.999786376953125,-0.016876220703125,0.013885498046875
1772535219495068700,6.962068603515625,-0.99951171875,-0.0173187255859375,0.0136260986328125
1772535219505084400,6.97208447265625,-0.9982757568359375,-0.0177459716796875,0.0137176513671875
1772535219515100400,6.982100341796875,-0.9998016357421875,-0.019256591796875,0.0135498046875
1772535219525116400,6.992116455078125,-0.999542236328125,-0.0176239013671875,0.0143280029296875
1772535219535132400,7.00213232421875,-1,-0.018218994140625,0.0143585205078125
1772535219545148400,7.0121484375,-0.9986419677734375,-0.01885986328125,0.0136260986328125
1772535219555164700,7.02216455078125,-0.9989471435546875,-0.0174102783203125,0.0142669677734375
1772535219565180400,7.032180419921875,-0.9994354248046875,-0.0184173583984375,0.013031005859375
1772535219575196400,7.042196533203125,-0.9991302490234375,-0.0174102783203125,0.014068603515625
1772535219585212400,7.05221240234375,-0.9994354248046875,-0.0197906494140625,0.013641357421875
1772535219595228400,7.062228515625,-0.9981231689453125,-0.0185089111328125,0.013092041015625
1772535219605244400,7.072244384765625,-0.999298095703125,-0.01824951171875,0.01483154296875
1772535219615260400,7.082260498046875,-1.0001373291015625,-0.0181121826171875,0.014801025390625
1772535219625276700,7.092276611328125,-1.0002593994140625,-0.0182037353515625,0.0137176513671875
1772535219635292400,7.10229248046875,-0.9990234375,-0.017486572265625,0.014251708984375
1772535219645308400,7.112308349609375,-0.9996185302734375,-0.0191802978515625,0.01416015625
1772535219655324400,7.122324462890625,-0.999267578125,-0.0185394287109375,0.0143585205078125
1772535219665340400,7.13234033203125,-0.9987030029296875,-0.01861572265625,0.01446533203125
1772535219675356400,7.1423564453125,-0.999267578125,-0.019317626953125,0.0129241943359375
1772535219685372400,7.152372314453125,-0.9999847412109375,-0.0179443359375,0.0134735107421875
1772535219695388700,7.162388671875,-1.000152587890625,-0.016265869140625,0.0150299072265625
1772535219705404400,7.172404296875,-0.9993743896484375,-0.0179290771484375,0.0150909423828125
1772535219715420400,7.18242041015625,-0.9998931884765625,-0.018218994140625,0.0141448974609375
1772535219725436400,7.1924365234375,-0.9996490478515625,-0.0181884765625,0.012603759765625
1772535219735452400,7.202452392578125,-0.9991455078125,-0.0174713134765625,0.0137481689453125
1772535219745468400,7.212468505859375,-0.9994964599609375,-0.0174102783203125,0.0138092041015625
1772535219755484700,7.222484619140625,-1.0001220703125,-0.0172271728515625,0.0127716064453125
1772535219765500700,7.232500732421875,-0.9993896484375,-0.0187530517578125,0.0130462646484375
1772535219775516400,7.242516357421875,-1.0001983642578125,-0.018463134765625,0.013824462890625
1772535219785532400,7.252532470703125,-0.9991607666015625,-0.0190582275390625,0.0148468017578125
1772535219795548400,7.26254833984375,-1.0004730224609375,-0.0185089111328125,0.013824462890625
1772535219805564400,7.272564453125,-0.9996795654296875,-0.0182037353515625,0.0145416259765625
1772535219815580400,7.282580322265625,-0.9989166259765625,-0.0174102783203125,0.0131072998046875
1772535219825596700,7.2925966796875,-0.9995880126953125,-0.0165557861328125,0.0139312744140625
1772535219835612400,7.3026123046875,-1.0009307861328125,-0.016754150390625,0.014190673828125
1772535219845628400,7.31262841796875,-0.9995574951171875,-0.0179290771484375,0.01385498046875
1772535219855644400,7.32264453125,-0.99908447265625,-0.0176544189453125,0.01446533203125
1772535219865660400,7.332660400390625,-1.000885009765625,-0.0179443359375,0.0134429931640625
1772535219875676400,7.342676513671875,-0.9997711181640625,-0.017791748046875,0.013763427734375
1772535219885692400,7.3526923828125,-1.000274658203125,-0.0177459716796875,0.0128936767578125
1772535219895708700,7.362708740234375,-1.00048828125,-0.01788330078125,0.01416015625
1772535219905724400,7.372724365234375,-0.99908447265625,-0.0181884765625,0.0128173828125
1772535219915740400,7.382740478515625,-0.998626708984375,-0.018585205078125,0.0131072998046875
1772535219925756400,7.39275634765625,-0.99969482421875,-0.019378662109375,0.0139312744140625
1772535219935772400,7.4027724609375,-0.998809814453125,-0.0179595947265625,0.014190673828125
1772535219945788400,7.412788330078125,-0.9987945556640625,-0.01776123046875,0.0140380859375
1772535219955804700,7.4228046875,-0.999786376953125,-0.0173797607421875,0.014617919921875
1772535219965820700,7.432820556640625,-0.9983367919921875,-0.017730712890625,0.01361083984375
1772535219975836400,7.44283642578125,-0.999114990234375,-0.0189056396484375,0.0146636962890625
1772535219985852400,7.452852294921875,-0.99871826171875,-0.0171356201171875,0.015350341796875
1772535219995868400,7.462868408203125,-0.998382568359375,-0.0177764892578125,0.01568603515625
1772535220005884400,7.472884521484375,-0.9999237060546875,-0.0186920166015625,0.0145416259765625
1772535220015900400,7.482900390625,-0.9984283447265625,-0.0182647705078125,0.0140228271484375
1772535220025916700,7.492916748046875,-0.998992919921875,-0.0179443359375,0.0141754150390625
1772535220035932400,7.502932373046875,-0.9997100830078125,-0.01806640625,0.014739990234375
1772535220045948400,7.512948486328125,-0.99835205078125,-0.017852783203125,0.0132293701171875
1772535220055964400,7.52296435546875,-0.999664306640625,-0.0185546875,0.0135498046875
1772535220065980400,7.53298046875,-0.9995574951171875,-0.0192108154296875,0.01397705078125
1772535220075996400,7.542996337890625,-0.9978790283203125,-0.0182647705078125,0.01318359375
1772535220086012400,7.553012451171875,-0.9997100830078125,-0.0180816650390625,0.013519287109375
1772535220096028700,7.563028564453125,-0.999237060546875,-0.017303466796875,0.01275634765625
1772535220106044400,7.57304443359375,-0.9990386962890625,-0.0176849365234375,0.0135650634765625
1772535220116060400,7.583060302734375,-0.999237060546875,-0.018280029296875,0.0140838623046875
1772535220126076400,7.593076416015625,-0.9995880126953125,-0.01727294921875,0.0147552490234375
1772535220136092400,7.603092529296875,-1.0006103515625,-0.0189361572265625,0.01318359375
1772535220146108400,7.6131083984375,-0.9993743896484375,-0.018402099609375,0.0154266357421875
1772535220156124400,7.62312451171875,-1.00018310546875,-0.01824951171875,0.0135955810546875
1772535220166140700,7.633140625,-0.9999847412109375,-0.0180511474609375,0.0135955810546875
1772535220176156400,7.643156494140625,-0.998443603515625,-0.017547607421875,0.014556884765625
1772535220186172400,7.65317236328125,-0.998992919921875,-0.0182647705078125,0.012939453125
1772535220196188400,7.6631884765625,-0.9995269775390625,-0.01751708984375,0.0148162841796875
1772535220206204400,7.673204345703125,-0.9990386962890625,-0.019287109375,0.0141448974609375
1772535220216220400,7.683220458984375,-1.000274658203125,-0.0181884765625,0.014129638671875
1772535220226236700,7.693236572265625,-0.9992523193359375,-0.01788330078125,0.0135498046875
1772535220236252700,7.703252685546875,-0.998748779296875,-0.017120361328125,0.01422119140625
1772535220246268400,7.713268310546875,-0.9981842041015625,-0.017120361328125,0.013763427734375
1772535220256284700,7.72328466796875,-0.9992828369140625,-0.0190582275390625,0.0135498046875
1772535220266300700,7.73330078125,-0.9996795654296875,-0.0179443359375,0.0135345458984375
1772535220276316700,7.743316650390625,-0.99859619140625,-0.017547607421875,0.01373291015625
1772535220286332700,7.753332763671875,-0.9992523193359375,-0.0184173583984375,0.0139312744140625
1772535220296349000,7.763348876953125,-0.9980316162109375,-0.0181427001953125,0.0140380859375
1772535220306364700,7.77336474609375,-1.0001983642578125,-0.0178375244140625,0.013763427734375
1772535220316380700,7.783380615234375,-1.0007171630859375,-0.01708984375,0.0138702392578125
1772535220326396700,7.793396728515625,-0.99951171875,-0.0196685791015625,0.013885498046875
1772535220336412700,7.80341259765625,-0.9986724853515625,-0.0178680419921875,0.01422119140625
1772535220346428700,7.8134287109375,-0.9993896484375,-0.017791748046875,0.014007568359375
1772535220356445000,7.82344482421875,-1.0002288818359375,-0.01788330078125,0.0137786865234375
1772535220366461000,7.8334609375,-0.9993743896484375,-0.0178375244140625,0.0133819580078125
1772535220376476700,7.8434765625,-0.99871826171875,-0.0177459716796875,0.013580322265625
1772535220386492700,7.85349267578125,-0.9996185302734375,-0.018035888671875,0.0139923095703125
1772535220396508700,7.8635087890625,-1.00048828125,-0.018768310546875,0.0146484375
1772535220406524700,7.873524658203125,-0.9996185302734375,-0.018402099609375,0.012359619140625
1772535220416540700,7.883540771484375,-0.9999237060546875,-0.0177764892578125,0.0147552490234375
1772535220426557000,7.893556884765625,-0.9991912841796875,-0.0178680419921875,0.014495849609375
1772535220436572700,7.90357275390625,-0.9997406005859375,-0.018035888671875,0.013946533203125
1772535220446588700,7.913588623046875,-0.9989471435546875,-0.01800537109375,0.01361083984375
1772535220456604700,7.923604736328125,-0.99957275390625,-0.019073486328125,0.014434814453125
1772535220466620700,7.93362060546875,-0.99969482421875,-0.0184173583984375,0.01422119140625
1772535220476636700,7.94363671875,-1.000396728515625,-0.019134521484375,0.0131378173828125
1772535220486652700,7.953652587890625,-0.99951171875,-0.0178985595703125,0.012786865234375
1772535220496669000,7.9636689453125,-0.999481201171875,-0.0178985595703125,0.01324462890625
1772535220506684700,7.9736845703125,-1.0000762939453125,-0.0181884765625,0.0128021240234375
1772535220516700700,7.98370068359375,-1.0002288818359375,-0.01898193359375,0.01397705078125
1772535220526716700,7.993716552734375,-0.999267578125,-0.0178070068359375,0.0143890380859375
1772535220536732700,8.003732666015624,-0.9974822998046875,-0.0175018310546875,0.0136566162109375
1772535220546748700,8.013748779296876,-0.99932861328125,-0.0187225341796875,0.0136566162109375
1772535220556764700,8.0237646484375,-0.999114990234375,-0.0167999267578125,0.0143585205078125
1772535220566781000,8.033781005859375,-0.99945068359375,-0.0173492431640625,0.013092041015625
1772535220576796700,8.043796630859376,-0.9994659423828125,-0.0182342529296875,0.013946533203125
1772535220586812700,8.053812744140625,-1.0001373291015625,-0.0184173583984375,0.01385498046875
1772535220596828700,8.06382861328125,-1.000213623046875,-0.0176239013671875,0.0131683349609375
1772535220606844700,8.0738447265625,-0.9995574951171875,-0.0176849365234375,0.0133514404296875
1772535220616860700,8.083860595703126,-0.9997711181640625,-0.0200347900390625,0.0138702392578125
1772535220626877000,8.093876953125,-0.9997406005859375,-0.0186614990234375,0.0140533447265625
1772535220636892700,8.103892578125,-0.9998321533203125,-0.01751708984375,0.01361083984375
1772535220646908700,8.11390869140625,-0.999114990234375,-0.0177459716796875,0.0142059326171875
1772535220656924700,8.123924560546875,-0.999481201171875,-0.0182647705078125,0.0142974853515625
1772535220666940700,8.133940673828125,-0.998992919921875,-0.01824951171875,0.01361083984375
1772535220676956700,8.143956787109374,-0.9993133544921875,-0.017852783203125,0.01470947265625
1772535220686972700,8.15397265625,-0.9987030029296875,-0.0177001953125,0.0143280029296875
1772535220696989000,8.163989013671875,-0.999847412109375,-0.0194244384765625,0.0139312744140625
1772535220707004700,8.174004638671875,-0.9982757568359375,-0.017974853515625,0.0144805908203125
1772535220717020700,8.184020751953126,-0.9999542236328125,-0.0169219970703125,0.0146026611328125
1772535220727036700,8.19403662109375,-0.9997100830078125,-0.018310546875,0.0131683349609375
1772535220737052700,8.204052734375,-1.0012054443359375,-0.0184783935546875,0.013397216796875
1772535220747068700,8.214068603515624,-1.00152587890625,-0.0174102783203125,0.0138397216796875
1772535220757084700,8.224084716796876,-1.0000762939453125,-0.01910400390625,0.0135955810546875
1772535220767101000,8.234100830078125,-0.9997406005859375,-0.019195556640625,0.0129241943359375
1772535220777116700,8.24411669921875,-0.999267578125,-0.0175933837890625,0.0136566162109375
1772535220787132700,8.254132568359376,-0.9991912841796875,-0.0176544189453125,0.0128326416015625
1772535220797148700,8.264148681640625,-0.999053955078125,-0.01800537109375,0.0135650634765625
1772535220807164700,8.27416455078125,-0.9993438720703125,-0.01873779296875,0.0132904052734375
1772535220817180700,8.2841806640625,-0.999755859375,-0.0195770263671875,0.01458740234375
1772535220827197000,8.294197021484376,-0.99957275390625,-0.017333984375,0.01446533203125
1772535220837213000,8.304212890625,-0.9987335205078125,-0.0170745849609375,0.0143280029296875
1772535220847228700,8.314228759765625,-0.99951171875,-0.0173187255859375,0.0126800537109375
1772535220857244700,8.32424462890625,-0.99884033203125,-0.0181732177734375,0.0142364501953125
1772535220867260700,8.3342607421875,-1.00103759765625,-0.0181121826171875,0.0135955810546875
1772535220877276700,8.344276611328125,-0.999725341796875,-0.017242431640625,0.013092041015625
1772535220887292700,8.354292724609374,-0.9981689453125,-0.018524169921875,0.01446533203125
1772535220897309000,8.364308837890626,-0.9999542236328125,-0.0185699462890625,0.01422119140625
1772535220907324700,8.37432470703125,-0.999542236328125,-0.0182342529296875,0.014129638671875
1772535220917340700,8.384340576171875,-1.000091552734375,-0.018524169921875,0.0144805908203125
1772535220927356700,8.394356689453126,-0.9991455078125,-0.0194091796875,0.0136566162109375
1772535220937372700,8.40437255859375,-0.9983673095703125,-0.0181427001953125,0.0136260986328125
1772535220947388700,8.414388671875,-1.0004425048828125,-0.0167388916015625,0.0137481689453125
1772535220957404700,8.42440478515625,-0.9998321533203125,-0.0180206298828125,0.0136566162109375
1772535220967421000,8.4344208984375,-0.998565673828125,-0.01708984375,0.013763427734375
1772535220977436700,8.444436767578125,-1.0001678466796875,-0.0170440673828125,0.0134124755859375
1772535220987452700,8.45445263671875,-1.0006561279296875,-0.01727294921875,0.013641357421875
1772535220997468700,8.46446875,-1.0000457763671875,-0.0177001953125,0.014007568359375
1772535221007484700,8.474484619140625,-0.9996185302734375,-0.0184783935546875,0.0135650634765625
1772535221017500700,8.484500732421875,-0.9997406005859375,-0.01788330078125,0.0137939453125
1772535221027516700,8.4945166015625,-0.99945068359375,-0.018157958984375,0.0145111083984375
1772535221037533000,8.504532958984376,-0.999725341796875,-0.017486572265625,0.0153350830078125
1772535221047548700,8.514548583984375,-0.999420166015625,-0.0167388916015625,0.01434326171875
1772535221057564700,8.524564697265625,-0.9995269775390625,-0.0176239013671875,0.01324462890625
1772535221067580700,8.53458056640625,-0.999603271484375,-0.018951416015625,0.013214111328125
1772535221077596700,8.5445966796875,-0.9998016357421875,-0.019561767578125,0.013916015625
1772535221087612700,8.55461279296875,-1.00018310546875,-0.0166473388671875,0.0140228271484375
1772535221097629000,8.56462890625,-1.0000457763671875,-0.0177459716796875,0.0142974853515625
1772535221107644700,8.574644775390626,-0.9990692138671875,-0.0179901123046875,0.01348876953125
1772535221117660700,8.58466064453125,-0.9999237060546875,-0.0177154541015625,0.0128021240234375
1772535221127676700,8.5946767578125,-0.9988555908203125,-0.018829345703125,0.014434814453125
1772535221137692700,8.604692626953126,-0.9985198974609375,-0.0177001953125,0.014129638671875
1772535221147708700,8.614708740234375,-1.0002288818359375,-0.0178375244140625,0.0134735107421875
1772535221157724700,8.624724609375,-0.998565673828125,-0.0184326171875,0.01312255859375
1772535221167741000,8.634740966796874,-0.9998016357421875,-0.01678466796875,0.0133209228515625
1772535221177756700,8.644756591796876,-0.999725341796875,-0.018096923828125,0.014617919921875
1772535221187772700,8.654772705078125,-1.0006256103515625,-0.0177154541015625,0.0140533447265625
1772535221197788700,8.66478857421875,-0.99951171875,-0.017303466796875,0.0129852294921875
1772535221207804700,8.6748046875,-0.999969482421875,-0.0177764892578125,0.0130767822265625
1772535221217820700,8.684820556640625,-0.999359130859375,-0.018768310546875,0.0145721435546875
1772535221227836700,8.694836669921875,-1.0001220703125,-0.017059326171875,0.01409912109375
1772535221237853000,8.70485302734375,-0.9994659423828125,-0.01715087890625,0.0146942138671875
1772535221247868700,8.71486865234375,-0.9993133544921875,-0.017303466796875,0.0139923095703125
1772535221257884700,8.724884765625,-1.0001983642578125,-0.0179443359375,0.0133514404296875
1772535221267900700,8.734900634765625,-0.999481201171875,-0.01776123046875,0.013031005859375
1772535221277916700,8.744916748046874,-0.9998321533203125,-0.018096923828125,0.013580322265625
1772535221287933000,8.754932861328125,-0.9998779296875,-0.0192718505859375,0.0137939453125
1772535221297949000,8.764948974609375,-0.99993896484375,-0.0172882080078125,0.0128021240234375
1772535221307965000,8.77496484375,-1.000213623046875,-0.01922607421875,0.013641357421875
1772535221317980700,8.784980712890626,-0.9998321533203125,-0.0177154541015625,0.013458251953125
1772535221327996700,8.79499658203125,-0.9991455078125,-0.0184326171875,0.013458251953125
1772535221338012700,8.8050126953125,-0.998260498046875,-0.018096923828125,0.0131378173828125
1772535221348028700,8.815028564453126,-0.9983978271484375,-0.0189208984375,0.013885498046875
1772535221358045000,8.825044921875,-1.0013427734375,-0.0178375244140625,0.013702392578125
1772535221368061000,8.83506103515625,-0.999237060546875,-0.018585205078125,0.0142059326171875
1772535221378076700,8.84507666015625,-1.00030517578125,-0.01715087890625,0.014984130859375
1772535221388092700,8.8550927734375,-1.000244140625,-0.0162200927734375,0.0131072998046875
1772535221398108700,8.865108642578125,-0.999908447265625,-0.01739501953125,0.0148773193359375
1772535221408124700,8.875124755859375,-0.998809814453125,-0.017547607421875,0.0145263671875
1772535221418140700,8.885140625,-0.9999542236328125,-0.0168914794921875,0.0139617919921875
1772535221428157000,8.895156982421875,-1.00006103515625,-0.018829345703125,0.013580322265625
1772535221438173000,8.9051728515625,-0.9996185302734375,-0.0176544189453125,0.01434326171875
1772535221448188700,8.915188720703124,-1.000579833984375,-0.0179595947265625,0.0140228271484375
1772535221458204700,8.92520458984375,-0.9988250732421875,-0.0174407958984375,0.0143890380859375
1772535221468220700,8.935220703125,-1.0000152587890625,-0.016632080078125,0.0119781494140625
1772535221478236700,8.945236572265625,-0.999542236328125,-0.01812744140625,0.01531982421875
1772535221488253000,8.9552529296875,-0.9993743896484375,-0.0183563232421875,0.01239013671875
1772535221498269000,8.96526904296875,-0.9985198974609375,-0.0161590576171875,0.014739990234375
1772535221508285000,8.975284912109375,-0.9991912841796875,-0.0174407958984375,0.0138397216796875
1772535221518300700,8.98530078125,-1.000213623046875,-0.0187225341796875,0.0141143798828125
1772535221528316700,8.995316650390626,-0.9990997314453125,-0.0182037353515625,0.0139617919921875
1772535221538332700,9.005332763671875,-1.000030517578125,-0.0179595947265625,0.0138397216796875
1772535221548348700,9.0153486328125,-0.9984588623046875,-0.01776123046875,0.0137939453125
1772535221558365000,9.025364990234374,-0.9988555908203125,-0.0184783935546875,0.01434326171875
1772535221568381000,9.035380859375,-0.998931884765625,-0.0188446044921875,0.0142364501953125
1772535221578396700,9.045396728515625,-0.9994659423828125,-0.01788330078125,0.0133819580078125
1772535221588412700,9.05541259765625,-0.999237060546875,-0.0186614990234375,0.01409912109375
1772535221598428700,9.0654287109375,-0.999969482421875,-0.01861572265625,0.0133056640625
1772535221608444700,9.075444580078125,-0.9996185302734375,-0.0180206298828125,0.01385498046875
1772535221618460700,9.085460693359375,-1.0005645751953125,-0.0183258056640625,0.0147857666015625
1772535221628477000,9.095476806640624,-1.0013427734375,-0.0182952880859375,0.0141143798828125
1772535221638493000,9.105492919921875,-0.9986419677734375,-0.017059326171875,0.0135498046875
1772535221648508700,9.1155087890625,-0.998870849609375,-0.0178680419921875,0.01397705078125
1772535221658524700,9.125524658203124,-0.9994659423828125,-0.0184326171875,0.01300048828125
1772535221668540700,9.135540771484376,-0.999664306640625,-0.01708984375,0.013702392578125
1772535221678556700,9.145556640625,-0.9996185302734375,-0.017425537109375,0.014892578125
1772535221688572700,9.15557275390625,-0.9987335205078125,-0.0181427001953125,0.0129547119140625
1772535221698589000,9.1655888671875,-0.9991302490234375,-0.0187835693359375,0.014007568359375
1772535221708605000,9.17560498046875,-0.99835205078125,-0.0171051025390625,0.013458251953125
1772535221718620700,9.18562060546875,-0.99945068359375,-0.017120361328125,0.013519287109375
1772535221728636700,9.19563671875,-0.9980316162109375,-0.0177764892578125,0.0139923095703125
1772535221738652700,9.205652587890626,-0.9998626708984375,-0.0179901123046875,0.014251708984375
1772535221748668700,9.215668701171875,-1.0009307861328125,-0.0186309814453125,0.0134124755859375
1772535221758685000,9.225684814453125,-0.9995880126953125,-0.0175323486328125,0.014007568359375
1772535221768701000,9.235700927734374,-0.998687744140625,-0.01800537109375,0.0135955810546875
1772535221778717000,9.245717041015626,-0.998931884765625,-0.018157958984375,0.0137939453125
1772535221788732700,9.255732666015625,-0.998565673828125,-0.0173187255859375,0.0139007568359375
1772535221798748700,9.265748779296874,-0.999664306640625,-0.0177154541015625,0.01324462890625
1772535221808764700,9.2757646484375,-0.9995574951171875,-0.0182037353515625,0.01422119140625
1772535221818780700,9.28578076171875,-0.998321533203125,-0.0176544189453125,0.0140228271484375
1772535221828797000,9.295796875,-0.9979705810546875,-0.018157958984375,0.0140228271484375
1772535221838813000,9.30581298828125,-0.9988250732421875,-0.0172119140625,0.015228271484375
1772535221853210600,9.320210693359375,-0.99871826171875,-0.0183563232421875,0.0139923095703125
1772535221863226600,9.3302265625,-0.999755859375,-0.0181121826171875,0.0135345458984375
1772535221873243000,9.340242919921875,-0.99981689453125,-0.0176849365234375,0.0148773193359375
1772535221883259000,9.3502587890625,-0.998931884765625,-0.0178680419921875,0.014617919921875
1772535221893275000,9.36027490234375,-0.998626708984375,-0.0178070068359375,0.013214111328125
1772535221903290600,9.37029052734375,-0.999664306640625,-0.0177001953125,0.0137481689453125
1772535221913306600,9.380306640625,-0.99951171875,-0.0177154541015625,0.01409912109375
1772535221923322600,9.390322509765625,-0.9990081787109375,-0.01776123046875,0.0142822265625
1772535221933338600,9.400338623046874,-0.9995574951171875,-0.018707275390625,0.0130462646484375
1772535221943355000,9.41035498046875,-0.999420166015625,-0.0172576904296875,0.0131072998046875
1772535221953371000,9.420370849609375,-1.0000152587890625,-0.0174713134765625,0.0139617919921875
1772535221963387000,9.430386962890625,-0.9999542236328125,-0.01806640625,0.0139007568359375
1772535221973402600,9.440402587890626,-0.99951171875,-0.0186614990234375,0.0142974853515625
1772535221983418600,9.450418701171875,-0.99908447265625,-0.0179443359375,0.0138092041015625
1772535221993434600,9.4604345703125,-0.9988250732421875,-0.01812744140625,0.0130615234375
1772535222003451000,9.470450927734374,-0.9990997314453125,-0.018218994140625,0.0133056640625
1772535222013467000,9.480466796875,-0.9998321533203125,-0.0164947509765625,0.013916015625
1772535222023483000,9.49048291015625,-1.0007781982421875,-0.0181884765625,0.0133514404296875
1772535222033499000,9.500498779296874,-0.998870849609375,-0.0175628662109375,0.0135650634765625
1772535222043514600,9.5105146484375,-0.997772216796875,-0.0180206298828125,0.0133056640625
1772535222053530600,9.520530517578125,-0.998931884765625,-0.017608642578125,0.0142974853515625
1772535222063546600,9.530546630859375,-1.00042724609375,-0.019012451171875,0.0146636962890625
1772535222073563000,9.54056298828125,-1.0001220703125,-0.016204833984375,0.0133514404296875
1772535222083579000,9.550578857421876,-1.0004730224609375,-0.0172119140625,0.012451171875
1772535222093595000,9.560594970703125,-0.99871826171875,-0.0173797607421875,0.013885498046875
1772535222103611000,9.57061083984375,-0.9999542236328125,-0.0186004638671875,0.014617919921875
1772535222113626600,9.580626708984376,-0.9998626708984375,-0.018310546875,0.01318359375
1772535222123642600,9.590642578125,-0.99920654296875,-0.017486572265625,0.0128021240234375
1772535222133658600,9.60065869140625,-0.999298095703125,-0.0184478759765625,0.0145416259765625
1772535222143675000,9.6106748046875,-0.9989776611328125,-0.0177764892578125,0.013641357421875
1772535222153691000,9.62069091796875,-0.9991607666015625,-0.01800537109375,0.013824462890625
1772535222163707000,9.630706787109375,-0.9985504150390625,-0.0173187255859375,0.0134124755859375
1772535222173722600,9.64072265625,-1.000396728515625,-0.018280029296875,0.01422119140625
1772535222183738600,9.650738525390626,-0.99847412109375,-0.0179443359375,0.013580322265625
1772535222193754600,9.660754638671875,-0.9998016357421875,-0.0167236328125,0.0141143798828125
1772535222204396800,9.671396728515624,-1.0002899169921875,-0.0192108154296875,0.0126953125
1772535222214412800,9.681412841796876,-0.99932861328125,-0.0171051025390625,0.0144195556640625
1772535222224428500,9.691428466796875,-0.9993743896484375,-0.0185089111328125,0.014434814453125
1772535222234444800,9.70144482421875,-1.0000762939453125,-0.0178375244140625,0.01422119140625
1772535222244460800,9.711460693359374,-0.99884033203125,-0.0175018310546875,0.012847900390625
1772535222254476500,9.7214765625,-1.0003204345703125,-0.01739501953125,0.014007568359375
1772535222264492800,9.731492919921875,-0.9990692138671875,-0.0177459716796875,0.0150909423828125
1772535222274508800,9.7415087890625,-0.99920654296875,-0.0180206298828125,0.0132293701171875
1772535222284524800,9.75152490234375,-0.9994964599609375,-0.0179595947265625,0.0133209228515625
1772535222294540500,9.76154052734375,-0.9997406005859375,-0.0180816650390625,0.0134429931640625
1772535222304556500,9.771556640625,-0.9998931884765625,-0.019378662109375,0.013580322265625
1772535222314572500,9.781572509765626,-0.99981689453125,-0.018096923828125,0.0122528076171875
1772535222324588500,9.791588623046875,-0.99945068359375,-0.0175628662109375,0.013580322265625
1772535222334604800,9.801604736328125,-0.9998779296875,-0.0172882080078125,0.014434814453125
1772535222344620800,9.811620849609374,-1.00030517578125,-0.0179901123046875,0.0136871337890625
1772535222354636500,9.821636474609376,-1.000152587890625,-0.0175323486328125,0.0135040283203125
1772535222364652500,9.831652587890625,-0.9992523193359375,-0.0170440673828125,0.0136871337890625
1772535222374668500,9.84166845703125,-0.99835205078125,-0.01739501953125,0.0153045654296875
1772535222384684500,9.8516845703125,-0.99847412109375,-0.018280029296875,0.014129638671875
1772535222394700500,9.861700439453125,-0.999908447265625,-0.01690673828125,0.014190673828125
1772535222404716800,9.871716796875,-1.0001983642578125,-0.0178070068359375,0.014495849609375
1772535222414732800,9.88173291015625,-0.9999847412109375,-0.0181884765625,0.013092041015625
1772535222424748500,9.89174853515625,-0.999725341796875,-0.018157958984375,0.014007568359375
1772535222434763800,9.901763671875,-0.999664306640625,-0.0183258056640625,0.014923095703125
1772535222444780500,9.911780517578125,-0.9990234375,-0.0178070068359375,0.014251708984375
1772535222454796500,9.921796630859374,-0.999420166015625,-0.0178070068359375,0.013336181640625
1772535222464812500,9.9318125,-0.9991455078125,-0.01837158203125,0.0130767822265625
1772535222474827500,9.94182763671875,-1.0005035400390625,-0.0175628662109375,0.0150604248046875
1772535222484844800,9.9518447265625,-0.9998626708984375,-0.0169219970703125,0.0144500732421875
1772535222494859800,9.96185986328125,-0.9982757568359375,-0.0176239013671875,0.014404296875
1772535222504875800,9.971875732421875,-0.999053955078125,-0.0177154541015625,0.0133209228515625
1772535222514891500,9.9818916015625,-1.0004425048828125,-0.0186309814453125,0.014251708984375
1772535222524907500,9.991907470703126,-0.9995574951171875,-0.0181427001953125,0.0137176513671875
1772535222534923500,10.001923583984375,-0.9997711181640625,-0.0183868408203125,0.014617919921875
1772535222544939500,10.011939453125,-0.9994049072265625,-0.0176239013671875,0.0142669677734375
1772535222554955800,10.021955810546874,-0.9977874755859375,-0.0181121826171875,0.0143280029296875
1772535222564971800,10.0319716796875,-0.9996795654296875,-0.018218994140625,0.0137481689453125
1772535222574987800,10.04198779296875,-1.00048828125,-0.0179595947265625,0.0123291015625
1772535222585003500,10.05200341796875,-1.00018310546875,-0.0186309814453125,0.0130157470703125
1772535222595019500,10.06201953125,-0.9990081787109375,-0.0179901123046875,0.013092041015625
1772535222605035500,10.072035400390625,-0.9983062744140625,-0.0189361572265625,0.01434326171875
1772535222615051800,10.0820517578125,-0.99981689453125,-0.0186767578125,0.0130157470703125
1772535222625067800,10.09206787109375,-0.9995880126953125,-0.0175933837890625,0.0132598876953125
1772535222635083800,10.102083740234375,-0.9998626708984375,-0.0181121826171875,0.01300048828125
1772535222645099500,10.112099609375,-0.998443603515625,-0.018280029296875,0.0142974853515625
1772535222655115500,10.122115478515624,-0.99884033203125,-0.0185089111328125,0.014251708984375
1772535222665131500,10.132131591796876,-1.00030517578125,-0.0182647705078125,0.012908935546875
1772535222675147500,10.1421474609375,-1.0005950927734375,-0.01885986328125,0.0133514404296875
1772535222685163800,10.152163818359375,-0.9997406005859375,-0.0181121826171875,0.0137176513671875
1772535222695179800,10.1621796875,-0.999969482421875,-0.0180816650390625,0.0138092041015625
1772535222705195800,10.17219580078125,-0.999420166015625,-0.019256591796875,0.0140838623046875
1772535222715211500,10.18221142578125,-1.0006561279296875,-0.017791748046875,0.0140838623046875
1772535222725227500,10.1922275390625,-1.0002288818359375,-0.017913818359375,0.014129638671875
1772535222735243500,10.202243408203126,-0.999725341796875,-0.01727294921875,0.0136260986328125
1772535222745259500,10.212259521484375,-0.998291015625,-0.0180206298828125,0.013946533203125
1772535222755275800,10.22227587890625,-0.99847412109375,-0.018402099609375,0.0140380859375
1772535222765291800,10.232291748046874,-0.9991912841796875,-0.0177001953125,0.0143890380859375
1772535222775307800,10.242307861328126,-0.999053955078125,-0.018890380859375,0.0142364501953125
1772535222785323500,10.252323486328125,-0.9985809326171875,-0.017578125,0.013702392578125
1772535222795339500,10.262339599609374,-0.998870849609375,-0.01776123046875,0.0143890380859375
1772535222805355500,10.27235546875,-0.998931884765625,-0.018218994140625,0.0145111083984375
1772535222815371800,10.282371826171875,-0.9995880126953125,-0.0180816650390625,0.014739990234375
1772535222825387800,10.2923876953125,-0.9998321533203125,-0.01708984375,0.014068603515625
1772535222835403800,10.30240380859375,-0.99969482421875,-0.0184173583984375,0.014923095703125
1772535222845419500,10.31241943359375,-0.9993133544921875,-0.01849365234375,0.0134735107421875
1772535222855435500,10.322435546875,-0.9995880126953125,-0.01715087890625,0.0141754150390625
1772535222865451500,10.332451416015624,-0.9991302490234375,-0.018341064453125,0.0140228271484375
1772535222875467500,10.342467529296876,-0.999603271484375,-0.0171966552734375,0.013519287109375
1772535222885483800,10.35248388671875,-0.9984588623046875,-0.0181732177734375,0.0133056640625
1772535222895499800,10.362499755859375,-0.999969482421875,-0.0189971923828125,0.01373291015625
1772535222905515800,10.372515869140624,-0.9989013671875,-0.0185394287109375,0.014251708984375
1772535222915531500,10.382531494140625,-0.9981842041015625,-0.0175018310546875,0.0144195556640625
1772535222925547500,10.392547607421875,-0.999542236328125,-0.0168609619140625,0.013519287109375
1772535222935563500,10.4025634765625,-0.9997406005859375,-0.0174407958984375,0.0134124755859375
1772535222945579500,10.41257958984375,-0.999664306640625,-0.018310546875,0.0148773193359375
1772535222955595800,10.422595703125,-0.9984893798828125,-0.0174713134765625,0.013702392578125
1772535222965611800,10.43261181640625,-0.9998321533203125,-0.0176544189453125,0.01409912109375
1772535222975627800,10.442627685546874,-0.99871826171875,-0.017425537109375,0.0128936767578125
1772535222985643500,10.4526435546875,-0.9992218017578125,-0.0187225341796875,0.0141754150390625
1772535222995659500,10.462659423828125,-0.998504638671875,-0.019195556640625,0.01361083984375
1772535223005675500,10.472675537109374,-0.999420166015625,-0.01751708984375,0.0137481689453125
1772535223015691500,10.48269140625,-0.9987640380859375,-0.0161895751953125,0.0139923095703125
1772535223025707800,10.492707763671875,-0.9990234375,-0.0187835693359375,0.013092041015625
1772535223035723800,10.502723876953125,-0.9995880126953125,-0.0184326171875,0.0135498046875
1772535223045739800,10.51273974609375,-0.9991455078125,-0.018035888671875,0.0134124755859375
1772535223055755500,10.522755615234376,-0.9996795654296875,-0.017913818359375,0.014129638671875
1772535223065771500,10.532771484375,-0.9996490478515625,-0.0181427001953125,0.0147857666015625
1772535223075787500,10.54278759765625,-0.998748779296875,-0.017913818359375,0.0146636962890625
1772535223085803800,10.5528037109375,-0.999237060546875,-0.0178070068359375,0.015045166015625
1772535223095819800,10.56281982421875,-0.999481201171875,-0.0186767578125,0.014129638671875
1772535223105835800,10.572835693359375,-1.0008392333984375,-0.01824951171875,0.0136260986328125
1772535223115851500,10.5828515625,-0.999420166015625,-0.0185394287109375,0.013916015625
1772535223125867500,10.592867431640625,-0.999267578125,-0.01849365234375,0.0145416259765625
1772535223135883500,10.602883544921875,-0.9996185302734375,-0.017852783203125,0.01422119140625
1772535223145899500,10.6128994140625,-0.9995880126953125,-0.0173797607421875,0.0141754150390625
1772535223155915800,10.622915771484376,-0.9994354248046875,-0.0172576904296875,0.0159912109375
1772535223165931800,10.632931884765625,-0.999603271484375,-0.0184478759765625,0.0138397216796875
1772535223175947800,10.64294775390625,-0.999053955078125,-0.01751708984375,0.0136566162109375
1772535223185963500,10.652963623046874,-1.0007476806640625,-0.0182952880859375,0.012725830078125
1772535223195979500,10.6629794921875,-0.999053955078125,-0.0187225341796875,0.0133514404296875
1772535223205995500,10.67299560546875,-0.998870849609375,-0.017669677734375,0.0147705078125
1772535223216011500,10.683011474609375,-0.999298095703125,-0.0182952880859375,0.01336669921875
1772535223226027800,10.69302783203125,-1.0003204345703125,-0.0170135498046875,0.013336181640625
1772535223236043800,10.703043701171875,-1.0003662109375,-0.0164337158203125,0.0138397216796875
1772535223246059800,10.713059814453125,-0.999969482421875,-0.01800537109375,0.0148162841796875
1772535223256075500,10.723075439453124,-0.9991912841796875,-0.0175323486328125,0.012725830078125
1772535223266091500,10.733091552734376,-1.0001983642578125,-0.0189208984375,0.013153076171875
1772535223276107500,10.743107421875,-1.0000152587890625,-0.0177154541015625,0.0144195556640625
1772535223286123500,10.75312353515625,-0.9990081787109375,-0.017913818359375,0.0148468017578125
1772535223296139500,10.763139404296876,-1.00006103515625,-0.0182952880859375,0.014404296875
1772535223306155500,10.773155517578125,-0.9994049072265625,-0.0181884765625,0.013519287109375
1772535223316171500,10.783171630859375,-0.999755859375,-0.01812744140625,0.014068603515625
1772535223326187500,10.7931875,-0.999786376953125,-0.0177764892578125,0.0146942138671875
1772535223336203500,10.80320361328125,-0.99847412109375,-0.019012451171875,0.0135498046875
1772535223346219500,10.813219482421875,-0.9994964599609375,-0.018524169921875,0.0126495361328125
1772535223356235500,10.823235595703125,-0.999969482421875,-0.0182037353515625,0.0149688720703125
1772535223366251500,10.83325146484375,-0.9988555908203125,-0.017608642578125,0.01361083984375
1772535223376267500,10.843267578125,-0.9976654052734375,-0.0177459716796875,0.0121612548828125
1772535223386283500,10.853283447265625,-0.999420166015625,-0.018096923828125,0.013763427734375
1772535223396299500,10.863299560546874,-0.9993438720703125,-0.0186920166015625,0.0139617919921875
1772535223406315500,10.8733154296875,-1.0000762939453125,-0.0182037353515625,0.0130157470703125
1772535223416331500,10.88333154296875,-0.9984130859375,-0.018646240234375,0.014617919921875
1772535223426347500,10.893347412109375,-0.999114990234375,-0.0186309814453125,0.0128326416015625
1772535223436363500,10.903363525390626,-0.999420166015625,-0.0177764892578125,0.0140533447265625
1772535223446379500,10.913379638671875,-0.9980621337890625,-0.0182952880859375,0.013885498046875
1772535223456395500,10.9233955078125,-1.0003204345703125,-0.01776123046875,0.0136566162109375
1772535223466411500,10.93341162109375,-0.9990234375,-0.018157958984375,0.014801025390625
1772535223476427500,10.943427490234376,-0.9987945556640625,-0.017578125,0.0155487060546875
1772535223486443500,10.953443603515625,-0.9992523193359375,-0.01708984375,0.0132598876953125
1772535223496459500,10.96345947265625,-0.9981689453125,-0.0179290771484375,0.0137481689453125
1772535223506475500,10.9734755859375,-1.0013275146484375,-0.0185699462890625,0.013214111328125
1772535223516491500,10.983491455078125,-0.9996490478515625,-0.0182342529296875,0.0134429931640625
1772535223526507500,10.993507568359375,-0.999176025390625,-0.0175323486328125,0.0136260986328125
1772535223536523500,11.0035234375,-0.9984893798828125,-0.0183563232421875,0.01409912109375
1772535223546539500,11.01353955078125,-0.9998931884765625,-0.0176239013671875,0.013336181640625
1772535223556555500,11.023555419921875,-1.0003509521484375,-0.016937255859375,0.013671875
1772535223566571500,11.033571533203125,-0.999420166015625,-0.017486572265625,0.01470947265625
1772535223576587500,11.04358740234375,-0.99908447265625,-0.0185699462890625,0.01409912109375
1772535223586603500,11.053603515625,-0.9997406005859375,-0.018310546875,0.01318359375
1772535223596619500,11.06361962890625,-0.99969482421875,-0.0178375244140625,0.0140838623046875
1772535223606635500,11.073635498046874,-0.9994659423828125,-0.01763916015625,0.0142364501953125
