time,seconds_elapsed,z,y,x
1772535212585276200,0.052276123046875,-0.00019193615298718214,0.000581586267799139,-0.00046205753460526466
1772535212595292200,0.062292236328125,-0.0009592433925718069,0.0003531321417540312,-0.00032581714913249016
1772535212605308200,0.07230810546875,0.0017017871141433716,0.00032463623210787773,-0.00024538952857255936
1772535212615324000,0.082323974609375,-0.0017169425264000893,0.0007197549566626549,0.00000855838879942894
1772535212625340000,0.09233984375,0.001116128172725439,-0.00036255386658012867,-0.0009618974290788174
1772535212635356000,0.10235595703125,0.0010352203389629722,-0.000547255389392376,-0.0015338347293436527
1772535212645372000,0.112371826171875,-0.0007720007561147213,0.0013824708294123411,-0.0001548496074974537
1772535212655388200,0.12238818359375,-0.0006505570490844548,-0.000014906516298651695,-0.000133599154651165
1772535212665404200,0.132404052734375,-0.000650823290925473,-0.0005459408275783062,-0.000033464282751083374
1772535212675420200,0.142420166015625,0.001515678595751524,-0.0015427737962454557,0.0005941416602581739
1772535212685436000,0.152435791015625,-0.0011546730529516935,0.0003600548952817917,-0.0014610197395086288
1772535212695452000,0.162451904296875,-0.001061345566995442,0.00022497773170471191,0.0009099978487938643
1772535212705468000,0.172468017578125,0.0010678516700863838,0.000031632138416171074,-0.0006338367238640785
1772535212715484000,0.18248388671875,-0.00006514712003991008,0.000012835953384637833,0.0004056035540997982
1772535212725500200,0.192500244140625,-0.0004672844661399722,-0.0001402958296239376,0.0014594164676964283
1772535212735516200,0.20251611328125,0.0016166426939889789,-0.0005232617259025574,0.0003451947122812271
1772535212745532200,0.2125322265625,0.0003058347792830318,0.00031723175197839737,-0.0009285951964557171
1772535212755548000,0.2225478515625,-0.0017434838227927685,0.000025652116164565086,-0.0006458465941250324
1772535212765564000,0.23256396484375,-0.0008449331508018076,-0.0017874280456453562,0.0001301984302699566
1772535212775580000,0.242579833984375,0.00033894990338012576,-0.000005101785063743591,-0.0006995676085352898
1772535212785596000,0.252595947265625,-0.0004344321205280721,0.0005568251945078373,-0.00003990251570940018
1772535212795612200,0.262612060546875,-0.00022679072571918368,0.0003811800852417946,-0.0001347423531115055
1772535212805628200,0.272628173828125,-0.00020734971622005105,-0.0008505319710820913,0.00016086827963590622
1772535212815645000,0.28264501953125,-0.00045013625640422106,-0.00024301628582179546,-0.0006974986754357815
1772535212825661000,0.292660888671875,0.000529108103364706,-0.0018134823767468333,-0.00038644159212708473
1772535212835677000,0.302677001953125,0.00022313359659165144,-0.00019300589337944984,0.0012297802604734898
1772535212845693200,0.312693115234375,0.000056686054449528456,-0.0007394865388050675,-0.0002836943604052067
1772535212855709200,0.322709228515625,-0.0006659201462753117,-0.00013970467261970043,-0.0011505824513733387
1772535212865725000,0.332724853515625,-0.0003106544609181583,-0.0006169432308524847,0.0015362808480858803
1772535212875741000,0.342740966796875,-0.0010991278104484081,-0.00016028783284127712,0.000979849835857749
1772535212885757000,0.3527568359375,0.00003990612458437681,0.0014139064587652683,-0.0011991485953330994
1772535212895773000,0.36277294921875,-0.0006639541243202984,0.0008513603825122118,-0.0006829937919974327
1772535212905789000,0.372788818359375,0.0011808176059275866,0.00004282454028725624,0.0003066370263695717
1772535212915805200,0.38280517578125,-0.0001560252858325839,-0.00031520240008831024,-0.0002990979701280594
1772535212925821200,0.3928212890625,0.0008463885169476271,-9.494833648204803e-7,-0.00020721880719065666
1772535212935837000,0.4028369140625,-0.0005128512857481837,-0.00020461692474782467,0.0010280408896505833
1772535212945853000,0.41285302734375,-0.00016450980911031365,0.0008800884243100882,-0.001287311315536499
1772535212955869000,0.422868896484375,-0.0008790818974375725,-0.00013502384535968304,0.00040956493467092514
1772535212965885000,0.432885009765625,-0.0004601667169481516,0.0008684552740305662,-0.0015478585846722126
1772535212975901200,0.442901123046875,-0.0005206824280321598,0.0006196990143507719,0.0010352106764912605
1772535212985917200,0.452917236328125,0.0010417941957712173,0.0004979923833161592,-0.00024470454081892967
1772535212995933000,0.462932861328125,0.0012454402167350054,-0.0009085170459002256,0.0001642373390495777
1772535213005949000,0.472948974609375,0.001493646763265133,0.0008758008480072021,-0.00122113898396492
1772535213015965000,0.48296484375,0.0018703053938224912,0.00028755515813827515,-0.00025249412283301353
1772535213025981000,0.49298095703125,0.0010865371441468596,-0.0011596065014600754,0.00005057360976934433
1772535213035997000,0.502996826171875,-0.0016339500434696674,-0.00015007471665740013,0.0006264545954763889
1772535213046013200,0.51301318359375,0.0003120217879768461,0.0009815024677664042,-0.0014348323456943035
1772535213056029200,0.523029296875,0.00020614330423995852,-0.00045845541171729565,0.00013301707804203033
1772535213066045000,0.533044921875,0.00040641301893629134,0.000442225718870759,-0.0005737859755754471
1772535213076061000,0.54306103515625,-0.0008923878776840866,-0.0012133156415075064,0.0001810174435377121
1772535213086077000,0.553076904296875,0.0006546423537656665,0.0007787288632243872,0.0003386768512427807
1772535213096093000,0.563093017578125,0.0007635079673491418,-0.00001811748370528221,0.0007553538307547569
1772535213106109000,0.57310888671875,0.0014069275930523872,-0.00014301971532404423,-0.0004598465748131275
1772535213116125200,0.583125244140625,-0.0003666479606181383,-0.00019664852879941463,0.0004588454030454159
1772535213126141200,0.59314111328125,0.0009793136268854141,-0.0003987823147326708,0.0007970670703798532
1772535213136157000,0.603156982421875,-0.000631599803455174,0.0005802218802273273,-0.0008895467035472393
1772535213146173000,0.6131728515625,0.0009681610972620547,-0.00011912407353520393,-0.00011083856225013733
1772535213156189000,0.62318896484375,0.000251913967076689,0.0003506310749799013,0.0004359823651611805
1772535213166205000,0.633204833984375,-0.0005520943668670952,-0.0005449899472296238,0.00030735181644558907
1772535213176221000,0.643220947265625,-0.00029819831252098083,-0.00039277481846511364,0.001319435192272067
1772535213186237200,0.6532373046875,0.0006416311953216791,0.0002945871092379093,0.0004951870068907738
1772535213196253200,0.663253173828125,-0.0006022931775078177,-0.00026936293579638004,0.0009484798647463322
1772535213206269000,0.67326904296875,0.000566035567317158,-0.00029146717861294746,-0.0015309229493141174
1772535213216285000,0.683284912109375,0.0004889866104349494,-0.00024571409448981285,-0.00020986562594771385
1772535213226301000,0.693301025390625,0.00004370603710412979,0.0007010395638644695,-0.00010839896276593208
1772535213236317000,0.70331689453125,0.00029252460808493197,-0.0008738616015762091,0.000610200921073556
1772535213246334000,0.713333984375,0.0008728274260647595,0.0009818291291594505,-0.000619114376604557
1772535213256350000,0.723349853515625,-0.00013579183723777533,-0.0005425941199064255,-0.0014136219397187233
1772535213266366000,0.733365966796875,0.00010176212526857853,-0.0006224890239536762,0.00018214387819170952
1772535213276382000,0.7433818359375,-0.0006952389376237988,-0.0008665028726682067,-0.00033376505598425865
1772535213286398000,0.75339794921875,-0.00011360453208908439,0.00006267405115067959,0.0000302889384329319
1772535213296414000,0.7634140625,0.00010551308514550328,0.000004313187673687935,0.00043181562796235085
1772535213306430000,0.773429931640625,0.0011537333484739065,-0.00033417437225580215,0.0005601802840828896
1772535213316446000,0.783446044921875,-0.0004449895932339132,0.000043087173253297806,-0.0009897234849631786
1772535213326462000,0.7934619140625,-0.0008367405389435589,-0.0005593199748545885,0.0004483833909034729
1772535213336478000,0.80347802734375,0.0006500944728031754,-0.0014779091579839587,0.0012109256349503994
1772535213346494000,0.813493896484375,0.00034995624446310103,-0.00045552151277661324,0.0007643136195838451
1772535213356510000,0.823510009765625,-0.0003143085050396621,0.00010535959154367447,0.0009852410294115543
1772535213366526000,0.83352587890625,-0.00008181447628885508,0.000025731045752763748,0.0003476804122328758
1772535213376542000,0.8435419921875,-0.001140289125032723,-0.0007912515429779887,-0.002128840424120426
1772535213386558000,0.853557861328125,-0.0012436198303475976,0.00005749799311161041,-0.0002238810993731022
1772535213396574000,0.863573974609375,-0.0002530964557081461,0.0006276525091379881,-0.0009789122268557549
1772535213406590000,0.87358984375,-0.002183355623856187,-0.00007089460268616676,0.0005864938721060753
1772535213416606000,0.88360595703125,0.0014224471524357796,-0.00018814345821738243,-0.00003506289795041084
1772535213426622000,0.8936220703125,-0.00010647368617355824,0.0002286410890519619,0.000507955439388752
1772535213436638000,0.903637939453125,0.0006671869195997715,0.001676307525485754,0.0013635826762765646
1772535213446654200,0.913654296875,-0.0005362955271266401,-0.0009793968638405204,-0.0011523058637976646
1772535213456670000,0.923669921875,0.00045917771058157086,-0.00040771602652966976,-0.0008713630959391594
1772535213466686000,0.93368603515625,-0.0004010233096778393,-0.0005896100774407387,0.0007004344370216131
1772535213476702000,0.943701904296875,-0.0009189522825181484,-0.0004424252547323704,0.0008858658839017153
1772535213486718000,0.953718017578125,0.0001617585076019168,-0.0011646745260804892,0.000566819217056036
1772535213496734000,0.96373388671875,0.0002914272772613913,0.0013507097028195858,-0.0007060393691062927
1772535213506750000,0.97375,0.0007154025370255113,-0.0009505279595032334,-0.0002599596045911312
1772535213516766000,0.983765869140625,0.00017422862583771348,0.00007913424633443356,0.0006094544660300016
1772535213526782000,0.993781982421875,0.0001587822916917503,0.0012463978491723537,0.000819311710074544
1772535213536798000,1.0037978515625,-0.0007261321879923344,-0.0003753465134650469,0.000880880281329155
1772535213546814000,1.01381396484375,0.0013766997726634145,0.000469674589112401,-0.0002797255292534828
1772535213556830000,1.023829833984375,0.0009888106724247336,-0.00019022030755877495,-0.0009440458379685879
1772535213566846000,1.033845947265625,-0.001042115967720747,-0.0004781079478561878,-0.0002558850683271885
1772535213576862000,1.043862060546875,-0.001183035084977746,-0.0001691498328000307,-0.001817083451896906
1772535213586878000,1.0538779296875,0.0005035448120906949,-0.0003007100895047188,0.0008530016057193279
1772535213596894000,1.06389404296875,-0.00018050242215394974,-0.0007078833878040314,-0.0005567171610891819
1772535213606910000,1.073909912109375,0.000038409430999308825,-0.0010295931715518236,0.00022199144586920738
1772535213616926000,1.083926025390625,0.0006496542482636869,-0.00149943504948169,-0.0013958020135760307
1772535213626942000,1.09394189453125,0.00017587788170203567,-0.0009044848848134279,0.0008377910126000643
1772535213636958000,1.1039580078125,0.0006196023314259946,0.0006025724578648806,-0.000002078711986541748
1772535213646974200,1.11397412109375,-0.0008861489477567375,0.0006779399700462818,0.0002141701988875866
1772535213656990000,1.123989990234375,0.0017545251175761223,0.0005860666278749704,-0.0010026432573795319
1772535213667006000,1.134005859375,-0.0004146195715293288,-0.0017548520117998123,0.0001414506696164608
1772535213677022000,1.14402197265625,-0.0008364881505258381,-0.0004017085302621126,0.001571601489558816
1772535213687038000,1.154037841796875,-0.00080586172407493,0.0012382660061120987,0.0004474814049899578
1772535213697054000,1.164053955078125,-0.0003825183375738561,0.0009184607770293951,-0.00035905884578824043
1772535213707070000,1.174070068359375,0.00024225926608778536,-0.0005215106066316366,0.0007837032899260521
1772535213717086000,1.1840859375,0.000946578336879611,-0.0002699254546314478,-0.0008965288288891315
1772535213727102000,1.19410205078125,0.0004709377826657146,0.0003910711966454983,-0.0009239595383405685
1772535213737118000,1.204117919921875,-0.0007811370887793601,-0.0005191739182919264,0.00013125687837600708
1772535213747134000,1.214134033203125,0.000510229729115963,-0.00014446722343564034,0.0005120891146361828
1772535213757150000,1.22414990234375,-0.000050595670472830534,-0.00026367069222033024,0.0014160550199449062
1772535213767166000,1.234166015625,0.0005496808444149792,0.001965927891433239,0.00000777561217546463
1772535213777182000,1.244181884765625,0.00016905443044379354,-0.0012968239607289433,0.0009964096825569868
1772535213787198000,1.254197998046875,0.0005938286194577813,-0.0004954787436872721,-0.0016627567820250988
1772535213797214000,1.2642138671875,-0.0006925833295099437,0.00021436484530568123,0.0013856508303433657
1772535213807230000,1.27422998046875,-0.00006141414633020759,-0.0005536908283829689,0.0013699382543563843
1772535213817246000,1.284245849609375,0.0008089557522907853,-0.00041581131517887115,-0.0014117755927145481
1772535213827262000,1.294261962890625,-0.0012619182234629989,0.0005945919547230005,-0.0003361250273883343
1772535213837278000,1.30427783203125,-0.00004447216633707285,-0.00007950933650135994,-0.000026804860681295395
1772535213847294000,1.3142939453125,-0.000020237406715750694,-0.0004907012917101383,0.0003897133283317089
1772535213857310000,1.32431005859375,-0.00041365320794284344,-0.0004612337797880173,0.0013354294933378696
1772535213867326000,1.334325927734375,0.0008651966927573085,-0.000055101700127124786,0.0007902802899479866
1772535213877342000,1.344342041015625,-0.0013469927944242954,-0.0004745835904031992,-0.0005549918860197067
1772535213887358000,1.35435791015625,0.0005401231464929879,-0.0013086856342852116,0.0018953823018819094
1772535213897374000,1.3643740234375,-0.000692949746735394,0.0010768745560199022,-0.000829129945486784
1772535213907390000,1.374389892578125,-0.0005683137569576502,-0.0002251449041068554,-0.00022192904725670815
1772535213917406200,1.38440625,0.0004202938580419868,0.00018461723811924458,-0.0006578587926924229
1772535213927422000,1.394421875,-0.0014292714186012745,-0.00013256515376269817,-0.000004319008439779282
1772535213937438000,1.40443798828125,0.000772109953686595,0.0004899983759969473,-0.00030381418764591217
1772535213947454000,1.414453857421875,0.0016448278911411762,0.000554713187739253,0.0005033900961279869
1772535213957470000,1.424469970703125,0.00036169803934171796,-0.000017744721844792366,0.0005919132381677628
1772535213967486000,1.43448583984375,0.00012281251838430762,-0.000495249405503273,0.00004090508446097374
1772535213977502000,1.444501953125,-0.0005379734211601317,0.0006141683552414179,-0.0018804483115673065
1772535213987518000,1.45451806640625,-0.0013073605950921774,0.00008366652764379978,0.0005949598271399736
1772535213997534000,1.464533935546875,0.0007861974881961942,-0.0004828136879950762,0.00039256084710359573
1772535214007550000,1.474550048828125,-0.002276704180985689,-0.00005830591544508934,-0.0008929469622671604
1772535214017566000,1.48456591796875,0.00012150849215686321,0.0010967871639877558,0.0005663242191076279
1772535214027582000,1.49458203125,0.00006158731412142515,-0.00010696169920265675,-0.0019357153214514256
1772535214037599000,1.504598876953125,-0.00001321866875514388,-0.00012844731099903584,0.0015097372233867645
1772535214047614000,1.514614013671875,0.00010609091259539127,-0.001798249315470457,0.00020478852093219757
1772535214057631000,1.524630859375,-0.000626280321739614,-0.00036139972507953644,-0.00210261857137084
1772535214067647000,1.53464697265625,0.000005421519745141268,0.000015437370166182518,-0.0003587808459997177
1772535214077663000,1.5446630859375,-0.0000665000407025218,0.0002928166650235653,0.0019851638935506344
1772535214087679000,1.554678955078125,-0.0010020686313509941,0.00015859329141676426,-0.0006851875223219395
1772535214097695000,1.564695068359375,0.000056485761888325214,0.0011718617752194405,0.0013732824008911848
1772535214107711000,1.5747109375,-0.0007336740964092314,0.0003084649797528982,0.0008204099722206593
1772535214117727000,1.58472705078125,-0.0005748182302340865,0.0012753079645335674,0.0002192435786128044
1772535214127743000,1.594742919921875,-0.00024218938779085875,0.00044786371290683746,-0.0011525508016347885
1772535214137759000,1.604759033203125,-0.00035983265843242407,-0.0005346641410142183,0.00043785758316516876
1772535214147775000,1.61477490234375,0.00027746183332055807,0.0003471085801720619,-0.0007829354144632816
1772535214157791000,1.624791015625,-0.0004868950345553458,0.0009266173001378775,0.00040746061131358147
1772535214167807000,1.634806884765625,-0.0014549540355801582,-0.00027926196344196796,-0.000573648139834404
1772535214177823000,1.644822998046875,0.001370815560221672,0.0004770709201693535,0.0009040816221386194
1772535214187839000,1.6548388671875,0.0019543140660971403,0.00032074330374598503,0.0005165915936231613
1772535214197855000,1.66485498046875,0.0007214980432763696,0.000038187019526958466,0.0011490501929074526
1772535214207871000,1.67487109375,0.0016069990815594792,0.00021661887876689434,-0.0010477914474904537
1772535214217887000,1.684886962890625,-0.0002010962343774736,-0.0000660924706608057,0.0005156607367098331
1772535214227903000,1.694903076171875,-0.0002524952869862318,-0.0004953939933329821,0.0017332581337541342
1772535214237919000,1.7049189453125,0.00013980024959892035,0.000434190034866333,-0.0007228092290461063
1772535214247934500,1.7149345703125,0.0006426050676964223,-0.0007101702503859997,-0.00017206743359565735
1772535214257950200,1.7249501953125,0.00045038171811029315,0.00022843573242425919,0.00039351359009742737
1772535214267966200,1.73496630859375,0.0006290798191912472,0.00025906204245984554,0.0007234793156385422
1772535214277982200,1.744982177734375,-0.0008394128526560962,0.0011111162602901459,0.00045046163722872734
1772535214287998500,1.75499853515625,0.00013796729035675526,-0.0010774694383144379,0.0003734962083399296
1772535214298014500,1.765014404296875,0.0006168135441839695,0.0005364152602851391,0.0006568785756826401
1772535214308030500,1.775030517578125,-0.00021702225785702467,0.0001782202161848545,-0.00014473311603069305
1772535214318046200,1.785046142578125,0.00022346555488184094,0.0003401434514671564,-0.00005720229819417
1772535214328062200,1.795062255859375,0.00003198423655703664,-0.0005216554272919893,0.00047702761366963387
1772535214338078200,1.805078125,-0.00007157126674428582,-0.00033584865741431713,-0.00046538421884179115
1772535214348094500,1.815094482421875,0.00003069412196055055,-0.0005217371508479118,0.0002917521633207798
1772535214358110500,1.8251103515625,-0.000746934674680233,0.0005707486998289824,0.0007374410051852465
1772535214368126500,1.83512646484375,0.0007273912779055536,-0.0007941212970763445,0.00041200267150998116
1772535214378142500,1.845142578125,0.0013769215438514948,0.0013339042197912931,0.00029481155797839165
1772535214388158200,1.855158203125,-0.0002579930587671697,-0.001212077564559877,0.0007781754247844219
1772535214398174200,1.86517431640625,0.00008952815551310778,-0.00019553862512111664,0.0009737156797200441
1772535214408190200,1.875190185546875,0.0006535857100971043,0.0003432189114391804,-0.00152592733502388
1772535214418206500,1.88520654296875,0.00007232220377773046,0.00079541583545506,0.00016084546223282814
1772535214428222500,1.895222412109375,-0.0008912095217965543,0.0010369645897299051,-0.0005057435482740402
1772535214438238500,1.905238525390625,0.0007582752150483429,0.001252154354006052,-0.0007123253308236599
1772535214448254500,1.91525439453125,0.0006331066833809018,-0.001966808456927538,-0.0006039347499608994
1772535214458270200,1.925270263671875,0.0002593808458186686,0.0010039792396128178,-0.0008284109644591808
1772535214468286200,1.9352861328125,0.000055915326811373234,0.00009424332529306412,0.0008717512246221304
1772535214478302200,1.94530224609375,0.0004120755766052753,0.000887594185769558,0.0002971063368022442
1772535214488318500,1.955318359375,-0.0008641112362965941,0.000337118748575449,-0.000803045928478241
1772535214498334500,1.96533447265625,-0.0012396269012242556,-0.0015755248023197055,0.0007616141811013222
1772535214508350500,1.9753505859375,0.000042951374780386686,-0.0007528744172304869,-0.0007822201587259769
1772535214518366500,1.985366455078125,0.0005967013421468437,0.00019820872694253922,-0.00023841438814997673
1772535214528382200,1.99538232421875,0.0010393187403678894,-0.00046145636588335037,0.000602345447987318
1772535214538398200,2.005398193359375,0.0005051679909229279,0.00010011252015829086,0.00028443755581974983
1772535214548414200,2.015414306640625,-0.0008618325809948146,-0.0006921780295670033,-0.001561931800097227
1772535214558430500,2.025430419921875,0.0008214040426537395,-0.0006897093262523413,-0.0000049103982746601105
1772535214568446500,2.035446533203125,-0.0011567919282242656,-0.00020155194215476513,-0.0003247559070587158
1772535214578462500,2.04546240234375,0.0011878483928740025,-0.0011482362169772387,-0.0005083018913865089
1772535214588478200,2.055478271484375,-0.000902466825209558,-0.00011333194561302662,0.00026854220777750015
1772535214598494200,2.065494140625,-0.0017307170201092958,0.0012303066905587912,0.000017484184354543686
1772535214608510200,2.07551025390625,0.00020380335627123713,-0.0005617344286292791,-0.0005039628595113754
1772535214618526500,2.0855263671875,0.00017379526980221272,0.00009783590212464333,-0.00003472296521067619
1772535214628542500,2.09554248046875,-0.0009103775955736637,0.0003622877411544323,-0.0002118232659995556
1772535214638558500,2.105558349609375,-0.0005515535594895482,0.0013330134097486734,0.0010474617592990398
1772535214648574500,2.115574462890625,-0.0006474273977801204,-0.00038312748074531555,-0.00027399882674217224
1772535214658590200,2.125590087890625,-0.0003448161296546459,0.0005271323025226593,-0.00010392488911747932
1772535214668606200,2.135606201171875,0.00037982992944307625,0.00020915106870234013,0.0005733170546591282
1772535214678622200,2.145622314453125,-0.0006904792971909046,-0.0005334918387234211,0.0015164834912866354
1772535214688638500,2.155638427734375,-0.00021270825527608395,0.0012806535232812166,0.00039236340671777725
1772535214698654500,2.165654541015625,0.00005572737427428365,0.0004301785957068205,0.001024521654471755
1772535214708670500,2.17567041015625,0.0012245887191966176,-0.000723236589692533,0.0007992181926965714
1772535214718686500,2.1856865234375,0.00027622038032859564,0.0008940354455262423,0.0021355650387704372
1772535214728702200,2.1957021484375,0.0009028621716424823,-0.0005384788382798433,-0.0007164143025875092
1772535214738718200,2.20571826171875,-0.0021161094773560762,0.0003984724171459675,-0.0008804057724773884
1772535214748734200,2.215734130859375,-0.0008764079539105296,0.001298620831221342,-0.00003458606079220772
1772535214758750500,2.22575048828125,0.0008242994081228971,0.0013004117645323277,0.0009252843447029591
1772535214768766500,2.235766357421875,-0.0007168719312176108,-0.00010653631761670113,0.0007093020249158144
1772535214778782500,2.245782470703125,0.0008306758245453238,-0.0000029958318918943405,0.00010556122288107872
1772535214788798200,2.255798095703125,0.0005856649950146675,-0.0003265698906034231,0.0009220866486430168
1772535214798814200,2.265814208984375,0.000162068463396281,0.001775342971086502,-0.000524984672665596
1772535214808830200,2.275830322265625,0.00031919495086185634,0.0006112752016633749,0.0007346905767917633
1772535214818846200,2.28584619140625,0.000701779208611697,0.0013450153637677431,-0.0009381738491356373
1772535214828862500,2.295862548828125,-0.00008625019108876586,0.0006659093778580427,-0.0014534955844283104
1772535214838878500,2.30587841796875,0.0006160518969409168,-0.001924043521285057,-0.0010481420904397964
1772535214848894500,2.31589453125,-0.00030327128479257226,-0.00010750140063464642,0.0002506817691028118
1772535214858910200,2.32591015625,0.00012515339767560363,-0.000003766501322388649,0.0005698911845684052
1772535214868926200,2.33592626953125,0.00033021680428646505,-0.0003406563773751259,0.0004734848625957966
1772535214878942200,2.345942138671875,0.0011946972226724029,-0.00017031142488121986,-0.0002804836258292198
1772535214888958500,2.35595849609375,-0.00011930637992918491,0.00023928284645080566,-0.0017486843280494213
1772535214898974500,2.365974365234375,-0.0008085650624707341,0.002278426196426153,0.0016966674011200666
1772535214908990500,2.375990478515625,-0.00004716735566034913,0.0003737334627658129,-0.00026581576094031334
1772535214919006500,2.38600634765625,0.0009108636295422912,-0.00043746503069996834,-0.0009457687847316265
1772535214929022200,2.396022216796875,0.00008235423592850566,-0.00039059342816472054,-0.00012338487431406975
1772535214939038200,2.4060380859375,0.00028572187875397503,0.001085363794118166,-0.0003886101767420769
1772535214949054200,2.41605419921875,-0.0007233498618006706,0.00056844437494874,0.0006630721036344767
1772535214959070500,2.426070556640625,0.0013276446843519807,0.0010083082597702742,-0.0004692729562520981
1772535214969086500,2.43608642578125,0.00026504340348765254,-0.0007917223265394568,-0.000748638529330492
1772535214979102500,2.4461025390625,0.0007721061119809747,-0.0002022178377956152,-0.001479477621614933
1772535214989118500,2.456118408203125,0.00043521623592823744,0.0002076425589621067,-0.00009569898247718811
1772535214999134200,2.46613427734375,-0.0011401380179449916,0.0003355334047228098,-0.0011579128913581371
1772535215009150200,2.476150146484375,0.0005160818109288812,0.0008945309091359377,-0.0003461814485490322
1772535215019166200,2.486166259765625,0.0011477017542347312,0.00017406651750206947,-0.0015813494101166725
1772535215029182500,2.496182373046875,-0.000060574442613869905,0.000051294686272740364,0.00003625452518463135
1772535215039198500,2.506198486328125,0.000501717790029943,0.0007251331117004156,-0.00020324904471635818
1772535215049214500,2.51621435546875,-0.0005624813493341208,0.0005693382117897272,0.00022392207756638527
1772535215059230200,2.526230224609375,0.0012430970091372728,-0.0004166676662862301,0.0008391696028411388
1772535215069246200,2.53624609375,-0.00009141303598880768,0.0005356785841286182,0.0007329096551984549
1772535215079262200,2.54626220703125,-0.0009402672876603901,0.00011161179281771183,0.0016803445760160685
1772535215089278500,2.556278564453125,0.000396106974221766,-0.0002867972943931818,0.0007626193109899759
1772535215099294500,2.56629443359375,0.0004573655023705214,0.00018929783254861832,0.00010440126061439514
1772535215109310500,2.576310546875,0.0003031684900633991,-0.0001020519994199276,0.00026232656091451645
1772535215119326500,2.586326416015625,-0.0009058735449798405,0.0009103184565901756,-0.0002716374583542347
1772535215129342200,2.59634228515625,0.0004792365070898086,0.00025624618865549564,-0.00038908282294869423
1772535215139358200,2.606358154296875,-0.0007723928429186344,-0.0011015970958396792,0.0004344121553003788
1772535215149374200,2.616374267578125,-0.0003534775460138917,0.0006619482301175594,0.0009739685337990522
1772535215159390500,2.626390380859375,-0.0002090606722049415,0.0009813308715820312,0.001250837929546833
1772535215169406500,2.636406494140625,-0.0016437056474387646,-0.00029938342049717903,0.0008124816231429577
1772535215179422500,2.64642236328125,0.00010866252705454826,-0.0009255324257537723,0.0008215261623263359
1772535215189438500,2.6564384765625,0.00028256693622097373,-0.0009662788361310959,0.0002798391506075859
1772535215199454200,2.6664541015625,-0.00047445250675082207,0.00027016387321054935,0.00010766321793198586
1772535215209470200,2.67647021484375,-0.00003982463385909796,0.00013594049960374832,-0.0007408200763165951
1772535215219486200,2.686486328125,-0.0007480275817215443,-0.00007403152994811535,0.0007054496090859175
1772535215229502500,2.69650244140625,0.0009089912055060267,-0.0005035994108766317,-0.0016029784455895424
1772535215239518500,2.7065185546875,-0.00015111069660633802,-0.00014415662735700607,0.0022664032876491547
1772535215249534200,2.7165341796875,-0.00008000433444976807,0.0004641094710677862,-0.00015733949840068817
1772535215259550200,2.72655029296875,-0.002181488089263439,-0.00045332685112953186,-0.000908401794731617
1772535215269566200,2.736566162109375,-0.00133193947840482,0.0023493836633861065,0.00016485247761011124
1772535215279582200,2.746582275390625,-0.0003949966048821807,0.000115150585770607,0.00016826298087835312
1772535215289598200,2.75659814453125,0.0008614828111603856,-0.0010678255930542946,0.00046493904665112495
1772535215299614200,2.7666142578125,0.00040685763815417886,-0.00018035760149359703,0.00147167406976223
1772535215309630200,2.776630126953125,0.000346403889125213,0.00007317541167140007,0.0008290533442050219
1772535215319646200,2.786646240234375,0.0006191158900037408,0.00043056649155914783,-0.00017016800120472908
1772535215329662200,2.796662109375,-0.001974536571651697,0.0006649247370660305,-0.0011432874016463757
1772535215339678200,2.80667822265625,-0.0015870194183662534,0.0012844365555793047,0.0003741052933037281
1772535215349694200,2.816694091796875,-0.00003279861994087696,0.00025619007647037506,-0.0005031400360167027
1772535215359711200,2.826711181640625,0.0004169207240920514,0.0007379548624157906,0.0009426004253327847
1772535215369726200,2.836726318359375,-0.00027097377460449934,0.0013129313010722399,-0.0013735508546233177
1772535215379742200,2.8467421875,0.0006794462096877396,0.0003371564671397209,0.00021516578271985054
1772535215389759200,2.85675927734375,-0.0006505364435724914,0.00040320283733308315,0.000347258523106575
1772535215399775200,2.866775146484375,0.0002232276601716876,0.0014497488737106323,-0.0002727210521697998
1772535215409791200,2.876791259765625,-0.00012910855002701283,0.0003163074143230915,0.0011776366736739874
1772535215419807200,2.88680712890625,-0.0009503583423793316,0.00034136162139475346,-0.0009765136055648327
1772535215429823200,2.8968232421875,-0.0002653932897374034,0.00019355607219040394,0.00012257276102900505
1772535215439839200,2.906839111328125,0.0008693409035913646,0.00008225161582231522,0.000652332091704011
1772535215449855200,2.916855224609375,0.0009702747338451445,-0.0007526493864133954,0.0008483408018946648
1772535215459871200,2.926871337890625,0.0006023371824994683,0.0010020793415606022,-0.0002408847212791443
1772535215469887200,2.93688720703125,0.00028009468223899603,-0.00041205924935638905,0.0003942791372537613
1772535215479903200,2.9469033203125,-0.0006802093703299761,0.0005903525743633509,0.000618483405560255
1772535215489919200,2.956919189453125,0.00021674332674592733,-0.00041871913708746433,0.00044644298031926155
1772535215499935200,2.966935302734375,0.0012504684273153543,-0.0007427651435136795,-0.0000036605633795261383
1772535215509951200,2.976951171875,0.0002113029477186501,0.0007099893409758806,0.0012815806549042463
1772535215519967200,2.98696728515625,0.0007268472108989954,-0.00024208566173911095,0.0002907714806497097
1772535215529983200,2.996983154296875,-0.0005738406325690448,-0.000007993774488568306,0.0005988990887999535
1772535215539999200,3.006999267578125,-0.0004213489592075348,0.00024069147184491158,0.00039755553007125854
1772535215550015200,3.01701513671875,0.0007286040345206857,-0.0005020643584430218,-0.0007318910211324692
1772535215560031200,3.02703125,0.00015854142839089036,0.00045196013525128365,-0.00019603781402111053
1772535215570047200,3.037047119140625,-0.0006199004710651934,0.000388577114790678,-0.00048738764598965645
1772535215580063200,3.047063232421875,-0.0010659686522558331,-0.000362978782504797,0.0003989958204329014
1772535215590079200,3.057079345703125,0.00040329727926291525,0.0005097391549497843,0.0018075418192893267
1772535215600095200,3.06709521484375,-0.0014146158937364817,0.0011645534541457891,-0.000008932314813137054
1772535215610111200,3.077111328125,-0.0008151382789947093,0.0009158141911029816,0.00008401228114962578
1772535215620127200,3.087127197265625,-0.001078754081390798,0.000013663899153470993,-0.000059256795793771744
1772535215630143200,3.097143310546875,0.0009481777669861913,0.0007633436471223831,-0.0008936249651014805
1772535215640159200,3.1071591796875,0.00031693518394604325,0.0007280507124960423,-0.00036973366513848305
1772535215650175200,3.11717529296875,0.0007241325220093131,-0.0010083303786814213,0.0010217679664492607
1772535215660191200,3.127191162109375,-0.0004767637001350522,-0.00015006540343165398,0.0006028290372341871
1772535215670207200,3.137207275390625,-0.0002213665284216404,-0.0004997383803129196,-0.0008808178827166557
1772535215680223200,3.14722314453125,-0.0007841152255423367,0.000563604524359107,-0.0003576534800231457
1772535215690239200,3.1572392578125,0.000042263593059033155,0.00011086720041930676,-0.00045326119288802147
1772535215700255200,3.167255126953125,0.0006870837532915175,-0.001489585847593844,-0.00015380000695586205
1772535215710271200,3.177271240234375,-0.0010479656048119068,-0.0006994259310886264,-0.001191633753478527
1772535215720287200,3.187287353515625,0.0001348870573565364,-0.0005936677334830165,0.000010736752301454544
1772535215730303200,3.19730322265625,0.000597744423430413,-0.0014061981346458197,0.00019635912030935287
1772535215740319200,3.2073193359375,-0.001280391588807106,0.0006888732314109802,-0.00038449373096227646
1772535215750335200,3.217335205078125,-0.0009110111859627068,0.0005117729306221008,-0.0008396278135478497
1772535215760351200,3.227351318359375,0.0007891623536124825,0.0015689569991081953,0.0003080354072153568
1772535215770367200,3.2373671875,-0.0004974107723683119,-0.001085681957192719,0.0002039060927927494
1772535215780383200,3.24738330078125,0.0012126397341489792,-0.0006190016865730286,-0.00014690542593598366
1772535215790399200,3.257399169921875,0.000056561490055173635,0.0005935356020927429,0.0003284686245024204
1772535215800415200,3.267415283203125,-0.0008570002974011004,0.00022984948009252548,0.00037362659350037575
1772535215810431200,3.27743115234375,-0.0007352937827818096,-0.00023194286040961742,-0.0011853878386318684
1772535215820447200,3.287447265625,0.0015525463968515396,-0.0002444353885948658,0.0016828810330480337
1772535215830463200,3.297463134765625,0.0003639775386545807,-0.0005850536981597543,0.00025303009897470474
1772535215840479200,3.307479248046875,0.00010388303780928254,0.000052355462685227394,-0.00038253189995884895
1772535215850495200,3.3174951171875,-0.0008181032608263195,0.0008299984037876129,-0.0019037295132875443
1772535215860511200,3.32751123046875,0.00005371432052925229,0.0005380481015890837,-0.0008228584192693233
1772535215870527200,3.33752734375,-0.00008690060349181294,-0.00006222841329872608,-0.0003733169287443161
1772535215880543200,3.347543212890625,-0.0004997641080990434,-0.0002402265090495348,0.0005347952246665955
1772535215890559200,3.357559326171875,0.0006744236452504992,0.0006306271534413099,0.0004908530972898006
1772535215900575200,3.3675751953125,-0.0013357987627387047,-0.0019200402311980724,0.0008620040025562048
1772535215910591200,3.37759130859375,-0.00023591320496052504,0.0004509720019996166,0.0005091354250907898
1772535215920607200,3.387607177734375,0.0008297176100313663,0.00018006865866482258,-0.0000952775590121746
1772535215930623200,3.397623291015625,0.0005436941282823682,0.0013238962274044752,-0.00010300101712346077
1772535215940639200,3.40763916015625,0.0006778657552786171,-0.0004835182335227728,-0.0007508830167353153
1772535215950655200,3.4176552734375,0.0001737293496262282,0.0006688314024358988,0.0007828313391655684
1772535215960671200,3.427671142578125,-0.0002749995910562575,0.0004874307196587324,0.00020442763343453407
1772535215970687200,3.437687255859375,-0.00046142085921019316,0.0003841002471745014,-0.0002914527431130409
1772535215980703200,3.447703125,0.0002798979403451085,0.0009236750192940235,-0.002213001251220703
1772535215990719200,3.45771923828125,0.0008213185938075185,0.0012618966866284609,-0.00047928327694535255
1772535216000735200,3.4677353515625,-0.0004936890909448266,0.0012126401998102665,0.00039218179881572723
1772535216010751200,3.477751220703125,-0.0022495111916214228,-0.00006860657595098019,0.0007394577842205763
1772535216020767200,3.487767333984375,-0.0005925766890868545,-0.00002872990444302559,-0.00065221032127738
1772535216030783200,3.497783203125,-0.0016157631762325764,-0.000184524804353714,0.0011081390548497438
1772535216040799200,3.50779931640625,-0.0006813897634856403,-0.00016835611313581467,-0.0010426957160234451
1772535216050815200,3.517815185546875,0.000723960401955992,0.00013950513675808907,-0.0011609401553869247
1772535216060831200,3.527831298828125,0.001246696338057518,-0.0014709433307871222,0.00014485931023955345
1772535216070847200,3.53784716796875,-0.00017702957848086953,0.00008487538434565067,0.0010237025562673807
1772535216080863200,3.54786328125,0.0012646124232560396,-0.001699813874438405,-0.00029425090178847313
1772535216090879200,3.557879150390625,-0.00008587661432102323,-0.00007635075598955154,-0.0009011854417622089
1772535216100895200,3.567895263671875,-0.00005748012335970998,0.00010126945562660694,0.0004468611441552639
1772535216110911200,3.5779111328125,-0.0017930620815604925,0.00019021914340555668,-0.00025115348398685455
1772535216120927200,3.58792724609375,0.0011223024921491742,-0.000693861860781908,-0.00020215893164277077
1772535216130943200,3.597943115234375,-0.0008819925133138895,-0.00043819844722747803,-0.0004700729623436928
1772535216140959200,3.607959228515625,-0.0005137420957908034,0.00006887130439281464,0.00023691821843385696
1772535216150975200,3.617975341796875,-0.0009568920359015465,0.0004004347138106823,0.00006567686796188354
1772535216160991200,3.6279912109375,-0.0014397136401385069,-0.0008203256875276566,-0.00037711067125201225
1772535216171007200,3.63800732421875,-0.0008133380324579775,0.0001988660078495741,0.0015555452555418015
1772535216181023200,3.648023193359375,-0.000882072257809341,0.001642606919631362,0.001421415712684393
1772535216191039200,3.658039306640625,0.001185872359201312,-0.0012096387799829245,0.0014680211897939444
1772535216201055200,3.66805517578125,0.0008409479632973671,-0.00012725451961159706,0.00189303420484066
1772535216211071200,3.6780712890625,-0.0004914315650239587,0.0010234974324703217,-0.00042205164209008217
1772535216221087200,3.688087158203125,0.000108256412204355,-0.00023202411830425262,-0.0005641733296215534
1772535216231103200,3.698103271484375,-0.0010089396964758635,-0.001086898846551776,0.0009477033745497465
1772535216241119200,3.708119140625,0.00027241179486736655,0.0007636081427335739,-0.0015117027796804905
1772535216251135500,3.718135498046875,0.0003413876402191818,-0.0001157678198069334,0.0012622454669326544
1772535216261151500,3.7281513671875,-0.00041804276406764984,0.0005088094621896744,-0.0012775305658578873
1772535216271167500,3.73816748046875,0.0006536133005283773,-0.00007069436833262444,0.0006239665672183037
1772535216281183500,3.74818359375,0.0004422793281264603,-0.0010308035416528583,0.0005911858752369881
1772535216291199500,3.758199462890625,0.0007477439357899129,-0.000771145336329937,0.0009144938085228205
1772535216301215500,3.768215576171875,-0.00040723837446421385,0.00041985069401562214,0.00028138235211372375
1772535216311231500,3.7782314453125,0.0007123545510694385,-0.0019671404734253883,0.0011437139473855495
1772535216321247500,3.78824755859375,-0.001044885953888297,-0.0005373769672587514,0.0005339169874787331
1772535216331263500,3.798263427734375,-0.0014563443837687373,0.0006112444680184126,0.0011616239789873362
1772535216341279500,3.808279541015625,0.0003036299895029515,-0.0010762469610199332,0.0004971176385879517
1772535216351295500,3.81829541015625,-0.0007808091468177736,0.0011269862297922373,-0.00007359776645898819
1772535216361311500,3.8283115234375,0.00037002263707108796,0.0017047212459146976,0.0021227248944342136
1772535216371327500,3.838327392578125,0.0006347408634610474,0.0011526478920131922,0.0014446841087192297
1772535216381343500,3.848343505859375,0.000358462828444317,-0.00020429957658052444,-0.0010368959046900272
1772535216391359500,3.858359375,0.0016714013181626797,0.0008116962853819132,0.00016924971714615822
1772535216401375500,3.86837548828125,0.00006653397576883435,0.0008217350114136934,0.0014813572634011507
1772535216411391500,3.8783916015625,-0.0009153735009022057,0.0002986900508403778,0.000002770218998193741
1772535216421407500,3.888407470703125,0.000944420462474227,0.0005625083576887846,-0.0008447198197245598
1772535216431423500,3.898423583984375,0.00016624480485916138,0.0016120600048452616,-0.0007485798560082912
1772535216441439700,3.908439697265625,0.0013583577238023281,0.0006602487992495298,-0.001040823757648468
1772535216451455500,3.91845556640625,0.0003695260384120047,-0.0000023457687348127365,-0.00018355203792452812
1772535216461471500,3.928471435546875,-0.000530665391124785,-0.0013050351990386844,-0.00045672617852687836
1772535216471487500,3.938487548828125,0.00014923966955393553,-0.0003026213962584734,0.00014434941112995148
1772535216481503500,3.94850341796875,-0.00032780953915789723,-0.00046390388160943985,-0.0012844349257647991
1772535216491519500,3.95851953125,-0.0009320808458141983,0.0009728716686367989,0.0010391732212156057
1772535216501535500,3.968535400390625,0.0004374213458504528,0.0006794978398829699,0.0008163750171661377
1772535216511551700,3.9785517578125,-0.0005335671594366431,0.000766050536185503,-0.00040095578879117966
1772535216521567500,3.9885673828125,-0.000848118681460619,0.0002537157852202654,-0.0007476275786757469
1772535216531583500,3.99858349609375,-0.00004837143933400512,-0.0004871755372732878,0.000015634112060070038
1772535216541599500,4.008599609375,-0.0007619326352141798,-0.00018529011867940426,0.001030758023262024
1772535216551615500,4.018615478515625,0.00026684656040742993,-0.0008430908201262355,-0.0014193500392138958
1772535216561631500,4.028631591796875,-0.00014304748037829995,-0.00008365209214389324,-0.0011741272173821926
1772535216571647500,4.0386474609375,0.0019821550231426954,-0.0015041822334751487,0.0008560004644095898
1772535216581663500,4.04866357421875,0.00033600383903831244,0.00018981401808559895,-0.00043136952444911003
1772535216591679500,4.058679443359375,-0.000075720832683146,-0.00021631806157529354,0.0005161832086741924
1772535216601695500,4.068695556640625,0.00013665237929672003,0.000473622465506196,0.0006681131199002266
1772535216611711500,4.07871142578125,-0.0003975777071900666,-0.0009295970667153597,-0.0004038093611598015
1772535216621727500,4.0887275390625,-0.00013776984997093678,0.001050092512741685,-0.0009889733046293259
1772535216631743500,4.098743408203125,0.00011283357162028551,0.00037870975211262703,0.0017831108998507261
1772535216641759500,4.108759521484375,0.0005835389601998031,-0.0002425340935587883,-0.0008875299245119095
1772535216651775500,4.118775390625,-0.0001253944938071072,0.00013190624304115772,0.00017693545669317245
1772535216661791500,4.12879150390625,-0.00043898337753489614,0.000048339832574129105,0.00039895717054605484
1772535216671807500,4.138807373046875,0.00046702404506504536,-0.0007476789178326726,0.0016133585013449192
1772535216681823500,4.148823486328125,0.00009067391511052847,0.00030786870047450066,0.00015558628365397453
1772535216691839500,4.158839599609375,0.0012337026419118047,0.0007691283244639635,0.0017225902993232012
1772535216701855500,4.16885546875,0.00014500762335956097,-0.0007073648739606142,-0.000346355140209198
1772535216711871700,4.178871826171875,-0.0008294429862871766,-0.0006298668449744582,-0.00030321162194013596
1772535216721887500,4.188887451171875,0.000815927458461374,0.0012271471787244081,0.0006018667481839657
1772535216731903500,4.198903564453125,0.00011311925482004881,0.0006058318540453911,-0.0007515517063438892
1772535216741919500,4.20891943359375,0.0018586682854220271,0.0009295265190303326,0.0012291050516068935
1772535216751935500,4.218935546875,0.0011755675077438354,-0.0003256211057305336,-0.0003690579906105995
1772535216761951500,4.228951416015625,0.00048118329141288996,-0.0007660301635041833,0.00022208411246538162
1772535216771967500,4.238967529296875,0.0009941081516444683,0.001338133355602622,0.0009616436436772346
1772535216781983500,4.2489833984375,0.00040328718023374677,-0.0005978052504360676,0.0008611464872956276
1772535216791999500,4.25899951171875,0.0008629487711004913,-0.000003920402377843857,0.0017277391161769629
1772535216802015500,4.269015380859375,-0.000992866000160575,0.00013450789265334606,-0.0005479003302752972
1772535216812031500,4.279031494140625,-0.0007385342032648623,-0.0000875997357070446,-0.0002988944761455059
1772535216822047500,4.289047607421875,0.0017174819950014353,0.00019225571304559708,0.0013586424756795168
1772535216832063500,4.2990634765625,0.000752885127440095,0.0003752147313207388,-0.0006057051941752434
1772535216842079500,4.30907958984375,-0.000312760123051703,0.00003714952617883682,0.00009744009003043175
1772535216852095500,4.319095458984375,0.0016409348463639617,-0.0006036069244146347,-0.0005414518527686596
1772535216862111500,4.329111572265625,0.0001610337640158832,0.00007034814916551113,0.00010312814265489578
1772535216872127500,4.33912744140625,-0.000049355963710695505,0.0008293490391224623,0.00005812104791402817
1772535216882143500,4.3491435546875,0.000559955951757729,-0.0003737569786608219,0.00026159826666116714
1772535216892159500,4.359159423828125,-0.0005031779292039573,0.000711481086909771,-0.0010247081518173218
1772535216902175500,4.369175537109375,0.00017424416728317738,-0.00045936345122754574,-0.0010724859312176704
1772535216912191700,4.379191650390625,0.0001603957498446107,0.0017191022634506226,-0.00019097933545708656
1772535216922208500,4.38920849609375,-0.0008255214779637754,0.0009073121473193169,-0.00027205608785152435
1772535216932223500,4.399223388671875,-0.0006036802078597248,-0.0003835218958556652,-0.0007903072983026505
1772535216942239500,4.409239501953125,-0.0001548946602270007,0.0010385725181549788,0.00042570335790514946
1772535216952256500,4.419256591796875,-0.0006470467778854072,-0.0005169797223061323,-0.0003740438260138035
1772535216962272500,4.4292724609375,0.00005121971480548382,-0.00003067334182560444,0.0002162647433578968
1772535216972288500,4.43928857421875,0.000590243493206799,-0.00001868908293545246,-0.0010093217715620995
1772535216982304500,4.449304443359375,-0.0010179762030020356,-0.00019824272021651268,-0.0009003924205899239
1772535216992320500,4.459320556640625,-0.0008051896002143621,-0.0003449828363955021,-0.0011824211105704308
1772535217002336500,4.46933642578125,-0.0015712848398834467,-0.001178322359919548,0.0000025355257093906403
1772535217012352500,4.4793525390625,-0.00043544673826545477,0.0010201169643551111,-0.0002475352957844734
1772535217022368500,4.489368408203125,-0.0005389130092225969,-0.0005219569429755211,0.0000188387930393219
1772535217032384500,4.499384521484375,0.0001258120173588395,-0.0006050474476069212,-0.0009140665642917156
1772535217042400500,4.509400390625,0.0007989030564203858,-0.00128748151473701,-0.0009891940280795097
1772535217052416500,4.51941650390625,0.0006180743803270161,0.00003025052137672901,-0.0002890489995479584
1772535217062432500,4.5294326171875,0.00035707393544726074,-0.00006068358197808266,0.00006800470873713493
1772535217072448500,4.539448486328125,-0.00016011198749765754,-0.00027240486815571785,0.0010400584433227777
1772535217082464500,4.549464599609375,-0.0008888764423318207,0.0011406256817281246,-0.000849500298500061
1772535217092480500,4.55948046875,0.0004560198576655239,-0.00022477679885923862,-0.0005533569492399693
1772535217102496500,4.56949658203125,-0.00010933424346148968,0.0008083891589194536,-0.001135670579969883
1772535217112512500,4.579512451171875,0.00013993761967867613,-0.0007783222245052457,0.00027766870334744453
1772535217122528500,4.589528564453125,-0.0008299191249534488,0.00009463448077440262,-0.0011812066659331322
1772535217132544500,4.59954443359375,0.000024156703148037195,0.0006975741125643253,-0.0006275353953242302
1772535217142560500,4.609560546875,-0.00013534817844629288,0.00003863777965307236,0.0012650834396481514
1772535217152576500,4.619576416015625,-0.0004938096390105784,0.0010133546311408281,-0.0000941939651966095
1772535217162592500,4.629592529296875,-0.0008394423639401793,-0.0007405746728181839,0.0014404184184968472
1772535217172608500,4.6396083984375,0.0005147750489413738,-0.00002018967643380165,0.0004665004089474678
1772535217182624500,4.64962451171875,0.00017287617083638906,-0.00000651925802230835,-0.0012398026883602142
1772535217192640500,4.659640625,0.0003238774079363793,0.00006112526170909405,0.0010166936554014683
1772535217202656500,4.669656494140625,0.0010901744244620204,0.000596506055444479,-0.00039488356560468674
1772535217212672500,4.679672607421875,-0.00036684097722172737,0.00073072942905128,0.0006834301166236401
1772535217222688500,4.6896884765625,-0.000628590933047235,0.00021812692284584045,0.0005463568959385157
1772535217232704500,4.69970458984375,0.0007538559148088098,0.00027112383395433426,-0.0008968100883066654
1772535217242720500,4.709720458984375,0.00026530816103331745,-0.0010055048624053597,0.0004200567491352558
1772535217252736500,4.719736572265625,0.0004583873669616878,0.0007061087526381016,-0.0006239023059606552
1772535217262752500,4.72975244140625,-0.00012290477752685547,0.001217563170939684,0.0012465717736631632
1772535217272768500,4.7397685546875,0.0003055978158954531,-0.00004051416181027889,-0.0008818265050649643
1772535217282784500,4.749784423828125,-0.00032460642978549004,-0.000060821184888482094,-0.00011866027489304543
1772535217292800500,4.759800537109375,0.0013763546012341976,0.000305097084492445,0.0007764280308037996
1772535217302816500,4.76981640625,0.0002698875905480236,-0.0004857843741774559,-0.0012857494875788689
1772535217312832500,4.77983251953125,0.000013425189536064863,-0.0003113474231213331,-0.0000673532485961914
1772535217322848500,4.7898486328125,0.0002471648622304201,-0.0004553182516247034,0.0005177382845431566
1772535217332864500,4.799864501953125,-0.0010077166371047497,0.0005865104030817747,0.0010117548517882824
1772535217342880500,4.809880615234375,0.00016888228128664196,-0.0005025863647460938,-0.000309833325445652
1772535217352896500,4.819896484375,-0.000525403767824173,-0.0006189666455611587,-0.0003473837859928608
1772535217362912500,4.82991259765625,-0.0007632063352502882,0.0003129404503852129,-0.00035135215148329735
1772535217372928500,4.839928466796875,0.00013880632468499243,-0.000882019754499197,0.0006590508855879307
1772535217382944500,4.849944580078125,0.0012188057880848646,-0.0008158102864399552,-0.001492304727435112
1772535217392960500,4.85996044921875,-0.00027229817351326346,0.00005291285924613476,0.0008390261791646481
1772535217402976500,4.8699765625,0.0009860002901405096,0.00018915417604148388,0.00015064561739563942
1772535217412992500,4.879992431640625,-0.000398843374568969,-0.0008390921866521239,-0.0005652117542922497
1772535217423008500,4.890008544921875,0.00033402867848053575,0.001020919531583786,0.0013554254546761513
1772535217433024500,4.9000244140625,0.0007358996663242579,0.0004573946353048086,-0.0011090636253356934
1772535217443040500,4.91004052734375,0.0006544070201925933,-0.0004228625912219286,0.000205314252525568
1772535217453056500,4.920056396484375,0.00025759602431207895,0.0013563954271376133,-0.0012961756438016891
1772535217463072500,4.930072509765625,-0.00043219554936513305,-0.000022699590772390366,0.002206337871029973
1772535217473088500,4.940088623046875,0.001436544582247734,0.0016327211633324623,-0.00007758894935250282
1772535217483104500,4.9501044921875,0.00022959828493185341,-0.00016847997903823853,0.00012563122436404228
1772535217493120500,4.96012060546875,0.00008445599814876914,-0.00008299248293042183,-0.00040726736187934875
1772535217503136500,4.970136474609375,-0.0006170142441987991,0.00014326744712889194,0.000372069887816906
1772535217513152500,4.980152587890625,-0.0003690739395096898,0.00017416011542081833,-0.00034804875031113625
1772535217523168500,4.99016845703125,-0.0010544988326728344,-0.0001940736547112465,0.0010465083178132772
1772535217533184500,5.0001845703125,-0.000004414352588355541,0.00043549761176109314,0.00042892107740044594
1772535217543200500,5.010200439453125,0.0005396177293732762,0.00006395415402948856,0.0005967216566205025
1772535217553216500,5.020216552734375,0.0011066047009080648,0.00023519550450146198,0.00020763371139764786
1772535217563232500,5.030232421875,-0.000810017460025847,0.0018078223802149296,-0.0001262635923922062
1772535217573248500,5.04024853515625,0.0005521894199773669,0.00008369213901460171,0.00018665753304958344
1772535217583264500,5.050264404296875,-0.0004947811830788851,0.000312598655000329,0.000015669502317905426
1772535217593280500,5.060280517578125,0.0007835361757315695,0.0005056778900325298,-0.00007354607805609703
1772535217603296500,5.070296630859375,0.0014332185965031385,-0.000506548909470439,-0.0007848134264349937
1772535217613312500,5.0803125,-0.0009226136025972664,0.00022289087064564228,0.0004586167633533478
1772535217623328500,5.09032861328125,-0.0004883507499471307,0.00019707996398210526,-0.0005703954957425594
1772535217633344500,5.100344482421875,-0.0008809007704257965,0.00018403050489723682,-0.00047904904931783676
1772535217643360500,5.110360595703125,0.00004604330752044916,-0.00045247399248182774,0.00008813058957457542
1772535217653376500,5.12037646484375,0.000932076945900917,-0.000018644845113158226,0.0005065132863819599
1772535217663392500,5.130392578125,-0.000022912281565368176,0.0007456073071807623,-0.00003968551754951477
1772535217673408500,5.140408447265625,-0.00001465645618736744,0.000661185011267662,0.00014993129298090935
1772535217683424500,5.150424560546875,0.0019653839990496635,-0.0002799921203404665,0.0007607873994857073
1772535217693440500,5.1604404296875,-0.0007568993605673313,-0.00043552066199481487,-0.0018725460395216942
1772535217703456500,5.17045654296875,-0.0008736833115108311,0.00033485726453363895,-0.0009553618729114532
1772535217713472500,5.180472412109375,-0.0014023208059370518,0.0013196943327784538,0.001256127143278718
1772535217723488500,5.190488525390625,-0.0003085897187702358,0.0012674352619796991,-0.0015251911245286465
1772535217733504500,5.20050439453125,-0.0007330976077355444,-0.00022180448286235332,0.00020826049149036407
1772535217743520500,5.2105205078125,0.0008486869046464562,0.0010904672089964151,0.0005780812352895737
1772535217753536500,5.22053662109375,0.0002103271835949272,-0.00036867870949208736,0.0008396038319915533
1772535217763552500,5.230552490234375,0.0015583977801725268,0.000730528961867094,0.00011674361303448677
1772535217773568500,5.240568603515625,0.00046277334331534803,-0.00010090996511280537,-0.00011388584971427917
1772535217783584500,5.25058447265625,-0.0007385596400126815,0.00024654483422636986,-0.0002615661360323429
1772535217793600500,5.2606005859375,0.00029474686016328633,-0.0007582658436149359,-0.00013959314674139023
1772535217803616500,5.270616455078125,-0.0002831049496307969,0.0013196300715208054,-0.0007681022398173809
1772535217813632500,5.280632568359375,0.00032968842424452305,0.00003066030330955982,0.00008916947990655899
1772535217823648500,5.2906484375,0.0010017964523285627,-0.000002239830791950226,-0.00047444412484765053
1772535217833664500,5.30066455078125,0.0001107027055695653,-0.00024059275165200233,0.0011053427588194609
1772535217843680500,5.310680419921875,0.0006858138367533684,-0.0013931950088590384,0.0002687862142920494
1772535217861834500,5.32883447265625,-0.0006875782855786383,-0.0005958445835858583,0.00008742464706301689
1772535217871850500,5.3388505859375,0.00041949772275984287,-0.0006746741710230708,0.0010813164990395308
1772535217881866500,5.348866455078125,-0.0001542899408377707,0.0008374764584004879,0.0009870256762951612
1772535217891882500,5.358882568359375,0.00016235990915447474,0.00042468635365366936,0.0016504190862178802
1772535217901898500,5.3688984375,-0.0003364051226526499,-0.0009226064430549741,0.0006127785891294479
1772535217911914500,5.37891455078125,-0.00032788299722597003,0.0004316109698265791,-0.0007885769009590149
1772535217921930500,5.388930419921875,-0.0016465573571622372,-0.000019007595255970955,-0.0005837855860590935
1772535217931946500,5.398946533203125,-0.0006601224304176867,-0.00010103289969265461,0.0004913327284157276
1772535217941962500,5.40896240234375,0.000623350206296891,0.0006809129845350981,0.0008450881578028202
1772535217951978500,5.418978515625,0.0011834129691123962,-0.0009683826938271523,0.00036172429099678993
1772535217961994500,5.428994384765625,0.00005901564145460725,-0.0007858613971620798,-0.0002032145857810974
1772535217972010500,5.439010498046875,0.0004960403311997652,-0.000468146288767457,0.00009452691301703453
1772535217982026500,5.449026611328125,-0.00034644879633560777,-0.0006706314161419868,0.00030330196022987366
1772535217992042500,5.45904248046875,-0.0005834701587446034,-0.00009618746116757393,0.00009237974882125854
1772535218002058500,5.46905859375,-0.0002523023867979646,0.0006383208092302084,0.00009962962940335274
1772535218012074500,5.479074462890625,-0.0006989144603721797,-0.0005145615432411432,0.0005086911842226982
1772535218022090500,5.489090576171875,0.00014680280582979321,0.0007169737946242094,0.001542041776701808
1772535218032106500,5.4991064453125,0.0012128661619499326,0.0002919333055615425,-0.000018304213881492615
1772535218042122500,5.50912255859375,0.000332824100041762,0.00007070973515510559,-0.0002214321866631508
1772535218052138500,5.519138427734375,0.001068921759724617,0.000905078137293458,0.0006302464753389359
1772535218062154500,5.529154541015625,0.0010265210876241326,-0.00003107590600848198,-0.00017308956012129784
1772535218072170500,5.53917041015625,0.0004259783017914742,-0.00004918547347187996,0.0005169352516531944
1772535218082186500,5.5491865234375,-0.0018597309244796634,0.000027504516765475273,-0.0005774251185357571
1772535218092202500,5.559202392578125,0.00039277071482501924,0.0005372336599975824,0.000823131063953042
1772535218102218800,5.56921875,-0.0009652801672928035,-0.001486799563281238,0.00164426164701581
1772535218112234500,5.579234375,0.0007175712380558252,0.00046982476487755775,-0.00006255833432078362
1772535218122250500,5.58925048828125,-0.0013172198086977005,0.0009317470248788595,0.0012548842933028936
1772535218132266500,5.5992666015625,-0.0006801916169933975,-0.00014470284804701805,-0.000003193039447069168
1772535218142282500,5.609282470703125,0.0015805657021701336,-0.0001207343302667141,-0.001625856850296259
1772535218152298500,5.619298583984375,0.0011109214974567294,-0.001006452483125031,-0.0007468461990356445
1772535218162314500,5.629314453125,-0.00021733541507273912,-0.0005496107041835785,0.0002922997809946537
1772535218172330500,5.63933056640625,-0.0001329132355749607,-0.00005213217809796333,-0.0006446004845201969
1772535218182346500,5.649346435546875,-0.0006901735323481262,-0.00018420559354126453,0.0007132422178983688
1772535218192362500,5.659362548828125,-0.0010355855338275433,-0.00009818538092076778,0.00003094039857387543
1772535218203004700,5.670004638671875,0.0005284693324938416,-0.0008003390394151211,0.0005332552827894688
1772535218213020700,5.680020751953125,0.00006321512046270072,0.000514463521540165,0.0011045034043490887
1772535218223036400,5.690036376953125,0.0005384959513321519,0.0015195256564766169,0.0002941768616437912
1772535218233052400,5.700052490234375,0.00003808800829574466,0.0003751651383936405,0.0010515800677239895
1772535218243068400,5.710068359375,0.0007135790656320751,0.0006912655662745237,0.0020112162455916405
1772535218253084700,5.720084716796875,0.0009639161871746182,-0.000015537254512310028,-0.0007733851671218872
1772535218263100700,5.7301005859375,0.0008758820476941764,-0.0005848212167620659,-0.0004738722927868366
1772535218273116700,5.74011669921875,0.00136537104845047,-0.00027669360861182213,0.00046595698222517967
1772535218283132700,5.750132568359375,-0.00034783175215125084,-0.0008503030985593796,0.00004784576594829559
1772535218293148400,5.7601484375,0.00033899745903909206,0.00015663821250200272,0.00010829977691173553
1772535218303164400,5.770164306640625,0.00021334196208044887,0.0006185844540596008,0.00018250057473778725
1772535218313180700,5.7801806640625,-0.0005400662776082754,-0.0003172503784298897,0.0003926241770386696
1772535218323196700,5.79019677734375,0.0002865210990421474,-0.0006791823543608189,0.0011438957881182432
1772535218333212700,5.800212646484375,-0.0005795388715341687,0.0006569256074726582,-0.0006646569818258286
1772535218343228700,5.810228759765625,-0.00017488660523667932,0.00014296756125986576,0.000532571692019701
1772535218353244400,5.820244384765625,-0.00043534376891329885,-0.001632828265428543,0.0005671926774084568
1772535218363260400,5.830260498046875,0.000107368832686916,0.00020113587379455566,0.00011227233335375786
1772535218373276700,5.840276611328125,-0.0008827943820506334,-0.0004534691106528044,0.0012220118660479784
1772535218383292700,5.850292724609375,0.00011428879224695265,0.0009216589387506247,0.0007062125951051712
1772535218393308700,5.86030859375,0.0010344109032303095,0.0011674687266349792,-0.0004147118888795376
1772535218403324700,5.87032470703125,0.0000617476471234113,0.00017416290938854218,-0.001150601077824831
1772535218413340700,5.880340576171875,-0.0009867388289421797,-0.0008836446795612574,0.0009532961994409561
1772535218423356400,5.8903564453125,0.0009377332171425223,0.00009751948527991772,0.001926938071846962
1772535218433372400,5.900372314453125,-0.00037467252695932984,0.0005358757916837931,0.0022742142900824547
1772535218443388700,5.910388671875,0.0017200144939124584,-0.0004390515387058258,0.00034502986818552017
1772535218453404700,5.92040478515625,0.00011386207188479602,0.0009623037185519934,0.00006379978731274605
1772535218463420700,5.930420654296875,-0.0014087087474763393,0.0006463187746703625,-0.0002884725108742714
1772535218473436700,5.940436767578125,-0.0015320130623877048,-0.00036461721174418926,-0.00012894952669739723
1772535218483452700,5.95045263671875,-0.00021010061027482152,-0.00009014923125505447,0.000812917947769165
1772535218493468400,5.960468505859375,-0.0006785506848245859,0.0013402344193309546,0.0008462073747068644
1772535218503484400,5.970484375,-0.00004220427945256233,0.0012319127563387156,-0.0005123517476022243
1772535218513500700,5.980500732421875,-0.00014500226825475693,0.0007900942582637072,-0.0009717470966279507
1772535218523516700,5.9905166015625,-0.0019522039219737053,0.00038449536077678204,-0.0009475033730268478
1772535218533532700,6.00053271484375,-0.00038999365642666817,0.0006726493593305349,-0.0008425749838352203
1772535218543548700,6.010548583984375,0.0002997333649545908,-0.0007075826870277524,0.0006645901594310999
1772535218553564700,6.020564697265625,0.00020785428932867944,0.0007033601868897676,0.0003873552195727825
1772535218563580400,6.030580322265625,0.000691840541549027,0.0003855964168906212,0.0005103242583572865
1772535218573596400,6.040596435546875,-0.0006139073520898819,-0.0001611504703760147,0.0002866187132894993
1772535218583612700,6.05061279296875,-0.0007867107633501291,-0.00020799320191144943,-0.00038575194776058197
1772535218593628700,6.060628662109375,-0.000015725672710686922,0.00017443671822547913,0.0002592657692730427
1772535218603644700,6.070644775390625,0.0012886523036286235,0.0010099029168486595,-0.0002192794345319271
1772535218613660700,6.08066064453125,-0.00008367461850866675,0.0005230770912021399,0.0019424085039645433
1772535218623676400,6.090676513671875,0.0006675118929706514,0.0009286170825362206,-0.0009047933854162693
1772535218633692400,6.1006923828125,-0.0004443578654900193,0.00033100368455052376,0.0007887105457484722
1772535218643708700,6.110708740234375,0.0004728518542833626,-0.000719161587767303,-0.0007344917394220829
1772535218653724700,6.120724609375,0.0007199932006187737,0.0005295947194099426,-0.00011077942326664925
1772535218663740700,6.13074072265625,-0.0005555348470807076,-0.0008214213885366917,0.00001623528078198433
1772535218673756700,6.140756591796875,0.0005315674934536219,0.000599907711148262,0.0018713932950049639
1772535218683772700,6.150772705078125,0.0017032334581017494,0.00043951068073511124,-0.0007790965028107166
1772535218693788400,6.160788330078125,-0.00007762236054986715,0.000909026013687253,0.0006297158543020487
1772535218703804400,6.170804443359375,0.0004432775021996349,0.00034780800342559814,0.0007597093936055899
1772535218713820700,6.180820556640625,0.0015000198036432266,-0.0013259887928143144,-0.000219002366065979
1772535218723836700,6.190836669921875,-0.000670908426400274,-0.0014966552844271064,-0.00010967301204800606
1772535218733852700,6.200852783203125,-0.0005984705057926476,0.0004935250617563725,0.00033134641125798225
1772535218743868700,6.21086865234375,0.00023792203865014017,-0.000574345700442791,0.00035257404670119286
1772535218753884700,6.220884765625,0.0016882794443517923,-0.0005847320426255465,-0.00031960802152752876
1772535218763900400,6.230900390625,-0.00026961759431287646,0.0003018858842551708,0.00018354319036006927
1772535218773916400,6.24091650390625,-0.0003266092389822006,0.00023530679754912853,-0.001051897183060646
1772535218783932700,6.2509326171875,-0.0008393027819693089,0.0005106108728796244,-0.001125343143939972
1772535218793948700,6.26094873046875,-0.0005106687312945724,0.0004413686692714691,-0.0003077522851526737
1772535218803964700,6.270964599609375,-0.0005063192220404744,0.0012131056282669306,-0.00010676030069589615
1772535218813980700,6.280980712890625,-0.0010413482086732984,0.000022140098735690117,-0.0002700123004615307
1772535218823996400,6.290996337890625,0.0005967402830719948,-0.0014536273665726185,-0.00008315453305840492
1772535218834012400,6.301012451171875,-0.0010461637284606695,-0.0008400351507589221,-0.000052794814109802246
1772535218844028700,6.311028564453125,-0.0007215704536065459,-0.000966337975114584,0.00035847118124365807
1772535218854044700,6.321044677734375,-0.00064460514113307,-0.0013250658521428704,-0.0012807040475308895
1772535218864060700,6.331060791015625,-0.0007104713004082441,-0.0003623552620410919,0.001052686246111989
1772535218874076700,6.34107666015625,-0.0008747883839532733,0.00047334469854831696,-0.0008014068007469177
1772535218884092700,6.3510927734375,-0.0001537846401333809,0.00036408635787665844,-0.0007183528505265713
1772535218894108400,6.3611083984375,0.0006257225759327412,0.0000439744908362627,-0.0005684169009327888
1772535218904124400,6.37112451171875,-0.00041407550452277064,-0.0011072445195168257,-0.0009224913083016872
1772535218914140700,6.381140625,-0.00011260563042014837,0.0011809435673058033,-0.0004170234315097332
1772535218924156700,6.39115673828125,0.0006692038150504231,-0.00024864543229341507,-0.0007343734614551067
1772535218934172700,6.401172607421875,-0.0006693009636364877,-0.000816964078694582,-0.0010257232934236526
1772535218944188700,6.411188720703125,0.0015395332593470812,-0.001948281773366034,0.0002674018032848835
1772535218954204700,6.42120458984375,0.0003421760629862547,-0.0010531933512538671,0.0000903015024960041
1772535218964220400,6.431220458984375,0.000528575386852026,0.0010981441009789705,0.00007558707147836685
1772535218974236400,6.441236328125,0.0001815654686652124,-0.0003365008160471916,-0.00046689901500940323
1772535218984252700,6.451252685546875,0.001225415151566267,-0.0004893518052995205,0.00048631965182721615
1772535218994268700,6.4612685546875,-0.00009045272599905729,0.0000848257914185524,0.000132119283080101
1772535219004284700,6.47128466796875,0.0007314858958125114,-0.0004201713018119335,-0.001373259350657463
1772535219014300700,6.48130078125,0.00017674945411272347,-0.0008305645314976573,0.0010534129105508327
1772535219024316700,6.491316650390625,0.0008635086705908179,0.000412351218983531,0.00028129667043685913
1772535219034332400,6.50133251953125,-0.00032399484189227223,0.0005827934946864843,-0.0013999571092426777
1772535219044348400,6.511348388671875,-0.0004148309235461056,-0.0006384651642292738,-0.0004911031574010849
1772535219054364700,6.52136474609375,-0.0009171030833385885,-0.0003559039905667305,-0.0008676741272211075
1772535219064380700,6.531380615234375,0.0006393525982275605,-0.0010305028408765793,-0.0006330637261271477
1772535219074396700,6.541396728515625,-0.000004599802196025848,-0.002136513590812683,-0.0007494441233575344
1772535219084412700,6.55141259765625,-0.0002534734085202217,0.00006463960744440556,-0.00008396338671445847
1772535219094428400,6.561428466796875,-0.0024825390428304672,-0.0008597435662522912,0.0008673176635056734
1772535219104444400,6.5714443359375,0.00006010360084474087,0.00009510829113423824,0.00045707286335527897
1772535219114460700,6.581460693359375,0.0001642331772018224,0.00016195373609662056,-0.00044760294258594513
1772535219124476700,6.5914765625,-0.0009328594314865768,0.0006059468723833561,-0.0005284962244331837
1772535219134492700,6.60149267578125,0.00048367591807618737,0.0009835832752287388,-0.00024833157658576965
1772535219144508700,6.6115087890625,-0.0005812344024889171,0.0010313871316611767,-0.00003864290192723274
1772535219154524700,6.621524658203125,-0.00027470459463074803,-0.0003132428973913193,-0.00044823717325925827
1772535219164540400,6.63154052734375,0.0001929367717821151,-0.0012519749579951167,0.0005645295605063438
1772535219174556400,6.641556396484375,-0.0011434373445808887,-0.0005419761873781681,0.0010015543084591627
1772535219184572700,6.65157275390625,0.00026776851154863834,-0.00040546897798776627,-0.00023390492424368858
1772535219194588700,6.661588623046875,-0.00029389216797426343,0.00026298430748283863,-0.0002839723601937294
1772535219204604700,6.671604736328125,0.0007353934925049543,0.0001415496226400137,-0.0003771963529288769
1772535219214620700,6.68162060546875,-0.0006129649700596929,0.000987635925412178,-0.000048562418669462204
1772535219224636700,6.69163671875,-0.0010189602617174387,0.0004774488043040037,-0.0004010298289358616
1772535219234652400,6.70165234375,-0.00011481705587357283,0.00034615490585565567,-0.00026094773784279823
1772535219244668400,6.71166845703125,0.0004167435399722308,0.0007825472857803106,0.0005302417557686567
1772535219254684400,6.721684326171875,-0.00038193847285583615,0.0016941474750638008,0.000009061302989721298
1772535219264700400,6.731700439453125,-0.000304549525026232,-0.0005905793514102697,-0.0011699032038450241
1772535219274716400,6.74171630859375,-0.0005213308031670749,0.00032208580523729324,-0.0003706887364387512
1772535219284732700,6.751732666015625,0.00008472066838294268,0.0005658739246428013,0.00002942001447081566
1772535219294748700,6.761748779296875,-0.00009743956616148353,0.00002605118788778782,-0.00017963815480470657
1772535219304764400,6.771764404296875,0.0007839911850169301,-0.0007331270026043057,-0.0004458371549844742
1772535219314780400,6.781780517578125,0.00005854608025401831,0.00038673216477036476,0.0009073149412870407
1772535219324796400,6.79179638671875,0.0003354168147780001,0.0006183537188917398,0.00011825188994407654
1772535219334812400,6.8018125,-0.0015687433769926429,0.0002702786587178707,0.00033316900953650475
1772535219344828400,6.811828369140625,-0.00019544747192412615,0.0009363596327602863,0.001444434281438589
1772535219354844700,6.8218447265625,0.000027192756533622742,0.0013917603064328432,0.00011951150372624397
1772535219364860400,6.8318603515625,-0.0001228140899911523,0.00029272958636283875,0.0004653451032936573
1772535219374876400,6.84187646484375,-0.0005872694309800863,0.0006602457724511623,-0.00005716690793633461
1772535219384892400,6.851892333984375,0.0006572179263457656,-0.0008660227758809924,-0.0006142323836684227
1772535219394908400,6.861908447265625,-0.0003033842658624053,0.00029165344312787056,0.0015051108784973621
1772535219404924400,6.87192431640625,-0.0007386081852018833,-0.0012762373080477118,-0.0008045602589845657
1772535219414940400,6.8819404296875,0.0000230558798648417,-0.0004637069068849087,0.0002596387639641762
1772535219424956700,6.891956787109375,0.000870551448315382,0.0003842280711978674,-0.0006272494792938232
1772535219434972400,6.901972412109375,0.00004603678826242685,0.000006591668352484703,0.0010247095488011837
1772535219444988400,6.911988525390625,0.0005611195228993893,0.000286174938082695,-0.0007344591431319714
1772535219455004400,6.92200439453125,0.00009240314830094576,0.00012904824689030647,-0.0006098230369389057
1772535219465020400,6.9320205078125,0.00011469819582998753,0.0004653763025999069,0.00023847632110118866
1772535219475036400,6.942036376953125,-0.00040808029007166624,-0.00043690274469554424,-0.0005495529621839523
1772535219485052700,6.952052734375,0.00013509875861927867,0.001652256352826953,0.00021510012447834015
1772535219495068700,6.962068603515625,0.0001814377319533378,-0.0010047797113656998,-0.0006360458210110664
1772535219505084400,6.97208447265625,-0.0006929781520739198,0.00025927042588591576,0.0014646349009126425
1772535219515100400,6.982100341796875,-0.000110811204649508,0.0012499664444476366,-0.00008692266419529915
1772535219525116400,6.992116455078125,-0.0002024053828790784,-0.0001261504366993904,-0.001122419722378254
1772535219535132400,7.00213232421875,-0.0004799067392013967,-0.0003461274318397045,-0.0019948710687458515
1772535219545148400,7.0121484375,0.00046330224722623825,0.00027698324993252754,-0.0019663991406559944
1772535219555164700,7.02216455078125,-0.00044883048394694924,0.00038457498885691166,-0.0004244288429617882
1772535219565180400,7.032180419921875,-0.0008933962089940906,0.00005587260238826275,0.000908194575458765
1772535219575196400,7.042196533203125,-0.0003666229313239455,0.0004787824582308531,0.0009518703445792198
1772535219585212400,7.05221240234375,0.0006710959714837372,0.000567255076020956,0.0018038772977888584
1772535219595228400,7.062228515625,-0.0012077641440555453,-0.0005163850728422403,-0.00071387505158782
1772535219605244400,7.072244384765625,-0.0009191295248456299,0.0009807185269892216,0.0012430797796696424
1772535219615260400,7.082260498046875,0.0002734339504968375,0.0006707264110445976,0.0019461542833596468
1772535219625276700,7.092276611328125,-0.0000647794222459197,0.0008156129624694586,0.0011071551125496626
1772535219635292400,7.10229248046875,0.000904078537132591,-0.0002978546544909477,0.000005405396223068237
1772535219645308400,7.112308349609375,0.0011770683340728283,0.00004261289723217487,-0.0012209657579660416
1772535219655324400,7.122324462890625,-0.00047728733625262976,-0.000009318580850958824,0.0009963824413716793
1772535219665340400,7.13234033203125,0.0008375976467505097,-0.0004086224362254143,-0.000969545915722847
1772535219675356400,7.1423564453125,0.00010416313307359815,0.0014984675217419863,-0.00023211678490042686
1772535219685372400,7.152372314453125,-0.00013765145558863878,0.001028659287840128,0.001814942341297865
1772535219695388700,7.162388671875,0.0004237429238855839,0.00011412985622882843,-0.0005379603244364262
1772535219705404400,7.172404296875,0.0014520689146593213,-0.00018899631686508656,-0.0013899975456297398
1772535219715420400,7.18242041015625,-0.0011612910311669111,0.0009063617326319218,0.0007402647752314806
1772535219725436400,7.1924365234375,0.0001200198894366622,-0.0000779787078499794,-0.00041687116026878357
1772535219735452400,7.202452392578125,-0.000677863135933876,0.00020990893244743347,0.0016801019664853811
1772535219745468400,7.212468505859375,-0.0005146297044120729,0.0007784783374518156,0.0007479696068912745
1772535219755484700,7.222484619140625,-0.0012661737855523825,0.0014282898046076298,-0.001660060603171587
1772535219765500700,7.232500732421875,-0.0010056144092231989,0.0005667088553309441,-0.0008805058896541595
1772535219775516400,7.242516357421875,0.0006814981461502612,0.0003709665033966303,-0.00046505266800522804
1772535219785532400,7.252532470703125,0.0007401266484521329,0.0003366731107234955,-0.0011491002514958382
1772535219795548400,7.26254833984375,-0.0011539135593920946,-0.00034909090027213097,-0.00003270292654633522
1772535219805564400,7.272564453125,-0.0004635121440514922,0.00019402801990509033,-0.0009249774739146233
1772535219815580400,7.282580322265625,0.00011545908637344837,-0.0007615141803398728,0.00014614593237638474
1772535219825596700,7.2925966796875,0.00007748929783701897,0.00004259822890162468,-0.0000651809386909008
1772535219835612400,7.3026123046875,0.0006495363195426762,0.0007616516668349504,0.0002991394139826298
1772535219845628400,7.31262841796875,0.0009526798967272043,-0.00008591823279857635,-0.0012928121723234653
1772535219855644400,7.32264453125,0.0003952802799176425,-0.0005050997715443373,0.0013064329978078604
1772535219865660400,7.332660400390625,0.0008562008151784539,0.0006255181506276131,-0.00009622843936085701
1772535219875676400,7.342676513671875,0.0007882902282290161,0.0009874417446553707,-0.0013066348619759083
1772535219885692400,7.3526923828125,0.0009655571193434298,0.0005634364206343889,0.0003196112811565399
1772535219895708700,7.362708740234375,0.000838258012663573,0.0006081776227802038,-0.0009049102663993835
1772535219905724400,7.372724365234375,-0.001477507408708334,0.00016964692622423172,-0.0006847293116152287
1772535219915740400,7.382740478515625,0.00027751579182222486,-0.0005627223290503025,0.00018772203475236893
1772535219925756400,7.39275634765625,0.0016170191811397672,0.00048500625416636467,-0.000011840835213661194
1772535219935772400,7.4027724609375,-0.0003260231460444629,-0.0005682739429175854,-0.00021290918812155724
1772535219945788400,7.412788330078125,0.0007346529164351523,-0.00013816170394420624,0.00009846314787864685
1772535219955804700,7.4228046875,-0.00043074641143903136,0.0006749012973159552,-0.001501031219959259
1772535219965820700,7.432820556640625,-0.00048067187890410423,-0.00023846770636737347,0.00021368823945522308
1772535219975836400,7.44283642578125,0.00015928572975099087,0.0009434432722628117,-0.0010664933361113071
1772535219985852400,7.452852294921875,-0.00020829640561714768,-0.00008856179192662239,-0.0002630399540066719
1772535219995868400,7.462868408203125,-0.000539327273145318,-0.00006752298213541508,-0.0005040564574301243
1772535220005884400,7.472884521484375,-0.0011262920452281833,-0.00043741962872445583,0.0001222090795636177
1772535220015900400,7.482900390625,-0.00031749007757753134,-0.0003705741837620735,0.0005842673126608133
1772535220025916700,7.492916748046875,0.0003953512932639569,0.0010727529879659414,0.0006322565022855997
1772535220035932400,7.502932373046875,-0.00033195805735886097,0.0001973719336092472,-0.0005336753092706203
1772535220045948400,7.512948486328125,0.00004582921974360943,0.0004206923767924309,-0.0018049790523946285
1772535220055964400,7.52296435546875,0.0002245273208245635,-0.0004999623633921146,-0.0006819241680204868
1772535220065980400,7.53298046875,0.00009447307093068957,0.0010582907125353813,0.0009826789610087872
1772535220075996400,7.542996337890625,0.0008622623863629997,-0.00017874757759273052,-0.0013366681523621082
1772535220086012400,7.553012451171875,-0.00003180734347552061,-0.00014829798601567745,-0.0001302468590438366
1772535220096028700,7.563028564453125,0.00035781311453320086,0.0001257411204278469,0.0005576477851718664
1772535220106044400,7.57304443359375,0.0006886062910780311,0.0009092548862099648,-0.0015244176611304283
1772535220116060400,7.583060302734375,0.000137864553835243,-0.0008417734643444419,0.00013499800115823746
1772535220126076400,7.593076416015625,0.0009191441349685192,0.0008134893141686916,0.0008595031686127186
1772535220136092400,7.603092529296875,-0.0011935415677726269,0.0005359880160540342,0.0003455132246017456
1772535220146108400,7.6131083984375,0.0004611338081303984,-0.00019193114712834358,0.0005283791106194258
1772535220156124400,7.62312451171875,0.0003311715554445982,-0.00013786903582513332,0.00029561901465058327
1772535220166140700,7.633140625,0.00037122840876691043,-0.0002555169630795717,-0.0018361848779022694
1772535220176156400,7.643156494140625,0.00007268803892657161,0.0007391737308353186,-0.00006678048521280289
1772535220186172400,7.65317236328125,-0.000018439372070133686,-0.0006836766842752695,0.00017349515110254288
1772535220196188400,7.6631884765625,0.0008223205804824829,0.002070830902084708,-0.0002376968041062355
1772535220206204400,7.673204345703125,-0.000516480824444443,-0.0011825230903923512,-0.000026750843971967697
1772535220216220400,7.683220458984375,0.00019564846297726035,0.00033414713107049465,-0.0011383541859686375
1772535220226236700,7.693236572265625,0.00038224016316235065,-0.0014164132298901677,-0.0012233392335474491
1772535220236252700,7.703252685546875,-0.0009908857755362988,0.0001220949925482273,-0.0003293161280453205
1772535220246268400,7.713268310546875,0.0009022092563100159,0.0005671740509569645,-0.0012273862957954407
1772535220256284700,7.72328466796875,-0.00032124697463586926,0.0008982049766927958,-0.00020499853417277336
1772535220266300700,7.73330078125,-0.0014768627006560564,-0.00017772172577679157,-0.0002958257682621479
1772535220276316700,7.743316650390625,0.00038388787652365863,-0.0003785241860896349,-0.0004537510685622692
1772535220286332700,7.753332763671875,-0.0010980531806126237,0.00023833406157791615,0.0005162146408110857
1772535220296349000,7.763348876953125,0.001706521725282073,0.0007435358129441738,-0.0001836642622947693
1772535220306364700,7.77336474609375,-0.000082669488620013,-0.00007100403308868408,-0.0016368618234992027
1772535220316380700,7.783380615234375,0.0007567589054815471,0.000830209581181407,0.0001695607788860798
1772535220326396700,7.793396728515625,0.00044516896014101803,-0.00046586920507252216,-0.0007317387498915195
1772535220336412700,7.80341259765625,0.00013144855620339513,-0.0015409874031320214,-0.002261991146951914
1772535220346428700,7.8134287109375,-0.0007834580610506237,0.00007945136167109013,-0.0018789065070450306
1772535220356445000,7.82344482421875,0.0019010084215551615,-0.0006739569362252951,0.00002765050157904625
1772535220366461000,7.8334609375,0.0008823663229122758,0.00010615680366754532,-0.0005125752650201321
1772535220376476700,7.8434765625,0.0011273771524429321,0.00032293819822371006,0.0013729427009820938
1772535220386492700,7.85349267578125,-0.0002002456458285451,0.0003275102935731411,0.0005434725899249315
1772535220396508700,7.8635087890625,0.00027379702078178525,0.000002071959897875786,0.00026304181665182114
1772535220406524700,7.873524658203125,0.00026093394262716174,-0.00034857471473515034,-0.001510903239250183
1772535220416540700,7.883540771484375,-0.00015158968744799495,0.0012626380193978548,-0.0007175472564995289
1772535220426557000,7.893556884765625,0.0006412786315195262,-0.0006356453523039818,0.0007985301781445742
1772535220436572700,7.90357275390625,0.0006138480384834111,0.0002937978133559227,0.0009327533189207315
1772535220446588700,7.913588623046875,-0.00022656109649688005,0.0009583767969161272,-0.00047621317207813263
1772535220456604700,7.923604736328125,0.0006877020932734013,0.0004206846933811903,0.00037466688081622124
1772535220466620700,7.93362060546875,-0.00028934789588674903,-0.00007117632776498795,-0.00022171204909682274
1772535220476636700,7.94363671875,-0.0002712384448386729,0.0003083241172134876,0.00024274317547678947
1772535220486652700,7.953652587890625,0.0004192136984784156,-0.00026666559278964996,0.0009364841971546412
1772535220496669000,7.9636689453125,-0.0008436572970822453,-0.00007598311640322208,-0.001503237523138523
1772535220506684700,7.9736845703125,-0.00016391987446695566,0.000707022612914443,-0.0006461362354457378
1772535220516700700,7.98370068359375,-0.0008057416998781264,-0.0007659717230126262,0.000012463890016078949
1772535220526716700,7.993716552734375,0.0002021071850322187,-0.0006595402956008911,0.0004255017265677452
1772535220536732700,8.003732666015624,0.0009224922396242619,-0.00034075998701155186,-0.0009010187350213528
1772535220546748700,8.013748779296876,-0.00006443000165745616,0.0007527107372879982,-0.0009940853342413902
1772535220556764700,8.0237646484375,-0.00014565640594810247,-0.00017273775301873684,-0.000492345541715622
1772535220566781000,8.033781005859375,0.0004888828261755407,0.0018149742390960455,-0.00000603310763835907
1772535220576796700,8.043796630859376,-0.0000887567875906825,-0.0007291433867067099,0.00021021580323576927
1772535220586812700,8.053812744140625,-0.0008897169027477503,0.00011520949192345142,0.0001924792304635048
1772535220596828700,8.06382861328125,0.001559325959533453,0.0017128398176282644,0.0005189827643334866
1772535220606844700,8.0738447265625,0.00005202117608860135,0.00036016153171658516,-0.0012485571205615997
1772535220616860700,8.083860595703126,0.0003963678900618106,0.0001692129299044609,0.0006729136221110821
1772535220626877000,8.093876953125,-0.000492667022626847,-0.0005513746291399002,-0.00025092437863349915
1772535220636892700,8.103892578125,0.001277269795536995,-0.0005654892884194851,0.00232355366460979
1772535220646908700,8.11390869140625,0.0013389962259680033,0.0001862065400928259,0.0010334656108170748
1772535220656924700,8.123924560546875,-0.0015694419853389263,-0.0002713245339691639,0.000035579316318035126
1772535220666940700,8.133940673828125,-0.00023259210865944624,0.0011644940823316574,-0.0006499900482594967
1772535220676956700,8.143956787109374,0.00047580874525010586,0.0011253454722464085,0.0022675027139484882
1772535220686972700,8.15397265625,-0.0007084699464030564,-0.000708654522895813,-0.001652729231864214
1772535220696989000,8.163989013671875,0.000007387774530798197,-0.001045011798851192,0.0017047179862856865
1772535220707004700,8.174004638671875,-0.0005962131544947624,0.0006333393976092339,0.00043867435306310654
1772535220717020700,8.184020751953126,-0.00009074516128748655,0.0007198923267424107,-0.00021193595603108406
1772535220727036700,8.19403662109375,0.00005523802246898413,-0.00018361606635153294,0.001757853664457798
1772535220737052700,8.204052734375,-0.0006518312729895115,-0.000003586290404200554,-0.00010183174163103104
1772535220747068700,8.214068603515624,-0.001301182433962822,0.0009772602934390306,0.0010571891907602549
1772535220757084700,8.224084716796876,0.0013270911294966936,0.00032132375054061413,-0.00006480049341917038
1772535220767101000,8.234100830078125,0.0005798368947580457,0.0005980359856039286,0.00005762232467532158
1772535220777116700,8.24411669921875,0.000399540935177356,0.0000515554565936327,-0.00046702055260539055
1772535220787132700,8.254132568359376,-0.0003757822560146451,0.0002777040936052799,-0.0007613198831677437
1772535220797148700,8.264148681640625,0.00002129509812220931,-0.0006943496409803629,-0.000006579793989658356
1772535220807164700,8.27416455078125,-3.6903657019138336e-8,0.0007624858990311623,-0.000002652406692504883
1772535220817180700,8.2841806640625,-0.00011455279309302568,0.0005872498732060194,0.0004628680180758238
1772535220827197000,8.294197021484376,0.00001716444967314601,0.0007410075049847364,0.0003239046782255173
1772535220837213000,8.304212890625,0.0001324792974628508,0.0006352800410240889,-0.0012175333686172962
1772535220847228700,8.314228759765625,-0.0003934200503863394,-0.0003158992622047663,0.000015055295079946518
1772535220857244700,8.32424462890625,-0.0004815706633962691,0.0007317881099879742,0.0006411646027117968
1772535220867260700,8.3342607421875,0.0005087689496576786,0.0002228887751698494,-0.0007474557496607304
1772535220877276700,8.344276611328125,0.0005202205502428114,0.0006953335832804441,-0.0020683840848505497
1772535220887292700,8.354292724609374,-0.0006979223107919097,0.00021056924015283585,0.00024117063730955124
1772535220897309000,8.364308837890626,0.0008371237199753523,0.0010332197416573763,-0.001017439179122448
1772535220907324700,8.37432470703125,-0.0014541286509484053,0.0010730086360126734,-0.0006246287375688553
1772535220917340700,8.384340576171875,-0.0003720863605849445,-0.0005331437569111586,-0.0011050631292164326
1772535220927356700,8.394356689453126,-0.0003572157584130764,0.0001691065263003111,0.00019625993445515633
1772535220937372700,8.40437255859375,-0.0008813258609734476,-0.0005571374204009771,-0.000030907802283763885
1772535220947388700,8.414388671875,0.0010823665652424097,0.000028008827939629555,-0.0009824810549616814
1772535220957404700,8.42440478515625,0.0017516189254820347,0.00010923529043793678,-0.0011838162317872047
1772535220967421000,8.4344208984375,0.00005700235487893224,0.0006325431168079376,-0.0007232041098177433
1772535220977436700,8.444436767578125,-0.0010170504683628678,-0.0001802537590265274,-0.0003322521224617958
1772535220987452700,8.45445263671875,0.00013046376989223063,-0.0010403395863249898,0.0003927219659090042
1772535220997468700,8.46446875,0.0006108980160206556,-0.00018653017468750477,-0.0005529662594199181
1772535221007484700,8.474484619140625,0.0005672493716701865,0.0003388510085642338,0.001737122656777501
1772535221017500700,8.484500732421875,0.00030439539114013314,-0.0018007324542850256,0.0007245887536555529
1772535221027516700,8.4945166015625,-0.0007539897924289107,-0.0007545067928731441,-0.00015574367716908455
1772535221037533000,8.504532958984376,0.0011299303732812405,-0.00029990519396960735,-0.0006734621711075306
1772535221047548700,8.514548583984375,-0.0008881768444553018,0.0010234308429062366,0.0008239899761974812
1772535221057564700,8.524564697265625,-0.0007092125015333295,-0.0007134827319532633,0.0005558095872402191
1772535221067580700,8.53458056640625,0.00037635263288393617,0.000253195408731699,-0.00003774929791688919
1772535221077596700,8.5445966796875,-0.0011943797580897808,0.00031285034492611885,-0.0014878404326736927
1772535221087612700,8.55461279296875,0.000425342790549621,-0.0005975374951958656,-0.0012444877065718174
1772535221097629000,8.56462890625,-0.0010050409473478794,-0.0002015253994613886,-0.00026550982147455215
1772535221107644700,8.574644775390626,-0.0006867133779451251,-0.00035514868795871735,-0.0006303861737251282
1772535221117660700,8.58466064453125,0.00011915911454707384,-0.0007764606270939112,-0.00020934036001563072
1772535221127676700,8.5946767578125,-0.0015826657181605697,-0.000927844550460577,0.0004400045145303011
1772535221137692700,8.604692626953126,0.0013444146607071161,0.00013502291403710842,-0.002005309797823429
1772535221147708700,8.614708740234375,-0.0007853104034438729,-0.00009823683649301529,0.0001793140545487404
1772535221157724700,8.624724609375,-0.00020420871442183852,-0.0008401934755966067,0.0006184692028909922
1772535221167741000,8.634740966796874,0.000542063033208251,0.00021248194389045238,-0.0006910953670740128
1772535221177756700,8.644756591796876,0.0005415304331108928,0.0011491156183183193,0.0006591272540390491
1772535221187772700,8.654772705078125,-0.00045177899301052094,-0.0009798251558095217,0.0007416573353111744
1772535221197788700,8.66478857421875,0.001187130343168974,-0.00010817241854965687,-0.001328684389591217
1772535221207804700,8.6748046875,0.00018131054821424186,0.00024700933136045933,0.0004727407358586788
1772535221217820700,8.684820556640625,0.00013497157488018274,-0.00018415646627545357,-0.001981628593057394
1772535221227836700,8.694836669921875,-0.0011075924849137664,0.000009412877261638641,-0.000867039430886507
1772535221237853000,8.70485302734375,-0.00015604501822963357,-0.0006542468909174204,0.000996374525129795
1772535221247868700,8.71486865234375,0.0005389343714341521,-0.0009294128976762295,-0.0007034493610262871
1772535221257884700,8.724884765625,0.001157586695626378,-0.0003760079853236675,0.00007339473813772202
1772535221267900700,8.734900634765625,-0.0004544415860436857,-0.0003768231254070997,-0.0002462216652929783
1772535221277916700,8.744916748046874,0.001775423064827919,-0.0004607127048075199,0.0007527300622314215
1772535221287933000,8.754932861328125,0.00033905819873325527,-0.00021981960162520409,0.00014048488810658455
1772535221297949000,8.764948974609375,-0.001168290851637721,0.0001354459673166275,-0.00003182189539074898
1772535221307965000,8.77496484375,0.0008371068979613483,0.0007632456254214048,0.0002617721911519766
1772535221317980700,8.784980712890626,-0.0010505416430532932,0.0014761739876121283,0.0005057179369032383
1772535221327996700,8.79499658203125,0.0007322648889385164,-0.0009475245606154203,-0.00011228537186980247
1772535221338012700,8.8050126953125,-0.00006029184442013502,0.0005036317743360996,-0.0010009822435677052
1772535221348028700,8.815028564453126,0.0002764828968793154,0.0009511623065918684,0.0003220471553504467
1772535221358045000,8.825044921875,0.000032537325751036406,0.0005466281436383724,-0.0010127294808626175
1772535221368061000,8.83506103515625,0.0001288859057240188,0.00009042210876941681,0.001233549090102315
1772535221378076700,8.84507666015625,0.0006239675567485392,-0.000352195231243968,0.00014245184138417244
1772535221388092700,8.8550927734375,-0.000791306491009891,-0.0003286055289208889,0.0005549276247620583
1772535221398108700,8.865108642578125,-0.00009435723768547177,0.00024716975167393684,-0.00007730675861239433
1772535221408124700,8.875124755859375,-0.0022334977984428406,0.00060858647339046,0.0001590438187122345
1772535221418140700,8.885140625,0.0003686769923660904,-0.0008279226021841168,-0.0004681302234530449
1772535221428157000,8.895156982421875,-0.00038984447019174695,0.0009282014798372984,-0.00047386297956109047
1772535221438173000,8.9051728515625,-0.0001520242658443749,0.00039477040991187096,-0.0006608166731894016
1772535221448188700,8.915188720703124,0.000200978247448802,0.00018542306497693062,-0.0014277049340307713
1772535221458204700,8.92520458984375,-0.001054968568496406,-0.0010377668077126145,-0.0003531193360686302
1772535221468220700,8.935220703125,0.00015344942221418023,-0.0019000554457306862,0.0006552126724272966
1772535221478236700,8.945236572265625,-0.0007749285432510078,0.00023207138292491436,-0.00025239260867238045
1772535221488253000,8.9552529296875,0.000673557398840785,0.0004641369450837374,-0.0009286096319556236
1772535221498269000,8.96526904296875,0.0007856764714233577,0.00004735216498374939,0.00023066438734531403
1772535221508285000,8.975284912109375,-0.0012144951615482569,-0.0010331390658393502,-0.00036565493792295456
1772535221518300700,8.98530078125,-0.0004368521040305495,-0.0007167555158957839,0.0003605892416089773
1772535221528316700,8.995316650390626,0.0019330305512994528,0.0005122884176671505,-0.00043407827615737915
1772535221538332700,9.005332763671875,-0.00013837608275935054,0.001046784920617938,-0.0007134438492357731
1772535221548348700,9.0153486328125,0.0001828604144975543,0.0012090844102203846,-0.00022198399528861046
1772535221558365000,9.025364990234374,-0.0007404575007967651,-0.002243703929707408,0.0004435400478541851
1772535221568381000,9.035380859375,-0.00007491942960768938,-0.0003346465528011322,-0.00043078092858195305
1772535221578396700,9.045396728515625,0.0007477310136891901,-0.0003202655352652073,-0.000029975082725286484
1772535221588412700,9.05541259765625,0.00018235226161777973,0.0013974595349282026,-0.00010287808254361153
1772535221598428700,9.0654287109375,-0.0006344392313621938,-0.000014282064512372017,0.0005418732762336731
1772535221608444700,9.075444580078125,-0.001532551134005189,0.0008157063275575638,-0.00011338107287883759
1772535221618460700,9.085460693359375,-0.0007136290078051388,0.00020770682021975517,-0.00016824202612042427
1772535221628477000,9.095476806640624,-0.00004597363295033574,0.0003749891184270382,-0.0012731184251606464
1772535221638493000,9.105492919921875,0.00038625739398412406,0.000412539578974247,0.00005127163603901863
1772535221648508700,9.1155087890625,0.0007978528155945241,0.00004665483720600605,-0.0009623575024306774
1772535221658524700,9.125524658203124,-0.00036861171247437596,-0.00020101899281144142,-0.0018071122467517853
1772535221668540700,9.135540771484376,-0.0006493641412816942,0.00011619692668318748,-0.0004794653505086899
1772535221678556700,9.145556640625,0.0016734448727220297,0.00020461389794945717,0.0001791343092918396
1772535221688572700,9.15557275390625,0.00015947548672556877,0.000658663222566247,0.0007130349986255169
1772535221698589000,9.1655888671875,0.0006649434799328446,0.0006450812797993422,-0.0006025666370987892
1772535221708605000,9.17560498046875,-0.00010681035928428173,0.0007083965465426445,-0.0008264509961009026
1772535221718620700,9.18562060546875,-0.0005563519080169499,0.000053525203838944435,0.0001780935563147068
1772535221728636700,9.19563671875,0.0006726871943101287,-0.0013038082979619503,0.00006669899448752403
1772535221738652700,9.205652587890626,0.0012468646746128798,-0.0008513372158631682,0.00018867198377847672
1772535221748668700,9.215668701171875,0.0009001408470794559,0.0005631563253700733,-0.00023705977946519852
1772535221758685000,9.225684814453125,-0.00027697638142853975,-0.0002669510431587696,0.00008225347846746445
1772535221768701000,9.235700927734374,0.0015379602555185556,-0.0010994881158694625,0.001303642289713025
1772535221778717000,9.245717041015626,-0.000275386031717062,0.0003833598457276821,-0.0009294180199503899
1772535221788732700,9.255732666015625,0.0014224047772586346,-0.0005320587661117315,-0.00027651945129036903
1772535221798748700,9.265748779296874,-0.0001451317803002894,-0.0005216724239289761,-0.0008083526045084
1772535221808764700,9.2757646484375,-0.0000789425102993846,0.0007445435039699078,-0.0001896284520626068
1772535221818780700,9.28578076171875,0.0012329306919127703,0.0004963369574397802,-0.0009872452355921268
1772535221828797000,9.295796875,-3.1886156648397446e-7,-0.0005985472816973925,0.000821409048512578
1772535221838813000,9.30581298828125,0.0007424367940984666,-0.0015423715813085437,0.0007140836678445339
1772535221853210600,9.320210693359375,0.0012469453504309058,0.0007571389432996511,-0.00038720667362213135
1772535221863226600,9.3302265625,-0.00027085101464763284,0.0009474782273173332,-0.0008218381553888321
1772535221873243000,9.340242919921875,0.00173424300737679,0.0009725119452923536,0.000901227118447423
1772535221883259000,9.3502587890625,0.0006148694665171206,0.0005712159909307957,-0.0003142687492072582
1772535221893275000,9.36027490234375,0.0005866399733349681,0.0009770817123353481,0.000165632925927639
1772535221903290600,9.37029052734375,-0.00028556416509673,-0.00036517251282930374,0.00011311937123537064
1772535221913306600,9.380306640625,0.000639617966953665,-0.000005379319190979004,0.0008340368513017893
1772535221923322600,9.390322509765625,0.001115851802751422,0.0010735495015978813,0.00025455374270677567
1772535221933338600,9.400338623046874,0.00011663371697068214,-0.0011477931402623653,-0.0007140380330383778
1772535221943355000,9.41035498046875,-0.0008815733599476516,0.0000729667954146862,-0.0015835370868444443
1772535221953371000,9.420370849609375,0.00011711206752806902,0.00023355544544756413,0.0008402059320360422
1772535221963387000,9.430386962890625,-0.0007677428657189012,0.0010186068248003721,-0.001424290705472231
1772535221973402600,9.440402587890626,-0.0007903797086328268,0.00046653347089886665,-0.0005941838026046753
1772535221983418600,9.450418701171875,-0.000031818810384720564,-0.0003047483041882515,0.0016249420586973429
1772535221993434600,9.4604345703125,0.0006645978428423405,0.0004113756585866213,-0.0021697962656617165
1772535222003451000,9.470450927734374,0.001498405123129487,0.00040249130688607693,-0.00006791763007640839
1772535222013467000,9.480466796875,-0.0001354442210868001,0.00020381947979331017,0.0009320995304733515
1772535222023483000,9.49048291015625,-0.0006726233405061066,-0.0004122366663068533,0.0009048911742866039
1772535222033499000,9.500498779296874,0.00013324926840141416,0.00014036940410733223,0.0010428428649902344
1772535222043514600,9.5105146484375,0.00022074129083193839,0.001222970662638545,-0.0010524610988795757
1772535222053530600,9.520530517578125,0.0006321996916085482,-0.00039623118937015533,-0.00006922194734215736
1772535222063546600,9.530546630859375,0.0004253989609424025,0.00037314416840672493,0.0005204614717513323
1772535222073563000,9.54056298828125,0.0004981032689101994,-0.00002047116868197918,-0.00011976249516010284
1772535222083579000,9.550578857421876,-0.00015785644063726068,-0.0011582408333197236,-0.000514716375619173
1772535222093595000,9.560594970703125,-0.0008593330276198685,0.0004657548852264881,-0.0007714452221989632
1772535222103611000,9.57061083984375,0.000874569988809526,-0.00039042881689965725,0.0008912575431168079
1772535222113626600,9.580626708984376,0.000669240253046155,0.0005605858750641346,-0.0009300783276557922
1772535222123642600,9.590642578125,0.00046100642066448927,-0.0001505154650658369,0.000963267870247364
1772535222133658600,9.60065869140625,-0.0006980012403801084,-0.0004402673803269863,0.0013728621415793896
1772535222143675000,9.6106748046875,0.0014168322086334229,0.0004872451536357403,-0.001169306691735983
1772535222153691000,9.62069091796875,0.0011473202612251043,0.00031227548606693745,0.00017851917073130608
1772535222163707000,9.630706787109375,-0.0014463805127888918,0.00031748320907354355,-0.000655042938888073
1772535222173722600,9.64072265625,0.00011369911953806877,0.0009020471479743719,0.000057619065046310425
1772535222183738600,9.650738525390626,0.00027336322818882763,0.000036871060729026794,0.000561815919354558
1772535222193754600,9.660754638671875,0.00022409475059248507,0.0004107789136469364,-0.0002661608159542084
1772535222204396800,9.671396728515624,-0.00015380780678242445,0.0006062549073249102,-0.00047681666910648346
1772535222214412800,9.681412841796876,-0.0008004673290997744,-0.0008312839781865478,0.00008105579763650894
1772535222224428500,9.691428466796875,0.0010019601322710514,0.00008111493661999702,-0.001549597829580307
1772535222234444800,9.70144482421875,-0.0010579796507954597,-0.0007738955318927765,0.000049480702728033066
1772535222244460800,9.711460693359374,-0.0024470845237374306,0.00020002247765660286,0.001649241428822279
1772535222254476500,9.7214765625,0.0007769562653265893,-0.0009809749899432063,-0.00022272765636444092
1772535222264492800,9.731492919921875,0.0009117121808230877,0.0014574152883142233,-0.00031460635364055634
1772535222274508800,9.7415087890625,-0.0008192490204237401,-0.00035483320243656635,0.0001026475802063942
1772535222284524800,9.75152490234375,0.0010785195045173168,0.00039378157816827297,-0.0007072198204696178
1772535222294540500,9.76154052734375,-0.0001962429960258305,-0.00025131204165518284,-0.001063220202922821
1772535222304556500,9.771556640625,-0.0014665708877146244,0.000024857930839061737,0.00013520242646336555
1772535222314572500,9.781572509765626,0.0016023875214159489,0.0000691490713506937,0.0012744911946356297
1772535222324588500,9.791588623046875,-0.00012573780259117484,0.0006276140920817852,-0.00005708914250135422
1772535222334604800,9.801604736328125,-0.001490698428824544,0.0013655249495059252,0.0007590432651340961
1772535222344620800,9.811620849609374,0.00004221720155328512,-0.0012880488066002727,0.0016405496280640364
1772535222354636500,9.821636474609376,-0.00014572113286703825,-0.00048473989591002464,-0.0002675536088645458
1772535222364652500,9.831652587890625,-0.0004735562251880765,-0.0007071138825267553,-0.0004188213497400284
1772535222374668500,9.84166845703125,-0.00020045583369210362,0.00015419977717101574,0.000612413277849555
1772535222384684500,9.8516845703125,-0.000993278925307095,0.00026312307454645634,0.00042918790131807327
1772535222394700500,9.861700439453125,0.0015078752767294645,0.0013591470196843147,0.0005365973338484764
1772535222404716800,9.871716796875,0.0007302322192117572,-0.0004360899329185486,-0.0013782153837382793
1772535222414732800,9.88173291015625,-0.00038055365439504385,0.0013413247652351856,-0.0003761574625968933
1772535222424748500,9.89174853515625,0.00012624592636711895,0.0006531639955937862,0.0005487585440278053
1772535222434763800,9.901763671875,-0.001316020730882883,-0.00029609259217977524,-0.0011321376077830791
1772535222444780500,9.911780517578125,-0.00040468695806339383,-0.000643635168671608,0.0020207788329571486
1772535222454796500,9.921796630859374,-0.0011510360054671764,0.0003131686244159937,0.000032576266676187515
1772535222464812500,9.9318125,-0.00026047497522085905,-0.0008857864886522293,0.00042912084609270096
1772535222474827500,9.94182763671875,-0.0009050334338098764,-0.000558141153305769,0.0010947794653475285
1772535222484844800,9.9518447265625,-0.0003859833814203739,0.0003164408262819052,-0.0014006025157868862
1772535222494859800,9.96185986328125,-0.000313332537189126,0.00011513964273035526,-0.0006500175222754478
1772535222504875800,9.971875732421875,-0.00045581167796626687,-0.001429493771865964,0.0005848903674632311
1772535222514891500,9.9818916015625,-0.0006639565690420568,0.00027564866468310356,-0.00005047209560871124
1772535222524907500,9.991907470703126,-0.0014320120681077242,0.00023090769536793232,-0.0005362327210605145
1772535222534923500,10.001923583984375,-0.0001292838715016842,0.0009263434913009405,0.0013752453960478306
1772535222544939500,10.011939453125,0.00025980398640967906,-0.0006089687813073397,0.0002055848017334938
1772535222554955800,10.021955810546874,0.0002171950472984463,0.0004954193718731403,0.0005454211495816708
1772535222564971800,10.0319716796875,0.00048803852405399084,-0.0006888883654028177,-0.0013539451174438
1772535222574987800,10.04198779296875,0.0018087890930473804,0.001129813026636839,-0.0007765213958919048
1772535222585003500,10.05200341796875,-0.0013838084414601326,-0.0006872618105262518,-0.00024948175996541977
1772535222595019500,10.06201953125,0.0007254132651723921,0.0011337497271597385,-0.0006024353206157684
1772535222605035500,10.072035400390625,0.0003400538698770106,0.0006288143340498209,-0.0000037569552659988403
1772535222615051800,10.0820517578125,0.0007413004641421139,0.00023155426606535912,-0.0010987496934831142
1772535222625067800,10.09206787109375,0.0001958850771188736,0.0010539384093135595,0.00137053313665092
1772535222635083800,10.102083740234375,0.0003247912391088903,0.0003447744529694319,0.0013081489596515894
1772535222645099500,10.112099609375,0.00046860193833708763,-0.0006235509645193815,0.00005353381857275963
1772535222655115500,10.122115478515624,-0.001191937830299139,0.00011144601739943027,-0.00037773512303829193
1772535222665131500,10.132131591796876,0.0009061004966497421,-0.0006195916794240475,-0.0011921301484107971
1772535222675147500,10.1421474609375,-0.0003261376987211406,-0.00034639518707990646,-0.0011528548784554005
1772535222685163800,10.152163818359375,0.00013219230459071696,0.0014930502511560917,0.0006370556075125933
1772535222695179800,10.1621796875,0.000012945558410137892,0.0001703132875263691,0.0005840265657752752
1772535222705195800,10.17219580078125,-0.0016081207431852818,-0.0011077377712354064,0.0018154722638428211
1772535222715211500,10.18221142578125,-0.00025049917167052627,0.00024446239694952965,-0.0005842247046530247
1772535222725227500,10.1922275390625,0.0005617649876512587,-0.0013654185459017754,-0.001295554917305708
1772535222735243500,10.202243408203126,0.0008541212882846594,-0.0008769100531935692,-0.0008303639478981495
1772535222745259500,10.212259521484375,0.0006282852264121175,-0.0009347007144242525,-0.0012929551303386688
1772535222755275800,10.22227587890625,0.0006721822428517044,0.00007509230636060238,0.0002840757369995117
1772535222765291800,10.232291748046874,0.00003355619264766574,0.0005315579473972321,-0.0012435135431587696
1772535222775307800,10.242307861328126,0.0007865741499699652,-0.00015670713037252426,0.00032546836882829666
1772535222785323500,10.252323486328125,-0.00027655973099172115,-0.00010930304415524006,-0.0012063817121088505
1772535222795339500,10.262339599609374,0.0010187072912231088,-0.0007158585358411074,-0.0004360908642411232
1772535222805355500,10.27235546875,-0.0008689413079991937,0.0002082583960145712,-0.0016566175036132336
1772535222815371800,10.282371826171875,0.0004294880200177431,0.0012698653154075146,-0.000038753263652324677
1772535222825387800,10.2923876953125,-0.0010179399978369474,0.00008635665290057659,-0.0011013546027243137
1772535222835403800,10.30240380859375,0.000613336218520999,0.0007255070377141237,0.00018851039931178093
1772535222845419500,10.31241943359375,-0.00017495948122814298,-0.00027104769833385944,0.00038744835183024406
1772535222855435500,10.322435546875,-0.0003260769881308079,0.0008287921082228422,0.0008304505608975887
1772535222865451500,10.332451416015624,-0.0015034604584798217,-0.0007105149561539292,0.0013058248441666365
1772535222875467500,10.342467529296876,0.0008141719154082239,-0.0019195626955479383,0.0009780433028936386
1772535222885483800,10.35248388671875,0.0009121762122958899,-0.0006012979429215193,-0.0004558027721941471
1772535222895499800,10.362499755859375,0.0008323512738570571,0.00018337788060307503,0.0014754144940525293
1772535222905515800,10.372515869140624,0.00024672216386534274,0.00020415056496858597,-0.0010577840730547905
1772535222915531500,10.382531494140625,0.00003085343632847071,0.00026871729642152786,0.0005232291296124458
1772535222925547500,10.392547607421875,-0.002080500591546297,0.001164604676887393,-0.00043897097930312157
1772535222935563500,10.4025634765625,-0.0005941243143752217,-0.0003325901925563812,-0.0010958299972116947
1772535222945579500,10.41257958984375,0.0007739415159448981,-0.0013270146446302533,0.0017934334464371204
1772535222955595800,10.422595703125,-0.0005372034502215683,0.000855705002322793,-0.0005440376698970795
1772535222965611800,10.43261181640625,-0.0002676915028132498,0.0017819523345679045,-0.001247911248356104
1772535222975627800,10.442627685546874,0.000010724179446697235,-0.0003462652675807476,-0.0002122209407389164
1772535222985643500,10.4526435546875,0.00012310961028560996,0.0006034178659319878,0.00026581669226288795
1772535222995659500,10.462659423828125,0.000008077244274318218,0.00011543836444616318,-0.0012348508462309837
1772535223005675500,10.472675537109374,0.00003018148709088564,0.00009466568008065224,-0.000014590565115213394
1772535223015691500,10.48269140625,0.00023825207608751953,-0.0002543914597481489,-0.00017242785543203354
1772535223025707800,10.492707763671875,-0.0012989244423806667,-0.0017068793531507254,-0.0010195793583989143
1772535223035723800,10.502723876953125,-0.0005673253908753395,-0.0009515023557469249,0.0010444261133670807
1772535223045739800,10.51273974609375,-0.00033456506207585335,-0.00010275281965732574,-0.0010722544975578785
1772535223055755500,10.522755615234376,0.0010342167224735022,0.00036404794082045555,0.00006638746708631516
1772535223065771500,10.532771484375,0.002510140649974346,0.0012546090874820948,-0.000689950305968523
1772535223075787500,10.54278759765625,0.00043845747131854296,-0.0010811557294800878,0.0006748551968485117
1772535223085803800,10.5528037109375,-0.0014262879267334938,-0.00031922548078000546,0.001524403691291809
1772535223095819800,10.56281982421875,-0.000019784958567470312,0.00031124288216233253,-0.0009860689751803875
1772535223105835800,10.572835693359375,-0.0007154025952331722,0.0003708978183567524,-0.000570615753531456
1772535223115851500,10.5828515625,-0.000693760346621275,-0.001075077336281538,-0.0003919824957847595
1772535223125867500,10.592867431640625,-0.0007390340324491262,-0.00032246788032352924,0.0007260125130414963
1772535223135883500,10.602883544921875,-0.0003843085141852498,0.00006160186603665352,-0.0014665569178760052
1772535223145899500,10.6128994140625,-0.0019087018445134163,-0.00042202812619507313,0.0012328231241554022
1772535223155915800,10.622915771484376,0.0003834538802038878,-0.0020551669877022505,2.1047890186309814e-7
1772535223165931800,10.632931884765625,-0.0010045856470242143,-0.0006213211454451084,0.0009174030274152756
1772535223175947800,10.64294775390625,0.0009939115261659026,-0.00026958505623042583,0.0006259521469473839
1772535223185963500,10.652963623046874,-0.0004433965659700334,-0.00009647943079471588,-0.00007712282240390778
1772535223195979500,10.6629794921875,0.0008937141974456608,-0.0004764590412378311,-0.00024062255397439003
1772535223205995500,10.67299560546875,0.0005235348362475634,0.0009888121858239174,0.001387634314596653
1772535223216011500,10.683011474609375,0.0016464656218886375,-0.0003611182328313589,0.00023144949227571487
1772535223226027800,10.69302783203125,0.00031541776843369007,0.0008221243042498827,-0.0004812125116586685
1772535223236043800,10.703043701171875,0.0005596608389168978,0.00005178526043891907,-0.00011875387281179428
1772535223246059800,10.713059814453125,-0.00023662432795390487,0.0004363458137959242,-0.00045058364048600197
1772535223256075500,10.723075439453124,0.0005868087173439562,0.0007888211403042078,-0.0004161209799349308
1772535223266091500,10.733091552734376,0.0005085117882117629,0.00047829654067754745,-0.0003346283920109272
1772535223276107500,10.743107421875,0.0005318436305969954,-0.0005533520597964525,0.0007081190124154091
1772535223286123500,10.75312353515625,-0.000135544512886554,0.0005233639385551214,0.0003754901699721813
1772535223296139500,10.763139404296876,-0.0009783408604562283,-0.0007653847569599748,0.00132264313288033
1772535223306155500,10.773155517578125,-0.0013674288056790829,-0.0003829547204077244,0.00042569078505039215
1772535223316171500,10.783171630859375,-0.0008043379639275372,-0.00038930471055209637,0.0010599575471132994
1772535223326187500,10.7931875,-0.0003947438090108335,-0.0004380405880510807,0.0009781986009329557
1772535223336203500,10.80320361328125,-0.0007663570577278733,0.00000798865221440792,0.0010208995081484318
1772535223346219500,10.813219482421875,-0.00021215330343693495,-0.0006074679549783468,-0.00031733885407447815
1772535223356235500,10.823235595703125,-0.000004650850314646959,0.0005497636739164591,-0.00027836626395583153
1772535223366251500,10.83325146484375,0.00023796316236257553,-0.001420176587998867,-0.0009510805830359459
1772535223376267500,10.843267578125,-0.00018833030480891466,-0.000732870539650321,0.0002667466178536415
1772535223386283500,10.853283447265625,-0.0003198904450982809,-0.001104914117604494,-0.0006198198534548283
1772535223396299500,10.863299560546874,-0.0006048718350939453,0.0006928429938852787,0.0005480297841131687
1772535223406315500,10.8733154296875,0.0004175156936980784,0.00032692449167370796,-0.00033054687082767487
1772535223416331500,10.88333154296875,0.000340346887242049,-0.0006297312211245298,-0.0012353085912764072
1772535223426347500,10.893347412109375,-0.00018269795691594481,-0.0005564943421632051,0.00014633964747190475
1772535223436363500,10.903363525390626,0.0015565440990030766,-0.0003888180945068598,0.001136148814111948
1772535223446379500,10.913379638671875,0.001367726013995707,0.0010924320667982101,-0.00011873291805386543
1772535223456395500,10.9233955078125,0.00032832444412633777,-0.0009217541664838791,0.0009903220925480127
1772535223466411500,10.93341162109375,-0.00018912774976342916,-0.0005134916864335537,-0.0017785662785172462
1772535223476427500,10.943427490234376,0.0010642219567671418,0.001646580407395959,-0.0007181367836892605
1772535223486443500,10.953443603515625,0.00006047659553587437,0.002668701810762286,0.0024539544247090816
1772535223496459500,10.96345947265625,-0.00012356892693787813,0.0023396725300699472,0.001970577286556363
1772535223506475500,10.9734755859375,0.0003427505143918097,0.0009846559260040522,0.002306934678927064
1772535223516491500,10.983491455078125,-0.00041396700544282794,0.00038596452213823795,0.0016423177439719439
1772535223526507500,10.993507568359375,-0.00008746347157284617,0.001025123056024313,0.00021326541900634766
1772535223536523500,11.0035234375,-0.0004901221254840493,0.0005561015568673611,0.000710092019289732
1772535223546539500,11.01353955078125,-0.0006669560680165887,-0.0002327268011868,-0.0010052500292658806
1772535223556555500,11.023555419921875,0.0005535042146220803,-0.0001650464255362749,-0.0005732518620789051
1772535223566571500,11.033571533203125,-0.00025769462808966637,-0.0015972945839166641,-0.0015881825238466263
1772535223576587500,11.04358740234375,-0.0010373636614531279,-0.0021244892850518227,-0.003172324039041996
1772535223586603500,11.053603515625,0.00013256300007924438,-0.0013859946047887206,-0.0016900086775422096
1772535223596619500,11.06361962890625,-0.000830463832244277,-0.0011796274920925498,0.0006274769548326731
