time,seconds_elapsed,z,y,x
1772535126469802000,0.044802001953125,0.020184125372767446,-0.003302238149475306,-0.001374494090443477
1772535126479818000,0.05481787109375,0.01210427929162979,-0.008574223735649138,-0.002286558300908655
1772535126489835000,0.0648349609375,0.0005815992802381515,-0.0019678112079389394,0.00876285990923643
1772535126499851000,0.07485107421875,0.007465513575077056,0.0046981129546649755,0.009500179474148898
1772535126509867000,0.084866943359375,-0.004805354455113411,-0.001557166314125061,0.004260863181715831
1772535126519883000,0.094883056640625,-0.0012128829210996627,0.0021126995713450013,-0.011157070702547206
1772535126529899000,0.10489892578125,0.013004443001747131,0.006174195122905075,-0.007034821407077833
1772535126539914800,0.114914794921875,0.002830254989862442,0.0043007111349143085,0.0017753573757596313
1772535126549932000,0.12493212890625,0.003877718216180801,-0.014129063117504118,0.0022168723318725823
1772535126559948000,0.134947998046875,-0.001360182437300682,-0.0033275735201314088,0.001463368817139417
1772535126569964000,0.144964111328125,-0.007644961795210838,-0.004321352064143866,-0.005648052356950938
1772535126579979800,0.154979736328125,0.013453355813026428,0.005149162924103438,0.010819691974343732
1772535126589995800,0.164995849609375,-0.016623802542686462,0.000825417973473668,-0.004141246256884187
1772535126600013000,0.175012939453125,-0.013181553134322165,0.005153912164457142,0.004852938190195709
1772535126610029000,0.185029052734375,0.005225041171908378,-0.005322838990576565,-0.01406928662112914
1772535126620045000,0.195045166015625,0.004328384593129158,0.004210201573558152,-0.0014692049028817563
1772535126630060800,0.205060791015625,0.0031306992411613463,0.008112378377560526,-0.008662084682192654
1772535126640076800,0.215076904296875,0.014204466441273688,0.005080024944338947,0.001821443273499608
1772535126650094000,0.225093994140625,-0.002852466821670532,0.003119483727402985,-0.0007932510032318532
1772535126660110000,0.235110107421875,0.00971709189414978,-0.010484587401617318,0.005204692503623664
1772535126670126000,0.2451259765625,0.008670213189721106,0.003406593573093414,0.006284797624219208
1772535126680141800,0.255141845703125,-0.011979191607236862,0.009457911235000938,-0.013229465662967413
1772535126690157800,0.26515771484375,-0.008684826236963272,0.002536350077204406,0.001515911855129525
1772535126700175000,0.275175048828125,-0.0037467853128910064,-0.006028557840827852,-0.0014925492458511143
1772535126710191000,0.285191162109375,-0.003296703457832336,0.006825133312307298,-0.0006884663213510066
1772535126720206800,0.295206787109375,-0.002249240231513977,0.005521156307961792,-0.0022944402132648975
1772535126730222800,0.305222900390625,-0.00703705902993679,0.0028670068036764857,-0.011474365623947233
1772535126740238800,0.31523876953125,0.005233809000253677,0.008241064524836838,-0.002025551010854542
1772535126750254800,0.3252548828125,-0.01032967083454132,0.004042060198727995,-0.008828700820216908
1772535126760272100,0.335272216796875,-0.007635609444975853,0.0011922967907972634,0.0012069281043484807
1772535126770287900,0.345287841796875,0.0026899697363376614,-0.003614025778695941,0.014395605099201202
1772535126780304000,0.355303955078125,0.003887655088305473,0.012393215768225491,0.0015848945712670683
1772535126790319900,0.36531982421875,0.006731938603520393,0.005311166819091886,0.014911664862558245
1772535126800336000,0.3753359375,-0.005987257716059685,-0.0021997750665992497,0.0017225312099792061
1772535126810353200,0.385353271484375,0.00029810616374015806,-0.004103982986416667,-0.005088655775366351
1772535126820369000,0.395368896484375,-0.001496376037597656,-0.0019694551757536826,0.004931172791868448
1772535126830385000,0.405385009765625,0.00434007503092289,0.004495247326325625,-0.003230725549533963
1772535126840401000,0.41540087890625,-0.004188683861494064,-0.008048976018838585,0.0011801131626591086
1772535126850417000,0.4254169921875,-0.0074812956660985945,-0.0032634039764292536,-0.0066315926347393535
1772535126860434200,0.43543408203125,0.001346153911948204,0.0005417239275760948,0.00860940464688465
1772535126870450000,0.445449951171875,0.008229483684897423,-0.0018396730499342082,-0.005573434484470635
1772535126880466000,0.4554658203125,-0.004339490509033203,0.006095083738397807,0.009141520495899022
1772535126890482000,0.46548193359375,0.008380290332436561,-0.005140723889321089,-0.00847780502331443
1772535126900498000,0.475497802734375,-0.001197100830078125,-0.001251844958309084,0.00015645093703642486
1772535126910515000,0.485514892578125,-0.0002986906856298446,-0.003477612982690334,0.005897835000092163
1772535126920531000,0.495531005859375,-0.011821370697021483,-0.006730988755449652,-0.01040176795637235
1772535126930547000,0.505546875,-0.00014788403809070586,0.007303400082234293,0.0032772224392276254
1772535126940563000,0.51556298828125,0.0004506663769483566,0.0011821407229639588,0.0058737691379152236
1772535126950579000,0.525578857421875,-0.0005938742399215698,-0.0068571906846947965,0.012491013586893676
1772535126960596000,0.535595947265625,-0.004485036459565162,-0.0022146255758590996,-0.0012786781663075089
1772535126970612000,0.545612060546875,0.0071866966336965555,-0.010873751115985214,-0.0018559117986820636
1772535126980628000,0.5556279296875,0.006886836904287338,0.011154613883979618,0.002480126377940178
1772535126990644000,0.56564404296875,0.0003039513826370239,0.0006537877336144447,-0.003921703488379716
1772535127000660000,0.575659912109375,0.004193360036611557,-0.0028948811912909147,0.004572404215764254
1772535127010676000,0.585676025390625,0.0028472061246633527,0.002155552332382649,0.005330684370314702
1772535127020692700,0.595692626953125,0.0007557868033647537,0.0055936552885919805,-0.005702175430674105
1772535127030709000,0.605708984375,0.009435936865210532,-0.0025516572441905737,0.00507568669593893
1772535127040725000,0.61572509765625,0.013924480456113815,0.007218772272393107,0.0025442228564061223
1772535127050741000,0.625740966796875,0.004047814086079597,-0.004436795137356966,0.003750173713220283
1772535127060757000,0.635757080078125,0.009883680632710456,-0.01470390386339277,0.009205297313956542
1772535127070773800,0.645773681640625,0.004944470664858818,-0.00004020414622500539,-0.0007324881261680275
1772535127080790000,0.6557900390625,-0.007771803045272827,-0.0032355843877419827,-0.0007270812986884266
1772535127090806000,0.665805908203125,0.008837970972061156,0.003934964828751981,-0.0001328325994312763
1772535127100822000,0.675822021484375,-0.0019347674548625944,0.0022270283997058867,0.02064742290242575
1772535127110838000,0.685838134765625,-0.011959902384877204,-0.001136694146040827,0.00834345632023178
1772535127120854800,0.695854736328125,0.013030746486783026,0.0029981041037477553,0.00220868902541697
1772535127130870800,0.705870849609375,0.008541618373990058,0.006552691312786191,-0.0006820183142554015
1772535127140887000,0.715886962890625,0.0039028526574373243,-0.005254194201156497,-0.002165827131224796
1772535127150903000,0.725903076171875,-0.0011859949141740799,-0.0010138166850432752,-0.005627073501003906
1772535127160919000,0.7359189453125,0.011533785927295684,-0.0006123780109919607,0.006944110916322097
1772535127170936000,0.74593603515625,0.012433365115523337,-0.004379932117275893,0.0016567724973894655
1772535127180952000,0.7559521484375,-0.005672200417518616,0.0068257726331241424,0.0031470932535361497
1772535127190968000,0.765968017578125,0.01318096861243248,-0.0016419402544386684,0.0028345932382624595
1772535127200984000,0.775984130859375,-0.0010363573104143142,-0.0025942177442833778,0.002704856778215617
1772535127211000000,0.786,0.004948562318086624,-0.010957209882047026,0.004914093792904168
1772535127221017000,0.79601708984375,0.0046498716324567795,0.00012276786314323543,-0.004472816298808902
1772535127231033000,0.806033203125,0.006148585757613182,-0.007409381207358091,-0.001826749636279419
1772535127241049000,0.816049072265625,0.00779518392086029,-0.00009714023154228926,0.010922376030683517
1772535127251065000,0.826065185546875,0.009889525851607323,0.0012901859410107135,-0.006268586274934932
1772535127261081000,0.8360810546875,0.0006131634622812271,0.004131619912013411,-0.006027744990075007
1772535127271096800,0.846096923828125,0.006450199052691459,0.002765409592725336,0.002704756313515827
1772535127281114000,0.856114013671875,0.0024117373168468475,0.004105937481485307,0.0008689922537188976
1772535127291130000,0.866130126953125,-0.007017185285687446,-0.012409180522337556,0.016718604686670004
1772535127301146000,0.87614599609375,-0.0026788638204336165,-0.0042619134944863616,0.005801617217157036
1772535127311162000,0.886162109375,0.0064472764432430265,0.0012170476395636795,-0.0034589082822203635
1772535127321177900,0.896177734375,0.013779519027471541,0.007967563079390675,0.005695900953514501
1772535127331195100,0.906195068359375,0.00495090040564537,-0.012188304313272237,0.0036238804524298756
1772535127341211100,0.916211181640625,-0.0019306758016347885,-0.0016376476718112825,-0.0051480395460966975
1772535127351227100,0.92622705078125,0.0033060558080673214,-0.0009808825298212467,-0.006919606662727892
1772535127361243100,0.9362431640625,0.010636544826626777,-0.0028493798154406247,-0.0060287131044548005
1772535127371259000,0.9462587890625,0.007193126374483108,-0.006209741360321641,-0.000966032020561397
1772535127381276200,0.956276123046875,0.013328852650523184,-0.011860990321356802,-0.007325703245587647
1772535127391292200,0.966292236328125,0.0012070377022027968,-0.00014653233122080564,-0.0019782778030261396
1772535127401308200,0.97630810546875,0.018864859467744827,0.010879651133809239,0.005203623924544081
1772535127411324000,0.986323974609375,0.013028992921113968,-0.002900214953534305,0.006227505345875397
1772535127421340000,0.99633984375,-0.0005874444991350174,0.006223075765930116,0.005521932626096532
1772535127431357200,1.006357177734375,-0.012259177592396735,-0.0043920792127959424,0.007310350412828848
1772535127441373200,1.016373291015625,-0.0004383914172649383,0.0005777085564099252,-0.0035958782006520777
1772535127451389200,1.02638916015625,-0.003878887259960174,-0.007416833861451595,-0.004205205738032236
1772535127461405000,1.036405029296875,0.01587327643632889,-0.011603398831095546,0.0064280237535014745
1772535127471421000,1.0464208984375,0.013179215046763419,0.004120002539455891,-0.0003421645011752844
1772535127481438200,1.056438232421875,0.008390227204561233,0.0038252573765814304,0.004417423716606572
1772535127491454200,1.0664541015625,-0.005973813712596893,-0.004436155816540122,-0.0012106452982407062
1772535127501470200,1.07647021484375,0.0015068974316120147,-0.0028342370452359316,-0.00863168954392895
1772535127511486000,1.08648583984375,0.0025537761360406876,0.009051705054286867,0.000981896309973672
1772535127521502000,1.096501953125,-0.0014870236873626708,0.009687920598592609,0.0003716554571408778
1772535127531518000,1.10651806640625,0.0038987610042095183,0.01124954389212653,0.0003977762790862471
1772535127541535200,1.11653515625,-0.004330722680687904,0.0030438977405428886,-0.009404062155913561
1772535127551551000,1.126551025390625,-0.0005880290210247039,-0.004787015080824494,-0.0017120737480465322
1772535127561567000,1.13656689453125,0.005846387940645218,0.005565579971577972,0.007001686322456225
1772535127571583000,1.1465830078125,0.014226093751192092,0.005569068836607039,0.004434913707524538
1772535127581599000,1.156598876953125,0.0006079027652740478,-0.004885470486618578,-0.0006834887521341442
1772535127591616300,1.1666162109375,0.003451601758599281,0.00735461881281808,-0.012950192063860595
1772535127601632000,1.176632080078125,-0.0005868599772453308,0.0072828322182409465,-0.01112631023810245
1772535127611648000,1.18664794921875,-0.0046270752787590025,-0.0006375855174846947,0.0028027093958109617
1772535127621664000,1.1966640625,-0.0020820669710636137,0.0019852190004661678,-0.00021734167826361952
1772535127631680000,1.206679931640625,-0.002680617386102676,0.012025752429012208,0.006410853422991931
1772535127641697300,1.216697265625,0.010039163455367088,0.004552347808424383,0.002272949900664389
1772535127651713000,1.226713134765625,0.011985621348023414,0.002547967449761927,-0.009996091498620808
1772535127661729000,1.23672900390625,0.0004646949023008346,0.00104618458468467,0.009971651177108288
1772535127671745000,1.2467451171875,0.005402151304483413,0.008560816264804452,0.0021993092757184056
1772535127681761000,1.256760986328125,0.002856558474898338,-0.00750043875798583,0.006239917302876711
1772535127691778000,1.266778076171875,0.004054243826866149,0.008325381807424127,-0.0007987948280293494
1772535127701794000,1.2767939453125,0.006148585757613182,0.004124660448264331,0.007088579154619946
1772535127711810000,1.28681005859375,0.006147416713833808,-0.0027511253390461203,-0.0048107247499749066
1772535127721826000,1.296825927734375,-0.003131283763051033,-0.009258406607527286,-0.009912029944360256
1772535127731842000,1.306842041015625,0.00045709611773490905,0.0065712498827837406,-0.006963372739218175
1772535127741859000,1.316859130859375,-0.002387187397480011,-0.001121112984418869,-0.005583572285994887
1772535127751875000,1.326875,-0.004629997888207435,-0.001913194943871349,-0.0032848120906390247
1772535127761891000,1.33689111328125,-0.005077741655707359,0.002967179242521524,0.0043521033954340965
1772535127771907000,1.346906982421875,-0.0046294133663177485,-0.004233911242708563,0.00012762670135125516
1772535127781923000,1.356923095703125,-0.006722586253285407,-0.008768157138861716,0.003323235271731391
1772535127791940000,1.366940185546875,-0.0017827917635440825,0.0028214506288990375,-0.008930983017757535
1772535127801956000,1.3769560546875,-0.004774374794960022,0.005903524955362081,-0.00025812121322378514
1772535127811972000,1.38697216796875,0.008093874606490135,-0.002354088845476508,0.004637815868481994
1772535127821988000,1.396988037109375,-0.005672200417518616,0.002904142209980637,-0.005330784835014492
1772535127832004000,1.407004150390625,0.0033048867642879484,-0.002121029008273035,-0.008045158360246569
1772535127842020900,1.417020751953125,0.011532616883516311,0.005466777505911886,0.001506796966912225
1772535127852036900,1.427036865234375,0.002852466821670532,-0.009580094576254486,0.002844630575086921
1772535127862053000,1.43705322265625,-0.0029839842468500134,0.0015453297458589076,0.0030264990811701862
1772535127872069000,1.447069091796875,0.00599310293495655,0.004763031417038291,-0.0018676753017120061
1772535127882085000,1.457085205078125,0.003297287979722023,-0.00579354350855574,0.0022345449858810753
1772535127892101000,1.46710107421875,-0.002838438296318054,-0.002616064249910414,-0.00014972893530502913
1772535127902118000,1.477117919921875,-0.016905542093515396,0.010288991764280945,0.0015764829359482973
1772535127912134100,1.487134033203125,0.0006032265901565551,-0.0018716938897036014,0.008209189815539867
1772535127922150100,1.497150146484375,-0.01421089618206024,-0.0011505217419937252,-0.007672479989798739
1772535127932166100,1.507166259765625,-0.005085340440273285,0.0046282625888474285,-0.003256033520726487
1772535127942182100,1.51718212890625,-0.0047884033203125,-0.0027706337571144104,-0.002120006094966084
1772535127952199000,1.527198974609375,0.0008966565787792205,0.006695442518033087,0.0018909831120632588
1772535127962215000,1.53721484375,0.006432078874111175,0.01331058634147048,-0.0026489710056688633
1772535127972231200,1.547231201171875,0.003889408653974533,0.0037797377344220874,-0.009266973506473004
1772535127982247200,1.5572470703125,-0.0010486322700977325,0.010909260820783674,0.0021870343160349873
1772535127992263200,1.56726318359375,0.0034393267989158626,0.00630512802619487,-0.010570347722619772
1772535128002280000,1.577280029296875,0.011669395005702972,0.0007350362762808799,-0.007469249035278335
1772535128012296000,1.5872958984375,0.0029921675533056257,0.0005410480741411447,0.005024212237028405
1772535128022312200,1.597312255859375,0.0020955109745264054,0.008145970119908452,0.007590382063761353
1772535128032328200,1.607328125,0.011523264533281325,0.008235219305939971,0.007135413971031084
1772535128042344200,1.61734423828125,0.008381459376215934,-0.0046537440899759525,0.0013072010078933089
1772535128052361000,1.62736083984375,0.008682488149404526,-0.00277947465069592,-0.002117768472107127
1772535128062377000,1.637376953125,-0.0008966565787792205,0.014911043808050453,0.003909729922795668
1772535128072393200,1.647393310546875,0.002395370703935623,0.0012745317141525446,0.0016199110857211053
1772535128082409200,1.6574091796875,-0.00239244809448719,0.0024559600510634483,0.0038761747130658477
1772535128092425200,1.66742529296875,0.0034410803645849226,0.014191150301974266,0.0053206561666447666
1772535128102442000,1.67744189453125,0.003291442760825157,0.004620992597844451,0.0050126861960161475
1772535128112458000,1.6874580078125,-0.014517185652256012,-0.012681640788167714,0.0068960339908953755
1772535128122474000,1.697473876953125,0.004485620981454849,0.00817660272018984,0.00855793932112865
1772535128132490200,1.707490234375,-0.0056885670304298395,0.004252670742105692,-0.004139529223833233
1772535128142506200,1.71750634765625,0.007478957578539848,-0.009831018863711505,0.0005834076448343694
1772535128152523000,1.72752294921875,0.0007464344531297683,0.005364522707834839,-0.0013713705515954642
1772535128162539800,1.737539794921875,0.00613338818848133,-0.011309512184746563,0.002444589273678139
1772535128172555800,1.7475556640625,0.0040402153015136714,0.0055446102487854655,-0.00019986995365470645
1772535128182571800,1.75757177734375,0.0011976853519678114,0.0054206368092447514,-0.006564080356480553
1772535128192587500,1.76758740234375,-0.007331073540449142,-0.00912186594735831,-0.007008892381377518
1772535128202604800,1.777604736328125,-0.0106225163012743,-0.0014179039739072323,-0.003152390483161434
1772535128212620800,1.787620849609375,0.0031470658540725706,-0.00107926487037912,-0.005320062511600554
1772535128222636800,1.79763671875,0.013770751199126243,-0.000745831664931029,0.004550566843291744
1772535128232652500,1.807652587890625,-0.003584872749447822,0.0063420807694084935,-0.0029092385102063418
1772535128242668500,1.81766845703125,0.003300210589170456,-0.010004731462802738,-0.0010115516627207397
1772535128252685800,1.827685791015625,0.008986439532041549,0.001974843736924231,0.0009278463014867157
1772535128262701800,1.837701904296875,-0.00882218888103962,-0.0022990159236826,0.004936305624712259
1772535128272717800,1.8477177734375,0.003747369834780693,-0.0010516279447823763,-0.0030825675168074666
1772535128282733600,1.857733642578125,-0.00627718057334423,-0.0010788995441980659,-0.00020078326910734175
1772535128292749600,1.86774951171875,0.0029991818159818646,-0.002986815524753183,0.00921875045057386
1772535128302766800,1.877766845703125,0.00030512042641639707,0.005750855144299566,0.00700027068350464
1772535128312782800,1.887782958984375,-0.0064268181771039955,0.009122158208303153,0.0013499715705402194
1772535128322798800,1.897798828125,-0.0040320319950580595,-0.0018208587516099213,-0.010005516914092004
1772535128332814600,1.907814697265625,0.0007575403690338134,-0.001011716059502214,0.005795187476370483
1772535128342830600,1.91783056640625,-0.01166296526491642,0.0012018318041227757,-0.003974639252014458
1772535128352847600,1.92784765625,0.010033902758359909,-0.006401793333701789,0.005405448373267427
1772535128362863900,1.93786376953125,-0.013908698365092276,0.003196019562333822,0.0043470344946719705
1772535128372879600,1.947879638671875,-0.0034369887113571166,0.009246423908788711,0.0067720696845091875
1772535128382895600,1.9578955078125,-0.0004436521142721176,-0.0031972799376584586,0.008279533371701836
1772535128392911600,1.96791162109375,0.00270049113035202,0.0015852781637571752,0.00898603767324239
1772535128402928600,1.9779287109375,0.005244914916157722,-0.004900247930642217,-0.0037180524087511
1772535128412945000,1.98794482421875,-0.0010416180074214936,-0.0013915822225622832,-0.00002151771206408739
1772535128422960600,1.997960693359375,0.000754033237695694,-0.00528513732869178,0.0011513985248282552
1772535128432976600,2.0079765625,0.006439093136787414,-0.004796477028913795,-0.012351404186803847
1772535128442992600,2.01799267578125,-0.010319149440526962,0.0067806731160730115,-0.0032477223501075057
1772535128453009700,2.028009765625,-0.0016395839005708694,-0.0031146796881221235,0.0027312515947967766
1772535128463025700,2.038025634765625,0.007488309928774833,0.0036115415606647727,-0.0019025182862300424
1772535128473041700,2.048041748046875,0.0024012159228324888,0.00970426894519478,0.002738357189018279
1772535128483057700,2.0580576171875,0.010182955840229987,0.002660031255800277,0.006345852762227878
1772535128493073700,2.06807373046875,-0.0019388591080904006,-0.007215045945346355,-0.006297319179074838
1772535128503089700,2.078089599609375,-0.027077976539731024,0.008382043898105622,0.000451917619118467
1772535128513106700,2.088106689453125,0.007936053696274757,-0.0009576477847062051,-0.006098590869735926
1772535128523122700,2.098122802734375,0.013919219759106635,-0.008645754601899534,-0.005073220744216815
1772535128533138700,2.108138671875,-0.0019435352832078933,0.012170074536837636,0.011627592557435855
1772535128543154700,2.11815478515625,-0.003738602006435394,0.003667637395765632,-0.0047840011398307975
1772535128553171700,2.128171630859375,-0.006132803666591644,-0.007714574699010699,0.00016000373414717614
1772535128563187700,2.138187744140625,-0.006582300999760628,-0.013519479851797222,0.004197195961512625
1772535128573203700,2.14820361328125,0.0004512508988380432,-0.0035476825442165134,-0.004372315066400915
1772535128583219700,2.1582197265625,-0.004935702836513519,-0.01002020302657038,-0.000055593511601909994
1772535128593235700,2.168235595703125,-0.0034410803645849226,-0.002450808951910585,0.002608401533262804
1772535128603251700,2.178251708984375,-0.002243395012617111,-0.0031565643347799778,0.003295634878752753
1772535128613268700,2.188268798828125,-0.0073322425842285155,-0.012074012017529457,-0.004774639656441286
1772535128623284500,2.198284423828125,-0.008078677037358284,-0.0034070136982016263,-0.014108760114992036
1772535128633300700,2.20830078125,-0.003739771050214767,-0.0005330291644670069,0.004600169005524367
1772535128643316700,2.218316650390625,0.014814122772216796,0.0027840229616500436,0.00201716677499935
1772535128653332700,2.228332763671875,0.00658697717487812,0.0013214395957998931,0.009555763852596282
1772535128663349500,2.238349609375,0.011074936243891715,0.005112082316726446,-0.001086096469964832
1772535128673365500,2.248365478515625,0.021997896796464918,0.005166771646030247,0.008202942737843841
1772535128683381800,2.2583818359375,0.011074351722002029,0.0018909100468270479,0.006291994549985975
1772535128693397800,2.268397705078125,-0.008826865056157112,-0.0010039346118457615,0.00040795974638313054
1772535128703413800,2.278413818359375,-0.007332827106118202,-0.005693864260055124,0.006655850293161347
1772535128713430500,2.288430419921875,-0.003741524615883827,-0.0004839475920423865,0.0012411865669768303
1772535128723446500,2.298446533203125,-0.004788987842202186,0.0037328663853928444,-0.0035033958779182284
1772535128733462500,2.308462646484375,-0.008381459376215934,0.0023757892206311224,-0.0031428189372178167
1772535128743478800,2.318478759765625,0.0020925883650779725,-0.003619670068193227,-0.009945667352480814
1772535128753494800,2.328494873046875,-0.005987842237949371,0.005247545264661312,0.0041786830572877074
1772535128763511600,2.338511474609375,-0.003894669350981712,-0.00288269756315276,-0.0009173157743178307
1772535128773527600,2.348527587890625,0.007326981887221336,0.008663162394426762,-0.011280002962471917
1772535128783543600,2.35854345703125,-0.0018026655077934264,-0.01122207136331126,-0.008530740786949173
1772535128793559800,2.368559814453125,0.0064268181771039955,-0.0011685140564106403,0.004914833578420803
1772535128803575800,2.378575927734375,0.0041822541207075115,0.0027412432658486066,0.002258017193013802
1772535128813592600,2.388592529296875,0.008072247296571732,-0.008998696225415916,0.009655607497878372
1772535128823608600,2.398608642578125,-0.0034510172367095944,0.005782181864324957,-0.0037665403261315077
1772535128833624600,2.40862451171875,0.002684124517440796,0.014770393228344619,-0.0073526369182858615
1772535128843640800,2.418640869140625,-0.012580664631724357,-0.0046385099882259966,0.0005275401385966688
1772535128853657600,2.42865771484375,0.007021861460804939,0.0008906469631008803,-0.007571823493763804
1772535128863673600,2.438673583984375,-0.003453355324268341,-0.007326488696876913,-0.005948441809322685
1772535128873689600,2.448689697265625,0.0017839608073234557,0.004332914637774229,-0.006556244109896942
1772535128883705600,2.45870556640625,-0.0046533787637948985,-0.00008957797959446906,-0.00023903292026370763
1772535128893721600,2.4687216796875,0.013751461976766586,-0.00711361313117668,-0.0047741647324059154
1772535128903738600,2.478738525390625,0.003428220883011818,-0.0025787096478976307,0.004348167005833238
1772535128913754600,2.488754638671875,-0.0064484454870223995,-0.005725209246389568,-0.008560597069095819
1772535128923770600,2.4987705078125,0.0016319851160049438,0.0008591193136759102,-0.0009403130574151873
1772535128933786600,2.50878662109375,0.006569441518187523,0.01223895678827539,0.0026409703623037784
1772535128943802600,2.518802734375,-0.004056581914424896,0.01251925330068916,0.004770228342805057
1772535128953819000,2.52881884765625,0.012104863813519478,0.011910546817816793,-0.0006130264649633317
1772535128963835600,2.538835693359375,0.0007312368839979171,-0.014856939000636338,0.004292610026849434
1772535128973851600,2.5488515625,-0.00001695113480091095,-0.005420582010317593,0.007270319796539843
1772535128983867600,2.55886767578125,-0.005404489392042159,0.01227987332055345,0.006089293318428099
1772535128993883600,2.568883544921875,-0.004358195209503174,-0.0008402136838063598,-0.0010920878193341195
1772535129003899600,2.578899658203125,-0.009146014007925987,-0.0028135778496973214,0.0014574779324699192
1772535129013916700,2.588916748046875,0.008961305090785026,0.012497516392916441,-0.001430991784343496
1772535129023932700,2.5989326171875,0.0016296470284461973,-0.0035147118563763793,0.0003766786921303719
1772535129033948700,2.60894873046875,0.012103694769740103,0.001555357949528843,0.010495492388121783
1772535129043964700,2.618964599609375,0.013000351348519325,-0.00019797025751322508,0.002545821158448234
1772535129053981700,2.628981689453125,0.0010293430477380753,-0.005723163419775665,-0.010014622669154778
1772535129063997700,2.638997802734375,0.004921674311161041,0.0044972566203214225,0.0013651600065175443
1772535129074013700,2.649013671875,-0.005253682744503021,0.0008593750420026481,0.0002495817137416452
1772535129084029700,2.65902978515625,-0.012587678894400597,0.00034203663701191543,0.006350656801508739
1772535129094045700,2.669045654296875,-0.004208557605743408,0.0035076427947729823,-0.007419153682701289
1772535129104062700,2.679062744140625,-0.002112462109327316,0.0076162471573799845,0.0057446902649942785
1772535129114078700,2.68907861328125,-0.00405599739253521,0.0023220314730890094,0.012519061504444106
1772535129124094700,2.6990947265625,-0.0054027358263731,0.004833374973200261,0.002151204950828105
1772535129134110700,2.70911083984375,0.0011813187390565872,0.008126827028021215,-0.013136426217807456
1772535129144126700,2.719126708984375,0.002827332380414009,-0.00010249226009473204,0.0015448182892054318
1772535129154143500,2.7291435546875,0.008064063990116119,0.0024687099347822368,-0.005638700006715953
1772535129164159500,2.739159423828125,0.0002829085946083069,0.0048969782613217825,-0.007700747103057801
1772535129174175500,2.749175537109375,-0.003457446977496147,0.00006961290379986166,-0.008579246970638632
1772535129184191700,2.759191650390625,-0.007496493235230445,-0.0011873831536620854,-0.004549206003267318
1772535129194207700,2.769207763671875,-0.006150339323282242,-0.002677512113563716,0.011857501456327735
1772535129204224500,2.779224609375,0.0023790040910243986,-0.0051499849080108104,-0.00749976290455088
1772535129214240500,2.789240478515625,0.0026776947766542435,0.0008389350421726703,0.007295801297668368
1772535129224256500,2.799256591796875,-0.0009124386698007583,-0.0047165071278810495,0.010634197605913505
1772535129234272800,2.809272705078125,0.004774374794960022,-0.006223130564857274,0.0018282840062398462
1772535129244288800,2.819288818359375,0.014650456643104553,-0.0007912417092360556,-0.004812724910816178
1772535129254305500,2.829305419921875,0.005672200417518616,0.001493526493385434,-0.004628490917710587
1772535129264321500,2.839321533203125,0.00013385551273822782,-0.0019030754086561499,0.005797078039357438
1772535129274337500,2.849337646484375,0.004024433210492134,-0.004712397208344191,0.0035726891213096676
1772535129284353500,2.859353515625,-0.000016366612911224363,0.00818606466827914,0.0026813754379283634
1772535129294369800,2.869369873046875,-0.0013660276561975478,0.005259308767691254,0.004050572298746556
1772535129304386600,2.879386474609375,-0.00032207156121730803,0.0047537886646576225,-0.010737895442405715
1772535129314402600,2.889402587890625,0.00042670097947120663,0.0022784297933802007,-0.006615061625046655
1772535129324418600,2.89941845703125,0.009404957205057143,0.004523651436902583,0.0038521819161251186
1772535129334434600,2.9094345703125,0.006412789651751518,0.01390040546078235,0.008177333372551948
1772535129344450800,2.919450927734375,0.0020727146208286283,0.004810834347829222,-0.007840155573748052
1772535129354467600,2.929467529296875,0.006858195331692695,-0.0016842815588228404,-0.007032757314154878
1772535129364483600,2.939483642578125,-0.0030190555602312087,0.007281005587335676,-0.007427026461903005
1772535129374499600,2.94949951171875,0.010748188507556915,0.007075619208347052,0.002871564247785136
1772535129384515600,2.959515625,-0.004513678032159805,0.002356883590761572,0.003441783617483452
1772535129394531600,2.969531494140625,-0.0004717091649770736,0.00006285436945036053,-0.002636686912830919
1772535129404548600,2.979548583984375,-0.0022667758882045745,-0.00010667524486780166,-0.008432139250682666
1772535129414564600,2.989564697265625,0.005814823758602142,0.0019346213243901728,0.008761005878867582
1772535129424580600,2.99958056640625,-0.009897124636173248,-0.0007619973484426736,-0.009206375026190653
1772535129434596600,3.0095966796875,0.016437924581766128,-0.007327420278638601,-0.006105504667712375
1772535129444612600,3.019612548828125,0.008656769186258316,0.0024019283088855445,-0.0011717837257310747
1772535129454629600,3.029629638671875,0.010153145223855973,-0.001491791194025427,-0.002521536100562662
1772535129464645600,3.039645751953125,0.0025227964758872986,0.004914002461358905,-0.012661840109154582
1772535129474661600,3.04966162109375,0.01464227333664894,0.006888937529828399,-0.0023692681482993063
1772535129484677600,3.059677734375,0.0005763385832309722,-0.004000084220524877,-0.0026377189592923967
1772535129494693600,3.069693603515625,0.0038689503878355023,0.004831493543367833,-0.0010872746468987315
1772535129504710700,3.079710693359375,0.0010258359163999556,0.005871321452502161,-0.0013895455291029065
1772535129514726700,3.0897265625,-0.01378828685581684,0.008451401073578745,0.007478272591950372
1772535129524742700,3.09974267578125,-0.0019657471150159836,-0.004614672454912215,-0.0033921905884053555
1772535129534758700,3.109758544921875,0.01045475851893425,0.0023914982464164495,-0.007586326943151652
1772535129544774700,3.119774658203125,-0.004057750958204269,-0.0010201368279755115,0.0018426778577733784
1772535129554791700,3.129791748046875,0.0026776947766542435,-0.00495866358699277,0.004911865303199738
1772535129564807700,3.1398076171875,-0.0065974985688924785,0.00720103568630293,-0.0013744027588982134
1772535129574823700,3.14982373046875,0.011359598404169082,0.002363879587128758,-0.003780970710283145
1772535129584839700,3.159839599609375,0.009414894077181815,0.00460126498406753,-0.004655223661009222
1772535129594855400,3.16985546875,0.009113865303993225,0.00017510083857923746,-0.004222193405451252
1772535129604872700,3.179872802734375,-0.001211129355430603,-0.003515168514102697,-0.005349425603402778
1772535129614888700,3.189888671875,0.005074234524369239,0.006045655106101185,0.005126932825986296
1772535129624904700,3.19990478515625,0.007018938851356506,-0.003043258419726044,-0.0009969660149421542
1772535129634920700,3.209920654296875,-0.0003156418204307556,-0.004883351594768465,0.0003334971375297755
1772535129644936400,3.2199365234375,0.0020808979272842407,-0.014811876016203313,-0.0018248225406743584
1772535129654953700,3.22995361328125,0.004324292939901352,0.0007580335593782365,-0.0003877115427982062
1772535129664969700,3.2399697265625,-0.017073884397745133,0.0019638291525654493,0.0058929944281931965
1772535129674985700,3.24998583984375,-0.0003144727766513824,-0.0004183167436160147,-0.0066563343503512435
1772535129685001700,3.260001708984375,-0.0006131634622812271,0.008222962612565606,-0.004282216496998444
1772535129695018500,3.2700185546875,-0.0034580314993858333,0.000355407575238496,-0.0014798998268321156
1772535129705034500,3.280034423828125,-0.0021118775874376296,-0.0015566000585444271,0.006176058286428451
1772535129715050800,3.29005078125,-0.0012134674429893494,-0.001540525706578046,0.0003823412479367107
1772535129725066800,3.300066650390625,0.002825578814744949,0.007807458880543708,-0.000934559170063585
1772535129735082800,3.310082763671875,0.0013297872990369797,-0.005975877805519849,0.0022105704552493988
1772535129745099500,3.320099609375,0.013897007927298545,0.0016107231322675943,-0.000052844432089477775
1772535129755115500,3.330115478515625,0.004471007934212685,0.0066779799265787,0.0023821915619540958
1772535129765131800,3.3401318359375,-0.002562543964385986,0.003353968336712569,-0.0027839133637957273
1772535129775147800,3.350147705078125,0.007017185285687446,0.001744578645005822,-0.004213334245560691
1772535129785163500,3.36016357421875,0.0031289456754922864,-0.0071454695741645985,0.0042524424132425334
1772535129795180500,3.3701806640625,-0.008991700229048728,-0.005174735756777227,0.0022007523141335697
1772535129805196500,3.380196533203125,0.005222118562459945,-0.003954929904546588,0.007048420674167573
1772535129815212500,3.390212646484375,0.0007312368839979171,-0.004616718281526118,0.0034355365397874264
1772535129825228800,3.400228759765625,-0.0004658639460802078,0.010387100110203027,-0.0016215185209177434
1772535129835244500,3.41024462890625,0.0004313771545886993,0.006215641378145664,-0.0038928153206128626
1772535129845261600,3.420261474609375,-0.003011456775665283,0.0041422326375730335,0.0007086871254723519
1772535129855277600,3.430277587890625,-0.014982465076446532,0.0038477249367162582,0.012552589314710347
1772535129865293600,3.44029345703125,-0.009295651611685753,-0.00035213790591806174,-0.003127228642441332
1772535129875309800,3.450309814453125,-0.008846154278516769,-7.306523621082305e-7,-0.008280227491445838
1772535129885325600,3.46032568359375,0.000879120922088623,0.005409695290122181,-0.006067720807436853
1772535129895342600,3.470342529296875,0.009110358172655104,0.009476104478817433,0.0038965507808141407
1772535129905358600,3.480358642578125,-0.0015121581286191938,-0.002266940284986049,-0.009073149701114743
1772535129915374600,3.49037451171875,0.00746843618452549,0.0016520049907267093,-0.000365033920109272
1772535129925390800,3.500390869140625,-0.0021072014123201368,0.009397157491091638,0.002649866054812446
1772535129935406600,3.510406494140625,-0.012433365115523337,-0.004920432202145457,-0.021032330566784364
1772535129945423600,3.520423583984375,0.01569675082564354,-0.0064954812328331165,0.005732689299946651
1772535129955439600,3.530439697265625,-0.002707505393028259,0.0014109993090853095,0.0056191276565659785
1772535129965455600,3.54045556640625,-0.00973930372595787,-0.004774922784231603,0.011190726376976818
1772535129975471600,3.5504716796875,0.0005880290210247039,0.005163903835508972,-0.0010301832979544997
1772535129985487600,3.560487548828125,-0.008387889117002487,-0.00003874284150078893,0.0026030769041739403
1772535129995504600,3.570504638671875,0.008521160107851028,0.00021983502944931388,0.0014815346614923328
1772535130005520600,3.580520751953125,-0.0024000468790531158,0.00710807843953371,-0.003923968510702252
1772535130015536600,3.59053662109375,-0.00269873756468296,0.006021178251970559,-0.00394565975270234
1772535130025552400,3.600552490234375,0.002239303359389305,0.0040498599126935,-0.001703424650710076
1772535130035568600,3.610568603515625,0.00956979237794876,0.002477806556690484,-0.007283763800002634
1772535130045585700,3.620585693359375,0.016152677899599073,-0.004528546807728707,-0.003140608713822439
1772535130055601700,3.6306015625,-0.0018038345515727996,0.0010005005457438528,-0.011967254574270919
1772535130065617700,3.64061767578125,0.0007388356685638427,0.005156597311887889,0.012487159395683557
1772535130075633400,3.65063330078125,0.005377601385116577,0.004849157064221799,-0.01955208368008025
1772535130085650700,3.660650634765625,-0.007338672325015068,0.0104284367675893,0.0015921462959609925
1772535130095666700,3.670666748046875,0.011067921981215477,0.0028559739530086515,-0.005450986281735822
1772535130105682700,3.6806826171875,0.0008943184912204742,0.004283029347751289,0.005804485027678311
1772535130115698700,3.69069873046875,0.0022445640563964844,-0.0069454352237284175,0.007659675307152792
1772535130125714400,3.70071435546875,0.01661035853922367,-0.00412661494333297,0.006464894298324361
1772535130135731700,3.710731689453125,0.001945288848876953,-0.0033433190785348414,0.011847738114139065
1772535130145747700,3.720747802734375,0.00014963760375976562,0.013080394314788281,0.007926500416640192
1772535130155763700,3.730763671875,-0.003291442760825157,0.0007945296448655426,-0.007630823672004044
1772535130165779700,3.74077978515625,0.0103261637032032,-0.0024349537956528363,-0.016509775108424947
1772535130175795500,3.75079541015625,0.0010503858357667922,-0.0011591069072484968,-0.010081221631960943
1772535130185812500,3.7608125,0.0004489128112792969,0.004783471416868269,0.00005510032125748694
1772535130195828700,3.770828857421875,0.011969839257001876,0.008266107634548098,0.00030853622620925303
1772535130205844700,3.7808447265625,0.0040402153015136714,-0.0019917035401798783,0.0053739937890786675
1772535130215860500,3.790860595703125,-0.0052379006534814835,0.006674016137514263,-0.00023121493998914955
1772535130225876500,3.80087646484375,0.007931377521157265,0.00806481290878728,-0.009552028392395004
1772535130235893500,3.8108935546875,0.007781155395507812,-0.006902052739728242,-0.00003892550459131598
1772535130245909500,3.820909423828125,0.0010468787044286727,0.005125508053880185,0.0006017561522778124
1772535130255925800,3.83092578125,0.0010462941825389862,0.01589863007329404,-0.00690123075582087
1772535130265941500,3.84094140625,-0.005386369213461876,-0.0021762663268484173,0.006666764412820339
1772535130275957500,3.85095751953125,0.012273206117749213,-0.0022559622332453725,-0.0031347634949255732
1772535130285974500,3.860974609375,0.005987842237949371,0.0031523996163159607,-0.006611070436518639
1772535130295990500,3.870990478515625,-0.005534253251552581,-0.0059367331052199,-0.005086810878152027
1772535130306006800,3.8810068359375,0.007035889986157417,0.00017186770187690854,-0.0025317287010140715
1772535130316022500,3.8910224609375,0.005839373677968979,-0.004735102230496704,0.006654973510326817
1772535130326038500,3.90103857421875,-0.005382862082123756,-0.004370214440859854,-0.0014604370745364575
1772535130336055600,3.9110556640625,-0.005831190371513366,-0.00634975261921063,-0.0023832418747246264
1772535130346071600,3.921071533203125,0.008234159860014915,-0.0016910400931723416,0.009421095489105209
1772535130356087600,3.931087646484375,0.00793371560871601,0.01015765700219199,-0.00975725950775668
1772535130366103600,3.941103515625,0.0028436989933252332,-0.0017549904411658644,-0.0007328260528855025
1772535130376119600,3.95111962890625,0.004937456402182579,-0.00481196685899049,0.006315777284372597
1772535130386136600,3.961136474609375,-0.007181435936689376,-0.0027638569564558562,0.003392227121023461
1772535130396152600,3.971152587890625,-0.0019435352832078933,-0.006659585753362626,-0.005235571699077264
1772535130406168600,3.98116845703125,0.005089432093501091,-0.0024796514539048072,-0.0012210570944007485
1772535130416184600,3.9911845703125,-0.0013449848681688307,-0.00011051116976886987,-0.011123451560735702
1772535130426200600,4.00120068359375,-0.001496376037597656,-0.0015457316046580672,-0.005180270448420197
1772535130436217600,4.011217529296875,-0.00044832828938961026,0.008019695125427096,-0.007259204747481271
1772535130446233600,4.021233642578125,0.0034428339302539825,-0.00385475746570155,-0.012062613840680568
1772535130456249600,4.03124951171875,0.0052402387410402295,-0.004398636817745864,-0.008174483828339725
1772535130466265600,4.041265625,-0.004935702836513519,0.00249694964857772,0.001348281936952844
1772535130476281600,4.051281494140625,0.004342413118481636,0.009774338506720959,-0.001201165083842352
1772535130486298600,4.061298583984375,-0.007179682371020317,-0.005616561240144074,0.0007836977235972881
1772535130496314600,4.071314697265625,0.0034451720178127285,-0.010856489453930408,-0.005034770163660869
1772535130506330400,4.081330322265625,0.006289455533027648,-0.0019761223785579205,0.013768869769293814
1772535130516346400,4.091346435546875,-0.0022398878812789915,-0.0019175788580439983,0.004561791490204632
1772535130526363600,4.10136376953125,0.0009030863195657729,0.008538896693941206,-0.0006565185468178242
1772535130536379600,4.111379638671875,0.00703705902993679,0.013805274523235857,-0.008336222861846909
1772535130546395600,4.121395751953125,0.004792494973540306,0.006301876623183489,-0.007616046227980405
1772535130556411400,4.131411376953125,-0.009123802176117897,-0.001522332462761551,-0.00180809060158208
1772535130566427400,4.141427490234375,0.0010515548795461654,-0.003876804900728166,0.00018644421650096773
1772535130576444700,4.151444580078125,-0.0011924246549606323,0.0005955730066634714,-0.00024205599441193043
1772535130586460700,4.161460693359375,-0.005232639956474304,-0.007159516365826129,-0.009659927479969337
1772535130596476700,4.1714765625,0.005392214432358741,0.0001458016788586974,-0.011571268393471836
1772535130606492400,4.181492431640625,0.004046060520410537,-0.009000577655248343,0.00100591650637798
1772535130616508400,4.19150830078125,0.00659048430621624,-0.004550795172154903,-0.0045466852526180445
1772535130626525700,4.201525634765625,-0.009119126001000405,-0.01066295790951699,0.00023710582465864716
1772535130636541700,4.211541748046875,0.009435936865210532,-0.0024885471464134753,0.003478718094388023
1772535130646557700,4.2215576171875,0.0010579846203327178,0.0035592451178468763,-0.006989320031227543
1772535130656573400,4.231573486328125,0.000008767828345298767,0.010940277013555169,-0.0076338741456158455
1772535130666589400,4.24158935546875,0.0024041385322809217,0.00909810147928074,0.006572939516371116
1772535130676606700,4.251606689453125,0.0016559505134820937,-0.0006242328455671668,-0.00028993199043907223
1772535130686622700,4.261622802734375,-0.0004395604610443115,0.000035308775398880244,-0.0029443372230511158
1772535130696638500,4.271638427734375,0.0009048398852348328,0.007572006156854331,0.009542210251279175
1772535130706654500,4.281654541015625,0.002849544212222099,-0.00450304704029113,0.0022002317243255674
1772535130716670500,4.29167041015625,0.005093523746728897,0.0019506043448112903,-0.012780835979478433
1772535130726687700,4.301687744140625,0.0013537526965141295,-0.002423537352494895,-0.004065605471096933
1772535130736703700,4.311703857421875,0.000009352350234985351,0.00585552109517157,0.004508389935689047
1772535130746719500,4.321719482421875,-0.002085574102401733,-0.0105850521014072,-0.007856960578076541
1772535130756735500,4.331735595703125,-0.005676292070746421,0.009130030987504869,0.001525309871137142
1772535130766751500,4.34175146484375,0.008687748846411705,-0.008770458693802356,-0.00431240157270804
1772535130776768500,4.3517685546875,0.0009065934509038925,-0.0007232727732509374,-0.010949547165399417
1772535130786784800,4.36178466796875,0.010034487280249594,-0.009115783266443758,0.002381524841673672
1772535130796800500,4.371800537109375,0.005844634374976158,0.00990503394799307,0.0018102551592048257
1772535130806816500,4.38181640625,0.004350011903047561,0.014158873733878134,-0.0016337660811375826
1772535130816832500,4.39183251953125,0.0052472530037164684,-0.0027390330424532294,-0.0049432924879249185
1772535130826849500,4.401849609375,-0.0035813656181097027,-0.016787012014072386,0.005677296717744321
1772535130836865500,4.411865478515625,-0.003880640825629234,-0.006307466113753616,0.007035762121994048
1772535130846881500,4.421881591796875,0.0027022446960210797,0.010825436728540807,-0.0005529851071070879
1772535130856897500,4.4318974609375,-0.0025327333480119705,0.002485021748766303,0.0016870489046443252
1772535130866914600,4.44191455078125,-0.0014835165560245513,-0.00793419053275138,-0.005761477003013715
1772535130876930600,4.4519306640625,-0.013602993416786193,-0.003937229851074517,0.0006689487701281904
1772535130886946600,4.461946533203125,-0.0037274960905313488,0.006869082051888108,0.0020383739598095417
1772535130896962600,4.471962646484375,0.0028559739530086515,-0.00956223012600094,-0.010996171919256448
1772535130906978600,4.481978515625,0.00809445912837982,-0.0028764870180748403,0.013867343441396951
1772535130916995600,4.49199560546875,-0.0032797523230314253,0.0066202218573540444,-0.001268796093109995
1772535130927011600,4.502011474609375,-0.002830254989862442,-0.0030838096258230504,0.0016199932841118425
1772535130937027300,4.51202734375,-0.0032779987573623654,0.0058058550008572634,-0.009484369983663782
1772535130947043600,4.522043701171875,-0.001482347512245178,-0.006510441339947283,-0.009394609340978785
1772535130957059600,4.5320595703125,0.0021072014123201368,-0.008957249970175326,-0.007738741025887429
1772535130967076600,4.54207666015625,-0.006271919876337051,-0.0013659545909613371,-0.007895475090714171
1772535130977092600,4.552092529296875,-0.0002858312040567398,-0.006593242518883198,0.005318263280158862
1772535130987108400,4.5621083984375,-0.0038771336942911147,-0.007191573738213628,0.0024877525619696824
1772535130997124600,4.57212451171875,-0.002681201907992363,0.00584437864664942,-0.00983033387712203
1772535131007140600,4.582140625,0.00016249708533287046,-0.0080919566440396,0.002162539195595309
1772535131017157600,4.59215771484375,0.0015092355191707611,-0.005710851927474141,-0.008925978049077092
1772535131027173600,4.602173583984375,0.006445522877573967,-0.009984857718553394,0.007185180530045181
1772535131037189400,4.612189453125,0.012132336342334746,-0.0011679478008300066,0.0051186216553673145
1772535131047205400,4.622205322265625,-0.00028700024783611294,-0.005220310197863728,0.004837704088445752
1772535131057221600,4.6322216796875,0.0021066168904304503,-0.008313526972848921,-0.012189272427652031
1772535131067238700,4.64223876953125,-0.0010346037447452544,-0.011214490845054388,0.009814478720864281
1772535131077254700,4.652254638671875,-0.012258008548617362,0.004486990954633802,-0.0005771970997564494
1772535131087270400,4.6622705078125,0.004649287110567093,-0.0003664038932882249,-0.003732437127130106
1772535131097286400,4.672286376953125,0.002853635865449905,0.0037926702812314033,-0.003610326851112768
1772535131107302700,4.682302734375,0.009286883783340454,0.0030967969715595244,0.004455536370445042
1772535131117319700,4.692319580078125,0.00315232655107975,-0.004816770898271352,0.003762594803376123
1772535131127335400,4.70233544921875,-0.0002887538135051727,-0.006607124913763254,0.003194183798274025
1772535131137351400,4.712351318359375,-0.012258593070507048,-0.0006673413349315523,-0.004865450611896813
1772535131147367400,4.722367431640625,0.010484569135308265,0.001773768206872046,-0.003706672498211264
1772535131157383700,4.7323837890625,0.012281389424204826,0.009242606250196695,-0.001406021739868447
1772535131167401000,4.74240087890625,0.009288637349009513,-0.00869021479813382,-0.005876025027083232
1772535131177416700,4.752416748046875,0.0065951604813337325,-0.008532759214099496,0.010450045811198651
1772535131187432700,4.7624326171875,0.007491817060112952,-0.004045110672339797,-0.005789634518418461
1772535131197448700,4.77244873046875,0.005246668481826782,0.016767814123257993,-0.003270253842324018
1772535131207466000,4.782466064453125,-0.005377601385116577,-0.004176189706102013,0.010788054727064445
1772535131217481700,4.792481689453125,0.00045651159584522244,-0.006867328486219048,0.003958619698975235
1772535131227497700,4.802497802734375,-0.0059796589314937585,0.011909249909874051,0.0046565479684155435
1772535131237513700,4.812513671875,0.017063363003730774,0.005992847206629812,0.010038852928113191
1772535131247529700,4.82252978515625,0.0001543137788772583,0.004240870706457645,-0.008316906240023672
1772535131257547000,4.832547119140625,-0.0032879356294870377,0.006529420035053044,-0.0034951943051535635
1772535131267562800,4.842562744140625,0.009283376652002334,0.008107263811025767,-0.010922850954718887
1772535131277578800,4.852578857421875,-0.0017886369824409484,0.006991594186704605,0.0011947353430557996
1772535131287594800,4.8625947265625,-0.0011906710892915725,-0.0003370499346405268,0.009382160851359367
1772535131297610800,4.87261083984375,-0.0037333413094282147,-0.0003394428211264312,0.01481556581063196
1772535131307628000,4.8826279296875,0.01452069278359413,-0.00012413783632218836,-0.0027267215501517055
1772535131317643800,4.892643798828125,-0.008375029635429382,-0.002718739173095673,0.0007685001544654368
1772535131327659800,4.90265966796875,-0.0001461304724216461,-0.005342475272808223,0.0034723888183012604
1772535131337675800,4.91267578125,0.012123568513989448,0.0024910496307536958,-0.01132156794872135
1772535131347691800,4.92269189453125,0.011375965017080306,-0.004671133616194129,-0.01366302564148791
1772535131357709000,4.932708984375,0.002097264540195465,-0.0011529146284796298,0.0022283435739576815
1772535131367724800,4.942724853515625,0.00015080664753913878,-0.0028962876970879733,-0.007345312128355726
1772535131377740800,4.95274072265625,-0.004487959069013595,-0.0018624876699410379,-0.008104021541168913
1772535131387756800,4.9627568359375,0.0040402153015136714,0.014033402456995098,-0.0066885104537475855
1772535131397772800,4.972772705078125,0.003440495842695236,0.004381777014490217,-0.005295256863906979
1772535131407789800,4.982789794921875,0.007180266892910003,-0.0009825995628722011,-0.0066932322946377095
1772535131417805800,4.992805908203125,-0.0017968202888965605,-0.004124477785173803,-0.0018472627013456076
1772535131427821800,5.00282177734375,-0.0016477672070264815,-0.008582443574722856,-0.010231416358146816
1772535131437837800,5.012837890625,0.005981412497162819,-0.011946019989997147,-0.009821511249849571
1772535131447853800,5.022853759765625,0.0016419219881296156,-0.006351871511060744,-0.007201136151002719
1772535131457870800,5.032870849609375,0.008825111490488051,0.0018792196090333163,-0.004184656140347943
1772535131467886800,5.042886962890625,-0.004490881678462028,0.01440187044320628,0.00021732341195456682
1772535131477902800,5.05290283203125,-0.01930558897256851,-0.0018702508512884377,-0.012028547174297272
1772535131487918800,5.0629189453125,-0.0029950901627540587,0.008201700628828256,-0.009864519274514169
1772535131497934800,5.072934814453125,-0.006287117445468902,-0.004524747415445745,-0.0076684157360345125
1772535131507951600,5.08295166015625,-0.0038940848290920254,0.008508501555677502,0.00112030926682055
1772535131517967600,5.092967529296875,-0.011077858853340148,0.0036374797195196148,-0.0036640480660367755
1772535131527983900,5.10298388671875,-0.005241992306709289,-0.003972849153727293,0.0031018932717852294
1772535131538000000,5.112999755859375,-0.000002922609448432922,-0.011961034896038471,0.017807742497092112
1772535131548015900,5.123015869140625,0.00523497804403305,0.006566939033847302,0.001966486900532618
1772535131558032600,5.13303271484375,0.0025409166544675824,0.005850022936146706,-0.005401137524330988
1772535131568048600,5.143048583984375,-0.0013508300870656966,-0.008413681145384906,0.0030442082677967844
1772535131578065000,5.15306494140625,0.005982581540942192,0.005961958878021687,-0.008544860643846913
1772535131588081000,5.163080810546875,0.0007458499312400817,-0.0006497691456228494,-0.004169632101152092
1772535131598098000,5.173097900390625,0.0026917233020067213,-0.0010510982218198477,-0.0006553677693475038
1772535131608113700,5.18311376953125,0.0034369887113571166,0.0058450727663934225,0.0010059439058415591
1772535131618129700,5.193129638671875,0.009122633132338524,-0.002741973918210715,-0.016125470232265068
1772535131628145700,5.203145751953125,0.002389525485038757,0.0035484497291967273,0.006960167001979425
1772535131638162000,5.213161865234375,-0.004493804287910461,-0.0005088080386631191,0.01040933020832017
1772535131648178700,5.2231787109375,0.0001432078629732132,0.010836085986718536,0.005950898627890273
1772535131658194700,5.233194580078125,0.004632335975766182,0.003093143709748983,-0.005829601202625781
1772535131668210700,5.243210693359375,-0.0012035305708646773,0.0030857641208916903,-0.0164806129460223
1772535131678226700,5.253226806640625,0.008372691547870636,-0.006495262037124485,-0.0046973001039121295
1772535131688243000,5.263242919921875,0.0026888006925582884,0.00047110637677833433,-0.00521567055536434
1772535131698259700,5.273259765625,-0.003596563187241554,-0.011172551399469375,0.008106067367782816
1772535131708275700,5.283275634765625,0.011965163081884384,-0.006193484345264733,0.000051666255155578255
1772535131718291700,5.293291748046875,0.013010872742533684,-0.006855290988553315,-0.004312319374317303
1772535131728307700,5.3033076171875,-0.004196282646059989,0.005385675093717872,0.005886993945669382
1772535131745835800,5.320835693359375,-0.004197451689839363,0.005387538257241249,0.00581525301686488
1772535131755852800,5.330852783203125,-0.0016524433821439742,-0.005863667869009077,-0.005060452594188973
1772535131765868800,5.340868896484375,0.002088496711850166,-0.00005801379755139351,-0.012707487615477292
1772535131775884800,5.350884765625,0.006428571742773056,-0.006941325304191559,0.0015407540354412047
1772535131785900800,5.36090087890625,0.006280103182792663,0.006046550155244767,-0.004695573937706649
1772535131795917800,5.370917724609375,-0.0053916299104690545,-0.000998564316984266,-0.0032356757192872464
1772535131805933800,5.380933837890625,0.0011935936987400055,-0.0041869850947521626,-0.013663281369814649
1772535131815949800,5.39094970703125,-0.0035918870121240615,0.015100611563399433,-0.009772804136760533
1772535131825965800,5.4009658203125,0.005387538257241249,0.0005592778505757451,0.005201979956729337
1772535131835981800,5.41098193359375,0.007779401829838752,-0.007276457276381551,-0.005750407619727775
1772535131845998800,5.420998779296875,0.0083785367667675,-0.004714662230666727,-0.001926575015252456
1772535131856014800,5.431014892578125,0.00329085823893547,-0.005769030121807009,0.0034537023841403423
1772535131866030600,5.441030517578125,0.007930208477377892,-0.004983944158721715,0.0032389910543803124
1772535131876046800,5.451046875,0.0010457096606492995,-0.008462762717809528,-0.002266428828332573
1772535131886062800,5.461062744140625,-0.006737783822417259,0.007040200835093855,0.002180759838875383
1772535131896080000,5.471079833984375,-0.009732873985171317,-0.008145129869692028,0.002437712008319795
1772535131906095600,5.481095703125,-0.001654196947813034,0.003332030499540269,0.0003329034824855625
1772535131916111600,5.491111572265625,-0.0012058686584234238,-0.0049040107903070744,0.009563810161733998
1772535131926127900,5.5011279296875,0.00253448691368103,0.009651314915250985,-0.0019610070078168065
1772535131936144000,5.511143798828125,0.008069909209012984,0.008829659801442175,-0.003443034859653562
1772535131946161000,5.521160888671875,0.003131283763051033,0.004761113454587757,0.014003610106930136
1772535131956176600,5.5311767578125,-0.007494155147671699,0.008380728723853826,-0.0014755524452775715
1772535131966192600,5.541192626953125,0.003279167801141739,-0.002677219852618873,0.015113827237999066
1772535131976209000,5.551208984375,-0.008840309059619904,-0.0022393764246255157,0.0014164152697194368
1772535131986225000,5.561224853515625,0.0016349077254533767,-0.0010198445670306683,0.0017619133722968398
1772535131996242000,5.571241943359375,-0.010934650990366935,-0.0010547149510122835,-0.00832222173595801
1772535132006257700,5.581257568359375,-0.008539280286431312,0.007893493196181952,0.0002545684161130339
1772535132016273700,5.591273681640625,0.00447860671877861,0.003739825849141925,0.0032420506611466407
1772535132026289700,5.60128955078125,-0.0033037177205085754,-0.003131722154468298,-0.0059392538558691735
1772535132036306000,5.611305908203125,0.004477437674999237,-0.005089468626119196,-0.000874490412743762
1772535132046323000,5.621322998046875,0.009413725033402442,-0.017156521179899572,0.002817258510971442
1772535132056338700,5.631338623046875,0.0019300912797451017,0.005953081451822072,-0.000053666415996849534
1772535132066354700,5.641354736328125,0.007315875971317291,0.008260646008141338,0.009048152257176116
1772535132076370700,5.65137060546875,0.007315291449427604,0.006950348860863596,0.009355638170614838
1772535132086388000,5.661387939453125,-0.005703180077672005,-0.008329071601852775,0.01414989584297873
1772535132096403700,5.67140380859375,0.0047702831417322155,-0.007239194005914032,-0.007748750963248312
1772535132106419700,5.681419677734375,0.006265490135550498,-0.0008715038712136447,-0.003818033051351085
1772535132116435700,5.691435791015625,0.0010264204382896423,-0.002437876405101269,-0.003114999348530546
1772535132126451700,5.70145166015625,0.0007259761869907379,0.00804557848535478,0.015992290572961792
1772535132136469000,5.711468994140625,0.004018003469705582,0.008618099409993737,0.012220169889414682
1772535132146484700,5.721484619140625,0.012695815443992614,-0.010022906440310179,0.0030708862121682614
1772535132156500700,5.731500732421875,-0.0036152678877115246,0.008841039711982012,-0.002932774649420753
1772535132166516700,5.741516845703125,0.0032680618852376935,-0.003895436535961926,-0.0054963871928863225
1772535132176532700,5.75153271484375,0.00820610280930996,-0.002867134667839855,-0.00031044505550526083
1772535132186549800,5.7615498046875,0.011944120293855666,0.0026573278420604766,-0.00018100998955778778
1772535132196565500,5.7715654296875,-0.0028711715221405028,0.0006138210494071245,-0.005298727462626994
1772535132206581500,5.78158154296875,-0.000630114597082138,0.005635759130958468,-0.0015253464037552475
1772535132216597800,5.79159765625,0.003109656453132629,-0.0018079992700368165,-0.00036676921946927904
1772535132226613800,5.80161376953125,-0.010057283633947372,-0.0018129859724082052,0.0020841310639865694
1772535132236630800,5.811630859375,0.002063362270593643,0.0038481267955154178,0.0071666950252838426
1772535132246646500,5.821646484375,0.008348726150393485,0.0037253771986812353,-0.006102326329937204
1772535132256662500,5.83166259765625,-0.000630114597082138,0.00001216536182910204,-0.0004045530797448009
1772535132266678500,5.841678466796875,-0.0031739538609981536,0.0007865290015004575,-0.0009835494109429418
1772535132276694800,5.85169482421875,0.0016138649374246596,0.019499211848527192,0.0008018453016411512
1772535132286711800,5.8617119140625,-0.0021294132441282273,-0.002239979212824255,-0.005815782739827409
1772535132296727600,5.8717275390625,-0.0025800796210765837,0.008205883613601327,-0.0034021731263026594
1772535132306743600,5.88174365234375,0.004452303233742714,0.0038564744987525045,-0.0026847729714121666
1772535132316759600,5.891759521484375,-0.010209259325265884,-0.00030723931826651097,-0.007115686357254162
1772535132326775800,5.90177587890625,0.005503273591399192,0.005657788299676031,-0.0026253983338363467
1772535132336792800,5.911792724609375,0.008495441144704819,-0.0021304361574351785,-0.0025332174052018672
1772535132346808600,5.92180859375,0.0005652326673269272,0.0003250672359019518,0.008775965985981748
1772535132356824600,5.931824462890625,-0.005417348873615265,0.0007949863025918602,-0.002861883103987202
1772535132366840600,5.941840576171875,0.01269113926887512,-0.007486063172761351,-0.007713661383558064
1772535132376856800,5.95185693359375,-0.009006897798180579,-0.006549220714066177,0.003086257311236113
1772535132386873600,5.96187353515625,-0.00421849447786808,-0.00041504707429558036,-0.011872963886940851
1772535132396889600,5.9718896484375,-0.001675239735841751,-0.000857329215388745,0.0007979271783493458
1772535132406905600,5.981905517578125,0.002664250773191452,0.002713295812997967,-0.002507927700318396
1772535132416921600,5.991921630859375,0.015235563054680823,-0.001545859468821436,0.0019920232005883006
1772535132426937600,6.0019375,0.0017675941944122313,-0.004421232242044061,-0.005392625424312427
1772535132436954600,6.01195458984375,0.011345569878816604,0.0019088840949349104,0.004432365557411685
1772535132446970600,6.021970703125,0.009701309803128243,0.005997852175310254,-0.013076622321968897
1772535132456986600,6.031986572265625,-0.0024187515795230864,-0.0007780717004090547,-0.003379285441059619
1772535132467002600,6.042002685546875,0.005664017111063003,0.004970938546676188,-0.006171747437492012
1772535132477018600,6.0520185546875,-0.0019669161587953566,0.00707439536564052,-0.005240868928702548
1772535132487035600,6.06203564453125,0.003568506136536598,0.0005350019258446991,-0.005401091858558357
1772535132497051600,6.0720517578125,-0.009750994163751601,-0.002887976526468992,0.0045372507039923215
1772535132507067600,6.082067626953125,-0.007357377025485039,0.0033713030640035867,-0.006341076122410595
1772535132517083600,6.092083740234375,-0.009601356559991836,0.005367792377155274,0.004954727197391912
1772535132527101000,6.102100830078125,-0.006160276195406913,-0.005665989872440696,0.0015344612919725477
1772535132537116700,6.11211669921875,0.0010217442631721496,0.004117244326788932,-0.008328450547344983
1772535132547132700,6.122132568359375,0.011195932275056839,0.006439531528204679,0.008306832370581104
1772535132557148700,6.132148681640625,-0.0027209493964910503,-0.005500533645041287,-0.006667878657672554
1772535132567164700,6.14216455078125,0.010296937608718871,0.009320000601653009,-0.005201852092565969
1772535132577181700,6.152181640625,0.0026654198169708252,0.01529615240180865,0.0031880554515868425
1772535132587197700,6.16219775390625,-0.007510521760582923,0.0015676694418303668,-0.0011508596687112003
1772535132597213700,6.172213623046875,0.006706219640374184,-0.0037869529264979063,0.004329370973818004
1772535132607229700,6.182229736328125,-0.0006254384219646454,0.00976116849789396,-0.01427941310731694
1772535132617245700,6.19224560546875,-0.010201076018810271,0.006238108938280492,0.0008170337376184761
1772535132627262700,6.2022626953125,-0.008853168541193009,0.005926503972150385,0.004301323056267574
1772535132637278700,6.21227880859375,0.008204349243640899,-0.015589253596868365,-0.0017139825773425398
1772535132647294700,6.222294677734375,0.011046879193186759,0.010878829149901867,0.001828822862356901
1772535132657310700,6.232310791015625,0.01613631128668785,0.012607844899594782,-0.008493696712190284
1772535132667326700,6.24232666015625,0.0004243628919124603,-0.005794438557699322,0.0008224588314071298
1772535132677343500,6.252343505859375,0.008355155891180037,-0.00882564121345058,0.010939190168166532
1772535132687359500,6.262359375,0.007456161224842071,0.0033739334125071764,-0.005079230359895154
1772535132697375700,6.272375732421875,-0.008255787169933318,-0.004434767577052116,-0.009148333829175681
1772535132707391700,6.282391845703125,0.0005728314518928528,-0.010299969816021621,0.00057126054931432
1772535132717407700,6.29240771484375,-0.011249708288908004,0.00996282854983583,-0.0076876227600034324
1772535132727424500,6.302424560546875,-0.006610358050465583,-0.002480875296611339,-0.001381015162775293
1772535132737440500,6.3124404296875,-0.0010714286237955093,-0.0021065438251942395,-0.006262193066766485
1772535132747456800,6.322456787109375,-0.00017243395745754242,-0.006969071827642619,0.005399402224970981
1772535132757472800,6.33247265625,0.006112345400452614,-0.004165631779469549,-0.003481795967463404
1772535132767488800,6.34248876953125,0.01134790796637535,-0.0008138006009161472,-0.008179872389510274
1772535132777505500,6.352505615234375,0.004314940589666367,0.008032390210218726,-0.00709525549057871
1772535132787521500,6.362521484375,0.00042319384813308713,0.006289071940537541,-0.006789523142809048
1772535132797537800,6.372537841796875,-0.004964344409108161,0.003762932730093598,-0.0018931750691495834
1772535132807553800,6.3825537109375,-0.0012234043151140212,0.002163991367164999,-0.01560626866375096
1772535132817569800,6.39256982421875,-0.007058686339855193,0.0035019437063485382,-0.006717818746622651
1772535132827586600,6.402586669921875,0.00610942279100418,0.0015696787358261645,0.003906898644892499
1772535132837602600,6.4126025390625,0.00012216507494449615,0.014167221437115221,-0.013973379365447907
1772535132847618600,6.42261865234375,-0.0022737901508808134,0.0074616411175578825,-0.016477215412538496
1772535132857634800,6.432634765625,0.0008685995280742645,-0.0018388327997177838,-0.0039527744800783695
1772535132867650800,6.44265087890625,0.0010164835661649703,-0.0036037418466992673,-0.001623007225105539
1772535132877667600,6.45266748046875,-0.0027262100934982297,0.011870908927172422,-0.0024127602301537987
1772535132887683600,6.46268359375,-0.0036252047598361965,-0.001964541538618505,0.0007582892877049744
1772535132897699600,6.472699462890625,0.0007154547929763794,0.019121720305643974,0.00426291814148426
1772535132907715800,6.4827158203125,-0.00916062705516815,-0.003476316074747592,-0.007732009891001508
1772535132917732600,6.492732666015625,-0.006914893954992294,-0.0015270086378790437,0.0038742019516881552
1772535132927748600,6.50274853515625,0.0005658171892166138,0.004814231881313026,-0.0026942897184286264
1772535132937764600,6.5127646484375,-0.005571078130602836,-0.0018821239521726965,0.004399796728370711
1772535132947780600,6.522780517578125,0.014181670087575912,0.0057269993446767324,-0.0023144235553685575
1772535132957796600,6.532796630859375,-0.0025777415335178373,0.009191752845793962,0.009096430112002417
1772535132967812900,6.542812744140625,-0.01005903719961643,0.005475399203784763,-0.010460101414332165
1772535132977829600,6.55282958984375,-0.0006324526846408844,0.002203464861027896,-0.009275887465290724
1772535132987845600,6.562845703125,-0.005121580797433853,0.0010165383650921284,-0.00042555933515541253
1772535132997861600,6.572861572265625,0.002210077264904976,-0.0013670871021226048,0.008363010404072701
1772535133007877600,6.582877685546875,0.004306757283210754,-0.004738956421706826,0.003922315409732982
1772535133017894700,6.592894775390625,-0.0000339022696018219,-0.0023966493455693126,0.014141876933304593
1772535133027910700,6.60291064453125,-0.0028758476972579957,0.00405742216464132,-0.0035717575395479797
1772535133037926700,6.6129267578125,0.01134089370369911,0.006837901462335139,-0.0028043898962438105
1772535133047942700,6.622942626953125,-0.006165536892414092,0.005756335037015378,-0.002608785125752911
1772535133057958700,6.632958740234375,0.0053571431189775465,0.00701241777902469,0.008102560236444697
1772535133067975700,6.6429755859375,0.0004161795854568481,0.004766173222195357,0.00046887788707390427
1772535133077991700,6.65299169921875,0.004605447968840598,-0.002412650632299483,-0.009888895663945003
1772535133088007700,6.663007568359375,-0.002279050847887993,0.004788366787694395,0.002307939015654847
1772535133098023700,6.673023681640625,0.013132453295588492,0.007919650550745427,-0.0033080468357540665
1772535133108039700,6.683039794921875,0.001312251642346382,-0.007445055308938026,-0.009221599994786084
1772535133118056700,6.693056640625,0.008494272100925446,0.0015774784497916698,-0.004407340714009478
1772535133128072700,6.70307275390625,0.01283317808806896,-0.003637589317373931,-0.007245623746700585
1772535133138088700,6.713088623046875,-0.01499824716746807,-0.007572956004925072,-0.001261160775925964
1772535133148104700,6.723104736328125,-0.004824643677473068,0.006227240484394133,-0.0019196520841214804
1772535133158120700,6.73312060546875,0.005050853648781776,0.002627498959377408,-0.0015293467254377901
1772535133168137500,6.743137451171875,0.0019043723165988922,0.0023261048600077628,0.002101273995032534
1772535133178153500,6.753153564453125,-0.00019055413603782652,0.004684851614292711,-0.0027023086281027643
1772535133188169700,6.763169677734375,-0.0025841712743043897,-0.00007533025853335857,-0.0005281063941773026
1772535133198185700,6.773185791015625,0.006993219888210296,0.0041340493311174216,-0.0019880046125967054
1772535133208201700,6.78320166015625,-0.007224690556526183,0.009950918916333467,-0.0076487794538028534
1772535133218218500,6.793218505859375,-0.0039344168394804,-0.010177384615968912,0.0016002382708713411
1772535133228234500,6.803234375,-0.0004915829092264175,-0.0008726729149930179,0.012313739057537168
1772535133238250500,6.81325048828125,0.007135258707404136,0.010116777002532034,-0.004028570529492572
1772535133248266800,6.823266845703125,0.00010112228691577911,0.005702906083036214,-0.0047757721676025535
1772535133258282800,6.83328271484375,0.0021942951738834378,-0.003696443365141749,0.005938724132906645
1772535133268299500,6.843299560546875,0.012220599147677421,-0.0004170198356732726,-0.00230269658495672
1772535133278315500,6.8533154296875,0.020003508108854293,0.007309665426239371,0.007483414557948708
1772535133288331500,6.86333154296875,0.0029430677145719526,-0.0023362426615320146,-0.01241798488330096
1772535133298347800,6.87334765625,0.007729132947325706,0.004035447794850915,-0.0025848288614302873
1772535133308363800,6.88336376953125,-0.006637246057391166,0.009366360494028777,0.005655322347953916
1772535133318380500,6.893380615234375,-0.0002034136176109314,0.007422752145584672,0.003534156342362985
1772535133328396500,6.903396484375,-0.0060392801642417905,0.009041457654908299,-0.00009756035665050148
1772535133338412500,6.91341259765625,0.0036859950363636014,0.005208236167579889,0.00661462323362939
1772535133348428500,6.923428466796875,0.007425181564688682,-0.0030086254977621137,0.0042642241825815285
1772535133358444800,6.93344482421875,-0.004695464339852333,-0.0017962540333159268,0.0008592654441483318
1772535133368461600,6.943461669921875,0.005630114841461181,0.002379588612914085,0.005057648715749383
1772535133378477600,6.9534775390625,-0.0060416182518005365,-0.003430759899970144,-0.0016455204510129988
1772535133388493600,6.96349365234375,0.00009293898046016692,-0.004614124465640634,-0.010016759827313945
1772535133398509600,6.973509521484375,0.002637362766265869,-0.003158464030921459,0.002091885112179443
1772535133408525800,6.98352587890625,0.00039221418797969816,0.000026632278598845005,-0.009581857275078072
1772535133418542600,6.99354248046875,0.003236497703194618,0.007426880331430584,-0.0013916096220258623
1772535133428558600,7.00355859375,-0.0006517419070005417,0.003252992180269211,-0.005869686617841944
1772535133438574600,7.01357470703125,0.0023404256463050842,0.0017860066339373587,0.005626817772677168
1772535133448590600,7.023590576171875,0.006530278551578521,0.0040312282774597405,-0.006162267223093658
1772535133458606600,7.033606689453125,-0.0043944355666637415,0.0027366036233492192,-0.0051355179912410676
1772535133468623600,7.04362353515625,0.005330255112051963,0.00013352671917527914,0.005176160528883337
1772535133478639600,7.0536396484375,0.000989011037349701,0.004655205394700169,0.008840710918419063
1772535133488655600,7.063655517578125,0.0015887304961681365,0.003686396895162761,-0.002265926504833624
1772535133498671600,7.073671630859375,-0.007688216415047645,0.004234861090779305,0.0010112868012394755
1772535133508687600,7.0836875,0.005182371073961258,-0.002127641412150115,-0.004040379698295146
1772535133518704600,7.09370458984375,-0.002299509114027023,-0.008572177909035235,-0.010365628063911572
1772535133528720600,7.103720703125,-0.0003559738308191299,-0.0008737871598452329,-0.005154761547828093
1772535133538736600,7.113736572265625,-0.009034954848885536,0.005851758235506713,-0.007090926375333219
1772535133548752600,7.123752685546875,0.006974515187740326,0.00444437565561384,0.0005149089858867227
1772535133558768400,7.133768310546875,0.004877835169434547,0.010681096354406327,-0.0035154151092749086
1772535133568785700,7.14378564453125,-0.002454991936683655,0.0030966691073961556,-0.00574949430427514
1772535133578801700,7.1538017578125,-0.002755436187982559,0.006585442804917693,0.002007841824227944
1772535133588817700,7.163817626953125,0.005323825371265411,-0.006262457928247749,-0.015079212582344188
1772535133598833700,7.173833740234375,0.002330488774180412,0.007132354364264756,-0.00694973693951033
1772535133608849400,7.183849365234375,-0.0073977090358734125,0.007254994363244623,-0.008106779753835872
1772535133618866700,7.19386669921875,-0.0011117606341838836,0.001983593298960477,0.0015038378248456864
1772535133628882700,7.203882568359375,0.008015548673272132,-0.007994195357989519,0.00437312791715376
1772535133638898700,7.213898681640625,0.0005336684852838516,-0.002166311188414693,0.003764951157243922
1772535133648914700,7.223914794921875,-0.007395955470204353,0.0003495075574144721,-0.0020532336022239177
1772535133658930400,7.233930419921875,0.0060702598243951795,0.0026492541334591805,-0.008034965759795159
1772535133668947700,7.24394775390625,0.009511924710869788,0.000407868414837867,-0.003398702527582645
1772535133678963700,7.253963623046875,0.006669394761323929,0.0059466882436536245,0.0008332268205936997
1772535133688979700,7.263979736328125,0.004724105912446976,0.0023830592116340994,-0.00616076025259681
1772535133698995700,7.27399560546875,-0.009493804532289504,-0.003336925870366394,-0.010071704884944483
1772535133709011500,7.284011474609375,-0.004407295048236846,0.009765205352194606,0.0010433624399360268
1772535133719028700,7.29402880859375,0.0030740006178617474,0.004424410579819232,-0.010735995746264234
1772535133729044700,7.304044677734375,0.01235270109474659,0.0007021934526041149,-0.008110149887856095
1772535133739060700,7.314060791015625,0.004423077139258384,0.009325115168187766,0.0014924031153786927
1772535133749076500,7.324076416015625,0.004722936868667602,0.006837517869845032,-0.0005102510770782828
1772535133759092500,7.334092529296875,0.006818447843194008,-0.003021521511953324,-0.0028176603697706013
1772535133769109500,7.344109619140625,-0.0015618424892425537,0.002560059746354818,-0.005817591104423627
1772535133779125800,7.354125732421875,-0.012336919003725052,-0.0035097434203140436,-0.0038359614336863157
1772535133789141800,7.364141845703125,-0.003957213193178177,0.00545620131297037,-0.004335106594860553
1772535133799157500,7.374157470703125,-0.006050386080145836,-0.0067120648592710495,-0.0014319507655687629
1772535133809173500,7.384173583984375,0.0014314941078424452,0.004661872597504407,-0.0029149284654762593
1772535133819190500,7.3941904296875,0.008912205252051353,0.003089307784847915,-0.005010138045903295
1772535133829206800,7.404206787109375,0.003973579806089401,0.0002491707217879593,-0.002799485392263159
1772535133839222800,7.414222900390625,0.005468786799907684,0.0036123087456449866,-0.014462103597307577
1772535133849238500,7.424238525390625,-0.0005173018723726272,-0.0020427213413640854,-0.016393162991432474
1772535133859254500,7.434254638671875,0.006215221253037452,-0.005865421434678137,-0.00471941147102043
1772535133869271600,7.444271484375,-0.00246434428691864,-0.003226926157251,0.0025567992101889103
1772535133879287800,7.454287841796875,0.004866144731640816,0.008101582988910377,-0.008502537605771795
1772535133889303800,7.4643037109375,0.0026209961533546445,0.01199963160706684,-0.007023742890637367
1772535133899319600,7.474319580078125,0.0066606269329786295,-0.004985971719026565,-0.007433008678117766
1772535133909335600,7.48433544921875,-0.005460018971562385,-0.009487301726266741,0.009895626798830926
1772535133919352600,7.4943525390625,0.0024707740277051925,0.004702661265619099,0.007769748085504397
1772535133929368600,7.50436865234375,0.013992284995317458,0.005825856609269976,-0.009530145354149862
1772535133939384600,7.514384521484375,0.00531213493347168,0.0024774594968184826,-0.0028904150787275283
1772535133949400600,7.524400634765625,-0.004265256229043007,0.018179690215177832,-0.009228787787398322
1772535133959416600,7.53441650390625,0.002168576210737228,-0.005422116380278021,0.0070843139714561396
1772535133969432600,7.5444326171875,-0.00426467170715332,0.00397505937712267,0.0006906034795101731
1772535133979449600,7.55444970703125,0.018031331253051758,0.011000811561755836,-0.00410119737428613
1772535133989465600,7.564465576171875,-0.01055062010884285,0.004628426985628903,-0.007851343688042835
1772535133999481600,7.574481689453125,-0.006510989329218864,0.0067496934559196226,0.0014309643848799168
1772535134009497600,7.58449755859375,0.002317629292607307,0.005234923245105892,0.004104759304551407
1772535134019514600,7.5945146484375,0.008901683858036994,0.0016478402722626925,0.0076874035642948
1772535134029530600,7.604530517578125,-0.0018728081345558165,-0.000021956103481352327,0.007008097796933725
1772535134039546400,7.61454638671875,0.004409633135795593,0.019814561408013104,-0.00963172429879196
1772535134049562600,7.624562744140625,-0.0023240590333938596,-0.004762501694075763,0.005861375447222963
1772535134059578600,7.63457861328125,0.00036941783428192136,-0.0028359175456687804,-0.0032885749503038823
1772535134069594600,7.6445947265625,0.008750292688608169,-0.0037645766979083417,0.004999662317661568
1772535134079611600,7.654611572265625,0.0012684125006198882,0.009408391271159052,-0.00008965104483067988
1772535134089627400,7.66462744140625,0.0038128362864255903,-0.005603318166080862,0.0031848405811935663
1772535134099643600,7.6746435546875,-0.0041167876690626146,-0.010764774316176772,0.0013564926428720355
1772535134109659600,7.68465966796875,-0.01309504389464855,0.0022355404997244474,0.0023932335457764564
1772535134119675600,7.694675537109375,0.001121112984418869,0.0024117555831559,0.009181907305214553
1772535134129692700,7.704692626953125,-0.0011246201157569884,-0.005194225908536463,0.00584698159568943
1772535134139708400,7.71470849609375,0.005160159242153167,0.0008055259629152715,0.0013800196489319205
1772535134149724700,7.724724609375,0.007703413984179497,0.005758691390883177,-0.01583778499783948
1772535134159740700,7.73474072265625,-0.0005249006569385528,-0.005522690677922219,-0.008632548060454428
1772535134169756200,7.744756103515625,0.009950316128134728,-0.0009100823159329593,0.017748486590525133
1772535134179773400,7.7547734375,-0.0047141690403223035,0.017944895078614354,0.0033735224205534904
1772535134189789200,7.7647890625,-0.0008230068206787109,0.004603219479136169,-0.004240587578667327
1772535134199805200,7.77480517578125,0.006958148574829101,0.01177322070635855,-0.012785585219832137
1772535134209821200,7.7848212890625,0.00755728351175785,0.01237323242612183,0.006234738804260269
1772535134219837200,7.794837158203125,0.012495324435830115,-0.00845474380813539,-0.0036760581642389296
1772535134229854500,7.8048544921875,-0.005010521638393402,0.015131974816042929,-0.01530523989056237
1772535134239870200,7.8148701171875,0.004717676171660423,-0.0007686462849378586,0.0034907281925901767
1772535134249886200,7.82488623046875,0.008906944555044174,0.00578240106003359,0.005662656271038576
1772535134259902200,7.834902099609375,0.00277238732278347,0.010212291532568633,-0.0018557017361279576
1772535134269918200,7.844918212890625,0.002923193970322609,0.0007778159720823168,-0.005828477824619039
1772535134279935200,7.854935302734375,-0.002613397368788719,0.00153710990678519,-0.004913600602559745
1772535134289951200,7.864951171875,0.002175590473413467,0.012142401078622788,0.004242441609036177
1772535134299967200,7.87496728515625,0.006515665504336357,0.005717409532424062,0.0032141945398412642
1772535134309983200,7.884983154296875,-0.0021639000356197357,0.00842544464841485,0.0018804708512034265
1772535134319999200,7.894999267578125,-0.007998013016581535,0.008378701163548975,0.010004393536085262
1772535134330016300,7.905016357421875,0.001281271982192993,0.008890322213806211,-0.004493539426429197
1772535134340032300,7.9150322265625,-0.003654430854320526,-0.0022840375502593815,0.0019528876334428786
1772535134350048300,7.92504833984375,0.006521510723233223,0.004237728901300579,-0.008238041450688615
1772535134360064300,7.935064208984375,0.006670563805103302,0.009005235564056784,0.0008274455337785184
1772535134370080300,7.945080322265625,0.014749825364351273,0.02173407649481669,0.003906076660985127
1772535134380097000,7.955096923828125,-0.0015595044016838073,0.0007369359724223614,0.00030529395635239777
1772535134390113000,7.965113037109375,0.0030804303586483,0.0012509681754745542,-0.005096090163150802
1772535134400129300,7.97512939453125,0.01505319222509861,0.0038760194494388994,0.0016548545349389313
1772535134410145300,7.985145263671875,-0.00035889644026756285,0.015353198084980249,0.009870565422810614
1772535134420161300,7.995161376953125,0.0026326865911483763,0.005270359884668141,-0.007750668925698846
1772535134430178000,8.005177978515626,-0.0009592004209756851,-0.015893899099249393,0.0045968810698948795
1772535134440194000,8.015194091796875,-0.0055979661375284194,0.010429624077677726,-0.0027565960986074057
1772535134450210300,8.025210205078125,0.001886252138018608,0.011699625747185199,0.004653835421521217
1772535134460226300,8.035226318359374,0.0014367548048496246,0.010112246957886964,-0.009671754915080964
1772535134470242300,8.0452421875,0.009516600885987282,0.003662303633522242,-0.0034413543592207133
1772535134480259000,8.055259033203125,-0.0037999768048524855,0.008986476064659655,-0.0010619392762426286
1772535134490275000,8.065275146484375,-0.0006575871258974075,0.0008983005465939641,0.005832459879992529
1772535134500291300,8.075291259765624,0.0027834932386875152,0.010770656067691743,-0.0061918860432226205
1772535134510307300,8.085307373046875,0.0012882862448692321,0.003716572837717831,0.000141883555566892
1772535134520323300,8.0953232421875,0.007722118684649467,0.008242142237070947,-0.005238622172689065
1772535134530340000,8.105340087890625,0.0011374795973300934,0.0068893393886275585,-0.003961980699840933
1772535134540356000,8.115356201171876,0.0054763855844736095,0.008138572264742105,-0.012738677338184788
1772535134550372000,8.1253720703125,0.004728782087564468,0.008970529576856642,-0.01517501937332563
1772535134560388400,8.135388427734375,0.004431260445713996,0.0054100971489213405,-0.00817960752802901
1772535134570404400,8.145404296875,-0.0008072247296571731,0.002554780783038586,-0.002441100408649072
1772535134580421000,8.155421142578126,0.005777998879551887,0.008349876927863806,-0.0016835874390788376
1772535134590437000,8.16543701171875,0.0015875614523887633,0.014192885601334273,0.018964830977190286
1772535134600453000,8.175453125,0.003533434823155403,0.0015651304248720406,0.00035207397383637726
1772535134610469400,8.185469482421874,-0.003350479471683502,0.004563745985273272,-0.0020627046834677458
1772535134620485400,8.1954853515625,0.006077858608961105,-0.0028442287162877616,-0.00016013159831054509
1772535134630502100,8.205502197265625,0.0035322657793760296,0.004546776584163308,-0.006457286380603909
1772535134640518100,8.21551806640625,-0.003201426389813423,0.007864047905988991,-0.00853359946431592
1772535134650534100,8.2255341796875,0.0011374795973300934,0.0006540434619411826,0.0026267135080881416
1772535134660550100,8.235550048828125,-0.005147884282469749,0.003831230459641665,0.0021693981946446
1772535134670566400,8.24556640625,0.00008884732723236084,0.0038708500839769837,-0.006218490922357886
1772535134680582400,8.25558251953125,0.004728782087564468,0.007117704784404486,-0.005900912873167545
1772535134690599200,8.26559912109375,0.009817045137286186,-0.003967551924102008,-0.006476721733435988
1772535134700615200,8.275615234375,-0.004399696263670921,0.0010405585614964366,0.004759990076581016
1772535134710631200,8.285631103515625,-0.008887655332684517,0.0005334310232661665,-0.005230110072670504
1772535134720647400,8.2956474609375,-0.0024538228929042814,0.002370583322551101,-0.001479260506015271
1772535134730663400,8.305663330078126,-0.003351648515462875,0.017021898482181132,0.0056654053505510085
1772535134740680200,8.31568017578125,-0.012779402074217796,0.007005257385876029,-0.005282114254543557
1772535134750696200,8.3256962890625,-0.004099252012372017,0.0024148425893858075,-0.010407695373659953
1772535134760712200,8.335712158203124,0.008171031495928764,0.0020830533517524597,-0.0031240503046661614
1772535134770728200,8.345728271484376,0.005627776753902435,-0.00348122971188277,0.011255918833985924
1772535134780744200,8.355744140625,-0.00709025052189827,-0.0014218312303535638,-0.011746570161450653
1772535134790761200,8.36576123046875,0.004130816194415092,0.006275006882566958,0.003154892967501655
1772535134800777200,8.375777099609374,-0.006194178465008735,0.007166895954683423,-0.00807801031707786
1772535134810793200,8.385793212890626,-0.013676643174886703,0.0028415618351660668,0.0025300938663538543
1772535134820809200,8.395809326171875,-0.013078677281737327,0.008274601468257606,0.0022317045748233796
1772535134830825200,8.4058251953125,0.0033832126975059506,0.0023612127060070633,-0.005193787517119199
1772535134840842200,8.41584228515625,0.005777414357662201,0.0069611259832046924,0.0020680293125566094
1772535134850858200,8.425858154296876,0.008617606219649314,0.005751384867262095,-0.0024375658778473734
1772535134860874200,8.435874267578125,-0.013979425513744353,0.011831252770218997,-0.00766296324278228
1772535134870890200,8.44589013671875,0.012656067955493927,0.007174987929593772,-0.00846616025129333
1772535134880906200,8.45590625,-0.004553425520658493,0.008556322752777486,0.006189045632164925
1772535134890923300,8.46592333984375,-0.0020078326910734174,-0.004773150952253491,0.007759528085589409
1772535134900939300,8.475939208984375,-0.0003635726153850555,0.009176116885244846,-0.0018870467224624007
1772535134910955300,8.485955322265625,0.006819032365083694,0.010471928849443793,0.007476692556217313
1772535134920971300,8.49597119140625,-0.009790157130360603,-0.0037534707820042965,-0.00013307006144896148
1772535134930987000,8.505987060546875,-0.001710311049222946,0.00701910324813798,-0.01287677976777777
1772535134941004300,8.51600439453125,0.0015793781459331512,0.0036499738749116656,-0.0030800102335400877
1772535134951020300,8.526020263671874,-0.007847206369042396,0.009152151487767695,-0.0003923055195249617
1772535134961036300,8.536036376953126,-0.002909749966859817,-0.002955598402582109,0.008853451668983325
1772535134971052300,8.54605224609375,-0.006351414853334426,-0.0018145020760595798,0.000268962267646566
1772535134981068000,8.556068115234375,-0.004855623337626457,0.003890632496681064,-0.008131229208502918
1772535134991085300,8.566085205078124,-0.004558101695775986,-0.0002237440195865929,-0.006808638835232705
1772535135001101300,8.576101318359376,-0.005306289714574814,0.00737332351328805,0.008553171814465894
1772535135011117300,8.586117431640625,-0.007400047123432159,0.004024323612637818,0.009755624673096463
1772535135021133300,8.59613330078125,0.005617255359888077,0.00196565578347072,-0.009114586823200807
1772535135031149000,8.606149169921874,-0.001266074413061142,0.007805869711656123,0.008973068593814968
1772535135041165000,8.6161650390625,-0.0000678045392036438,-0.005892674767784774,-0.004966883426066488
1772535135051182300,8.626182373046875,0.002326397120952606,0.0013082695869728923,0.007027889342792332
1772535135061198300,8.6361982421875,0.0008306056052446365,0.01202577069532126,-0.007506192645337432
1772535135071214000,8.646214111328124,0.009658055183291435,0.0026497290574945508,-0.003647937181452289
1772535135081230000,8.65622998046875,0.007113046875596046,0.003542805439699441,-0.0035617841348052023
1772535135091246000,8.66624609375,0.0044195700079202645,0.009713529963884502,-0.00412418552422896
1772535135101263400,8.676263427734375,-0.00021919570863246916,-0.006632168023474514,-0.010459854819159954
1772535135111279400,8.686279296875,0.005917699611186981,0.0019455445772036909,-0.005402069106092676
1772535135121295000,8.696295166015625,0.003076338705420494,0.0015641440441831946,0.008833678389433771
1772535135131311000,8.70631103515625,0.0017313538372516631,0.006769950792659074,-0.006775786878401413
1772535135141327000,8.7163271484375,0.00652034167945385,0.0031580073731951415,0.008669345540041104
1772535135151344400,8.726344482421876,0.004425999748706817,0.002099127703718841,0.004057540895650163
1772535135161360400,8.7363603515625,-0.0091933602809906,-0.0009539031913504003,-0.00064160410547629
1772535135171376000,8.746376220703125,-0.00934241336286068,0.002780205303058028,0.005951063024671748
1772535135181392100,8.75639208984375,-0.0036567689418792724,-0.009604498365148902,0.00030186902340501547
1772535135191408400,8.766408447265626,0.006966331881284714,-0.00806684046909213,-0.007391662887576967
1772535135201425400,8.77642529296875,-0.004554594564437866,-0.006800729523412883,-0.002021852083271369
1772535135211441200,8.786441162109375,0.004722936868667602,0.0018145751412957905,0.010489199644653125
1772535135221457200,8.79645703125,0.019986556974053382,0.010444693782646208,-0.0022851152624934912
1772535135231473200,8.80647314453125,-0.003951952496170997,0.0005638626941479742,-0.005216346408799291
1772535135241489400,8.816489501953125,-0.012331073784828185,-0.007229001405462622,0.010077266976051031
1772535135251506400,8.82650634765625,0.0009855039060115813,0.005387629588786512,-0.007017112220451235
1772535135261522200,8.836522216796874,-0.01158580837547779,0.001090882242936641,-0.0027231504867319014
1772535135271538200,8.8465380859375,-0.014578560450673102,0.005546363814454525,-0.010997231365181505
1772535135281554200,8.85655419921875,0.006820201408863067,0.0010383666044101118,-0.0038156310317106544
1772535135291570400,8.8665703125,-0.012335165438055991,0.010352028796821832,-0.013302384768705815
1772535135301587500,8.87658740234375,0.010708441019058226,-0.008505268418975174,-0.010212611192977056
1772535135311603200,8.886603271484375,0.002029460000991821,-0.0014379421149380504,-0.005544582849321886
1772535135321619200,8.896619140625,0.0018774843096733091,0.00015192089239135384,-0.000321733634499833
1772535135331635200,8.90663525390625,0.005621347013115882,-0.006568235941790044,0.0038670415585394945
1772535135341651200,8.916651123046876,0.005620177969336509,0.0026095979765057564,-0.0019588059175759554
1772535135351667500,8.92666748046875,-0.006499298891425132,0.0004969349377788603,-0.015513457547454163
1772535135361684200,8.936684326171875,0.00981295348405838,0.004659771971963346,-0.011690364728495477
1772535135371700200,8.9467001953125,0.01340484049618244,-0.006821041659079491,-0.005909004848077893
1772535135381716200,8.95671630859375,0.005473462975025177,0.0017402129971422254,-0.015640819387324152
1772535135391732200,8.966732177734375,0.009213234025239945,-0.014949293459206819,-0.00006262604058720171
1772535135401748500,8.97674853515625,0.0057709846168756485,0.01064332162728533,0.009329243354033678
1772535135411765200,8.98676513671875,0.0011316343784332275,0.009270498904120177,-0.0036298809349536894
1772535135421781200,8.99678125,0.008164017233252524,0.0021043701344169675,-0.006327431189548224
1772535135431797200,9.00679736328125,0.0018821604847908018,-0.0032586730023846026,0.0029642292336095125
1772535135441813200,9.016813232421875,-0.0026063831061124802,-0.008790295905433594,-0.00564013391197659
1772535135451829200,9.026829345703124,-0.0012584756284952164,0.0032916071576066315,-0.0017183756246697158
1772535135461846300,9.03684619140625,0.0012877017229795456,-0.0005109086642041802,-0.005996673998376354
1772535135471862300,9.0468623046875,-0.0029021511822938917,0.005462357059121132,-0.000448346555698663
1772535135481878300,9.056878173828125,0.00113806411921978,0.012046046298369764,-0.004515723858773708
1772535135491894300,9.066894287109376,-0.0029009821385145187,0.009012140228878706,-0.01286125340508297
1772535135501910300,9.07691015625,-0.012179098093509673,0.010647047954332084,0.0016276286012958734
1772535135511927300,9.08692724609375,-0.006343816068768501,-0.00033259295523166654,-0.001503463365510106
1772535135521943300,9.096943359375,-0.0015554127484560011,-0.007811258272826671,0.00046274954038672147
1772535135531959300,9.106959228515626,0.00009060089290142059,0.009712671447359026,0.004079168205568567
1772535135541975300,9.116975341796875,0.0002402384966611862,0.008681520035024731,-0.005645348943211138
1772535135551991300,9.1269912109375,0.0029348844081163407,-0.007700126048550009,-0.01777133774315007
1772535135562008300,9.13700830078125,0.0036830724269151685,-0.0007224142567254602,-0.005109123174659907
1772535135572024300,9.1470244140625,0.0015898995399475098,0.004144132333714514,-0.007654569873772561
1772535135582040300,9.157040283203125,0.013410685715079307,-0.0020193404657766222,-0.0044258901508525015
1772535135592056300,9.167056396484375,0.010267126992344855,0.007733188067935407,-0.005502058881847188
1772535135602072300,9.177072265625,-0.0027507600128650663,-0.0015593765375204384,-0.011027224644646049
1772535135612088300,9.18708837890625,-0.0006552490383386611,0.0043575741549953815,-0.0022530030911788344
1772535135622105300,9.197105224609375,-0.0009556932896375655,-0.00232055190205574,0.005228986694663763
1772535135632121300,9.207121337890625,-0.010830606094002724,-0.007895758218504488,0.00014898001663386822
1772535135642137300,9.217137451171874,-0.0011035773277282715,0.0017241386451758442,0.009956946798320859
1772535135652153300,9.2271533203125,-0.0020025719940662385,0.007840941025037318,-0.002735772506287321
1772535135662169300,9.23716943359375,-0.005446574968099594,0.00045136049669235943,0.0036388131600804626
1772535135672186400,9.247186279296875,0.0015858078867197036,0.00032883009556680914,0.0009543324496131389
1772535135682202400,9.257202392578124,0.003082768446207046,0.010499876302294433,0.004574486574996262
1772535135692218400,9.26721826171875,-0.003947860842943191,-0.002185929204337299,-0.0012232673177961259
1772535135702234400,9.277234375,-0.01082943705022335,-0.0019748802695423364,0.001335175860207528
1772535135712250000,9.28725,0.0021907880425453183,0.0054136408128775656,-0.005562346834875643
1772535135722267400,9.297267333984376,0.010123334607481957,0.008760850615240633,-0.009438411950087175
1772535135732283400,9.307283447265625,0.0024941549032926557,-0.00017190423449501394,-0.0017795129610691219
1772535135742299400,9.31729931640625,0.0024959084689617156,-0.00016916428813710808,-0.0016608915500808507
1772535135752315400,9.3273154296875,-0.003039513826370239,0.002362089488841593,0.005135782852722331
1772535135762331100,9.3373310546875,-0.003038344782590866,0.002342708934936672,0.005193285193620249
1772535135772347100,9.34734716796875,-0.006630231794714927,-0.0005026522925123572,0.0017164028632920235
1772535135782364400,9.357364501953125,-0.0007943652480840683,0.0018785072229802607,0.004845038011530414
1772535135792380400,9.36738037109375,0.0027986908078193665,-0.006167783648427575,-0.006094015159318223
1772535135802396400,9.377396484375,0.00324818814098835,0.010799900428485125,-0.005455936451489105
1772535135812412200,9.387412109375,-0.00019464578926563263,-0.008038436358515172,-0.0013336506234016268
1772535135822428200,9.39742822265625,0.0008528174370527267,-0.0005433861616998911,-0.0006920830505434423
1772535135832445400,9.407445556640624,0.013423545196652412,0.00838535010004416,-0.0005149729179684073
1772535135842461400,9.41746142578125,0.0045949265748262405,0.004643277494888753,-0.006066405633185059
1772535135852477400,9.4274775390625,0.005642974323034286,0.01357488156715408,0.0009556384907104074
1772535135862493200,9.4374931640625,0.012077975806593894,0.004715502480883151,0.004700295778596773
1772535135872509200,9.44750927734375,0.001903203272819519,-0.0042763986775651575,0.010531248688092455
1772535135882526500,9.4575263671875,-0.005428454789519309,0.006745875797327608,-0.0026398926500696687
1772535135892542500,9.46754248046875,-0.0016869301736354826,0.002250098748039454,-0.0020190390716772525
1772535135902558200,9.47755810546875,0.0017547347128391265,-0.0003023074148222804,0.004112686882680282
1772535135912574200,9.48757421875,0.005793780970573425,0.01066896752519533,-0.002932728983648121
1772535135922590200,9.497590087890625,0.008189736196398735,-0.02132410745443776,-0.0004276142949238419
1772535135932606200,9.507606201171875,-0.00976677625477314,-0.005919507975783199,0.003769791729142889
1772535135942623500,9.51762353515625,-0.006175473764538765,0.008008096019178628,-0.005975503346184268
1772535135952639200,9.52763916015625,0.0036988545179367062,0.002472911185864359,-0.010256267671613022
1772535135962655200,9.5376552734375,0.01268120239675045,0.006238108938280492,-0.00013525288538075982
1772535135972671200,9.547671142578125,0.004600771793723106,0.009382416579686104,-0.0004188190671149641
1772535135982687200,9.557687255859374,-0.011110592079162597,0.00010305851567536592,0.002004225095035508
1772535135992704500,9.56770458984375,-0.008717559462785721,-0.0022604009463451803,-0.009847266745613887
1772535136002720300,9.57772021484375,0.0022059856116771696,0.0036103725168853996,-0.010101497235009447
1772535136012736300,9.587736328125,0.009539981761574745,0.008049907600600271,-0.006618824484711513
1772535136022752300,9.597752197265624,0.006997896063327789,0.00750712422709912,-0.00944107883120887
1772535136032768300,9.607768310546875,0.0016109423279762267,0.008690251330751925,0.00041466348180547357
1772535136042785300,9.617785400390625,0.006252046132087707,0.003938782487343997,-0.016903240538574754
1772535136052801300,9.62780126953125,-0.004672083464264869,0.007106069145537912,0.013136161356326191
1772535136062817300,9.6378173828125,0.005652326673269271,-0.007681403081770986,0.006131150565622374
1772535136072833300,9.647833251953125,0.0007125321835279464,-0.009732673055771737,-0.0024723814629018306
1772535136082849300,9.657849365234375,0.015080080232024192,0.0033822811157442627,-0.0010364760414231567
1772535136092866300,9.6678662109375,0.005203413861989975,-0.01422297021234408,0.0016948942843824624
1772535136102882300,9.67788232421875,-0.004521861338615417,-0.0005320062511600553,-0.004009674032777548
1772535136112898300,9.687898193359375,0.006401683735847472,-0.00467127974666655,0.007548689213348552
1772535136122914300,9.697914306640625,0.00879471635222435,0.0012025441901758313,0.0011104089273139834
1772535136132930300,9.707930419921874,0.006700958943367004,0.006011661504954099,-0.008222916946792974
1772535136142947000,9.717947021484376,-0.01020633671581745,0.0023868768702261147,-0.002597304750513285
1772535136152963300,9.72796337890625,-0.0030213936477899547,0.0022844576753675936,-0.009922797933546825
1772535136162979300,9.737979248046875,0.001616203024983406,-0.007275598759856074,-0.009220869342423974
1772535136172995000,9.7479951171875,0.002215337961912155,0.008608180804178118,-0.0018294347837101666
1772535136183011300,9.75801123046875,0.0007207154899835586,0.006912994258850813,0.002595688182162121
1772535136193028000,9.768028076171875,-0.0099035543769598,0.0011117058352567255,-0.008277542344015091
1772535136203044000,9.778044189453125,-0.0075064301073551176,-0.0005922850710339844,-0.006065793711831793
1772535136213060000,9.78806005859375,-0.0031663550764322278,-0.005255637239571661,0.005001068823458627
1772535136223076000,9.798076171875,0.0025210429102182387,-0.0011136420640163122,-0.009636181278200819
1772535136233092000,9.808092041015625,0.0013239420801401138,0.006977748324442655,0.0021941490434110164
1772535136243109000,9.818109130859375,0.0011737199544906616,-0.000026869740616530177,-0.006922118280222639
1772535136253125000,9.828125,-0.0039139585733413695,-0.0023566643950529396,0.0009515833701007068
1772535136263141000,9.83814111328125,-0.0130406833589077,-0.0015264789149165153,-0.00023972704000771043
1772535136273157000,9.8481572265625,-0.0039127895295619965,-0.0017982633273117244,0.007098324230499565
1772535136283173000,9.858173095703124,-0.0018184475988149641,0.010941665253043175,-0.003529233572073281
1772535136293189400,9.868189453125,0.007311199796199798,-0.007657255021203309,-0.008265669243130833
1772535136303206100,9.8782060546875,-0.005557634127140045,0.0008825001892633736,-0.011245388306817039
1772535136313222100,9.88822216796875,-0.005559387692809104,0.009887388693448155,-0.01714826480820775
1772535136323238100,9.898238037109374,0.005362988337874412,0.00948297261102125,0.00976066617439501
1772535136333254100,9.908254150390626,0.012096680507063865,0.0018606975716538726,0.0006259498786181211
1772535136343270400,9.9182705078125,-0.002270283019542694,0.0024304785499349234,-0.00830278638312593
1772535136353287200,9.928287109375,0.004164718464016914,-0.0006782828540541231,-0.00716049361336045
1772535136363303200,9.93830322265625,0.009701894325017928,0.001399655931163579,-0.007920691730361432
1772535136373319200,9.948319091796876,0.012843114960193634,-0.0019090484917163848,-0.004845732131274417
1772535136383335200,9.958335205078125,0.0026689269483089447,0.003016242548637092,-0.0024040015349630264
1772535136393351200,9.96835107421875,-0.0030167174726724623,-0.00660365431504324,-0.005869102095952258
1772535136403368200,9.9783681640625,-0.0009206219762563705,0.0038395416302606463,-0.003117931091133505
1772535136413384200,9.98838427734375,0.009852700972557067,0.00890860678916797,0.0011439276044256984
1772535136423400200,9.998400146484375,0.015540098959207533,0.003288702814467251,-0.0005157309697940946
1772535136433416200,10.008416259765625,-0.0018184475988149641,-0.0015256386647000907,-0.004318950044503435
1772535136443432200,10.01843212890625,0.00476443792283535,-0.006583214315213263,-0.007217566695995628
1772535136453448200,10.0284482421875,0.0004249474138021469,-0.001038549267500639,0.0007206150252837688
1772535136463465200,10.03846533203125,0.012994506129622458,-0.008078001183923333,0.005964826688542962
1772535136473481200,10.048481201171874,-0.0010737667113542555,0.006072670977190137,-0.007711716021643951
1772535136483497200,10.058497314453126,0.002966448590159416,-0.008441281538363545,0.009611695290915668
1772535136493513200,10.06851318359375,0.00042202480435371396,-0.008627652689628302,-0.003781747028417885
1772535136503529000,10.078529052734375,-0.0010743512332439423,0.0026124292544089257,-0.0016507354822475461
1772535136513546200,10.088546142578124,-0.006460720446705818,-0.0002485496672801673,-0.009555873450450598
1772535136523562200,10.098562255859376,0.004313187023997306,-0.00018728446671739218,-0.006341934638936072
1772535136533578200,10.108578125,-0.0000263034850358963,-0.0019317717801779508,-0.002561795045714825
1772535136543594200,10.11859423828125,-0.008856675672531128,0.0032130802949890493,0.00011716010626405476
1772535136553610000,10.12860986328125,-0.00795768100619316,-0.004283650402259081,0.005559707353217527
1772535136563627300,10.138627197265626,0.010896657067537308,-0.010565050492994487,-0.0026654015506617722
1772535136573643300,10.148643310546875,0.006555412992835044,0.0054740109642967575,-0.006936557797528803
1772535136583659300,10.1586591796875,0.006405190867185592,-0.000052497372217476366,-0.004571536566084251
1772535136593675300,10.16867529296875,0.006254384219646454,0.003003693594317883,0.0031765659431926903
1772535136603691000,10.17869091796875,-0.006315759018063545,-0.0003676825349219143,-0.010390936035104095
1772535136613708300,10.188708251953125,-0.014995324558019637,-0.009427169036865234,0.0007328443191945552
1772535136623724300,10.198724365234375,0.0019125556230545043,0.0018404037022963166,0.00818842102214694
1772535136633740300,10.208740234375,-0.0016775778234004973,0.007164484801888466,0.0011774097489193082
1772535136643756000,10.218756103515625,-0.004219663521647453,-0.004537789560109377,0.0027558380467817187
1772535136653772000,10.22877197265625,-0.002424012276530266,-0.006336473012529313,-0.003370462813787162
1772535136663788000,10.2387880859375,0.00819908854663372,-0.004333042501937598,0.0004779653758276254
1772535136673805300,10.248805419921876,-0.0021276596784591674,0.010255436554551123,-0.002366464269859716
1772535136683821300,10.2588212890625,-0.010656418570876122,-0.008302220127545296,0.0059094432394951575
1772535136693837000,10.268837158203125,-0.003623451194167137,0.0034054427956230937,0.0017600502087734638
1772535136703853000,10.27885302734375,0.01014496191740036,0.012323895125370472,-0.004493238032329827
1772535136713869000,10.288869140625,0.006405190867185592,0.0015642171094194053,-0.001696720915287733
1772535136723886300,10.29888623046875,0.0010182371318340302,-0.00007949497699737548,-0.011131589201418683
1772535136733902300,10.30890234375,-0.009605448213219642,-0.010590020537469536,-0.001986205381155014
1772535136743918000,10.31891796875,-0.0007756605476140976,-0.00587543137203902,0.005769258450670167
1772535136753934000,10.32893408203125,0.007005494847893715,-0.0030384361141361296,-0.007557594039011746
1772535136763950000,10.3389501953125,-0.004816460371017456,-0.001420899648591876,-0.006884425751492381
1772535136773967400,10.34896728515625,-0.0028717560440301893,0.006377937534078955,-0.0018051040600519626
1772535136783983000,10.358983154296874,-0.00601531476676464,0.00689103815536946,0.0037267289055511353
1772535136793999000,10.3689990234375,0.01149345391690731,-0.003648019379843026,-0.0019474260070361197
1772535136804015000,10.37901513671875,0.0074526540935039515,-0.0008858611901290714,-0.006574236424313858
1772535136814031000,10.389031005859374,0.003710544955730438,0.0009701419400982559,-0.005960917698405683
1772535136824048400,10.39904833984375,0.008497779232263565,0.016127379061561076,0.005535449694795534
1772535136834064100,10.409064208984375,0.006851181069016456,0.007268401834089309,-0.007267223657155409
1772535136844080000,10.419080078125,-0.0021276596784591674,0.01085773156294599,-0.0011660663709975778
1772535136854096100,10.42909619140625,-0.006019990941882133,0.011717910322546958,0.003651362114399671
1772535136864112000,10.439112060546876,-0.00018237082958221434,0.005248604710586369,0.0062440820213407276
1772535136874128100,10.449128173828125,-0.0055704936087131495,-0.005045720815937966,-0.0042670097947120665
1772535136884145200,10.459145263671875,0.0041547815918922424,0.008520648651197553,-0.007969261846132576
1772535136894161200,10.4691611328125,0.007597031000256538,0.005049081816803663,-0.008406557284854352
1772535136904177200,10.47917724609375,0.003406593573093414,0.00043994405353441833,-0.004205424933740869
1772535136914193200,10.489193115234375,0.010291092389822006,-0.0025983641964383423,-0.009737440562434493
1772535136924209200,10.499209228515625,-0.006916647520661354,0.005436382367648184,-0.022330508018005638
1772535136934226200,10.50922607421875,-0.004223170652985573,0.009009637744538486,-0.004830087037570774
1772535136944242200,10.5192421875,-0.001530278307199478,-0.00894228986306116,0.004545625806692988
1772535136954258200,10.529258056640625,0.0032569559693336487,-0.013392638601735233,0.002887273273570463
1772535136964274200,10.539274169921875,-0.0031751229047775266,-0.008735259516257792,0.004812450916180387
1772535136974290200,10.549290283203124,-0.001527355697751045,0.007647354681696742,-0.005459187854500487
1772535136984307200,10.55930712890625,-0.00047872342765331263,-0.002132774244993925,-0.008320596034452319
1772535136994323200,10.5693232421875,0.007151040798425674,-0.0046160789607092734,-0.0038732429704628883
1772535137004339200,10.579339111328125,0.007896890729665755,0.0004144990850239992,-0.012733297910168766
1772535137014355200,10.589355224609376,0.003708791390061378,0.011204864500183612,-0.008134023953787982
1772535137024371200,10.59937109375,0.006403437301516533,0.0023208989619277415,-0.00007474573664367198
1772535137034387200,10.60938720703125,-0.009012158495187758,-0.0031337679810822007,-0.0047976917384658
1772535137044404200,10.619404296875,-0.006920154651999473,-0.0010856763448566199,-0.011775138668809085
1772535137054420200,10.629420166015626,0.0032557869255542752,-0.004142597963754087,-0.007167809270136058
1772535137064436200,10.639436279296875,0.004601940837502479,0.001313055359944701,-0.007428953557508066
1772535137074452200,10.6494521484375,0.007592939347028732,-0.007155497777834534,-0.007163096562400459
1772535137084468200,10.65946826171875,-0.00452829107940197,-0.0025075258415192363,-0.010326145436894148
1772535137094485200,10.6694853515625,-0.002433364626765251,-0.00762985555762425,0.013720500582922249
1772535137104501200,10.679501220703125,-0.000040332010388374324,-0.013222597530763595,-0.0037651703529525547
1772535137114517200,10.689517333984375,-0.0009393266767263412,0.0042242300989106295,-0.0064209364255890244
1772535137124533200,10.699533203125,0.014172902259230612,0.0056117389345541595,0.0044807895427104085
1772535137134549200,10.70954931640625,0.006692191115021705,0.007802819238044321,-0.005690740721207112
1772535137144566300,10.719566162109375,0.008037760505080222,-0.016426508138608187,-0.0012607771834358573
1772535137154582300,10.729582275390625,0.003996960681676864,0.003375924440193921,-0.00213601651485078
1772535137164598300,10.739598388671874,0.0038473230779170987,-0.002407426467910409,0.0001610175142996013
1772535137174613800,10.74961376953125,0.006689853027462959,0.007489497238863259,-0.00880846174978651
1772535137184629800,10.759629638671875,0.0001052139401435852,-0.0016230163582600652,-0.0051092053730506445
1772535137194646800,10.769646728515625,0.007585925084352493,-0.0041230530130676925,0.001459076234512031
1772535137204662800,10.779662841796876,-0.0021399346381425857,0.00900817643981427,0.0006949873936828226
1772535137214678800,10.7896787109375,0.005192892467975616,-0.0039009164286777373,-0.010094784366432576
1772535137224694800,10.79969482421875,-0.007077391040325165,0.004436265414394438,-0.010280461397953331
1772535137234710800,10.809710693359374,0.0011555997759103774,0.01078413660377264,-0.0037488859384320673
1772535137244726800,10.819726806640626,0.012079144850373267,0.007941442257445305,-0.01334070748509839
1772535137254743800,10.829743896484375,0.0004085808008909225,0.007124645981844514,-0.004501804931275546
1772535137264759800,10.839759765625,0.00025952771902084347,0.0009960618326440452,0.006632551615964621
1772535137274775800,10.84977587890625,0.006844166806340217,0.006989292631763964,0.0015667104606050997
1772535137284791800,10.859791748046876,0.00026069676280021664,-0.0002556735278107226,-0.004748454902414232
1772535137294807600,10.8698076171875,-0.01111176112294197,0.0009346139689907432,-0.010129554285714402
1772535137304824800,10.879824951171875,0.009686696755886078,0.004121683039888739,0.004199798910552635
1772535137314840800,10.8898408203125,-0.005427285745739936,0.000968388374429196,-0.007370839295256883
1772535137324856800,10.89985693359375,-0.006175473764538765,-0.004297806791774928,-0.004709775992995127
1772535137334872800,10.909872802734375,0.008939093258976936,-0.0027819040697999297,0.0003156235541217029
1772535137344888600,10.919888671875,0.013416530933976172,0.0009813391875475644,-0.005134074952825904
1772535137354904600,10.929904541015626,-0.011434417206048965,-0.001748871227633208,-0.0019665051668416706
1772535137364921900,10.939921875,-0.004409048613905907,0.003640018736477941,-0.006450418248400092
1772535137374937900,10.949937744140625,0.0005213935256004333,-0.0053912280516698954,0.004868802479607984
1772535137384953900,10.959953857421874,-0.001724339574575424,-0.009523797811754048,-0.003382984368642792
1772535137394969600,10.969969482421876,0.013691256222128868,-0.0016863456517457961,-0.012431392354145645
1772535137404985600,10.979985595703125,0.014894786792993544,0.0004729330076836049,-0.005076828340254724
1772535137415003000,10.9900029296875,0.0015840543210506439,0.008446615300606936,0.003300484583806246
1772535137425019000,11.000018798828124,-0.00020458266139030456,0.008351703558769076,-0.0050205772415269165
1772535137435034600,11.01003466796875,0.004887772041559219,0.0007565357220359146,-0.005153473773039877
1772535137445050600,11.020050537109375,0.0047428106129169464,-0.0038746494762599464,-0.004857787895249203
1772535137455066600,11.030066650390625,-0.003935001361370086,-0.0065068794096820055,0.004705227682041004
