time,seconds_elapsed,z,y,x
1772535126463542000,0.0385419921875,-0.0021672805305570364,0.002438922878354788,-0.00358834327198565
1772535126473558000,0.04855810546875,-0.0002868224401026964,0.0025744778104126453,-0.004773716442286968
1772535126483574000,0.058573974609375,0.00038988678716123104,0.0028357338160276413,-0.00427277572453022
1772535126493590800,0.0685908203125,-0.001344630029052496,0.002965962514281273,-0.004957740660756826
1772535126503607000,0.07860693359375,-0.0006657902849838138,0.0027710190042853355,-0.002910036128014326
1772535126513623000,0.088623046875,-0.0014120079576969147,0.0015965650090947747,-0.005293565336614847
1772535126523639000,0.09863916015625,-0.0005131911602802575,0.0030096382834017277,-0.00595482811331749
1772535126533655000,0.108655029296875,-0.0003478088474366814,0.0031734227668493986,-0.004451473709195852
1772535126543671800,0.118671875,-0.0014226606581360102,0.003245328087359667,-0.00510021997615695
1772535126553688000,0.12868798828125,-0.00005406216951087117,0.0020487697329372168,-0.003294330323114991
1772535126563704000,0.1387041015625,-0.0011353056179359555,0.002139583695679903,-0.00373028963804245
1772535126573720000,0.148719970703125,-0.0011736550368368626,0.0022088258992880583,-0.0034061830956488848
1772535126583736000,0.158736083984375,-0.0003150519623886794,0.0023379891645163298,-0.0036160401068627834
1772535126593752800,0.1687529296875,-0.000291616132017225,0.002282329136505723,-0.0040914141573011875
1772535126603768800,0.178768798828125,-0.0010612696642056108,0.00177899154368788,-0.004765726625919342
1772535126613785000,0.18878515625,-0.0003075950953643769,0.0027545075863599777,-0.00478383619338274
1772535126623801000,0.198801025390625,-0.0002697782183531672,0.002445580903440714,-0.0029356025625020266
1772535126633816800,0.20881689453125,0.00024474450037814677,0.0031185615807771683,-0.004805940669029951
1772535126643832800,0.218832763671875,-0.0017869811272248626,0.001517735538072884,-0.004007524810731411
1772535126653849900,0.228849853515625,-0.00028868665685877204,0.0022951122373342514,-0.0033276197500526905
1772535126663866000,0.2388662109375,-0.00013422331539914012,0.0023299995809793472,-0.0049825082533061504
1772535126673882000,0.248882080078125,-0.0013667342718690634,0.0031340080313384533,-0.005102350376546383
1772535126683897900,0.25889794921875,-0.0005408879951573908,0.0015954998089000583,-0.005082110408693552
1772535126693913900,0.268913818359375,-0.0011379687348380685,0.0033446638844907284,-0.004944957327097654
1772535126703931000,0.278930908203125,-0.0005744438385590911,0.002258893335238099,-0.00330311874859035
1772535126713947000,0.28894677734375,-0.0006119944155216217,0.002639458980411291,-0.00347462622448802
1772535126723963100,0.298963134765625,-0.0014820491196587682,0.0014735270524397492,-0.00316037330776453
1772535126733979000,0.308978759765625,0.0002902845444623381,0.001966744428500533,-0.00410552928224206
1772535126743995000,0.318994873046875,-0.0017038905061781406,0.004471713677048683,-0.003733751829713583
1772535126754012000,0.329011962890625,-0.0005488775204867125,0.00293267285451293,-0.0036770266015082598
1772535126764028000,0.33902783203125,-0.0019086875254288316,0.0031931300181895494,-0.003916178364306688
1772535126774044200,0.349044189453125,-0.0021781993564218283,0.0014242585748434067,-0.00452710734680295
1772535126784060000,0.359059814453125,-0.0006386260502040386,0.0029356025625020266,-0.004656004719436169
1772535126794076000,0.369075927734375,0.0009116000146605074,0.0023523701820522547,-0.004496214911341667
1772535126804093000,0.379093017578125,-0.0013829795643687248,0.0017070862231776118,-0.0041609229519963264
1772535126814109000,0.38910888671875,-0.0013555489713326097,0.0008341020438820124,-0.004036819562315941
1772535126824125000,0.399125,-0.00038962045800872147,0.002296976512297988,-0.0033446638844907284
1772535126834141000,0.409140869140625,0.00043835630640387535,0.002659965306520462,-0.005077316425740719
1772535126844157000,0.419156982421875,-0.0014927018200978637,0.0034352114889770746,-0.004534830804914236
1772535126854174000,0.429174072265625,-0.000639691308606416,0.0034258903469890356,-0.003008040366694331
1772535126864190000,0.43918994140625,-0.0017907095607370138,0.0024833977222442627,-0.003681021276861429
1772535126874206000,0.4492060546875,-0.00007643271965207532,0.0031430625822395086,-0.004454669542610645
1772535126884222000,0.459221923828125,-0.0015241270884871483,0.0031156321056187153,-0.005112470127642155
1772535126894238000,0.469238037109375,-0.0017675400013104081,0.002983805723488331,-0.0038988678716123104
1772535126904254000,0.47925390625,0.00015153386630117893,0.0018005631864070892,-0.004739094991236925
1772535126914271000,0.48927099609375,-0.002010952914133668,0.0027377295773476362,-0.004232561681419611
1772535126924286700,0.49928662109375,-0.00035659727291204035,0.0024168186355382204,-0.005094094667583704
1772535126934303000,0.509302978515625,-0.0016753945965319872,0.0010990865994244814,-0.0035947347059845924
1772535126944319000,0.519319091796875,-0.00010040117194876075,0.0016889767721295357,-0.004794755019247532
1772535126954335000,0.5293349609375,-0.0005632585380226374,0.0030426615849137306,-0.004547081422060728
1772535126964352000,0.53935205078125,-0.0017510283505544066,0.0031579763162881136,-0.004395014606416225
1772535126974367700,0.54936767578125,-0.0009645969257690012,0.002889263443648815,-0.003082609036937356
1772535126984383700,0.5593837890625,-0.0011627360945567489,0.00115394766908139,-0.005379319190979004
1772535126994400000,0.56939990234375,-0.001213868847116828,0.0019867182709276676,-0.0026320021133869886
1772535127004416000,0.579416015625,-0.0010892328573390841,0.0038868836127221584,-0.004092745948582888
1772535127014433000,0.58943310546875,-0.0013547500129789114,0.002813629573211074,-0.0062488410621881485
1772535127024448800,0.59944873046875,-0.00020825919636990875,0.0019140138756483793,-0.00498144282028079
1772535127034464800,0.60946484375,0.0011371697764843702,0.003823500359430909,-0.003072488820180297
1772535127044481000,0.61948095703125,-0.0016255935188382864,0.0033630398102104664,-0.004575044382363558
1772535127054497000,0.6294970703125,-0.001228516222909093,0.002302036387845874,-0.004288222175091505
1772535127064514000,0.63951416015625,-0.00130894361063838,0.0016176040517166257,-0.0025718146935105324
1772535127074529800,0.64952978515625,-0.0014426343841478229,0.0008109325426630676,-0.005035505164414644
1772535127084545800,0.6595458984375,-0.000401604687795043,0.002558232517912984,-0.004340153653174639
1772535127094562000,0.66956201171875,-0.0022359900176525116,0.0020003002136945724,-0.005599828902631998
1772535127104578000,0.679578125,-0.0012916331179440022,0.0038663772866129875,-0.004721518140286207
1772535127114594000,0.689593994140625,-0.0003653856983873993,0.003638410707935691,-0.004483697935938835
1772535127124610800,0.69961083984375,0.000636761833447963,0.003611512714996934,-0.005560680292546749
1772535127134626800,0.709626708984375,-0.00007057376933516935,0.002115881536155939,-0.004993160720914602
1772535127144642800,0.719642822265625,-0.00041332258842885494,0.00250576832331717,-0.0028575719334185123
1772535127154659000,0.7296591796875,0.00018136126163881272,0.0027955202385783195,-0.004428304266184568
1772535127164675000,0.739675048828125,-0.0009693906176835299,0.0018823222490027547,-0.004119643941521645
1772535127174692000,0.749692138671875,-0.0019004317000508308,0.0030985879711806774,-0.004004595335572958
1772535127184708000,0.7597080078125,-0.0004069310089107603,0.003216566052287817,-0.004012318328022957
1772535127194724000,0.76972412109375,-0.0015430354978889227,0.0026341325137764215,-0.0030868700705468655
1772535127204740000,0.779739990234375,0.00041571943438611925,0.0026053704787045717,-0.004053064621984959
1772535127214756000,0.789756103515625,-0.0011504855938255787,0.0026668894570320845,-0.004095675423741341
1772535127224773000,0.799773193359375,0.00101120222825557,0.0013145363191142678,-0.004876514431089163
1772535127234789000,0.8097890625,-0.0011488876771181822,0.002588059986010194,-0.00452843913808465
1772535127244805000,0.81980517578125,-0.000021837920940015465,0.0023734092246741056,-0.003686613868921995
1772535127254821000,0.829821044921875,0.0004423510399647057,0.0009957558941096067,-0.004492752719670534
1772535127264837000,0.839837158203125,0.0009685916593298316,0.002326004905626178,-0.004546548705548048
1772535127274854000,0.84985400390625,-0.0009840379934757948,0.0021339908707886934,-0.003518834710121155
1772535127284870100,0.8598701171875,0.0002894856152124703,0.002666356973350048,-0.0036780918017029762
1772535127294886100,0.86988623046875,0.000016777914424892515,0.002538258908316493,-0.004422178957611322
1772535127304902100,0.879902099609375,-0.0007115966291166842,0.0017736653098836541,-0.003179814200848341
1772535127314918100,0.889918212890625,-0.0010436928132548928,0.0019062906503677368,-0.004132693167775869
1772535127324935000,0.899934814453125,-0.00013662016135640442,0.0024527714122086763,-0.003245594445616007
1772535127334951200,0.909951171875,-0.00007430219557136297,0.001728657865896821,-0.006340720225125551
1772535127344967200,0.91996728515625,-0.0006175870657898486,0.002472745021805167,-0.003379817819222808
1772535127354983200,0.929983154296875,0.0002836266648955643,0.003465305082499981,-0.0030013825744390488
1772535127364999200,0.939999267578125,-0.0009345032158307731,0.0026463831309229136,-0.004255465231835842
1772535127375015000,0.950014892578125,-0.0000125168571685208,0.0017467673169448972,-0.003400856629014015
1772535127385032200,0.9600322265625,-0.0011065434664487839,0.00361763802357018,-0.004245877731591463
1772535127395048200,0.970048095703125,-0.0002942793071269989,0.0020516992080956697,-0.004733502399176359
1772535127405064200,0.980064208984375,0.00038642468280158937,0.002831739140674472,-0.004564658273011446
1772535127415080200,0.990080078125,-0.0007550061563961208,0.0013965616235509515,-0.004749215207993984
1772535127425096000,1.000095947265625,0.00005512743518920615,0.0018575548892840743,-0.004701278172433376
1772535127435113000,1.010113037109375,-0.0006463492172770202,0.0016586167039349675,-0.004509530495852232
1772535127445129200,1.020129150390625,-0.0009241168736480176,0.0018897791160270572,-0.003969974350184202
1772535127455145200,1.030145263671875,-0.0014572817599400878,0.002094842493534088,-0.00472418125718832
1772535127465161000,1.040160888671875,-0.0005075985100120306,0.0036362800747156143,-0.00490314606577158
1772535127475177000,1.050177001953125,-0.002569950418546796,0.002591255819424987,-0.0037444045301526785
1772535127485194000,1.060194091796875,-0.001692705205641687,0.001832521171309054,-0.005118595436215401
1772535127495210200,1.070210205078125,0.0006945523782633245,0.0021494373213499784,-0.003186472225934267
1772535127505226200,1.080226318359375,-0.0011856392957270145,0.001306014135479927,-0.002879942301660776
1772535127515242000,1.090241943359375,-0.0013203952694311738,0.0018895127577707171,-0.0038370825350284576
1772535127525258000,1.100258056640625,-0.001118793967179954,0.0015355786308646202,-0.003212304785847664
1772535127535275000,1.11027490234375,-0.0022916500456631184,0.0012064119800925255,-0.003742540255188942
1772535127545291000,1.120291015625,-0.001350755337625742,0.002478337613865733,-0.004434429574757814
1772535127555307300,1.130307373046875,-0.0007531419396400452,0.0019683423452079296,-0.004310592543333769
1772535127565323000,1.140322998046875,-0.0012013519881293178,0.00242214510217309,-0.005085039883852005
1772535127575339000,1.150339111328125,-0.001047687605023384,0.0033864756114780903,-0.004059189930558205
1772535127585356000,1.16035595703125,0.00010120012302650139,0.002168079372495413,-0.0034999263007193804
1772535127595372000,1.1703720703125,-0.0003323625132907182,0.001282045734114945,-0.005044559482485056
1772535127605388300,1.18038818359375,-0.0018881811993196607,0.001609081868082285,-0.004717257339507341
1772535127615404000,1.190404052734375,-0.0013488910626620054,0.003462908323854208,-0.0049553439021110535
1772535127625420000,1.200419921875,0.00024394555657636374,0.0023007048293948174,-0.004433364141732454
1772535127635437000,1.21043701171875,-0.00047084689140319824,0.0016855146968737245,-0.004259726032614708
1772535127645453000,1.220453125,-0.0007424892974086106,0.002965696156024933,-0.004990231245756149
1772535127655469000,1.230468994140625,-0.0007978830835781991,0.0010777813149616122,-0.0041036647744476795
1772535127665485000,1.240485107421875,-0.0015065502375364304,0.002109223511070013,-0.004288754425942898
1772535127675501000,1.2505009765625,-0.0007837683078832924,0.002168079372495413,-0.004516721237450838
1772535127685517000,1.26051708984375,-0.0006458165589720011,0.0021374530624598265,-0.005503954831510782
1772535127695534000,1.2705341796875,-0.0016178702935576439,0.003186472225934267,-0.0047055394388735294
1772535127705550000,1.280550048828125,-0.000322775129461661,0.0036373452749103308,-0.004691424313932657
1772535127715566000,1.290566162109375,-0.0009837717516347766,0.002538258908316493,-0.004490622319281101
1772535127725582000,1.30058203125,-0.0011848403373733163,0.003431216813623905,-0.003338006092235446
1772535127735598000,1.31059814453125,-0.0007544735562987626,0.0019116170005872846,-0.0040796962566673756
1772535127745615000,1.320614990234375,-0.00038748994120396674,0.0014319816837087274,-0.005403287708759308
1772535127755630800,1.330630859375,-0.0013275857781991363,0.002383795566856861,-0.004544417839497328
1772535127765647000,1.340647216796875,-0.00018322547839488834,0.0034788872580975294,-0.0038211036007851362
1772535127775663000,1.3506630859375,-0.0004021373169962317,0.0017070862231776118,-0.005539641249924898
1772535127785679000,1.36067919921875,-0.00021518341964110732,0.0027228158432990313,-0.005304217804223299
1772535127795696000,1.370696044921875,-0.0004780374001711607,0.0030985879711806774,-0.00487225316464901
1772535127805712000,1.3807119140625,0.00013022858183830976,0.0027571707032620907,-0.0041702440939843655
1772535127815727900,1.390727783203125,0.00026258768048137426,0.0017512947088107467,-0.004265052266418934
1772535127825744100,1.400744140625,-0.0006223807577043772,0.0028546424582600594,-0.0029550434555858374
1772535127835760000,1.410760009765625,-0.0019286612514406443,0.0024282701779156923,-0.002721750643104315
1772535127845777200,1.420777099609375,-0.0016298545524477959,0.003132676472887397,-0.0033182986080646515
1772535127855793000,1.43079296875,-0.0011611381778493524,0.0018991001415997744,-0.004741225857287645
1772535127865809000,1.440808837890625,-0.0005936186062172055,0.001407480682246387,-0.0029379993211477995
1772535127875825200,1.4508251953125,-0.0018045579781755805,0.003992078360170126,-0.0038099181838333607
1772535127885841200,1.460841064453125,-0.0007877630414441228,0.0015568839153274894,-0.004829908721148968
1772535127895858200,1.470858154296875,-0.001026382320560515,0.00370179396122694,-0.00446905056014657
1772535127905874000,1.4808740234375,-0.0007187871960923076,0.001791242160834372,-0.005286907311528921
1772535127915890000,1.490889892578125,-0.0006735134520567954,0.002826146548613906,-0.004429901950061321
1772535127925906000,1.500906005859375,-0.0005736448802053928,0.002968092914670706,-0.0037862160243093967
1772535127935922200,1.510922119140625,-0.0005941512063145638,0.0029702235478907824,-0.003081809962168336
1772535127945939000,1.52093896484375,-0.0015704660909250379,0.002514024032279849,-0.003910585772246122
1772535127955955000,1.530954833984375,0.0005518069956451654,0.003478354774415493,-0.004446680191904306
1772535127965971000,1.540970947265625,-0.0004724447790067643,0.002222940558567643,-0.005631254054605961
1772535127975987000,1.550987060546875,-0.0011728560784831643,0.0026349315885454416,-0.0046514770947396755
1772535127986003200,1.561003173828125,-0.00019654128118418157,0.0020900487434118986,-0.0037143107037991285
1772535127996020000,1.57102001953125,-0.0005789712304249406,0.003775563556700945,-0.004935370292514563
1772535128006036000,1.581035888671875,-0.0006892260862514377,0.0013395700370892882,-0.005089833401143551
1772535128016052000,1.591052001953125,-0.0003936151915695518,0.003230947069823742,-0.004685831721872091
1772535128026068000,1.60106787109375,-0.001615207176655531,0.0029672940727323294,-0.005209143273532391
1772535128036084200,1.611084228515625,-0.0009805759182199836,0.003643736941739917,-0.004505536053329706
1772535128046100200,1.621100341796875,-0.0007363640470430255,0.0018836538074538112,-0.005682120565325022
1772535128056117000,1.631116943359375,-0.000261788722127676,0.002528138691559434,-0.004252003040164709
1772535128066133000,1.641133056640625,-0.0019478360190987587,0.003582217963412404,-0.004266384057700634
1772535128076149000,1.65114892578125,-0.0018722022650763392,0.0028485171496868134,-0.003896470880135894
1772535128086165000,1.6611650390625,-0.0009566074586473405,0.004014449194073677,-0.003896470880135894
1772535128096181200,1.67118115234375,0.0002591255761217326,0.0021552962716668844,-0.00440912926569581
1772535128106198000,1.681197998046875,-0.0012391688069328666,0.003136138431727886,-0.004874117206782103
1772535128116214000,1.691214111328125,-0.0008652610122226179,0.0021726067643612623,-0.003563842037692666
1772535128126230000,1.70122998046875,-0.0016844493802636862,0.002132659312337637,-0.005608617328107357
1772535128136246000,1.71124609375,-0.0003230414295103401,0.003111903788521886,-0.004700212739408016
1772535128146262300,1.72126220703125,-0.000571248063351959,0.003084473079070449,-0.0046360306441783905
1772535128156279000,1.731279052734375,-0.0006245112745091319,0.0035167040769010782,-0.005034972447901964
1772535128166295800,1.7412958984375,0.0005360943032428622,0.002254632068797946,-0.005034439731389284
1772535128176311800,1.751311767578125,-0.0013989584986120462,0.00216488353908062,-0.004448277875781059
1772535128186327800,1.761327880859375,-0.00026764770154841244,0.0014271880500018597,-0.00449781259521842
1772535128196343600,1.771343505859375,-0.0018583538476377726,0.0033276197500526905,-0.005283977836370468
1772535128206360600,1.781360595703125,-0.0011382350930944085,0.0008386294357478619,-0.006166549399495125
1772535128216376800,1.791376953125,0.00033103092573583126,0.0023228090722113848,-0.003780623432248831
1772535128226392800,1.801392822265625,-0.0021880532149225473,0.0029089709278196096,-0.006022738758474588
1772535128236408800,1.811408935546875,0.0013126720441505313,0.0013110742438584566,-0.0047060721553862095
1772535128246424600,1.821424560546875,-0.0005688511882908642,0.0016088156262412667,-0.004125769250094891
1772535128256441600,1.831441650390625,-0.0011909656459465623,0.0031041805632412434,-0.004834169987589121
1772535128266457900,1.841457763671875,-0.0010932276491075754,0.001065264455974102,-0.004688494838774204
1772535128276473900,1.851473876953125,0.00038242992013692856,0.0025710156187415123,-0.006046707276254892
1772535128286489600,1.861489501953125,-0.0010335728293284774,0.0030123014003038406,-0.004566522315144539
1772535128296505600,1.871505615234375,-0.0016104135429486632,0.002487658755853772,-0.0032804817892611027
1772535128306522600,1.881522705078125,-0.0008647284121252596,0.0031382690649479628,-0.005025651305913925
1772535128316538600,1.89153857421875,-0.0016623451374471188,0.0024770060554146767,-0.004652009811252356
1772535128326555000,1.901554931640625,-0.0015275891637429595,0.003340669209137559,-0.006214220076799393
1772535128336570600,1.911570556640625,-0.003073820611461997,0.002669286448508501,-0.005194229539483786
1772535128346586600,1.921586669921875,-0.0013480921043083072,0.0037707698065787554,-0.0033190976828336716
1772535128356603600,1.931603759765625,-0.0017172062071040273,0.0017712684348225594,-0.0038136467337608337
1772535128366619600,1.94161962890625,0.00061279337387532,0.002671949565410614,-0.0033859428949654102
1772535128376636000,1.951635986328125,-0.001252750982530415,0.0027710190042853355,-0.00452737370505929
1772535128386651600,1.961651611328125,0.0007821703911758959,0.0011914982460439205,-0.003867975203320384
1772535128396667600,1.971667724609375,-0.0012261193478479981,0.003133208956569433,-0.00427091121673584
1772535128406684700,1.9816845703125,-0.0005467469454742968,0.002907373011112213,-0.00376064982265234
1772535128416700700,1.99170068359375,-0.0015153386630117893,0.0019113506423309445,-0.005680788774043322
1772535128426717000,2.001717041015625,-0.0016769925132393837,0.002499110298231244,-0.004720985423773527
1772535128436732700,2.011732666015625,-0.0013259878614917397,0.0025217472575604916,-0.006710366811603308
1772535128446748700,2.021748779296875,-0.0013100089272484183,0.0033747577108442783,-0.0049098036251962185
1772535128456765700,2.031765625,-0.0005643238546326756,0.002751844236627221,-0.004032026045024395
1772535128466781700,2.04178173828125,-0.0008825715631246567,0.002270078519359231,-0.004992628004401922
1772535128476797700,2.051797607421875,-0.0007099987124092877,0.0021995047573000193,-0.005169728305190802
1772535128486813700,2.061813720703125,0.0005882922559976578,0.004538825247436762,-0.004551874939352274
1772535128496829700,2.07182958984375,-0.0015542207984253764,0.0032842103391885757,-0.003915379289537668
1772535128506846700,2.0818466796875,-0.000713993504177779,0.003207244910299778,-0.004209924954921007
1772535128516862700,2.09186279296875,-0.00047377636656165123,0.002656769473105669,-0.0024889903143048286
1772535128526878700,2.101878662109375,-0.001898034941405058,0.003599528456106782,-0.0037257622461766005
1772535128536894700,2.111894775390625,-0.00011105381418019533,0.0019259981345385313,-0.005002481862902641
1772535128546910700,2.12191064453125,-0.0015688681742176414,0.0024857944808900356,-0.004806739278137684
1772535128556927700,2.131927734375,0.00018349179299548268,0.0025981799699366093,-0.003620034782215953
1772535128566943700,2.14194384765625,-0.0010452907299622893,0.0035417377948760986,-0.0060171461664140224
1772535128576959500,2.15195947265625,0.00023302659974433482,0.0027896612882614136,-0.004522846546024084
1772535128586975500,2.1619755859375,-0.0024261397775262594,0.003572896821424365,-0.00430100504308939
1772535128596991700,2.17199169921875,-0.0013749900972470641,0.0014106763992458582,-0.0041217743419110775
1772535128607008800,2.1820087890625,-0.0018844527658075094,0.0024077638518065214,-0.0029198897536844015
1772535128617024800,2.192024658203125,0.0013219931861385703,0.0016948357224464417,-0.004388889297842979
1772535128627040500,2.20204052734375,-0.0005478122038766742,0.003698331769555807,-0.0041217743419110775
1772535128637056500,2.212056396484375,-0.0001430117554264143,0.002797118155285716,-0.004384628497064114
1772535128647072800,2.22207275390625,-0.0006210491410456598,0.002418949268758297,-0.005624063778668642
1772535128657089800,2.23208984375,0.0004316983977332711,0.0025744778104126453,-0.0030921963043510914
1772535128667105800,2.242105712890625,-0.00022983079543337226,0.0018154769204556942,-0.004024036228656769
1772535128677121500,2.25212158203125,-0.00025752768851816654,0.0024106933269649744,-0.004625111818313599
1772535128687137500,2.262137451171875,-0.00009693906031316146,0.0031121699139475822,-0.0050687943585217
1772535128697153500,2.272153564453125,-0.0012753878254443407,0.002918558195233345,-0.0027228158432990313
1772535128707170800,2.2821708984375,-0.0006578007596544921,0.0022413162514567375,-0.004481034819036722
1772535128717186800,2.292186767578125,0.0002271676348755136,0.0018514295807108283,-0.003619768423959613
1772535128727202600,2.30220263671875,-0.000041811628761934116,0.0030125677585601807,-0.004746019374579191
1772535128737218600,2.312218505859375,-0.000284159294096753,0.0033569145016372204,-0.003980626817792654
1772535128747234600,2.322234619140625,-0.0008847020799294114,0.002671416848897934,-0.004628574009984732
1772535128757251800,2.332251953125,-0.0013643373968079686,0.003091131104156375,-0.0034200313966721296
1772535128767267600,2.342267578125,-0.0015491608064621687,0.0026224146131426096,-0.004548679105937481
1772535128777283600,2.35228369140625,-0.00007297061529243365,0.0030093719251453876,-0.004060255363583565
1772535128787299600,2.362299560546875,-0.0004982774262316525,0.002974750939756632,-0.003690076060593128
1772535128797315600,2.372315673828125,0.0005685848882421851,0.0012801815755665302,-0.0049092709086835384
1772535128807332900,2.382332763671875,0.00031638352083973587,0.0025936525780707598,-0.003251719754189253
1772535128817348600,2.3923486328125,-0.0006074670236557722,0.0024000408593565226,-0.0033720945939421654
1772535128827364600,2.402364501953125,0.00037976677413098514,0.0017928400775417686,-0.004713795147836208
1772535128837380600,2.412380615234375,-0.00010492854926269501,0.0032376048620790243,-0.004296744242310524
1772535128847396600,2.422396728515625,-0.0004700479330495,0.002540922025218606,-0.0040442761965096
1772535128857414000,2.432413818359375,0.000336090917699039,0.002913231961429119,-0.00398568669334054
1772535128867429600,2.4424296875,-0.0000428768944402691,0.0021521004382520914,-0.004822718445211649
1772535128877445600,2.452445556640625,0.0000023968450477696024,0.0041345576755702496,-0.003515905234962702
1772535128887461600,2.462461669921875,-0.0014900385867804289,0.002743588527664542,-0.0036674391012638807
1772535128897477600,2.4724775390625,-0.00019973708549514413,0.0022061625495553017,-0.005006742663681507
1772535128907494700,2.48249462890625,-0.0006447513005696237,0.003591272747144103,-0.004460794851183891
1772535128917510700,2.4925107421875,-0.00020453077740967274,0.0036583843175321817,-0.004259193316102028
1772535128927526700,2.502526611328125,-0.00041864890954457223,0.0032107068691402674,-0.004186755511909723
1772535128937542700,2.512542724609375,-0.0010990865994244814,0.0017355820164084435,-0.003261040663346648
1772535128947558700,2.52255859375,-0.0006937534781172872,0.0026967169251292944,-0.004014182835817337
1772535128957575700,2.53257568359375,-0.0006785734440200031,0.00316063966602087,-0.004156128969043493
1772535128967591700,2.542591796875,-0.0010998855577781796,0.002660231664776802,-0.004965197294950485
1772535128977607700,2.552607666015625,-0.0004652542411349714,0.001814944320358336,-0.003953728824853897
1772535128987623700,2.562623779296875,-0.0007225155713967979,0.0025710156187415123,-0.0043806335888803005
1772535128997639700,2.5726396484375,-0.0006024070316925645,0.0024381240364164114,-0.004508731886744499
1772535129007656400,2.582656494140625,-0.0016580841038376093,0.0034796863328665495,-0.0048980857245624065
1772535129017672700,2.592672607421875,0.00027750138542614877,0.0023909860756248236,-0.0041436124593019485
1772535129027688700,2.602688720703125,-0.0011116034584119916,0.0036019254475831985,-0.005013400688767433
1772535129037704700,2.61270458984375,-0.000020772657080669887,0.0031017838045954704,-0.003725496120750904
1772535129047720700,2.622720703125,-0.001749430550262332,0.001892175991088152,-0.003299123840406537
1772535129057737500,2.632737548828125,-0.0014053500490263104,0.001582716591656208,-0.004821386653929949
1772535129067753700,2.642753662109375,-0.0009731190511956811,0.003093261504545808,-0.004458930809050798
1772535129077769700,2.652769775390625,-0.0027486486360430717,0.00307568465359509,-0.0026932547334581614
1772535129087785700,2.66278564453125,-0.0010759170399978757,0.003072488820180297,-0.0021819279063493013
1772535129097801700,2.6728017578125,-0.0016591493040323257,0.0030509172938764095,-0.0047090016305446625
1772535129107818500,2.682818603515625,-0.0008996158139780164,0.0017542241839691997,-0.004731105640530586
1772535129117834500,2.69283447265625,0.0003552656853571534,0.003421362955123186,-0.004618453793227673
1772535129127850800,2.702850830078125,-0.0006125270738266408,0.0030154972337186337,-0.005323925521224737
1772535129137866800,2.71286669921875,-0.0006966829532757401,0.002041046740487218,-0.004451473709195852
1772535129147882800,2.7228828125,-0.0003962783666793257,0.0027915253303945065,-0.0036991306114941835
1772535129157899500,2.7328994140625,0.0005382248782552779,0.0021654162555933,-0.00330311874859035
1772535129167915500,2.74291552734375,-0.0015805860748514533,0.0024927188642323017,-0.005078914575278759
1772535129177931500,2.752931640625,-0.0005962817813269794,0.0015195996966212988,-0.004504470620304346
1772535129187947500,2.762947509765625,-0.0008623315370641649,0.0033939324785023928,-0.004089283756911755
1772535129197963800,2.7729638671875,-0.001100684516131878,0.0009744506096467376,-0.002404035534709692
1772535129207980500,2.78298046875,-0.00098217383492738,0.003335342975333333,-0.0029606360476464033
1772535129217996500,2.79299658203125,0.0004117247008252889,0.0014468954177573323,-0.0035744947381317616
1772535129228012500,2.803012451171875,0.0005858954391442239,0.0035356127191334963,-0.0035127094015479088
1772535129238028500,2.813028564453125,-0.000910268456209451,0.0016953683225437999,-0.0027419906109571457
1772535129248044500,2.82304443359375,0.00030652983696199954,0.001558748190291226,-0.0037830201908946037
1772535129258061600,2.8330615234375,-0.0009432916413061321,0.003451723139733076,-0.0039854203350842
1772535129268077600,2.84307763671875,-0.0017832526937127113,0.00242161238566041,-0.004751079250127077
1772535129278093600,2.853093505859375,-0.0014556838432326913,0.004064250271767378,-0.003875698195770383
1772535129288109600,2.863109619140625,-0.0002324939559912309,0.004740160424262285,-0.0028594359755516052
1772535129298125600,2.87312548828125,-0.0012903015594929457,0.0034000577870756388,-0.0025486452504992485
1772535129308142600,2.883142578125,-0.0012341088149696589,0.004239486064761877,-0.005192098673433065
1772535129318158600,2.89315869140625,0.0002487392339389771,0.0030248183757066727,-0.004661330953240395
1772535129328174600,2.903174560546875,-0.001421861699782312,0.0029294772539287806,-0.005031510256230831
1772535129338190600,2.913190673828125,-0.0006122607155703008,0.002377670258283615,-0.003597131697461009
1772535129348206600,2.92320654296875,-0.0002324939559912309,0.0031225562561303377,-0.002653573639690876
1772535129358223600,2.9332236328125,-0.0015614113071933389,0.004197674337774515,-0.004378769546747208
1772535129368239600,2.943239501953125,0.00005299690383253619,0.002466353354975581,-0.005124987103044987
1772535129378255600,2.953255615234375,-0.001333178486675024,0.003919906914234161,-0.004723649006336927
1772535129388271600,2.963271728515625,-0.00045140579459257424,0.0020069582387804985,-0.005494633689522743
1772535129398288400,2.973288330078125,-0.001960619119927287,0.003150519449263811,-0.003947869874536991
1772535129408304600,2.9833046875,-0.0002998719282913953,0.002775280037894845,-0.004744953941553831
1772535129418320600,2.993320556640625,0.0011747203534469008,0.0036602485924959183,-0.003462908323854208
1772535129428336600,3.003336669921875,-0.0004700479330495,0.004032292403280735,-0.0037201696541160345
1772535129438352600,3.0133525390625,0.000022903184799361043,0.003022687742486596,-0.0037798245903104544
1772535129448369400,3.023369384765625,-0.0009765811264514923,0.0032320122700184584,-0.004187021870166063
1772535129458385700,3.0333857421875,-0.0013957626651972532,0.0023209447972476482,-0.004127100575715303
1772535129468401700,3.043401611328125,-0.0003685815026983619,0.0028445222415030003,-0.004057325888425112
1772535129478417700,3.053417724609375,-0.00048602689639665186,0.0022772690281271935,-0.004854942671954632
1772535129488433700,3.06343359375,-0.0002055960358120501,0.0010484865633770823,-0.0044046021066606045
1772535129498450400,3.073450439453125,-0.0011779161868616939,0.0029561088886111975,-0.004904743749648333
1772535129508466700,3.083466796875,-0.00047164582065306604,0.002316950121894479,-0.004538292996585369
1772535129518482700,3.093482666015625,-0.00016777914424892515,0.002680205274373293,-0.004028297495096922
1772535129528498700,3.103498779296875,-0.0008711199625395238,0.003296194365248084,-0.004485029727220535
1772535129538514700,3.1135146484375,-0.0023307986557483673,0.0038152446504682302,-0.006265885196626186
1772535129548531500,3.123531494140625,-0.00020053602929692715,0.0018913770327344537,-0.004317782819271088
1772535129558547500,3.13354736328125,-0.0017531589837744832,0.0021371867042034864,-0.005402222275733948
1772535129568563700,3.143563720703125,-0.0009230516152456403,0.0027206854429095984,-0.004012851044535637
1772535129578579700,3.153579833984375,-0.0012125372886657715,0.0025478461757302284,-0.005028314422816038
1772535129588595700,3.163595703125,-0.0014679343439638615,0.002061553066596389,-0.003549727378413081
1772535129598612500,3.173612548828125,0.00009933590627042577,0.0016365124611184,-0.0037888791412115097
1772535129608628500,3.18362841796875,-0.0006926882197149098,0.002689526416361332,-0.004402738064527512
1772535129618644700,3.193644775390625,-0.00013848437811248004,0.0028216191567480564,-0.00259418529458344
1772535129628660700,3.20366064453125,-0.00141041015740484,0.002213619416579604,-0.002843723399564624
1772535129638676700,3.2136767578125,0.0010098706698045135,0.001823732745833695,-0.005270662251859903
1772535129648693500,3.223693603515625,-0.0005334311863407493,0.003745203372091055,-0.0049276468344032764
1772535129658709500,3.23370947265625,0.000011451592399680521,0.003427754621952772,-0.003352653468027711
1772535129668725500,3.2437255859375,-0.001478320686146617,0.0025398568250238895,-0.004291151650249958
1772535129678741800,3.25374169921875,-0.00033342777169309556,0.0024831313639879227,-0.00503870053216815
1772535129688757800,3.2637578125,-0.0002817624481394887,0.003310841741040349,-0.004165450111031532
1772535129698774500,3.2737744140625,-0.0023848607670515776,0.0012327772565186024,-0.0033451966010034084
1772535129708790500,3.28379052734375,0.00049082055920735,0.0019286612514406443,-0.003998203668743372
1772535129718806500,3.293806640625,-0.0019941749051213264,0.0022066952660679817,-0.003300189273431897
1772535129728822800,3.30382275390625,-0.000990962260402739,0.0029257487040013075,-0.004897020757198334
1772535129738838800,3.3138388671875,-0.0015419702976942062,0.0028905950020998716,-0.002025333931669593
1772535129748855600,3.32385546875,-0.0012120045721530914,0.0015134743880480528,-0.004625910893082619
1772535129758871600,3.33387158203125,0.00009187905379803851,0.003944940399378538,-0.003777693957090378
1772535129768887600,3.343887451171875,-0.00046392265358008444,0.0018373148050159216,-0.005256813485175371
1772535129778903800,3.35390380859375,-0.0008615325787104666,0.002161954063922167,-0.004391818773001432
1772535129788919800,3.363919921875,-0.0010572749888524413,0.0024021712597459555,-0.0038394792936742306
1772535129798936600,3.3739365234375,-0.0013486248208209872,0.0041401502676308155,-0.003287405939772725
1772535129808952600,3.38395263671875,-0.0018354506464675069,0.0030690268613398075,-0.0024493092205375433
1772535129818968600,3.393968505859375,-0.00012144014181103557,0.002389121800661087,-0.00392762990668416
1772535129828984600,3.403984619140625,-0.0005331648280844092,0.0022889869287610054,-0.0032778186723589897
1772535129839000600,3.41400048828125,-0.0008010788587853312,0.0034264230635017157,-0.0035867453552782536
1772535129849017600,3.424017578125,0.000028762138754245825,0.0031382690649479628,-0.004977714270353317
1772535129859033600,3.43403369140625,-0.00008122641156660393,0.0019984361715614796,-0.004875182639807463
1772535129869049600,3.444049560546875,-0.0008226504432968795,0.0010335728293284774,-0.004230431281030178
1772535129879065600,3.454065673828125,-0.0013664679136127234,0.0027422569692134857,-0.004501807503402233
1772535129889082600,3.46408251953125,0.001240766723640263,0.0017981663113459945,-0.003276220755651593
1772535129899098600,3.4740986328125,-0.0010663296561688185,0.0021632856223732233,-0.00526640098541975
1772535129909114600,3.484114501953125,-0.0025510420091450214,0.0023337281309068203,-0.005035238806158304
1772535129919130600,3.494130615234375,-0.00019813918333966285,0.0022746059112250805,-0.004511128645390272
1772535129929146600,3.504146728515625,0.00012889699428342283,0.0032828785479068756,-0.004099403973668814
1772535129939163600,3.51416357421875,0.0004993426846340299,0.0030567762441933155,-0.0033475933596491814
1772535129949179600,3.5241796875,-0.0016666061710566282,0.003291400847956538,-0.004056526813656092
1772535129959195600,3.534195556640625,-0.002028529765084386,0.002496180823072791,-0.0044288369826972485
1772535129969211600,3.544211669921875,-0.0009526127250865102,0.0018700717482715845,-0.004072505980730057
1772535129979227600,3.5542275390625,-0.0018959043081849813,0.0020330571569502354,-0.006666957400739193
1772535129989244700,3.56424462890625,-0.00038828887045383453,0.004227501805871725,-0.00404640706256032
1772535129999260700,3.5742607421875,-0.0000577905957470648,0.0023422501981258392,-0.00466505903750658
1772535130009276700,3.584276611328125,-0.0007605988066643476,0.0024919197894632816,-0.004502340219914913
1772535130019292700,3.594292724609375,0.00035446672700345516,0.0016852483386173844,-0.004345746245235205
1772535130029308700,3.60430859375,-0.00010492854926269501,0.002537992550060153,-0.004040015395730734
1772535130039325700,3.61432568359375,-0.0002998719282913953,0.0030216225422918797,-0.00407596817240119
1772535130049341700,3.624341796875,-0.00029401297797448933,0.0025771409273147583,-0.004366252571344376
1772535130059357700,3.634357666015625,-0.0009121326729655266,0.0014391721924766898,-0.002823749789968133
1772535130069373700,3.644373779296875,-0.0017443705582991242,0.0028429245576262474,-0.0046546729281544685
1772535130079389700,3.6543896484375,-0.001270327833481133,0.000660463934764266,-0.005264270585030317
1772535130089406500,3.664406494140625,-0.00012836436508223414,0.0023004384711384773,-0.005077849142253399
1772535130099422700,3.674422607421875,0.00016831177345011383,0.0023001721128821373,-0.003750795964151621
1772535130109438700,3.684438720703125,0.00037683729897253215,0.002172074280679226,-0.0052384380251169205
1772535130119454700,3.694454833984375,0.00021518341964110732,0.0025007082149386406,-0.0049582733772695065
1772535130129470500,3.704470458984375,0.0004271710349712521,0.0033747577108442783,-0.003322559641674161
1772535130139487500,3.714487548828125,-0.0005012069013901055,0.0021526331547647715,-0.005249356850981712
1772535130149503700,3.724503662109375,0.0005371595616452396,0.0017808558186516166,-0.0041278996504843235
1772535130159519700,3.734519775390625,0.0011408982099965215,0.002801911672577262,-0.005758020561188459
1772535130169535700,3.74453564453125,-0.00014327807002700865,0.002430933527648449,-0.005788912996649742
1772535130179551500,3.754551513671875,0.0005597964627668262,0.0026666230987757444,-0.0032381375785917044
1772535130189568500,3.764568603515625,-0.00202240445651114,0.0032120386604219675,-0.002993126632645726
1772535130199584500,3.77458447265625,-0.0012929646763950586,0.0016937704058364034,-0.004878112114965916
1772535130209600500,3.7846005859375,-0.0006828344776295125,0.0022359900176525116,-0.004246144089847803
1772535130219616800,3.79461669921875,-0.0002109223569277674,0.002752909669652581,-0.004144144710153341
1772535130229632500,3.804632568359375,-0.00027084347675554454,0.0038149782922118902,-0.004860535264015198
1772535130239649500,3.8146494140625,0.0007677893154323101,0.0019182749092578888,-0.0039017973467707634
1772535130249665500,3.82466552734375,0.0000929443194763735,0.0030240193009376526,-0.0044408212415874004
1772535130259681500,3.834681640625,-0.0027113643009215593,0.003207511268556118,-0.005875199567526579
1772535130269697800,3.84469775390625,-0.0011827098205685616,0.0008082693675532937,-0.0049063414335250854
1772535130279714600,3.854714599609375,-0.000811997801065445,0.002159823663532734,-0.003668504301458597
1772535130289730600,3.86473046875,-0.0009382316493429244,0.004574778024107218,-0.004435494542121887
1772535130299746600,3.87474658203125,-0.001258876291103661,0.0027539748698472977,-0.00552233075723052
1772535130309762600,3.884762451171875,-0.000054861116950633004,0.002898584585636854,-0.004408597014844418
1772535130319778600,3.894778564453125,-0.001526257605291903,0.004290352575480938,-0.005849100649356842
1772535130329795600,3.904795654296875,-0.0014594122767448425,0.0021555626299232244,-0.004685565363615751
1772535130339811600,3.9148115234375,-0.0007358313887380064,0.002987001556903124,-0.004141481593251228
1772535130349827600,3.92482763671875,-0.0001704423048067838,0.0032525185961276293,-0.0031340080313384533
1772535130359843600,3.934843505859375,-0.0013616742799058557,0.00381417921744287,-0.003296727081760764
1772535130369859600,3.944859619140625,-0.0015643407823517919,0.00230789533816278,-0.002987001556903124
1772535130379876600,3.954876708984375,-0.00046818371629342437,0.001592037733644247,-0.00472657848149538
1772535130389892600,3.964892578125,-0.0008040083339437842,0.0019062906503677368,-0.004540157038718462
1772535130399908600,3.97490869140625,-0.0001906823308672756,0.003352919826284051,-0.00461579067632556
1772535130409924600,3.984924560546875,-0.0017992316279560328,0.003322825999930501,-0.003790477057918906
1772535130419940400,3.9949404296875,-0.0008921589469537139,0.0032735576387494802,-0.0022596921771764755
1772535130429957600,4.00495751953125,-0.00019973708549514413,0.002841060282662511,-0.004920190200209618
1772535130439973600,4.0149736328125,-0.00018908442871179432,0.003221359569579363,-0.005735650192946196
1772535130449989600,4.02498974609375,-0.0011680624447762966,0.0019718045368790627,-0.005528988782316446
1772535130460005600,4.035005615234375,-0.001113201375119388,0.002823483431711793,-0.004196875728666782
1772535130470021400,4.045021484375,-0.0004679173871409148,0.0024554345291107893,-0.004614459350705147
1772535130480038700,4.05503857421875,-0.001505751279182732,0.0016021577175706625,-0.004157460760325193
1772535130490054700,4.0650546875,-0.0010072075529024005,0.0020631509833037853,-0.004478638060390949
1772535130500070700,4.075070556640625,-0.0001816275907913223,0.003978762775659561,-0.005528456065803766
1772535130510086700,4.085086669921875,-0.00101120222825557,0.0011659319279715419,-0.0028599686920642853
1772535130520102400,4.095102294921875,-0.0006831008358858526,0.0021603561472147703,-0.0034938009921461344
1772535130530119700,4.10511962890625,-0.0012415656819939613,0.003120692213997245,-0.004053863696753979
1772535130540135700,4.1151357421875,-0.001273523666895926,0.002957174088805914,-0.004719654098153114
1772535130550151700,4.125151611328125,-0.0006452839006669819,0.0036847495939582586,-0.004524710588157177
1772535130560167400,4.13516748046875,-0.00039654469583183527,0.002460494404658675,-0.003236806020140648
1772535130570183400,4.145183349609375,0.0006058691651560366,0.0026791400741785765,-0.004238686989992857
1772535130580200700,4.15520068359375,0.00009108010999625549,0.00242081331089139,-0.00387383415363729
1772535130590216700,4.165216796875,-0.0011209244839847088,0.003436010330915451,-0.0043992758728563786
1772535130600232700,4.175232666015625,-0.00020985709852539003,0.0025811356026679277,-0.004574778024107218
1772535130610248400,4.18524853515625,-0.0012857741676270962,0.0030357372015714645,-0.005356948357075453
1772535130620264400,4.195264404296875,-0.00042583944741636515,0.0016234630020335317,-0.006387591827660799
1772535130630281500,4.205281494140625,-0.0008199872681871057,0.0018455706303939223,-0.0043505397625267506
1772535130640297700,4.215297607421875,-0.00021305288828443736,0.0022058964241296053,-0.004339354578405619
1772535130650313700,4.225313720703125,-0.002019741339609027,0.003450657706707716,-0.003294330323114991
1772535130660329500,4.23532958984375,0.00011345066013745964,0.0018580874893814325,-0.005680788774043322
1772535130670346500,4.245346435546875,-0.0013723268639296293,0.0031465247739106417,-0.004324440844357014
1772535130680362500,4.255362548828125,0.0001728391507640481,0.0015912387752905488,-0.0049468218348920345
1772535130690378800,4.265378662109375,-0.0013174657942727208,0.0037587855476886034,-0.004396346397697926
1772535130700394800,4.275394775390625,-0.000395745737478137,0.003614442190155387,-0.003567037871107459
1772535130710410500,4.285410400390625,-0.001109739183448255,0.0031039142049849033,-0.003240001853555441
1772535130720427500,4.295427490234375,-0.0009949569357559085,0.0029843382071703672,-0.0043737092055380344
1772535130730443500,4.305443603515625,-0.002882871776819229,0.0024525050539523363,-0.004905542824417353
1772535130740459800,4.315459716796875,-0.0004921521758660674,0.0026554379146546125,-0.003163302782922983
1772535130750475500,4.3254755859375,-0.0017547567840665579,0.0030064424499869347,-0.004817658569663763
1772535130760491500,4.335491455078125,0.0006428870838135481,0.0027510453946888447,-0.003234142903238535
1772535130770508500,4.345508544921875,-0.0014335796004161239,0.0031843415927141905,-0.005132177844643593
1772535130780524500,4.355524658203125,-0.0014761901693418622,0.002829076023772359,-0.004883171990513802
1772535130790540500,4.36554052734375,-0.0003249056462664157,0.0030511836521327496,-0.00440939562395215
1772535130800556500,4.375556640625,-0.0005105279851704836,0.0025308020412921906,-0.005646700505167246
1772535130810572500,4.385572509765625,-0.0004679173871409148,0.002427204977720976,-0.0038570561446249485
1772535130820589600,4.395589599609375,-0.001996571896597743,0.002038117265328765,-0.004592088516801596
1772535130830605600,4.40560546875,0.0007219829712994397,0.002115348819643259,-0.005435511935502291
1772535130840621600,4.41562158203125,-0.0002873550693038851,0.002389121800661087,-0.0033337450586259365
1772535130850637600,4.425637451171875,-0.0020005665719509125,0.0027478495612740517,-0.005920207127928734
1772535130860653600,4.435653564453125,-0.0006356965750455856,0.0024375913199037313,-0.005091165192425251
1772535130870670600,4.445670654296875,-0.0003235740587115288,0.0018511632224544883,-0.004935902543365955
1772535130880686600,4.4556865234375,-0.0006641923682764173,0.00180908537004143,-0.0044381581246852875
1772535130890702600,4.46570263671875,-0.0008111988427117467,0.002807770622894168,-0.005034972447901964
1772535130900718300,4.47571826171875,-0.0005408879951573908,0.002011219272390008,-0.005555087700486183
1772535130910734600,4.485734619140625,-0.0014381069922819734,0.003359045134857297,-0.0030890004709362984
1772535130920751600,4.495751708984375,0.00016218650853261352,0.002019474981352687,-0.004591822158545256
1772535130930767600,4.505767578125,-0.0009454221581108868,0.002752643311396241,-0.00714606000110507
1772535130940783600,4.51578369140625,0.0002884203568100929,0.003906058380380273,-0.006194246467202902
1772535130950799400,4.52579931640625,-0.0012913667596876621,0.002856240142136812,-0.003261040663346648
1772535130960815600,4.535815673828125,-0.0003075950953643769,0.0034589136485010386,-0.005328452680259943
1772535130970832600,4.54583251953125,-0.0010841728653758764,0.0017275925492867827,-0.004229366313666105
1772535130980848600,4.5558486328125,-0.00033396040089428425,0.0011108045000582933,-0.003674097126349807
1772535130990864600,4.56586474609375,-0.001978995045647025,0.002558232517912984,-0.0038868836127221584
1772535131000880400,4.57588037109375,0.0017030915478244424,0.0014442323008552194,-0.004382763989269733
1772535131010896400,4.585896484375,0.00044847631943412125,0.0029976540245115757,-0.004853610880672932
1772535131020913700,4.59591357421875,-0.0010548781137913465,0.0041063278913497925,-0.003852262394502759
1772535131030929700,4.6059296875,-0.0028461201582103968,0.0025917883031070232,-0.004489823244512081
1772535131040945400,4.6159453125,-0.0007246461464092135,0.001636246219277382,-0.004352137912064791
1772535131050961400,4.62596142578125,-0.0024655545130372047,0.0022985744290053844,-0.004166515544056892
1772535131060978700,4.635978759765625,0.0006330333999358118,0.0021164140198379755,-0.005672799423336983
1772535131070994700,4.64599462890625,-0.0008588694618083537,0.0032892702147364616,-0.00424268189817667
1772535131081010700,4.6560107421875,-0.002091646660119295,0.0020120181143283844,-0.004113784991204739
1772535131091026400,4.6660263671875,0.0005946838646195829,0.002674612682312727,-0.005059473216533661
1772535131101042400,4.67604248046875,0.0008026767172850668,0.002281796419993043,-0.004004328977316618
1772535131111059700,4.686059814453125,-0.0019137475173920393,0.0019086875254288316,-0.004505003336817026
1772535131121075700,4.69607568359375,-0.0006482133758254349,0.0024088292848318815,-0.003335609333589673
1772535131131091700,4.706091796875,0.00010652644414221868,0.002320412313565612,-0.004942027851939201
1772535131141107500,4.716107421875,-0.0005608617211692035,0.002700711600482464,-0.004026965703815222
1772535131151123500,4.72612353515625,-0.0008815063047222793,0.0023430490400642157,-0.0046514770947396755
1772535131161140700,4.736140625,-0.00115421402733773,0.0028687571175396442,-0.004744421225041151
1772535131171157000,4.746156982421875,-0.001055943313986063,0.0027454528026282787,-0.003923102747648954
1772535131181172700,4.7561728515625,-0.0015393070643767715,0.004307663068175316,-0.004086354281753302
1772535131191188700,4.766188720703125,-0.0009914948605000973,0.0027382622938603163,-0.0046394928358495235
1772535131201204700,4.776204833984375,-0.0008450209861621261,0.00173717993311584,-0.004171309061348438
1772535131211221800,4.7862216796875,-0.0012154667638242245,0.0028706213925033808,-0.0046304380521178246
1772535131221238000,4.796238037109375,-0.00037230990710668266,0.003163302782922983,-0.002907373011112213
1772535131231253800,4.806253662109375,-0.00005246427463134751,0.0030924626626074314,-0.0034698324743658304
1772535131241269800,4.816269775390625,-0.000031158982892520726,0.0024525050539523363,-0.004222441930323839
1772535131251285800,4.82628564453125,0.0006298375665210187,0.002907373011112213,-0.004179831128567457
1772535131261302800,4.836302734375,-0.0011611381778493524,0.0018080200534313917,-0.005036303773522377
1772535131271319000,4.846319091796875,-0.00013688647595699877,0.0022897860035300255,-0.004807005636394024
1772535131281334800,4.856334716796875,0.0005350290448404849,0.0037787591572850943,-0.004591555800288916
1772535131291350800,4.866350830078125,0.0001877528557088226,0.0016812535468488932,-0.004674912896007299
1772535131301366800,4.87636669921875,-0.0015821839915588498,0.0035870117135345936,-0.003486876841634512
1772535131311383800,4.8863837890625,0.000538491178303957,0.0020932445768266916,-0.0036213663406670094
1772535131321399800,4.89639990234375,-0.0007936219917610288,0.0010913633741438389,-0.004071706905961037
1772535131331415800,4.906415771484375,-0.0009653958841226995,0.002511893631890416,-0.002691656816750765
1772535131341431800,4.916431884765625,0.00009507485083304346,0.0015936355339363217,-0.005391037091612816
1772535131351447800,4.92644775390625,-0.001431182725355029,0.001651692553423345,-0.0031220237724483013
1772535131361464800,4.93646484375,-0.001163268811069429,0.002115881536155939,-0.0031281490810215473
1772535131371480600,4.94648046875,-0.001448759576305747,0.0019086875254288316,-0.004916728008538485
1772535131381496800,4.956496826171875,-0.00045593318645842373,0.003855458227917552,-0.004254399798810482
1772535131391512800,4.966512939453125,-0.000594950164668262,0.0018916432745754719,-0.004043477587401867
1772535131401529900,4.97652978515625,-0.0002641855680849403,0.003518834710121155,-0.004679440520703793
1772535131411545900,4.9865458984375,-0.0006764429272152483,0.001981924520805478,-0.004572381265461445
1772535131421561600,4.9965615234375,-0.0013701963471248746,0.0028365328907966614,-0.004102333448827267
1772535131431577900,5.006577880859375,0.0004822984628845006,0.003710582386702299,-0.0038306908681988716
1772535131441593900,5.01659375,-0.00027377295191399753,0.001278849900700152,-0.004187554586678743
1772535131451611000,5.02661083984375,-0.0011523497523739934,0.0022421153262257576,-0.004503405187278986
1772535131461627000,5.036626953125,-0.0005856291390955448,0.002019208623096347,-0.005259210709482431
1772535131471642600,5.046642578125,-0.0015949672088027,0.0017294568242505193,-0.003346528159454465
1772535131481658600,5.05665869140625,-0.0017241304740309715,0.0015028218040242791,-0.005052016582340002
1772535131491675000,5.0666748046875,-0.002898584585636854,0.003596598980948329,-0.005138036794960499
1772535131501692000,5.07669189453125,-0.0006090649403631687,0.002941993996500969,-0.004456267226487398
1772535131511708000,5.0867080078125,-0.0009898969437927008,0.0028277444653213024,-0.003820837242528796
1772535131521723600,5.0967236328125,-0.0020817930344492197,0.0032924660481512547,-0.004486361052840948
1772535131531739600,5.10673974609375,-0.0005374259199015796,0.0014945659786462784,-0.004403270315378904
1772535131541756000,5.116755859375,-0.0003456783015280962,0.0016535567119717598,-0.004457332659512758
1772535131551773000,5.12677294921875,-0.00008415588672505692,0.0031638352666050196,-0.0037997981999069452
1772535131561788700,5.13678857421875,-0.0009195895399898291,0.0025063008069992065,-0.004226702731102705
1772535131571804700,5.1468046875,-0.0006791060441173613,0.0021883193403482437,-0.004297809209674597
1772535131581820700,5.156820556640625,0.00004900216299574822,0.0023039006628096104,-0.0048922267742455006
1772535131591837000,5.1668369140625,0.00003382214708835818,0.003209641668945551,-0.0046506780199706554
1772535131601854000,5.17685400390625,-0.000570981705095619,0.003552390495315194,-0.002412557601928711
1772535131611869700,5.18686962890625,-0.0008351673022843897,0.0021611552219837904,-0.003625893732532859
1772535131621885700,5.1968857421875,-0.0021587584633380175,0.001776328426785767,-0.003984888084232807
1772535131631901700,5.206901611328125,-0.000803209375590086,0.002286856295540929,-0.004849350079894066
1772535131641917700,5.216917724609375,-0.0005291700945235789,0.0023039006628096104,-0.0028533106669783592
1772535131651935000,5.22693505859375,-0.0008391620358452201,0.002062085550278425,-0.0034314829390496016
1772535131661950700,5.23695068359375,-0.0010586065473034978,0.003771835006773472,-0.004712729714810848
1772535131671966700,5.246966796875,-0.0008580705034546554,0.0015909724170342088,-0.004454935900866985
1772535131681982700,5.256982666015625,-0.0006719155353493989,0.0012338425731286407,-0.0062453788705170155
1772535131691998700,5.266998779296875,-0.00012223910016473383,0.0031430625822395086,-0.005380650516599417
1772535131702016000,5.27701611328125,-0.00045566685730591416,0.001568069215863943,-0.005014998838305473
1772535131712031700,5.28703173828125,-0.00040000680019147694,0.0029891319572925568,-0.0032597091048955917
1772535131722047700,5.2970478515625,-0.0021052288357168436,0.0016990967560559511,-0.004433896858245134
1772535131735819800,5.31081982421875,-0.0013579458463937044,0.002831206424161792,-0.0040946099907159805
1772535131745835800,5.320835693359375,-0.0006788397440686822,0.002709766384214163,-0.004874916281551123
1772535131755852800,5.330852783203125,-0.001957423286512494,0.002712962217628956,-0.005613943561911583
1772535131765868800,5.340868896484375,0.0006354302167892456,0.002546514617279172,-0.004711132030934095
1772535131775884800,5.350884765625,0.00006178533658385277,0.0020266654901206493,-0.0031561122741550207
1772535131785900800,5.36090087890625,-0.0012343751732259989,0.0031646343413740396,-0.004918325692415237
1772535131795917800,5.370917724609375,0.00015180018090177327,0.0030269487760961056,-0.005821669939905405
1772535131805933800,5.380933837890625,-0.0019856528379023075,0.0018551580142229795,-0.004649080336093903
1772535131815949800,5.39094970703125,-0.0017014936311170459,0.0024085629265755415,-0.005061337724328041
1772535131825965800,5.4009658203125,-0.0004724447790067643,0.0031196267809718847,-0.004021639470010996
1772535131835981800,5.41098193359375,-0.0009885653853416443,0.0018210695125162601,-0.004233627114444971
1772535131845998800,5.420998779296875,-0.001487109111621976,0.0019568908028304577,-0.005410211626440287
1772535131856014800,5.431014892578125,-0.0007310376968234777,0.0024607607629150152,-0.004209924954921007
1772535131866030600,5.441030517578125,-0.0009390306076966226,0.0023347933311015368,-0.001882854849100113
1772535131876046800,5.451046875,-0.0016767261549830437,0.002645584288984537,-0.0049153962172567844
1772535131886062800,5.461062744140625,-0.000050600061513250694,0.003915645647794008,-0.0037614486645907164
1772535131896080000,5.471079833984375,-0.0019212043844163418,0.0030746194534003735,-0.0018226674292236567
1772535131906095600,5.481095703125,-0.0003608583356253803,0.0035079156514257193,-0.004798217210918665
1772535131916111600,5.491111572265625,-0.0011909656459465623,0.0022884542122483253,-0.004471980035305023
1772535131926127900,5.5011279296875,-0.0010122675448656082,0.003266899613663554,-0.0038810246624052525
1772535131936144000,5.511143798828125,-0.0020397149492055178,0.00276063266210258,-0.004483431577682495
1772535131946161000,5.521160888671875,-0.0007531419396400452,0.0034554514568299055,-0.00472444761544466
1772535131956176600,5.5311767578125,-0.0028935244772583246,0.00296276668086648,-0.0034061830956488848
1772535131966192600,5.541192626953125,-0.0001597896625753492,0.002210689941421151,-0.005284776911139488
1772535131976209000,5.551208984375,0.000708134553860873,0.002715891692787409,-0.004757470916956663
1772535131986225000,5.561224853515625,-0.0009957558941096067,0.0034471957478672266,-0.004476507660001516
1772535131996242000,5.571241943359375,-0.0015504923649132252,0.0022975089959800243,-0.004490622319281101
1772535132006257700,5.581257568359375,0.00010972223390126601,0.0025534387677907944,-0.0034378746058791876
1772535132016273700,5.591273681640625,-0.001249821507371962,0.003334543900564313,-0.0023987090680748224
1772535132026289700,5.60128955078125,0.00006711165769957006,0.0022591594606637955,-0.00487198680639267
1772535132036306000,5.611305908203125,0.0002205097407568246,0.004348675720393658,-0.003811782458797097
1772535132046323000,5.621322998046875,-0.00027031084755435586,0.002639725338667631,-0.0036780918017029762
1772535132056338700,5.631338623046875,-0.0012532835826277733,0.00216594897210598,-0.003979827743023634
1772535132066354700,5.641354736328125,-0.0011709919199347496,0.003721234854310751,-0.003610979998484254
1772535132076370700,5.65137060546875,-0.0006838997360318899,0.0032266860362142324,-0.004089550115168095
1772535132086388000,5.661387939453125,-0.0001704423048067838,0.0023148194886744022,-0.003665308468043804
1772535132096403700,5.67140380859375,-0.00046365635353140533,0.003001648932695389,-0.00461632339283824
1772535132106419700,5.681419677734375,0.00013901700731366873,0.0025771409273147583,-0.004027232062071562
1772535132116435700,5.691435791015625,-0.0004972121678292751,0.0034171019215136766,-0.004308728501200676
1772535132126451700,5.70145166015625,-0.0012013519881293178,0.0017827199772000313,-0.0033595776185393333
1772535132136469000,5.711468994140625,-0.0006050702068023384,0.0041524008847773075,-0.0030485205352306366
1772535132146484700,5.721484619140625,-0.0017417073249816895,0.0019489012192934752,-0.00421338714659214
1772535132156500700,5.731500732421875,-0.0009677927591837943,0.002912965603172779,-0.0048797097988426685
1772535132166516700,5.741516845703125,-0.0005262406193651259,0.002525209216400981,-0.00498144282028079
1772535132176532700,5.75153271484375,-0.002329467097297311,0.0030479878187179565,-0.003933488857001066
1772535132186549800,5.7615498046875,-0.0003664509567897767,0.0029702235478907824,-0.0024945829063653946
1772535132196565500,5.7715654296875,0.00009693906031316146,0.0031486554071307182,-0.004257595632225275
1772535132206581500,5.78158154296875,-0.0008436894277110696,0.003543602069839835,-0.002287655370309949
1772535132216597800,5.79159765625,-0.0010351707460358739,0.0022953785955905914,-0.0041489386931061745
1772535132226613800,5.80161376953125,0.0003736414946615696,0.0020330571569502354,-0.00433189794421196
1772535132236630800,5.811630859375,-0.00044528054422698915,0.0024343954864889383,-0.005301288329064846
1772535132246646500,5.821646484375,0.0004958806093782187,0.001984587637707591,-0.004284759983420372
1772535132256662500,5.83166259765625,-0.0012903015594929457,0.0033515882678329945,-0.0038605183362960815
1772535132266678500,5.841678466796875,-0.0009366337326355278,0.002376604825258255,-0.0033755565527826548
1772535132276694800,5.85169482421875,-0.0004886900424025953,0.002511893631890416,-0.004746019374579191
1772535132286711800,5.8617119140625,-0.0018423747969791293,0.002037318190559745,-0.0023374564480036497
1772535132296727600,5.8717275390625,-0.0016471651615574956,0.0027057717088609934,-0.003073554253205657
1772535132306743600,5.88174365234375,-0.0015928366919979453,0.002369148191064596,-0.0062214103527367115
1772535132316759600,5.891759521484375,-0.0019912454299628735,0.0025100293569266796,-0.0051625375635921955
1772535132326775800,5.90177587890625,-0.0013795174891129136,0.002301770029589534,-0.0049135321751236916
1772535132336792800,5.911792724609375,-0.00009081379539566115,0.0033784860279411077,-0.004760134033858776
1772535132346808600,5.92180859375,-0.0010287790792062879,0.002597114769741893,-0.004886367823928595
1772535132356824600,5.931824462890625,0.00010626012954162434,0.0017041567480191588,-0.005076784174889326
1772535132366840600,5.941840576171875,-0.001166198286227882,0.0018343853298574686,-0.004448011517524719
1772535132376856800,5.95185693359375,-0.000300404557492584,0.003346528159454465,-0.003406715579330921
1772535132386873600,5.96187353515625,-0.0007568703731521964,0.0036727653350681067,-0.004192880820482969
1772535132396889600,5.9718896484375,-0.0005171858938410878,0.0035569178871810436,-0.004378769546747208
1772535132406905600,5.981905517578125,-0.0023246733471751213,0.003239202778786421,-0.004235757514834404
1772535132416921600,5.991921630859375,-0.0005528722540475428,0.002751844236627221,-0.005091431550681591
1772535132426937600,6.0019375,-0.0009776464430615306,0.003335076617076993,-0.0038163098506629467
1772535132436954600,6.01195458984375,-0.0018788601737469435,0.0021939121652394533,-0.006148173473775387
1772535132446970600,6.021970703125,-0.0007848335662856698,0.0026615632232278585,-0.0060142166912555695
1772535132456986600,6.031986572265625,-0.0006442186422646046,0.0032858080230653286,-0.0037081853952258825
1772535132467002600,6.042002685546875,-0.0013733921805396676,0.0017528926255181432,-0.004346012603491545
1772535132477018600,6.0520185546875,-0.00041678472189232707,0.0023545008152723312,-0.004066913388669491
1772535132487035600,6.06203564453125,-0.0003376888344064355,0.0021995047573000193,-0.004516987595707178
1772535132497051600,6.0720517578125,-0.000041545314161339775,0.004237089306116104,-0.005212338641285896
1772535132507067600,6.082067626953125,-0.00010253170330543071,0.003841609926894307,-0.004352137912064791
1772535132517083600,6.092083740234375,-0.0000673779723001644,0.0026674221735447645,-0.00478543434292078
1772535132527101000,6.102100830078125,-0.0005320995696820319,0.0024498419370502234,-0.0025563682429492474
1772535132537116700,6.11211669921875,-0.0007571366732008755,0.002695651724934578,-0.004588626325130463
1772535132547132700,6.122132568359375,-0.000574177538510412,0.0019318570848554373,-0.0025752766523510218
1772535132557148700,6.132148681640625,-0.0016431703697890043,0.002192580606788397,-0.00395799009129405
1772535132567164700,6.14216455078125,-0.0007017429452389479,0.0019014970166608691,-0.004306064918637276
1772535132577181700,6.152181640625,-0.00021651499264407903,0.003136138431727886,-0.0028365328907966614
1772535132587197700,6.16219775390625,0.0011973571963608265,0.0026136261876672506,-0.003528155852109194
1772535132597213700,6.172213623046875,-0.0012173309223726392,0.003683684393763542,-0.007000385317951441
1772535132607229700,6.182229736328125,-0.001118527608923614,0.0032115059439092875,-0.0043739755637943745
1772535132617245700,6.19224560546875,-0.0013789847726002336,0.002802710747346282,-0.0026293389964848757
1772535132627262700,6.2022626953125,-0.000794420950114727,0.0028125643730163574,-0.004922853317111731
1772535132637278700,6.21227880859375,-0.0011616708943620324,0.002590989461168647,-0.0030248183757066727
1772535132647294700,6.222294677734375,-0.0020639498252421618,0.003959055058658123,-0.00461632339283824
1772535132657310700,6.232310791015625,-0.00222027744166553,0.002026133006438613,-0.004372111521661282
1772535132667326700,6.24232666015625,-0.00016831177345011383,0.002469815546646714,-0.004042944870889187
1772535132677343500,6.252343505859375,0.00008229167724493891,0.0021755362395197153,-0.004062652122229338
1772535132687359500,6.262359375,-0.001445830101147294,0.0035324168857187033,-0.0031108383554965258
1772535132697375700,6.272375732421875,-0.0001661812566453591,0.003665574826300144,-0.004720985423773527
1772535132707391700,6.282391845703125,-0.0005744438385590911,0.0028152274899184704,-0.004083424806594849
1772535132717407700,6.29240771484375,0.00006364954606397077,0.0031425300985574722,-0.0032376048620790243
1772535132727424500,6.302424560546875,0.00010519486386328936,0.0014927018200978637,-0.005579322576522827
1772535132737440500,6.3124404296875,-0.00022264027211349458,0.002457032445818186,-0.004833104554563761
1772535132747456800,6.322456787109375,-0.001014664419926703,0.0022985744290053844,-0.004054662771522999
1772535132757472800,6.33247265625,-0.001160072977654636,0.0034288198221474886,-0.0037638454232364893
1772535132767488800,6.34248876953125,-0.0019520970527082682,0.0021065603941679,-0.004799016285687685
1772535132777505500,6.352505615234375,-0.000007723167072981596,0.0024413196370005608,-0.004189418628811836
1772535132787521500,6.362521484375,0.00038962045800872147,0.0020564929582178593,-0.0034911378752440214
1772535132797537800,6.372537841796875,-0.0012282498646527529,0.0025214808993041515,-0.0026439863722771406
1772535132807553800,6.3825537109375,-0.0011014834744855762,0.0020450414158403873,-0.004255465231835842
1772535132817569800,6.39256982421875,-0.0014652712270617485,0.0019441075855866075,-0.004986502695828676
1772535132827586600,6.402586669921875,-0.0008484831196255982,0.0035840822383761406,-0.004444815684109926
1772535132837602600,6.4126025390625,-0.0018996327416971326,0.0037617150228470564,-0.004609399009495974
1772535132847618600,6.42261865234375,-0.0011709919199347496,0.0028565065003931522,-0.0036970002111047506
1772535132857634800,6.432634765625,0.0012207929976284504,0.003049053018912673,-0.004145210143178701
1772535132867650800,6.44265087890625,-0.00039015308720991015,0.0046631949953734875,-0.004173705819994211
1772535132877667600,6.45266748046875,-0.0013664679136127234,0.002257827902212739,-0.0026871294248849154
1772535132887683600,6.46268359375,0.00013555490295402706,0.0018783274572342634,-0.00436065997928381
1772535132897699600,6.472699462890625,-0.0010703244479373097,0.002787797013297677,-0.004303135443478823
1772535132907715800,6.4827158203125,0.00007270430069183931,0.0032751555554568768,-0.0048890309408307076
1772535132917732600,6.492732666015625,-0.0015211976133286953,0.001913214917294681,-0.003989148885011673
1772535132927748600,6.50274853515625,-0.00006764429417671636,0.003683151677250862,-0.004623514134436846
1772535132937764600,6.5127646484375,-0.0013677994720637798,0.0030924626626074314,-0.0049284459091722965
1772535132947780600,6.522780517578125,-0.0003475425182841718,0.002397643867880106,-0.0038216360844671726
1772535132957796600,6.532796630859375,-0.00008921589324017987,0.0022511701099574566,-0.0036037894897162914
1772535132967812900,6.542812744140625,-0.0013379721203818917,0.0022003035992383957,-0.0027739484794437885
1772535132977829600,6.55282958984375,0.00008974852971732616,0.0020213392563164234,-0.0032589102629572153
1772535132987845600,6.562845703125,-0.00047590688336640596,0.0031907332595437765,-0.005038168281316757
1772535132997861600,6.572861572265625,-0.0009299758239649236,0.003020290983840823,-0.00561181316152215
1772535133007877600,6.582877685546875,-2.6631610694494157e-7,0.0008234494016505778,-0.004710332956165075
1772535133017894700,6.592894775390625,-0.0015012238873168826,0.001788312685675919,-0.004003263544291258
1772535133027910700,6.60291064453125,-0.0011323761427775025,0.0023614249657839537,-0.005013134330511093
1772535133037926700,6.6129267578125,-0.0037348170299082994,0.0017438378417864442,-0.004721518140286207
1772535133047942700,6.622942626953125,-0.0008932242053560913,0.002110288944095373,-0.003549993736669421
1772535133057958700,6.632958740234375,-0.0019377160351723433,0.002469815546646714,-0.0025864620693027973
1772535133067975700,6.6429755859375,0.0008671252289786935,0.002299373270943761,-0.0035169704351574183
1772535133077991700,6.65299169921875,-0.0018615495646372437,0.0032415995374321938,-0.005105546209961176
1772535133088007700,6.663007568359375,-0.0017829863354563713,0.0019624833948910236,-0.0033220271579921246
1772535133098023700,6.673023681640625,-0.0005906891310587525,0.0029859361238777637,-0.005635248962789774
1772535133108039700,6.683039794921875,-0.0006609965930692852,0.0022927154786884785,-0.0046791741624474525
1772535133118056700,6.693056640625,-0.0011970909545198083,0.002490321872755885,-0.003099919529631734
1772535133128072700,6.70307275390625,-0.001416269107721746,0.002171275205910206,-0.00418276060372591
1772535133138088700,6.713088623046875,-0.001047421246767044,0.0021193434949964285,-0.004518851637840271
1772535133148104700,6.723104736328125,-0.002263953210785985,0.002261556452140212,-0.005397961009293795
1772535133158120700,6.73312060546875,-0.001919073867611587,0.004286890383809805,-0.0027212179265916348
1772535133168137500,6.743137451171875,-0.000046871635277057067,0.0033071134239435196,-0.0034437335561960936
1772535133178153500,6.753153564453125,0.00015659387281630188,0.0018434401135891676,-0.003710582386702299
1772535133188169700,6.763169677734375,-0.0011022823164239526,0.0022559636272490025,-0.004895422607660294
1772535133198185700,6.773185791015625,0.0025933862198144197,0.001210406655445695,-0.0030458574183285236
1772535133208201700,6.78320166015625,-0.00011611382069531828,0.003310841741040349,-0.0036306874826550484
1772535133218218500,6.793218505859375,-0.0005014732014387846,0.002606702037155628,-0.005018460564315319
1772535133228234500,6.803234375,-0.0002665824140422046,0.00166607357095927,-0.0031036478467285633
1772535133238250500,6.81325048828125,-0.002234924817457795,0.0024674187880009413,-0.0013907026732340455
1772535133248266800,6.823266845703125,-0.0014330470003187656,0.0028101676143705845,-0.005018726922571659
1772535133258282800,6.83328271484375,-0.0007278419216163456,0.00381391285918653,-0.003707120195031166
1772535133268299500,6.843299560546875,-0.001344896387308836,0.0019126823171973228,-0.004912200383841991
1772535133278315500,6.8533154296875,-0.0012274509062990546,0.002558232517912984,-0.003177950158715248
1772535133288331500,6.86333154296875,-0.0012993563432246447,0.003430684097111225,-0.00398755120113492
1772535133298347800,6.87334765625,-0.0007608651067130268,0.0028823392931371927,-0.0028519791085273027
1772535133308363800,6.88336376953125,-0.0010479538468644023,0.0028357338160276413,-0.0027387947775423527
1772535133318380500,6.893380615234375,-0.0015374429058283567,0.0035507925786077976,-0.005278651602566242
1772535133328396500,6.903396484375,-0.0011696603614836931,0.003693005535751581,-0.0058080879971385
1772535133338412500,6.91341259765625,0.000609863898716867,0.003364105010405183,-0.0038538603112101555
1772535133348428500,6.923428466796875,-0.0013544837711378932,0.002660498023033142,-0.004428304266184568
1772535133358444800,6.93344482421875,-0.000630636524874717,0.002743055811151862,-0.004041080828756094
1772535133368461600,6.943461669921875,-0.0000029294772048160667,0.0023244069889187813,-0.003644003299996257
1772535133378477600,6.9534775390625,-0.0002663161139935255,0.0027925907634198666,-0.0038549257442355156
1772535133388493600,6.96349365234375,-0.0005973470397293568,0.002674079965800047,-0.0036858150269836187
1772535133398509600,6.973509521484375,-0.000303334032651037,0.002070607617497444,-0.004581702407449484
1772535133408525800,6.98352587890625,0.00014647385978605598,0.003448527306318283,-0.0041188448667526245
1772535133418542600,6.99354248046875,-0.0019941749051213264,0.0030301446095108986,-0.005952164996415377
1772535133428558600,7.00355859375,-0.00038242992013692856,0.002228266792371869,-0.004913798533380032
1772535133438574600,7.01357470703125,-0.00072597770486027,0.003689010627567768,-0.0038272286765277386
1772535133448590600,7.023590576171875,-0.00007243797881528735,0.001990979304537177,-0.004791559185832739
1772535133458606600,7.033606689453125,-0.002459961920976639,0.002139050979167223,-0.0025513083674013615
1772535133468623600,7.04362353515625,0.00042450788896530867,0.0026080335956066847,-0.004461327567696571
1772535133478639600,7.0536396484375,0.0003022687742486596,0.0033164345659315586,-0.004986502695828676
1772535133488655600,7.063655517578125,-0.0014045510906726122,0.0012551478575915098,-0.004471713677048683
1772535133498671600,7.073671630859375,-0.0005217132274992764,0.002776079112663865,-0.005106078926473856
1772535133508687600,7.0836875,-0.0011555455857887864,0.003959055058658123,-0.004240285139530897
1772535133518704600,7.09370458984375,0.0007241134881041944,0.0018588864477351308,-0.003674097126349807
1772535133528720600,7.103720703125,-0.0013635384384542704,0.003460511565208435,-0.004001932218670845
1772535133538736600,7.113736572265625,-0.0008396946941502392,0.0024676851462572813,-0.003156644757837057
1772535133548752600,7.123752685546875,0.00012490226072259247,0.002630670554935932,-0.0022951122373342514
1772535133558768400,7.133768310546875,-0.001776594785042107,0.002651443239301443,-0.0033870083279907703
1772535133568785700,7.14378564453125,-0.001311873085796833,0.0036128442734479904,-0.00432976707816124
1772535133578801700,7.1538017578125,-0.0008820389630272985,0.002939597237855196,-0.003977697342634201
1772535133588817700,7.163817626953125,-0.0007872303831391037,0.0029984530992805958,-0.00267807487398386
1772535133598833700,7.173833740234375,-0.001118793967179954,0.0027052389923483133,-0.0029792783316224813
1772535133608849400,7.183849365234375,-0.000928111607208848,0.0018647453980520368,-0.002552639925852418
1772535133618866700,7.19386669921875,-0.0012833772925660014,0.003117230022326112,-0.005364405456930399
1772535133628882700,7.203882568359375,-0.0014037522487342358,0.0023963123094290495,-0.0031137678306549788
1772535133638898700,7.213898681640625,-0.0009531453251838684,0.0027827369049191475,-0.004880508873611689
1772535133648914700,7.223914794921875,-0.0012245214311406016,0.0024913870729506016,-0.004140949342399836
1772535133658930400,7.233930419921875,-0.0005262406193651259,0.0027505126781761646,-0.004602208733558655
1772535133668947700,7.24394775390625,-0.0020213392563164234,0.004314587451517582,-0.00472524669021368
1772535133678963700,7.253963623046875,-0.0005097290268167853,0.0019590212032198906,-0.0036796897184103727
1772535133688979700,7.263979736328125,0.00004394215648062527,0.0027438548859208822,-0.003913248889148235
1772535133698995700,7.27399560546875,-0.000666589243337512,0.0029734193813055754,-0.0018935075495392084
1772535133709011500,7.284011474609375,-0.0013132047606632113,0.0023552996572107077,-0.004898618441075087
1772535133719028700,7.29402880859375,-0.001079645473510027,0.001981924520805478,-0.003984355367720127
1772535133729044700,7.304044677734375,0.00010146643762709573,0.0018586200894787908,-0.00424268189817667
1772535133739060700,7.314060791015625,-0.0005299690528772771,0.002757969545200467,-0.004850149154663086
1772535133749076500,7.324076416015625,-0.0007664577569812536,0.0016269250772893429,-0.0035515916533768177
1772535133759092500,7.334092529296875,-0.0021728731226176023,0.0031585090328007936,-0.0032929987646639347
1772535133769109500,7.344109619140625,0.0003933488915208727,0.003329484025016427,-0.0038746329955756664
1772535133779125800,7.354125732421875,0.00014088122406974435,0.002695651724934578,-0.0034413367975503206
1772535133789141800,7.364141845703125,-0.0016951019642874599,0.0027449200861155987,-0.005138835404068232
1772535133799157500,7.374157470703125,-0.000004261057711119065,0.0021856562234461308,-0.004453604109585285
1772535133809173500,7.384173583984375,-0.0007819040911272168,0.0011925635626539588,-0.003638410707935691
1772535133819190500,7.3941904296875,-0.0005246427026577294,0.003376621985808015,-0.0028764803428202868
1772535133829206800,7.404206787109375,0.00044288369826972485,0.002767290687188506,-0.0038719698786735535
1772535133839222800,7.414222900390625,-0.00020959076937288046,0.0033222935162484646,-0.004252003040164709
1772535133849238500,7.424238525390625,-0.001044225413352251,0.0021558289881795645,-0.0046173888258636
1772535133859254500,7.434254638671875,-0.0011238539591431618,0.0013382384786382318,-0.0019888486713171005
1772535133869271600,7.444271484375,-0.0005869606975466013,0.001716939965263009,-0.0034916705917567015
1772535133879287800,7.454287841796875,-0.0014314490836113691,0.0012892362428829074,-0.002570749493315816
1772535133889303800,7.4643037109375,-0.0006964165950194001,0.002712695859372616,-0.004591822158545256
1772535133899319600,7.474319580078125,-0.0008724515791982412,0.002701510675251484,-0.002683933824300766
1772535133909335600,7.48433544921875,-0.0012405004817992449,0.003677292726933956,-0.005340170580893755
1772535133919352600,7.4943525390625,-0.0012708604335784912,0.0020743361674249172,-0.005015264730900526
1772535133929368600,7.50436865234375,-0.0010761833982542157,0.0018359832465648651,-0.004506601020693779
1772535133939384600,7.514384521484375,-0.000666322885081172,0.002816825406625867,-0.002374474424868822
1772535133949400600,7.524400634765625,-0.0016500946367159486,0.002757703186944127,-0.005258145276457071
1772535133959416600,7.53441650390625,-0.0009262474486604333,0.0012567456578835845,-0.00443922309204936
1772535133969432600,7.5444326171875,-0.0015515576815232635,0.0032498554792255163,-0.004899950232356787
1772535133979449600,7.55444970703125,0.00025246766745112836,0.0030301446095108986,-0.0035380094777792692
1772535133989465600,7.564465576171875,-0.0006119944155216217,0.0022977753542363644,-0.0036312201991677284
1772535133999481600,7.574481689453125,0.0006181196658872068,0.003192064817994833,-0.00472577940672636
1772535134009497600,7.58449755859375,-0.0007765777409076691,0.0028767467010766268,-0.003635481232777238
1772535134019514600,7.5945146484375,0.00005912217602599412,0.0027718180790543556,-0.005634449888020754
1772535134029530600,7.604530517578125,-0.0003656520275399089,0.0025156219489872456,-0.004530303180217743
1772535134039546400,7.61454638671875,-0.001148088718764484,0.0020359866321086884,-0.004702343605458736
1772535134049562600,7.624562744140625,-0.0015707324491813779,0.0027422569692134857,-0.004613127559423447
1772535134059578600,7.63457861328125,0.00003888214996550232,0.0019028285751119256,-0.004421113524585962
1772535134069594600,7.6445947265625,0.00011211907985853031,0.002642654813826084,-0.004518585279583931
1772535134079611600,7.654611572265625,-0.00019893812714144588,0.0031004520133137703,-0.003952131140977144
1772535134089627400,7.66462744140625,-0.0015345134306699038,0.0038602519780397415,-0.0056770602241158485
1772535134099643600,7.6746435546875,0.0004090615548193455,0.002404035534709692,-0.0043678502552211285
1772535134109659600,7.68465966796875,0.0002103897277265787,0.002484729280695319,-0.003662112867459655
1772535134119675600,7.694675537109375,-0.0009060074225999415,0.0016785904299467802,-0.005711681675165892
1772535134129692700,7.704692626953125,-0.00048655952559784055,0.0029606360476464033,-0.00421338714659214
1772535134139708400,7.71470849609375,-0.0007249124464578927,0.0018330537714064121,-0.003692206460982561
1772535134149724700,7.724724609375,-0.0019289276096969843,0.0031212246976792812,-0.0036858150269836187
1772535134159740700,7.73474072265625,-0.0009749832679517567,0.0028674255590885878,-0.003713245503604412
1772535134169756200,7.744756103515625,-0.0015994944842532277,0.0021931130904704332,-0.004956675227731466
1772535134179773400,7.7547734375,-0.0027302727103233337,0.0021113541442900896,-0.0035566515289247036
1772535134189789200,7.7647890625,-0.0002335592289455235,0.003147589974105358,-0.0035832831636071205
1772535134199805200,7.77480517578125,-0.0004801679460797459,0.0024458470288664103,-0.004387291613966227
1772535134209821200,7.7848212890625,-0.0020391824655234814,0.0023960459511727095,-0.004241084214299917
1772535134219837200,7.794837158203125,-0.0013827132061123848,0.0026841999497264624,-0.003953995183110237
1772535134229854500,7.8048544921875,-0.000955009541939944,0.0019172097090631723,-0.0057343184016644955
1772535134239870200,7.8148701171875,-0.0015696671325713396,0.0021225393284112215,-0.004058923572301865
1772535134249886200,7.82488623046875,-0.0005408879951573908,0.002153964713215828,-0.003734018187969923
1772535134259902200,7.834902099609375,0.0014330470003187656,0.0031292142812162638,-0.0052472264505922794
1772535134269918200,7.844918212890625,-0.0002103897277265787,0.0012926984345540404,-0.0035332157276570797
1772535134279935200,7.854935302734375,-0.0017158746486529708,0.0016322514275088906,-0.004295678809285164
1772535134289951200,7.864951171875,-0.0012311793398112059,0.0022620889358222485,-0.005486377980560064
1772535134299967200,7.87496728515625,-0.00005752427750849165,0.0029675604309886694,-0.002251702593639493
1772535134309983200,7.884983154296875,-0.00022317290131468326,0.0021811288315802813,-0.004442152567207813
1772535134319999200,7.894999267578125,-0.00014913702034391463,0.0030799456872045994,-0.006006493698805571
1772535134330016300,7.905016357421875,-0.0011355718597769737,0.0019033611752092838,-0.004791559185832739
1772535134340032300,7.9150322265625,0.0009329052991233766,0.0032565132714807987,-0.005486377980560064
1772535134350048300,7.92504833984375,-0.001017593895085156,0.0027454528026282787,-0.004640824627131224
1772535134360064300,7.935064208984375,-0.0008820389630272985,0.0030477214604616165,-0.0034016557037830353
1772535134370080300,7.945080322265625,-0.0020538298413157463,0.0038751657120883465,-0.0043891556560993195
1772535134380097000,7.955096923828125,-0.0006194512825459242,0.00296250032261014,-0.003693005535751581
1772535134390113000,7.965113037109375,-0.0010349043877795339,0.002840793924406171,-0.005288505461066961
1772535134400129300,7.97512939453125,-0.001540638622827828,0.0015664712991565466,-0.0054184673354029655
1772535134410145300,7.985145263671875,-0.0021374530624598265,0.0031968585681170225,-0.003573695896193385
1772535134420161300,7.995161376953125,-0.0028730181511491537,0.0019656792283058167,-0.004093811381608248
1772535134430178000,8.005177978515626,-0.0003552656853571534,0.0028309402987360954,-0.0023094932548701763
1772535134440194000,8.015194091796875,0.0003563309437595308,0.002743055811151862,-0.004581169690936804
1772535134450210300,8.025210205078125,-0.0015217302134260535,0.0023451796732842922,-0.0036426717415452003
1772535134460226300,8.035226318359374,-0.0005733785801567137,0.002441852353513241,-0.00304692261852324
1772535134470242300,8.0452421875,0.0010684601729735732,0.00387303507886827,-0.0055092815309762955
1772535134480259000,8.055259033203125,-0.0010002832859754562,0.0021909826900810003,-0.0039145806804299355
1772535134490275000,8.065275146484375,-0.00018695391190703958,0.0021470405627042055,-0.004246676806360483
1772535134500291300,8.075291259765624,-0.000368847802747041,0.003254382871091366,-0.0038032603915780783
1772535134510307300,8.085307373046875,0.000368847802747041,0.0029824741650372744,-0.004070641472935677
1772535134520323300,8.0953232421875,-0.0013486248208209872,0.0030780816450715065,-0.004070641472935677
1772535134530340000,8.105340087890625,-0.0002713761059567332,0.0034021881874650717,-0.004206196404993534
1772535134540356000,8.115356201171876,-0.0004010720585938543,0.0022418489679694176,-0.003364637726917863
1772535134550372000,8.1253720703125,0.0005400890368036926,0.003162237349897623,-0.00478330347687006
1772535134560388400,8.135388427734375,-0.0009629990672692657,0.0028727517928928137,-0.005136705003678799
1772535134570404400,8.145404296875,0.0005022721597924829,0.004035221878439188,-0.0035686357878148556
1772535134580421000,8.155421142578126,-0.0009832390351220965,0.002347310073673725,-0.003932689782232046
1772535134590437000,8.16543701171875,-0.0013928331900388002,0.004099403973668814,-0.004131894558668137
1772535134600453000,8.175453125,-0.000494016392622143,0.0029917950741946697,-0.004841360729187727
1772535134610469400,8.185469482421874,-0.0008074704091995955,0.0028687571175396442,-0.004968659486621618
1772535134620485400,8.1954853515625,-0.0007294398383237422,0.002231462625786662,-0.00401737866923213
1772535134630502100,8.205502197265625,0.00010918960470007733,0.0020993698853999376,-0.002858637133613229
1772535134640518100,8.21551806640625,-0.003774764481931925,0.003870904678478837,-0.004248274490237236
1772535134650534100,8.2255341796875,-0.0006617955514229834,0.0030652983114123344,-0.004324707202613354
1772535134660550100,8.235550048828125,-0.0005853627808392048,0.0028807413764297962,-0.0032053806353360415
1772535134670566400,8.24556640625,-0.0007065366371534765,0.0023880566004663706,-0.004728442523628473
1772535134680582400,8.25558251953125,-0.0007091998122632504,0.0020722055342048407,-0.004621649626642466
1772535134690599200,8.26559912109375,0.00006578007742064074,0.0024919197894632816,-0.0037971350830048323
1772535134700615200,8.275615234375,-0.0014149374328553677,0.0019265307346358895,-0.0044133905321359634
1772535134710631200,8.285631103515625,-0.0014335796004161239,0.002376604825258255,-0.0052208611741662025
1772535134720647400,8.2956474609375,-0.002133724745362997,0.0029606360476464033,-0.0043678502552211285
1772535134730663400,8.305663330078126,-0.0012479572324082255,0.0036634444259107113,-0.00333267985843122
1772535134740680200,8.31568017578125,-0.000681236619129777,0.003032008884474635,-0.004322843160480261
1772535134750696200,8.3256962890625,-0.0016202671686187387,0.0035148400347679853,-0.005382248666137457
1772535134760712200,8.335712158203124,-0.0006703176186420023,0.0021081583108752966,-0.004920190200209618
1772535134770728200,8.345728271484376,0.00003328951424919069,0.0016990967560559511,-0.005804625805467367
1772535134780744200,8.355744140625,-0.0010034791193902493,0.0035087147261947393,-0.0025244103744626045
1772535134790761200,8.36576123046875,-0.00015153386630117893,0.0025710156187415123,-0.003787015099078417
1772535134800777200,8.375777099609374,-0.0005459480453282595,0.0023675502743571997,-0.003997937310487032
1772535134810793200,8.385793212890626,-0.0006175870657898486,0.003085538512095809,-0.0038626487366855145
1772535134820809200,8.395809326171875,-0.0015760586829856038,0.0022011026740074158,-0.0038978024385869503
1772535134830825200,8.4058251953125,0.00005672533006872982,0.0027798074297606945,-0.005513542331755161
1772535134840842200,8.41584228515625,-0.00033449303009547293,0.0025742114521563053,-0.004236023873090744
1772535134850858200,8.425858154296876,0.00038828887045383453,0.002752643311396241,-0.0026130937039852142
1772535134860874200,8.435874267578125,0.0002926813904196024,0.002886333968490362,-0.004210990387946367
1772535134870890200,8.44589013671875,-0.0016492956783622503,0.0029491845052689314,-0.003317499766126275
1772535134880906200,8.45590625,-0.0008804410463199019,0.0020098877139389515,-0.0033459956757724285
1772535134890923300,8.46592333984375,-0.00008548746700398624,0.002120941411703825,-0.004555337131023407
1772535134900939300,8.475939208984375,-0.0003653856983873993,0.0036216326989233494,-0.003290335414931178
1772535134910955300,8.485955322265625,-0.00031079089967533946,0.002502838848158717,-0.005075985100120306
1772535134920971300,8.49597119140625,-0.0009382316493429244,0.0024682176299393177,-0.004230431281030178
1772535134930987000,8.505987060546875,-0.0015073491958901286,0.0033329459838569164,-0.0041497377678751945
1772535134941004300,8.51600439453125,0.0003936151915695518,0.003765709698200226,-0.0035092474427074194
1772535134951020300,8.526020263671874,-0.0015046859625726938,0.002092179376631975,-0.0034144388046115637
1772535134961036300,8.536036376953126,-0.0004988100845366716,0.0024530377704650164,-0.003575559938326478
1772535134971052300,8.54605224609375,-0.0012958941515535116,0.003712446428835392,-0.004475708585232496
1772535134981068000,8.556068115234375,-0.002037584548816085,0.0026554379146546125,-0.003326820908114314
1772535134991085300,8.566085205078124,-0.00017417073831893504,0.0017781927017495036,-0.0049620019271969795
1772535135001101300,8.576101318359376,-0.0009416937828063965,0.003385410411283374,-0.004850415047258139
1772535135011117300,8.586117431640625,-0.000316916179144755,0.0035625104792416096,-0.004507932811975479
1772535135021133300,8.59613330078125,-0.0018455706303939223,0.002510561840608716,-0.004169445019215345
1772535135031149000,8.606149169921874,-0.000290018244413659,0.002614957746118307,-0.003996872343122959
1772535135041165000,8.6161650390625,-0.0009227853151969612,0.0025920546613633633,-0.004804608877748251
1772535135051182300,8.626182373046875,0.00037683729897253215,0.001882854849100113,-0.004680505488067865
1772535135061198300,8.6361982421875,-0.0007688545738346875,0.0038011297583580017,-0.0035294874105602503
1772535135071214000,8.646214111328124,5.326322138898831e-7,0.003281546989455819,-0.003995007835328579
1772535135081230000,8.65622998046875,-0.0022386531345546246,0.0019861855544149876,-0.003497795667499304
1772535135091246000,8.66624609375,-0.00040666470886208117,0.0019478360190987587,-0.004550276789814234
1772535135101263400,8.676263427734375,-0.001538241864182055,0.003489806316792965,-0.005255748517811298
1772535135111279400,8.686279296875,-0.0010269149206578732,0.0033124396577477455,-0.005695702508091927
1772535135121295000,8.696295166015625,-0.0007989483419805765,0.0017707358347252011,-0.005054146982729435
1772535135131311000,8.70631103515625,0.001130778226070106,0.0016788567882031202,-0.004911668132990599
1772535135141327000,8.7163271484375,-0.000395745737478137,0.0025776736438274384,-0.0031278827227652073
1772535135151344400,8.726344482421876,-0.0008037420338951051,0.0025502429343760014,-0.0034884747583419085
1772535135161360400,8.7363603515625,-0.0019459717441350222,0.0036330842413008213,-0.003008040366694331
1772535135171376000,8.746376220703125,-0.0008530105114914477,0.0016431703697890043,-0.003102582646533847
1772535135181392100,8.75639208984375,-0.001898034941405058,0.003029345767572522,-0.0036647759843617678
1772535135191408400,8.766408447265626,-0.0009685916593298316,0.002207494108006358,-0.0038424087688326836
1772535135201425400,8.77642529296875,-0.0001174454009742476,0.0025712819769978523,-0.005682120565325022
1772535135211441200,8.786441162109375,-0.0013558153295889497,0.0034815503749996424,-0.0041342913173139095
1772535135221457200,8.79645703125,-0.0011286477092653513,0.001371527905575931,-0.004564658273011446
1772535135231473200,8.80647314453125,-0.0010064085945487022,0.0026282735634595156,-0.005726329050958157
1772535135241489400,8.816489501953125,-0.0016178702935576439,0.0017720673931762576,-0.0019915117882192135
1772535135251506400,8.82650634765625,-0.0011398328933864832,0.003692472819238901,-0.0023132218047976494
1772535135261522200,8.836522216796874,0.00024234765442088246,0.0033393376506865025,-0.0053553506731987
1772535135271538200,8.8465380859375,-0.0002996056282427162,0.002519882982596755,-0.004482632502913475
1772535135281554200,8.85655419921875,-0.0014418354257941246,0.0032112395856529474,-0.004172108136117458
1772535135291570400,8.8665703125,-0.0011339739430695772,0.0033603766933083534,-0.004765726625919342
1772535135301587500,8.87658740234375,-0.0026786073576658964,0.0030178942251950502,-0.00498170917853713
1772535135311603200,8.886603271484375,-0.001356347929686308,0.0021758025977760553,-0.0027739484794437885
1772535135321619200,8.896619140625,0.00034887410583905876,0.0026407905388623476,-0.004849882796406746
1772535135331635200,8.90663525390625,-0.00046818371629342437,0.0038978024385869503,-0.00469595193862915
1772535135341651200,8.916651123046876,-0.00017230652156285942,0.0020274645648896694,-0.004138019867241383
1772535135351667500,8.92666748046875,-0.0001155811914941296,0.002630670554935932,-0.00401684595271945
1772535135361684200,8.936684326171875,-0.0013701963471248746,0.001184574095532298,-0.002766757970675826
1772535135371700200,8.9467001953125,-0.00023142869758885354,0.0027089675422757864,-0.004805407952517271
1772535135381716200,8.95671630859375,0.00040852889651432633,0.0021587584633380175,-0.004284759983420372
1772535135391732200,8.966732177734375,0.00019334549142513424,0.0022796657867729664,-0.003251187037676573
1772535135401748500,8.97674853515625,-0.000624777574557811,0.003611779073253274,-0.004119643941521645
1772535135411765200,8.98676513671875,-0.0005099953268654644,0.003691940102726221,-0.004896221682429314
1772535135421781200,8.99678125,-0.0013614079216495156,0.0023696806747466326,-0.005246427375823259
1772535135431797200,9.00679736328125,-0.0008641957538202405,0.003413107246160507,-0.005432582460343838
1772535135441813200,9.016813232421875,-0.0006556702428497374,0.0020682108588516712,-0.0034732946660369635
1772535135451829200,9.026829345703124,-0.0023177489638328552,0.0017699368763715029,-0.004596882499754429
1772535135461846300,9.03684619140625,0.0008980178972706199,0.00141041015740484,-0.004477306269109249
1772535135471862300,9.0468623046875,-0.0009030779474414885,0.0028391960076987743,-0.0038043255917727947
1772535135481878300,9.056878173828125,-0.0004814995336346328,0.003207511268556118,-0.005486111622303724
1772535135491894300,9.066894287109376,-0.0013542174128815532,0.0026607641484588385,-0.005016063805669546
1772535135501910300,9.07691015625,0.0001984054979402572,0.003082076320424676,-0.004187021870166063
1772535135511927300,9.08692724609375,-0.000434361572843045,0.003946804907172918,-0.00475320965051651
1772535135521943300,9.096943359375,-0.0016743293963372707,0.0013195963110774755,-0.003468234557658434
1772535135531959300,9.106959228515626,-0.00020240024605300277,0.002879942301660776,-0.003572896821424365
1772535135541975300,9.116975341796875,-0.00023861923546064645,0.0020687435753643513,-0.0038892803713679314
1772535135551991300,9.1269912109375,-0.0007709851488471031,0.0019443739438429475,-0.0050099384970963
1772535135562008300,9.13700830078125,0.0007709851488471031,0.002263420494273305,-0.003817375050857663
1772535135572024300,9.1470244140625,-0.0006226470577530563,0.0031156321056187153,-0.005402754992246628
1772535135582040300,9.157040283203125,-0.001285241567529738,0.0033989925868809223,-0.003516171593219042
1772535135592056300,9.167056396484375,-0.0010655306978151202,0.0036812876351177692,-0.003312173532322049
1772535135602072300,9.177072265625,0.00015952334797475487,0.0024429175537079573,-0.004758536349982023
1772535135612088300,9.18708837890625,-0.0005536712124012411,0.0029997846577316523,-0.00461712246760726
1772535135622105300,9.197105224609375,-0.00017097493400797248,0.0022477079182863235,-0.0036815537605434656
1772535135632121300,9.207121337890625,-0.0014913701452314854,0.003427488263696432,-0.00507065886631608
1772535135642137300,9.217137451171874,-0.00012889699428342283,0.003783819265663624,-0.005014732480049133
1772535135652153300,9.2271533203125,0.000477504770969972,0.004220577888190746,-0.0027113643009215593
1772535135662169300,9.23716943359375,-0.0010956244077533484,0.0027800737880170345,-0.0036107138730585575
1772535135672186400,9.247186279296875,-0.00026258768048137426,0.0024748756550252438,-0.0030684941448271275
1772535135682202400,9.257202392578124,-0.0004886900424025953,0.0027182884514331818,-0.0054855793714523315
1772535135692218400,9.26721826171875,-0.0010508833220228553,0.001255680457688868,-0.005401423200964928
1772535135702234400,9.277234375,-0.0013246563030406833,0.0030154972337186337,-0.005155347287654877
1772535135712250000,9.28725,0.00039308256236836314,0.0021755362395197153,-0.0043798345141112804
1772535135722267400,9.297267333984376,-0.0030892668291926384,0.002454102970659733,-0.006136455573141575
1772535135732283400,9.307283447265625,-0.0011496866354718804,0.001981125446036458,-0.0048861014656722546
1772535135742299400,9.31729931640625,-0.0009262474486604333,0.0008860336965881288,-0.003469033632427454
1772535135752315400,9.3273154296875,-0.0008852347382344306,0.0024117587599903345,-0.0046213832683861256
1772535135762331100,9.3373310546875,-0.0013073458103463054,0.0027329358272254467,-0.003287938656285405
1772535135772347100,9.34734716796875,0.0008703210623934865,0.0035060516092926264,-0.0038450718857347965
1772535135782364400,9.357364501953125,-0.0010567422723397613,0.002385925967246294,-0.004181961994618177
1772535135792380400,9.36738037109375,-0.00033103092573583126,0.002666090615093708,-0.005518335849046707
1772535135802396400,9.377396484375,-0.0017297230660915375,0.004196343012154102,-0.003032541600987315
1772535135812412200,9.387412109375,-0.00048389637959189713,0.003055178327485919,-0.0035835495218634605
1772535135822428200,9.39742822265625,-0.0005765743553638458,0.002114816103130579,-0.004101800732314587
1772535135832445400,9.407445556640624,0.00020959076937288046,0.0019196064677089453,-0.004838431254029274
1772535135842461400,9.41746142578125,-0.0017646105261519551,0.0026170883793383837,-0.004284759983420372
1772535135852477400,9.4274775390625,0.000368847802747041,0.003203782718628645,-0.0040442761965096
1772535135862493200,9.4374931640625,-0.0012053466634824872,0.00155288923997432,-0.004674912896007299
1772535135872509200,9.44750927734375,-0.0004905542591586709,0.00304638990201056,-0.00455826660618186
1772535135882526500,9.4575263671875,-0.001059139147400856,0.0020660804584622383,-0.0036538569256663322
1772535135892542500,9.46754248046875,-0.0014828480780124664,0.0031670311000198126,-0.0043713124468922615
1772535135902558200,9.47755810546875,-0.0002181128947995603,0.002812031889334321,-0.003951864782720804
1772535135912574200,9.48757421875,-0.0010785802733153105,0.002758235903456807,-0.004685831721872091
1772535135922590200,9.497590087890625,-0.0007872303831391037,0.0024831313639879227,-0.004238953348249197
1772535135932606200,9.507606201171875,-0.0010388991795480251,0.001874066423624754,-0.004445881117135286
1772535135942623500,9.51762353515625,-0.00011717908637365326,0.0037180392537266016,-0.0026756778825074434
1772535135952639200,9.52763916015625,0.000015712650565546937,0.0036216326989233494,-0.004285824950784445
1772535135962655200,9.5376552734375,0.000036751622246811166,0.0019273296929895878,-0.0043657198548316956
1772535135972671200,9.547671142578125,0.0007475492893718183,0.0029172266367822886,-0.004113784991204739
1772535135982687200,9.557687255859374,-0.0012434299569576979,0.0027017768006771803,-0.004013916477560997
1772535135992704500,9.56770458984375,-0.0014242585748434067,0.003570766421034932,-0.004591822158545256
1772535136002720300,9.57772021484375,-0.0009209210984408855,0.002225337317213416,-0.0041617220267653465
1772535136012736300,9.587736328125,-0.000916393706575036,0.00236222380772233,-0.004870655480772257
1772535136022752300,9.597752197265624,-0.0004873584839515388,0.0027776770293712616,-0.0034144388046115637
1772535136032768300,9.607768310546875,-0.001032507512718439,0.0032232238445430994,-0.00523683987557888
1772535136042785300,9.617785400390625,-0.0006471481174230576,0.0021909826900810003,-0.004226702731102705
1772535136052801300,9.62780126953125,-0.0008844357798807323,0.002569684060290456,-0.0037760960403829813
1772535136062817300,9.6378173828125,-0.0008476841612718999,0.003918841481208801,-0.004054130055010319
1772535136072833300,9.647833251953125,-0.0008122641011141241,0.0030599720776081085,-0.004795820452272892
1772535136082849300,9.657849365234375,0.0003981425834354013,0.0012381036067381501,-0.004793157335370779
1772535136092866300,9.6678662109375,-0.0013848437229171395,0.003224022686481476,-0.003132410114631057
1772535136102882300,9.67788232421875,-0.0007235808880068362,0.0021142836194485426,-0.00461712246760726
1772535136112898300,9.687898193359375,0.000016245283404714428,0.002674879040569067,-0.0036479979753494263
1772535136122914300,9.697914306640625,-0.0012218583142384887,0.001891909632831812,-0.0031912659760564566
1772535136132930300,9.707930419921874,-0.0007542071980424225,0.0022213426418602467,-0.005028847139328718
1772535136142947000,9.717947021484376,-0.00044314999831840396,0.002041046740487218,-0.004266916774213314
1772535136152963300,9.72796337890625,-0.000672448193654418,0.0032344090286642313,-0.0051689292304217815
1772535136162979300,9.737979248046875,0.000028762138754245825,0.002029062481597066,-0.0033278861083090305
1772535136172995000,9.7479951171875,-0.0004183826094958931,0.0026578346733003855,-0.0034285534638911486
1772535136183011300,9.75801123046875,-0.001210673013702035,0.0016439693281427026,-0.005196892656385899
1772535136193028000,9.768028076171875,-0.0007779093575663865,0.0018309232546016574,-0.005821137689054012
1772535136203044000,9.778044189453125,-0.0009552759001962841,0.002356897573918104,-0.003349457634612918
1772535136213060000,9.78806005859375,-0.0008692557457834482,0.0026636936236172915,-0.003930293023586273
1772535136223076000,9.798076171875,-0.00042770366417244077,0.0024311996530741453,-0.004589691758155823
1772535136233092000,9.808092041015625,-0.0005523395957425237,0.002225603675469756,-0.003090332029387355
1772535136243109000,9.818109130859375,-0.0012175972806289792,0.0020266654901206493,-0.00427171029150486
1772535136253125000,9.828125,-0.0002412823960185051,0.0018301242962479591,-0.004222175572067499
1772535136263141000,9.83814111328125,-0.0007970841252245009,0.003680754918605089,-0.0037832865491509438
1772535136273157000,9.8481572265625,-0.0010969560826197267,0.0029411951545625925,-0.0035143073182553053
1772535136283173000,9.858173095703124,-0.0009693906176835299,0.0025273398496210575,-0.004319913685321808
1772535136293189400,9.868189453125,-0.0006732470938004553,0.0029590383637696505,-0.005095159634947777
1772535136303206100,9.8782060546875,-0.0011108045000582933,0.0029204224701970816,-0.003970507066696882
1772535136313222100,9.88822216796875,-0.0003225088003091514,0.003304982790723443,-0.0034519892651587725
1772535136323238100,9.898238037109374,-0.0003832288784906268,0.0031758195254951715,-0.0043505397625267506
1772535136333254100,9.908254150390626,-0.0009006810723803937,0.0046730488538742065,-0.0035060516092926264
1772535136343270400,9.9182705078125,-0.0004777711001224816,0.0025334651581943035,-0.004022438544780016
1772535136353287200,9.928287109375,-0.00022210762836039066,0.001549959764815867,-0.003498328384011984
1772535136363303200,9.93830322265625,-0.0011145329335704446,0.0031856733839958906,-0.005188902840018272
1772535136373319200,9.948319091796876,0.00020160128769930452,0.0026905916165560484,-0.0036557212006300688
1772535136383335200,9.958335205078125,-0.000993891735561192,0.0031880701426416636,-0.006111422087997198
1772535136393351200,9.96835107421875,-0.000847950461320579,0.0025180187076330185,-0.0038695731200277805
1772535136403368200,9.9783681640625,-0.000028762138754245825,0.0023350596893578768,-0.0034522556234151125
1772535136413384200,9.98838427734375,-0.0010879012988880277,0.002668487373739481,-0.005459479987621307
1772535136423400200,9.998400146484375,-0.000013582121027866378,0.003576092654839158,-0.004573712591081858
1772535136433416200,10.008416259765625,0.0003709783486556262,0.0029790119733661413,-0.00452710734680295
1772535136443432200,10.01843212890625,-0.00027856664382852614,0.003555586328729987,-0.003924700431525707
1772535136453448200,10.0284482421875,-0.00022130868455860764,0.0024682176299393177,-0.004236822947859764
1772535136463465200,10.03846533203125,0.00024181502521969378,0.0025710156187415123,-0.004691424313932657
1772535136473481200,10.048481201171874,0.0006245112745091319,0.0021028320770710707,-0.0037942056078463793
1772535136483497200,10.058497314453126,0.0014583469601348042,0.004136155359447002,-0.003440005239099264
1772535136493513200,10.06851318359375,-0.00043569316039793193,0.0034179009962826967,-0.005050951149314642
1772535136503529000,10.078529052734375,-0.0007065366371534765,0.0033688987605273724,-0.00443869037553668
1772535136513546200,10.088546142578124,-0.0010498181218281388,0.0023009711876511574,-0.003715908620506525
1772535136523562200,10.098562255859376,-0.0006833671359345317,0.001306014135479927,-0.0036903421860188246
1772535136533578200,10.108578125,-0.0005451490869745612,0.002360093407332897,-0.004083957523107529
1772535136543594200,10.11859423828125,-0.0002860235108528286,0.002662095706909895,-0.004603806417435408
1772535136553610000,10.12860986328125,-0.0012780509423464537,0.0024019049014896154,-0.003766508772969246
1772535136563627300,10.138627197265626,-0.0013430321123450994,0.003786748740822077,-0.003940679598599672
1772535136573643300,10.148643310546875,-0.0003230414295103401,0.0034413367975503206,-0.004917527083307505
1772535136583659300,10.1586591796875,-0.0005904228310100734,0.002653839997947216,-0.003576891729608178
1772535136593675300,10.16867529296875,-0.0009203884401358664,0.0033489251509308815,-0.004519384354352951
1772535136603691000,10.17869091796875,-0.0009233179152943194,0.0024048343766480684,-0.0032836776226758957
1772535136613708300,10.188708251953125,-0.000297475082334131,0.0026261431630700827,-0.003613909473642707
1772535136623724300,10.198724365234375,-0.0013888385146856308,0.00315957423299551,-0.003742806613445282
1772535136633740300,10.208740234375,-0.0005456816870719194,0.0013528858544304967,-0.005260275676846504
1772535136643756000,10.218756103515625,-0.001609081868082285,0.0029023129027336836,-0.003052781568840146
1772535136653772000,10.22877197265625,-0.0013105415273457766,0.002281530061736703,-0.004445881117135286
1772535136663788000,10.2387880859375,-0.000054328484111465514,0.0027513117529451847,-0.003882622579112649
1772535136673805300,10.248805419921876,-0.0007392935222014785,0.001201618229970336,-0.004677842371165752
1772535136683821300,10.2588212890625,0.00008016114588826895,0.002817091764882207,-0.003966512158513069
1772535136693837000,10.268837158203125,0.00007856325100874528,0.002031725598499179,-0.005555886775255203
1772535136703853000,10.27885302734375,-0.00041252365917898715,0.0007297061383724213,-0.0033803503029048443
1772535136713869000,10.288869140625,-0.0021941782906651497,0.0023212111555039883,-0.0046690539456903934
1772535136723886300,10.29888623046875,-0.0009139968897216022,0.002965163439512253,-0.004594219382852316
1772535136733902300,10.30890234375,-0.001062334980815649,0.0030088394414633512,-0.0052291168831288815
1772535136743918000,10.31891796875,-0.001055943313986063,0.0026141589041799307,-0.004200071096420288
1772535136753934000,10.32893408203125,-0.0009542105835862458,0.0010040117194876075,-0.004643754102289677
1772535136763950000,10.3389501953125,-0.001368598430417478,0.004034156445413828,-0.004643754102289677
1772535136773967400,10.34896728515625,-0.0005933523061685264,0.003318032482638955,-0.003061836352571845
1772535136783983000,10.358983154296874,-0.0021310613956302404,0.002703374717384577,-0.005022721830755472
1772535136793999000,10.3689990234375,0.0001448759576305747,0.0015675366157665849,-0.004745753016322851
1772535136804015000,10.37901513671875,-0.0006777744856663048,0.0035771578550338745,-0.0035840822383761406
1772535136814031000,10.389031005859374,-0.0007882956997491419,0.0011717908782884479,-0.003471430391073227
1772535136824048400,10.39904833984375,-0.0003528688393998891,0.0030024477746337652,-0.004806206561625004
1772535136834064100,10.409064208984375,-0.0005526058957912028,0.003020557342097163,-0.0046421559527516365
1772535136844080000,10.419080078125,0.0003398193512111902,0.0027835359796881676,-0.003436276689171791
1772535136854096100,10.42909619140625,-0.0005677859298884869,0.0009992180857807398,-0.0041542649269104
1772535136864112000,10.439112060546876,0.00023329291434492916,0.0023209447972476482,-0.004886634182184935
1772535136874128100,10.449128173828125,-0.0009454221581108868,0.0025100293569266796,-0.0032168321777135134
1772535136884145200,10.459145263671875,-0.0017057546647265553,0.0021049624774605036,-0.0046485476195812225
1772535136894161200,10.4691611328125,-0.001484179636463523,0.0021459751296788454,-0.0040946099907159805
1772535136904177200,10.47917724609375,0.0007928230334073305,0.002701244316995144,-0.003484213724732399
1772535136914193200,10.489193115234375,0.0003374225052539259,0.0015102786710485816,-0.006000368390232325
1772535136924209200,10.499209228515625,-0.0018716695485636592,0.003227484878152609,-0.0035872780717909336
1772535136934226200,10.50922607421875,-0.0004111920716241002,0.0019257317762821913,-0.004622715059667826
1772535136944242200,10.5192421875,-0.0012263857061043382,0.002083124592900276,-0.0028250813484191895
1772535136954258200,10.529258056640625,-0.001103880233131349,0.002120675053447485,-0.005130846053361893
1772535136964274200,10.539274169921875,-0.0005134574603289366,0.0025273398496210575,-0.006559898145496845
1772535136974290200,10.549290283203124,-0.001654622028581798,0.0024583640042692423,-0.0065202172845602036
1772535136984307200,10.55930712890625,-0.0020746025256812572,0.0032594427466392517,-0.004248008131980896
1772535136994323200,10.5693232421875,0.0005291700945235789,0.0026192190125584602,-0.002389121800661087
1772535137004339200,10.579339111328125,-0.002779274946078658,0.003171025775372982,-0.005026450380682945
1772535137014355200,10.589355224609376,0.00010279801790602505,0.0025507756508886814,-0.005957491230219603
1772535137024371200,10.59937109375,-0.00021065604232717305,0.0030242856591939926,-0.004692223388701677
1772535137034387200,10.60938720703125,0.0005328985280357301,0.003610979998484254,-0.004042678512632847
1772535137044404200,10.619404296875,-0.0012247877893969417,0.002966495230793953,-0.004803809802979231
1772535137054420200,10.629420166015626,-0.000844754686113447,0.0028037759475409985,-0.005279450677335262
1772535137064436200,10.639436279296875,-0.0011518171522766352,0.0024322650860995054,-0.0039015309885144234
1772535137074452200,10.6494521484375,-0.0013638047967106104,0.004318848252296448,-0.004207794554531574
1772535137084468200,10.65946826171875,-0.00037470675306394696,0.0031150993891060352,-0.005353220272809267
1772535137094485200,10.6694853515625,-0.0007403587806038558,0.0022514364682137966,-0.004133225884288549
1772535137104501200,10.679501220703125,0.00018961707246489823,0.0014508900931105018,-0.0035148400347679853
1772535137114517200,10.689517333984375,-0.0006285060080699623,0.002703641075640917,-0.004030960611999035
1772535137124533200,10.699533203125,0.0007158577209338546,0.0018034926615655422,-0.004341219086199999
1772535137134549200,10.70954931640625,0.00046339002437889576,0.0018421085551381111,-0.004569984506815672
1772535137144566300,10.719566162109375,0.0005302353529259562,0.0035712989047169685,-0.003905792022123933
1772535137154582300,10.729582275390625,-0.0015672702575102448,0.0022295983508229256,-0.0033814155030995607
1772535137164598300,10.739598388671874,-0.0005704491049982607,0.00196381495334208,-0.004559864290058613
1772535137174613800,10.74961376953125,-0.0006775081856176257,0.0031100395135581493,-0.0038839541375637054
1772535137184629800,10.759629638671875,0.0002889529860112816,0.003893807763233781,-0.0044051348231732845
1772535137194646800,10.769646728515625,0.00007403588097076863,0.0020908478181809187,-0.004346545320004225
1772535137204662800,10.779662841796876,-0.00026764770154841244,0.001954760169610381,-0.004129231441766024
1772535137214678800,10.7896787109375,-0.0018998990999534726,0.003858387703076005,-0.005480252671986818
1772535137224694800,10.79969482421875,-0.0018940401496365666,0.0014538196846842766,-0.00455640209838748
1772535137234710800,10.809710693359374,-0.00023941817926242948,0.002383795566856861,-0.005198223982006311
1772535137244726800,10.819726806640626,-0.0011704593198373914,0.002596848411485553,-0.0046821036376059055
1772535137254743800,10.829743896484375,-0.0008333030855283141,0.002721750643104315,-0.003960653208196163
1772535137264759800,10.839759765625,-0.0005470133037306368,0.0018815232906490564,-0.003451456781476736
1772535137274775800,10.84977587890625,-0.0016636766958981752,0.0019971043802797794,-0.005122057627886534
1772535137284791800,10.859791748046876,-0.00016937704640440643,0.0021555626299232244,-0.0046354979276657104
1772535137294807600,10.8698076171875,-0.0007635282818228006,0.002829076023772359,-0.004993693437427282
1772535137304824800,10.879824951171875,-0.0009776464430615306,0.003379817819222808,-0.003914314322173595
1772535137314840800,10.8898408203125,0.0003203782835043967,0.003293797606602311,-0.0030131004750728607
1772535137324856800,10.89985693359375,-0.001404284848831594,0.001876995898783207,-0.004324440844357014
1772535137334872800,10.909872802734375,-0.0019001654582098126,0.00022423815971706063,-0.003951598424464464
1772535137344888600,10.919888671875,-0.0006775081856176257,0.008128234185278416,0.005270662251859903
1772535137354904600,10.929904541015626,-0.0004830974212381989,0.002862365450710058,-0.002923884429037571
1772535137364921900,10.939921875,0.0004647216119337827,0.005557218100875616,-0.00038482676609419286
1772535137374937900,10.949937744140625,0.0005603290628641844,0.002951048780232668,-0.0027201527263969183
1772535137384953900,10.959953857421874,-0.0016764599131420255,0.002868490759283304,-0.003716441337019205
1772535137394969600,10.969969482421876,-0.0004665858286898583,0.0008668589289300144,-0.006024869158864021
1772535137404985600,10.979985595703125,-0.0005209143273532391,0.0007472829893231392,-0.007360977120697498
1772535137415003000,10.9900029296875,-0.00033156355493701994,0.0011153318919241428,-0.006464024540036917
1772535137425019000,11.000018798828124,-0.0023331954143941402,0.0003406183095648885,-0.006117281038314104
1772535137435034600,11.01003466796875,0.00007882956560933962,0.00026738137239590287,-0.007595069240778685
1772535137445050600,11.020050537109375,-0.0017901768442243338,0.0015592807903885841,-0.004494616761803627
1772535137455066600,11.030066650390625,-0.0008905610884539783,0.002704440150409937,-0.005665608681738377
