time,seconds_elapsed,z,y,x
1772534486943619000,0.142619140625,-0.14274121820926666,-0.2982652485370636,0.17895914614200592
1772534486993553200,0.19255322265625,-0.1715025156736374,0.14700216054916382,0.1501978635787964
1772534487013422600,0.212422607421875,-0.13421936333179474,0.5026568174362183,0.03941362351179123
1772534487033335000,0.2323349609375,-0.2141118347644806,0.45152565836906433,-0.11397993564605713
1772534487043252500,0.24225244140625,-0.30146095156669617,0.42915576696395874,-0.1374150663614273
1772534487053189600,0.252189697265625,-0.29506954550743103,0.4983958899974823,-0.1278279572725296
1772534487063106300,0.262106201171875,-0.2577863931655884,0.38761165738105774,-0.14593692123889923
1772534487073035300,0.27203515625,-0.24926452338695526,0.08841434121131897,-0.12463226169347763
1772534487082967600,0.281967529296875,-0.29400432109832764,-0.00852186419069767,-0.007456631399691105
1772534487092897800,0.291897705078125,-0.3620460629463196,0.2236989289522171,0.16191542148590088
1772534487102831400,0.301831298828125,-0.3577851355075836,-0.01171756349503994,0.16511112451553345
1772534487112763000,0.311762939453125,-0.13421936333179474,-1.1523158550262451,0.0639139786362648
1772534487122708000,0.3217080078125,0.2876129150390625,-1.4953209161758423,0.2865476906299591
1772534487132645000,0.33164501953125,0.512243926525116,-0.7093120217323303,0.5601794123649597
1772534487142567000,0.34156689453125,0.3567199110984802,0.03621792420744896,0.512243926525116
1772534487152497700,0.35149755859375,-0.02236989326775074,0.3790898025035858,0.2556559145450592
1772534487162427100,0.36142724609375,-0.2748301327228546,0.3492632806301117,0.0958709716796875
1772534487172357400,0.371357421875,-0.19813334941864014,-0.004260932095348835,0.11184946447610855
1772534487182294500,0.38129443359375,0.12250179797410965,-0.37695932388305664,0.19387240707874298
1772534487192227600,0.3912275390625,0.4760259985923767,-0.37589409947395325,0.25139498710632324
1772534487202164500,0.40116455078125,0.6507242321968079,0.02556559257209301,0.2854824364185333
1772534487212099000,0.41109912109375,0.5825493335723877,0.31198012828826904,0.3055887222290039
1772534487222017300,0.421017333984375,0.39613354206085205,0.0426093190908432,0.3599156141281128
1772534487231945500,0.430945556640625,0.26311254501342773,-0.5623098611831665,0.49200451374053955
1772534487241891000,0.44089111328125,0.28335198760032654,-0.9680305123329163,0.6613765358924866
1772534487251826200,0.450826171875,0.43022099137306213,-0.9053149223327637,0.8350095152854919
1772534487261751600,0.46075146484375,0.5655055642127991,-0.6507242321968079,0.9531172513961792
1772534487271682800,0.470682861328125,0.6624417901039124,-0.6837464570999146,0.8978582620620728
1772534487281592000,0.480592041015625,0.8307486176490784,-1.0031832456588745,0.7210295796394348
1772534487291514400,0.490514404296875,0.9648348093032837,-0.9712262153625488,0.5047873258590698
1772534487301477400,0.500477294921875,1.0553796291351318,-0.5420704483985901,0.2886781394481659
1772534487311416300,0.510416259765625,1.07135808467865,-0.14061075448989868,0.16191542148590088
1772534487321344500,0.520344482421875,0.9424648880958557,-0.06071828305721283,0.04473978653550148
1772534487331279000,0.530279052734375,0.7604432106018066,-0.3460675776004791,-0.12569749355316162
1772534487341182200,0.54018212890625,0.5793536305427551,-0.9882699251174927,-0.2961347699165344
1772534487351113700,0.55011376953125,0.4131772518157959,-1.604906678199768,-0.34393709897994995
1772534487361076700,0.56007666015625,0.2460688352584839,-0.8009220957756042,-0.16617634892463684
1772534487371011300,0.57001123046875,0.10545806586742401,1.1736204624176025,0.4781564772129059
1772534487380945400,0.5799453125,0.09906667470932007,2.0501739978790283,1.2428606748580933
1772534487390880000,0.5898798828125,0.08628387749195099,2.8743982315063477,1.7828006744384766
1772534487400803600,0.599803466796875,0.17895914614200592,2.843506336212158,1.6389942169189453
1772534487410737000,0.60973681640625,0.4131772518157959,1.8637583255767822,0.8818798065185547
1772534487420642800,0.619642822265625,0.6773550510406494,0.5314181447029114,-0.05432688444852829
1772534487430573600,0.629573486328125,0.8403357267379761,-0.2332860380411148,-0.7742912769317627
1772534487440537600,0.63953759765625,0.7551170587539673,-0.08628387749195099,-1.3525795936584473
1772534487450471700,0.6494716796875,0.6432675719261169,0.4121120274066925,-1.9926515817642212
1772534487460404000,0.659404052734375,0.7476604580879211,0.6986597180366516,-2.4771993160247803
1772534487470338000,0.669338134765625,0.9840090274810791,0.8286181092262268,-2.4292638301849365
1772534487480289000,0.6792890625,1.091597557067871,0.7902697324752808,-1.8946501016616821
1772534487490224600,0.689224609375,0.9392692446708679,0.5442008972167969,-1.1501853466033936
1772534487500118000,0.699117919921875,0.5601794123649597,0.20558997988700867,-0.4142425060272217
1772534487510049300,0.70904931640625,0.04687025398015976,-0.05432688444852829,0.08734910935163498
1772534487519986000,0.71898583984375,-0.404655396938324,-0.2961347699165344,0.15552401542663574
1772534487529917700,0.728917724609375,-0.6517894268035889,-0.7966611385345459,-0.28015628457069397
1772534487539859500,0.738859375,-0.7082468271255493,-1.3387316465377808,-0.970160961151123
1772534487549792300,0.748792236328125,-0.6315500140190125,-1.5899934768676758,-1.515560269355774
1772534487559718400,0.758718505859375,-0.5133091807365417,-1.5878629684448242,-1.710364818572998
1772534487569650700,0.768650634765625,-0.42702528834342957,-1.431406855583191,-1.5335360765457153
1772534487579584300,0.778584228515625,-0.3780245780944824,-1.1864032745361328,-1.0958584547042847
1772534487589516500,0.7885166015625,-0.3567199110984802,-0.8339443206787109,-0.5793536305427551
1772534487599443000,0.79844287109375,-0.29080861806869507,-0.4323514401912689,-0.02556559257209301
1772534487609374500,0.80837451171875,-0.2577863931655884,0.06071828305721283,0.6240934133529663
1772534487619286000,0.8182861328125,-0.27376487851142883,0.4025249183177948,1.2822742462158203
1772534487629215700,0.8282158203125,-0.19706811010837555,0.3492632806301117,1.8083661794662476
1772534487639192600,0.838192626953125,-0.08308817446231842,0.10865376889705658,2.1055662631988525
1772534487649127000,0.848126953125,0.02876129187643528,0.0958709716796875,2.1586947441101074
1772534487659039500,0.85803955078125,0.36417654156684875,0.5772231221199036,2.0640220642089844
1772534487668971500,0.867971435546875,1.063901424407959,1.2417954206466675,2.0768048763275146
1772534487678900000,0.87789990234375,1.6272765398025513,1.6432551145553589,2.651897668838501
1772534487688831700,0.887831787109375,1.3515143394470215,1.8999762535095215,4.224847316741943
1772534487698781200,0.89778125,0.574027419090271,1.148054838180542,5.943734169006348
1772534487708714800,0.90771484375,-0.29293906688690186,-1.3035788536071777,6.340000629425049
1772534487718611700,0.91761181640625,-1.345123052597046,-2.445242404937744,5.507121562957764
1772534487728541700,0.927541748046875,-2.0256738662719727,-2.328066825866699,3.969191312789917
1772534487738508000,0.937508056640625,-1.9681512117385864,-2.0033037662506104,2.0736093521118164
1772534487748441600,0.947441650390625,-1.665624976158142,-1.1842727661132812,-0.05965305119752884
1772534487758337300,0.957337158203125,-1.4836032390594482,0.16617634892463684,-2.258826732635498
1772534487768267000,0.96726708984375,-1.4729509353637695,1.7135604619979858,-4.083171367645264
1772534487778204000,0.977203857421875,-1.3493839502334595,3.073596715927124,-5.18648624420166
1772534487788134400,0.987134521484375,-1.0021179914474487,4.023518085479736,-5.708450794219971
1772534487798102500,0.9971025390625,-0.49200451374053955,4.78183126449585,-5.8180365562438965
1772534487808036600,1.00703662109375,0.05432688444852829,5.208856105804443,-5.471969127655029
1772534487817934300,1.016934326171875,0.3886769115924835,4.535895347595215,-4.6838297843933105
1772534487827864800,1.02686474609375,0.34393709897994995,2.657223701477051,-3.5506880283355713
1772534487837798100,1.036798095703125,0.0745663121342659,0.3801550269126892,-2.2140867710113525
1772534487847729000,1.04672900390625,-0.01917419396340847,-1.3334054946899414,-0.8797492980957031
1772534487857665300,1.056665283203125,0.2354165017604828,-2.118349075317383,0.2780258059501648
1772534487867596800,1.0665966796875,0.7487256526947021,-2.1576294898986816,1.216229796409607
1772534487877561300,1.076561279296875,1.1821423768997192,-1.81795334815979,1.833931803703308
1772534487887496000,1.086495849609375,1.237534523010254,-1.4910598993301392,2.000108242034912
1772534487897415200,1.096415283203125,0.9371387362480164,-1.3323402404785156,1.7508436441421509
1772534487907348200,1.10634814453125,0.4973306655883789,-1.2055774927139282,1.2854700088500977
1772534487917275000,1.11627490234375,0.10332760214805603,-0.8786841034889221,0.8275529146194458
1772534487927207400,1.12620751953125,-0.1171756312251091,-0.1715025156736374,0.718899130821228
1772534487937147400,1.1361474609375,-0.1267627328634262,0.633680522441864,1.0415315628051758
1772534487947080700,1.146080810546875,0,0.9754871129989624,1.4463201761245728
1772534487957000200,1.156000244140625,0.17576344311237335,0.9413996934890747,1.8403232097625732
1772534487966932000,1.165931884765625,0.15126308798789978,-0.0532616525888443,2.3131535053253174
1772534487976867300,1.175867431640625,-0.16724158823490143,-2.267348527908325,2.770005226135254
1772534487986799600,1.185799560546875,-0.37376365065574646,-4.381436347961426,2.8712024688720703
1772534487996735200,1.1957353515625,-0.17789392173290253,-4.926702499389648,2.2662832736968994
1772534488006667800,1.205667724609375,0.3194367587566376,-3.627384662628174,1.0266183614730835
1772534488016612000,1.215612060546875,0.779617428779602,-1.0436620712280273,-0.633680522441864
1772534488026546000,1.2255458984375,0.9840090274810791,1.7657568454742432,-2.3536324501037598
1772534488036462800,1.235462890625,0.9392692446708679,3.7168643474578857,-3.5357747077941895
1772534488046395000,1.245394775390625,0.7551170587539673,4.323914051055908,-3.8031482696533203
1772534488056326400,1.255326416015625,0.5750926733016968,3.5773189067840576,-3.208881378173828
1772534488066258400,1.265258544921875,0.48135218024253845,1.9159547090530396,-2.089587688446045
1772534488076206600,1.27520654296875,0.5282224416732788,0.06071828305721283,-0.955247700214386
1772534488086140200,1.28514013671875,0.7732260227203369,-1.323818325996399,-0.14487169682979584
1772534488096061700,1.295061767578125,1.183207631111145,-1.8073009252548218,0.27056917548179626
1772534488105994000,1.304993896484375,1.6368637084960938,-1.3685581684112549,0.44832995533943176
1772534488115919400,1.31491943359375,2.0171518325805664,-0.39613354206085205,0.6422023773193359
1772534488125851100,1.32485107421875,2.2151520252227783,0.7071815729141235,0.9158340692520142
1772534488135795500,1.33479541015625,2.093848705291748,1.4101022481918335,1.1938599348068237
1772534488145728300,1.344728271484375,1.5335360765457153,1.276948094367981,1.484668493270874
1772534488155692300,1.3546923828125,0.7764217257499695,0.5548532605171204,1.888258695602417
1772534488165628400,1.36462841796875,0.2130466103553772,-0.1491326242685318,2.273739814758301
1772534488175515000,1.374514892578125,-0.05432688444852829,-0.5111786723136902,2.403698205947876
1772534488185446100,1.384446044921875,-0.09161003679037094,-0.4952002167701721,2.169347047805786
1772534488195391000,1.394390869140625,0.06178351491689682,-0.18854624032974243,1.6528421640396118
1772534488205323500,1.404323486328125,0.32050198316574097,0.25991687178611755,0.9861394762992859
1772534488215223000,1.41422314453125,0.5069177746772766,0.6059844493865967,0.22902509570121765
1772534488225152300,1.42415234375,0.5697665214538574,0.6784203052520752,-0.5463314056396484
1772534488235107300,1.434107421875,0.48028692603111267,0.40572062134742737,-1.1874685287475586
1772534488245039000,1.4440390625,0.17363297939300537,-0.00852186419069767,-1.5910587310791016
1772534488254979800,1.453979736328125,-0.3003957271575928,-0.2972000241279602,-1.735930323600769
1772534488264912600,1.46391259765625,-0.7284862399101257,-0.3929378390312195,-1.6879948377609253
1772534488274847700,1.47384765625,-0.9627043604850769,-0.36524176597595215,-1.4836032390594482
1772534488284780500,1.483780517578125,-0.9808133244514465,-0.2865476906299591,-1.1288807392120361
1772534488294707700,1.493707763671875,-0.8232919573783875,-0.22156846523284912,-0.6890726089477539
1772534488304640000,1.503639892578125,-0.5846797823905945,-0.12250179797410965,-0.2354165017604828
1772534488314565400,1.5135654296875,-0.2684387266635895,-0.05113118514418602,0.20665520429611206
1772534488324497200,1.5234970703125,0.07137060910463333,-0.0958709716796875,0.5836145281791687
1772534488334436400,1.533436279296875,0.16617634892463684,-0.4355471432209015,0.8989235162734985
1772534488344369000,1.543368896484375,-0.1906767040491104,-1.3760147094726562,1.1714900732040405
1772534488354296300,1.55329638671875,-0.8350095152854919,-2.505960702896118,1.2268821001052856
1772534488364228000,1.56322802734375,-1.3206226825714111,-3.022465467453003,0.7955959439277649
1772534488374159400,1.573159423828125,-1.2716219425201416,-2.5592222213745117,-0.04367455467581749
1772534488384091100,1.583091064453125,-0.8232919573783875,-1.4633638858795166,-0.9754871129989624
1772534488394032400,1.593032470703125,-0.3908073604106903,-0.6453980803489685,-1.7604306936264038
1772534488403965200,1.602965087890625,-0.16404588520526886,-0.7710955739021301,-2.323805809020996
1772534488413904000,1.61290380859375,-0.1384802907705307,-1.7817354202270508,-2.563483238220215
1772534488423837200,1.622837158203125,-0.275895357131958,-3.004356622695923,-2.2428481578826904
1772534488433729800,1.632729736328125,-0.5463314056396484,-3.95015025138855,-1.398384690284729
1772534488443659300,1.6426591796875,-0.8967930674552917,-4.471981525421143,-0.43661239743232727
1772534488453629700,1.652629638671875,-1.2620347738265991,-4.165194511413574,0.5228962898254395
1772534488463563000,1.66256298828125,-1.6475160121917725,-2.811549425125122,1.4836032390594482
1772534488473473800,1.672473876953125,-1.9905210733413696,-1.4101022481918335,1.9574987888336182
1772534488483404800,1.68240478515625,-1.9788035154342651,-0.32263246178627014,1.7828006744384766
1772534488493352700,1.692352783203125,-1.6070371866226196,0.7210295796394348,1.407971739768982
1772534488503285500,1.702285400390625,-1.367492914199829,1.6315375566482544,1.1736204624176025
1772534488513211400,1.71221142578125,-1.339796781539917,2.0863919258117676,1.0734885931015015
1772534488523143400,1.722143310546875,-1.2013165950775146,1.9383246898651123,0.9765523672103882
1772534488533083600,1.732083740234375,-0.8211615085601807,1.461233377456665,0.7924002408981323
1772534488543016700,1.7420166015625,-0.3066539466381073,1.0575101375579834,0.447264701128006
1772534488552941000,1.751941162109375,0.24180789291858673,0.8051829934120178,-0.06497921794652939
1772534488562873000,1.761873046875,0.6698983907699585,0.43980807065963745,-0.6858769059181213
1772534488572806100,1.77180615234375,0.9584434032440186,0.08947957307100296,-1.153381109237671
1772534488582738400,1.781738525390625,1.2545782327651978,0.01704372838139534,-1.2577738761901855
1772534488592668700,1.791668701171875,1.4601681232452393,0.0852186381816864,-1.192794680595398
1772534488602600700,1.8016005859375,1.4963860511779785,0.1171756312251091,-1.1139674186706543
1772534488612532000,1.811531982421875,1.361101508140564,0.14274121820926666,-1.0053136348724365
1772534488622464000,1.821464111328125,1.0862714052200317,0.14061075448989868,-0.8339443206787109
1772534488632397600,1.8313974609375,0.7050511240959167,-0.0021304660476744175,-0.6496589779853821
1772534488642329600,1.84132958984375,0.26311254501342773,-0.2023942768573761,-0.5676360726356506
1772534488652260900,1.8512607421875,-0.13315412402153015,-0.24926452338695526,-0.6091801524162292
1772534488662193000,1.86119287109375,-0.3055887222290039,-0.09374050796031952,-0.6326152682304382
1772534488672134700,1.871134765625,-0.20665520429611206,0.13634982705116272,-0.4962654411792755
1772534488682067700,1.881067626953125,0.02450035884976387,0.41850343346595764,-0.2023942768573761
1772534488691996000,1.890995849609375,0.20985090732574463,0.6166367530822754,0.1267627328634262
1772534488701928400,1.900928466796875,0.22902509570121765,0.6294195652008057,0.3588503897190094
1772534488711853000,1.91085302734375,0.05006595328450203,0.5420704483985901,0.42596006393432617
1772534488721784800,1.920784912109375,-0.13528458774089813,0.3886769115924835,0.339676171541214
1772534488731724000,1.93072412109375,-0.2897433936595917,0.17256775498390198,0.07669677585363388
1772534488741656300,1.94065625,-0.4781564772129059,0.07669677585363388,-0.5154396295547485
1772534488751562800,1.950562744140625,-0.6208977103233337,0.07243584841489792,-1.3280792236328125
1772534488761492500,1.960492431640625,-0.6304848194122314,0.16511112451553345,-2.0437827110290527
1772534488771451100,1.970451171875,-0.5484618544578552,0.335415244102478,-2.442046642303467
1772534488781384000,1.980384033203125,-0.45898228883743286,0.534613847732544,-2.5613527297973633
1772534488791313700,1.990313720703125,-0.3386109471321106,0.6603113412857056,-2.5421786308288574
1772534488801246000,2.000245849609375,-0.15232832729816437,0.7327471375465393,-2.5134172439575195
1772534488811179500,2.010179443359375,0.11824086308479309,0.7998568415641785,-2.516613006591797
1772534488821112000,2.020112060546875,0.4685693681240082,0.8648360371589661,-2.4622862339019775
1772534488831046400,2.03004638671875,0.8477923274040222,0.8509880304336548,-2.2758703231811523
1772534488840979200,2.039979248046875,1.2045122385025024,0.5676360726356506,-1.9979777336120605
1772534488850929200,2.04992919921875,1.537796974182129,0.09480573982000351,-1.6400593519210815
1772534488860863700,2.05986376953125,1.7540392875671387,-0.34500235319137573,-1.153381109237671
1772534488870774800,2.06977490234375,1.6560379266738892,-0.803052544593811,-0.5218310356140137
1772534488880706800,2.079706787109375,1.1768162250518799,-1.3429925441741943,0.19813334941864014
1772534488890644200,2.089644287109375,0.4643084406852722,-1.7977138757705688,0.7849435806274414
1772534488900576800,2.09957666015625,-0.21091613173484802,-2.0224781036376953,0.9797480702400208
1772534488910514400,2.109514404296875,-0.5676360726356506,-1.9553683996200562,0.8318138122558594
1772534488920447500,2.119447509765625,-0.5207657814025879,-1.337666392326355,0.5910711884498596
1772534488930343200,2.12934326171875,-0.23754696547985077,-0.08947957307100296,0.2886781394481659
1772534488940272600,2.139272705078125,0.10545806586742401,1.0372706651687622,-0.13102366030216217
1772534488950208500,2.14920849609375,0.38761165738105774,1.2876003980636597,-0.535679042339325
1772534488960138500,2.159138427734375,0.484547883272171,0.5537880063056946,-0.7625737190246582
1772534488970107400,2.169107421875,0.3055887222290039,-0.8339443206787109,-0.7636389136314392
1772534488980041500,2.17904150390625,-0.13634982705116272,-2.06508731842041,-0.5750926733016968
1772534488989980000,2.18897998046875,-0.6656374931335449,-2.3184797763824463,-0.2556559145450592
1772534488999914200,2.198914306640625,-0.9808133244514465,-1.2045122385025024,0.29400432109832764
1772534489009838000,2.208838134765625,-0.9010539650917053,1.155511498451233,1.1842727661132812
1772534489019771400,2.218771484375,-0.5910711884498596,3.388772487640381,1.8893239498138428
1772534489029667600,2.22866748046875,-0.34074142575263977,4.22058629989624,1.8712149858474731
1772534489039597000,2.23859716796875,-0.3716331720352173,3.889432191848755,1.3962541818618774
1772534489049530600,2.248530517578125,-0.6123758554458618,2.9500296115875244,0.9499215483665466
1772534489059460600,2.258460693359375,-0.7135729789733887,1.8967806100845337,0.7615084648132324
1772534489069394200,2.268394287109375,-0.48028692603111267,1.1171631813049316,0.7806826233863831
1772534489079324400,2.278324462890625,-0.0106523297727108,0.4898740351200104,0.8073135018348694
1772534489089276000,2.28827587890625,0.4461994767189026,0.05965305119752884,0.8328790664672852
1772534489099208400,2.29820849609375,0.7146382331848145,0.0031956990715116262,0.955247700214386
1772534489109138400,2.308138427734375,0.7710955739021301,0.1587197184562683,1.1491200923919678
1772534489119070700,2.31807080078125,0.657115638256073,0.299330472946167,1.3280792236328125
1772534489128987100,2.327987060546875,0.4675041437149048,0.3375457227230072,1.4601681232452393
1772534489138918000,2.33791796875,0.31198012828826904,0.25032976269721985,1.5292751789093018
1772534489148899600,2.347899658203125,0.16617634892463684,0.10971900075674057,1.4740161895751953
1772534489158835500,2.35783544921875,-0.0053261648863554,0.08628387749195099,1.2439258098602295
1772534489168742100,2.3677421875,-0.17682868242263794,0.21943800151348114,0.8414009213447571
1772534489178675000,2.377675048828125,-0.36417654156684875,0.40891632437705994,0.36524176597595215
1772534489188604400,2.3876044921875,-0.587875485420227,0.5708317756652832,-0.04473978653550148
1772534489198537000,2.397536865234375,-0.7892045378684998,0.6315500140190125,-0.29080861806869507
1772534489208469200,2.40746923828125,-0.9074453711509705,0.5388747453689575,-0.33221954107284546
1772534489218401800,2.41740185546875,-0.969095766544342,0.275895357131958,-0.1715025156736374
1772534489228330500,2.42733056640625,-1.0212922096252441,-0.02769605815410614,0.14274121820926666
1772534489238262500,2.437262451171875,-1.0521838665008545,-0.2684387266635895,0.5218310356140137
1772534489248198100,2.4471982421875,-1.075619101524353,-0.5367442965507507,0.7817478775978088
1772534489258130700,2.457130615234375,-1.11503267288208,-0.8403357267379761,0.8062482476234436
1772534489268062500,2.4670625,-1.1469897031784058,-1.0564448833465576,0.6507242321968079
1772534489277995000,2.4769951171875,-1.1437939405441284,-1.0766842365264893,0.3918725848197937
1772534489287927300,2.48692724609375,-1.0745538473129272,-0.8989235162734985,0.03941362351179123
1772534489297859800,2.49685986328125,-0.9031844735145569,-0.5367442965507507,-0.3790898025035858
1772534489307803100,2.50680322265625,-0.6475285291671753,-0.05006595328450203,-0.8041177988052368
1772534489317736400,2.516736328125,-0.400394469499588,0.5314181447029114,-1.1778813600540161
1772534489327655000,2.526655029296875,-0.23009033501148224,1.1650986671447754,-1.508103609085083
1772534489337587000,2.5365869140625,-0.13102366030216217,1.6837339401245117,-1.7838658094406128
1772534489347521800,2.546521728515625,-0.05113118514418602,1.764691710472107,-1.9702816009521484
1772534489357454000,2.5564541015625,0.009587096981704235,1.2780133485794067,-2.1629557609558105
1772534489367395300,2.566395263671875,-0.01171756349503994,0.4643084406852722,-2.4026331901550293
1772534489377328600,2.57632861328125,-0.10865376889705658,-0.3279586136341095,-2.572005033493042
1772534489387254800,2.5862548828125,-0.2141118347644806,-0.9435301423072815,-2.5943751335144043
1772534489397187000,2.59618701171875,-0.31304535269737244,-1.208773136138916,-2.440981388092041
1772534489407121700,2.60612158203125,-0.3609808385372162,-0.8765535950660706,-2.107696771621704
1772534489417054200,2.61605419921875,-0.3066539466381073,-0.08308817446231842,-1.673081636428833
1772534489426979000,2.62597900390625,-0.12037133425474167,0.6560503840446472,-1.2247517108917236
1772534489436911000,2.6359111328125,0.16724158823490143,0.9999874830245972,-0.7870740294456482
1772534489446846500,2.645846435546875,0.34287187457084656,0.7433995008468628,-0.40785109996795654
1772534489456778800,2.65577880859375,0.27056917548179626,-0.12250179797410965,-0.07243584841489792
1772534489466712000,2.665712158203125,0.15232832729816437,-1.2737523317337036,0.36630702018737793
1772534489476644400,2.675644287109375,0.16617634892463684,-2.2481741905212402,0.8882712125778198
1772534489486552600,2.685552490234375,0.24287313222885132,-2.665745735168457,1.2758828401565552
1772534489496482600,2.695482666015625,0.3567199110984802,-2.516613006591797,1.3152965307235718
1772534489506434000,2.70543408203125,0.4451342523097992,-1.813692331314087,0.872292697429657
1772534489516366300,2.715366455078125,0.4142425060272217,-0.5324833393096924,0.13528458774089813
1772534489526298400,2.72529833984375,0.2652430236339569,0.9659000635147095,-0.5612446665763855
1772534489536230400,2.73523046875,0.09480573982000351,2.1768035888671875,-1.0628362894058228
1772534489546171400,2.74517138671875,-0.05539211630821228,2.7636139392852783,-1.3813409805297852
1772534489556104400,2.7551044921875,-0.1288931965827942,2.6348538398742676,-1.6251461505889893
1772534489566043000,2.76504296875,-0.02236989326775074,1.8818672895431519,-1.8584321737289429
1772534489575976400,2.7749765625,0.1608501821756363,0.9509868025779724,-2.0821311473846436
1772534489585892600,2.784892578125,0.4632432162761688,0.3577851355075836,-2.0363261699676514
1772534489595824400,2.794824462890625,0.803052544593811,0.0745663121342659,-1.689060091972351
1772534489605733000,2.804733154296875,1.0053136348724365,-0.009587096981704235,-1.3280792236328125
1772534489615662600,2.81466259765625,0.954182505607605,0.02343512699007988,-1.0212922096252441
1772534489625622000,2.8246220703125,0.5995930433273315,0.15765449404716492,-0.6880073547363281
1772534489635554600,2.834554443359375,0.19387240707874298,0.3077192008495331,-0.3886769115924835
1772534489645489400,2.844489501953125,0.0031956990715116262,0.4781564772129059,-0.27056917548179626
1772534489655422200,2.854422119140625,-0.02023942768573761,0.7103772759437561,-0.3460675776004791
1772534489665354800,2.864354736328125,0.03408745676279068,0.9339430332183838,-0.44939517974853516
1772534489675287600,2.87428759765625,0.13421936333179474,0.9808133244514465,-0.42596006393432617
1772534489685219000,2.884218994140625,0.20985090732574463,0.7487256526947021,-0.28015628457069397
1772534489695151600,2.894151611328125,0.2130466103553772,0.3066539466381073,-0.10119713842868805
1772534489705085000,2.9040849609375,0.13634982705116272,-0.14061075448989868,0.06071828305721283
1772534489715017500,2.914017578125,0.02343512699007988,-0.3705679476261139,0.25032976269721985
1772534489724945200,2.923945068359375,-0.01704372838139534,-0.33328479528427124,0.5548532605171204
1772534489734877200,2.933877197265625,0.0010652330238372087,-0.191741943359375,0.9499215483665466
1772534489744787000,2.943786865234375,0.04580501839518547,-0.09374050796031952,1.3642971515655518
1772534489754717000,2.953717041015625,0.12569749355316162,-0.12037133425474167,1.7561697959899902
1772534489764653300,2.9636533203125,0.21837277710437775,-0.2663082480430603,2.1194143295288086
1772534489774583800,2.973583740234375,0.2652430236339569,-0.49200451374053955,2.4580252170562744
1772534489784541000,2.983541015625,0.2663082480430603,-0.7753564715385437,2.756157398223877
1772534489794474200,2.99347412109375,0.24926452338695526,-1.0937280654907227,2.9777257442474365
1772534489804401200,3.003401123046875,0.22582940757274628,-1.414363145828247,3.0949013233184814
1772534489814333700,3.013333740234375,0.2247641682624817,-1.6677554845809937,3.0938360691070557
1772534489824263200,3.02326318359375,0.23222079873085022,-1.7284737825393677,2.9255292415618896
1772534489834195500,3.033195556640625,0.20985090732574463,-1.5931891202926636,2.5240695476531982
1772534489844135700,3.0431357421875,0.1810896098613739,-1.345123052597046,1.935128927230835
1772534489854068700,3.05306884765625,0.16191542148590088,-1.0319445133209229,1.2758828401565552
1772534489863999700,3.062999755859375,0.10013190656900406,-0.7231600880622864,0.6315500140190125
1772534489873932800,3.072932861328125,-0.02343512699007988,-0.5207657814025879,0.10971900075674057
1772534489883862800,3.08286279296875,-0.18322007358074188,-0.4738955497741699,-0.2332860380411148
1772534489893795300,3.09279541015625,-0.3609808385372162,-0.5026568174362183,-0.42809051275253296
1772534489903728400,3.102728271484375,-0.5069177746772766,-0.6709636449813843,-0.4983958899974823
1772534489913661200,3.1126611328125,-0.5974625945091248,-1.0276836156845093,-0.4760259985923767
1772534489923586000,3.1225859375,-0.6368761658668518,-1.259904384613037,-0.43874284625053406
1772534489933518000,3.13251806640625,-0.5718969702720642,-1.0191617012023926,-0.4685693681240082
1772534489943456000,3.1424560546875,-0.41850343346595764,-0.43980807065963745,-0.5580489635467529
1772534489953388500,3.152388427734375,-0.32476291060447693,0.2450035959482193,-0.6837464570999146
1772534489963324000,3.162323974609375,-0.4675041437149048,0.8659012913703918,-0.8541837334632874
1772534489973256700,3.172256591796875,-0.8520532846450806,1.175750970840454,-1.0649666786193848
1772534489983182300,3.182182373046875,-1.2588391304016113,1.0596405267715454,-1.260969638824463
1772534489993114600,3.192114501953125,-1.3355358839035034,0.7295514941215515,-1.2971875667572021
1772534490003063000,3.20206298828125,-0.955247700214386,0.5026568174362183,-1.061771035194397
1772534490012996600,3.21199658203125,-0.4344819188117981,0.5442008972167969,-0.6528546810150146
1772534490022913500,3.22191357421875,-0.06178351491689682,0.7093120217323303,-0.21624229848384857
1772534490032845600,3.231845458984375,0.08947957307100296,0.7455299496650696,0.2439383566379547
1772534490042790400,3.241790283203125,-0.04047885537147522,0.2588516175746918,0.7018554210662842
1772534490052723700,3.2517236328125,-0.43661239743232727,-1.0191617012023926,1.0021179914474487
1772534490062644200,3.261644287109375,-0.8200962543487549,-2.606092691421509,1.1672290563583374
1772534490072576300,3.271576171875,-0.8456618785858154,-3.2685344219207764,1.3642971515655518
1772534490082506500,3.281506591796875,-0.6219629049301147,-2.2002387046813965,1.4633638858795166
1772534490092438300,3.291438232421875,-0.46963462233543396,-0.11184946447610855,0.9957265853881836
1772534490102370800,3.301370849609375,-0.4579170346260071,1.3951889276504517,-0.25032976269721985
1772534490112302800,3.311302734375,-0.4856131076812744,1.7540392875671387,-1.8616278171539307
1772534490122214000,3.3212138671875,-0.5250267386436462,1.727408528327942,-3.0075523853302
1772534490132143600,3.3311435546875,-0.5718969702720642,1.7401913404464722,-3.2067508697509766
1772534490142113300,3.34111328125,-0.6411371231079102,1.5559059381484985,-2.708354949951172
1772534490152047000,3.351047119140625,-0.6667027473449707,1.260969638824463,-1.9851949214935303
1772534490161941000,3.36094091796875,-0.47283029556274414,0.9509868025779724,-1.2407301664352417
1772534490171870700,3.37087060546875,-0.15765449404716492,0.6432675719261169,-0.5378095507621765
1772534490181814300,3.380814208984375,0.00852186419069767,0.43661239743232727,-0.01171756349503994
1772534490191745300,3.390745361328125,0.0053261648863554,0.4579170346260071,0.2556559145450592
1772534490201670100,3.400670166015625,0.0106523297727108,0.6166367530822754,0.2865476906299591
1772534490211601000,3.410600830078125,0.07137060910463333,0.872292697429657,0.07882724702358246
1772534490231481300,3.4304814453125,-0.03302222490310669,1.1714900732040405,-0.8829450011253357
1772534490241403400,3.4404033203125,-0.3194367587566376,0.8275529146194458,-1.3632320165634155
1772534490251335000,3.4503349609375,-0.5165048837661743,0.3588503897190094,-1.4601681232452393
1772534490261263600,3.460263671875,-0.5527228116989136,0.08095771074295044,-1.124619722366333
1772534490271194600,3.470194580078125,-0.49306973814964294,0.06710968166589737,-0.6390066742897034
1772534490281173800,3.480173828125,-0.3886769115924835,0.24180789291858673,-0.28015628457069397
1772534490291109600,3.490109619140625,-0.22050324082374573,0.5239614844322205,-0.13421936333179474
1772534490300993500,3.49999365234375,0.004260932095348835,0.8925321102142334,-0.15658925473690033
1772534490310924000,3.509924072265625,0.22902509570121765,1.3110355138778687,-0.23115555942058563
1772534490320883500,3.519883544921875,0.35565468668937683,1.6507117748260498,-0.30146095156669617
1772534490330816800,3.529816650390625,0.3460675776004791,1.5559059381484985,-0.30984964966773987
1772534490340721400,3.539721435546875,0.22689463198184967,1.0042483806610107,-0.1704372763633728
1772534490350652000,3.54965185546875,0.06710968166589737,0.2961347699165344,0.10226237028837204
1772534490360588300,3.55958837890625,-0.07137060910463333,-0.30359140038490295,0.36524176597595215
1772534490370519300,3.569519287109375,-0.11824086308479309,-0.6177020072937012,0.5154396295547485
1772534490380478000,3.57947802734375,-0.0106523297727108,-0.6262238621711731,0.5559184551239014
1772534490390411800,3.589411865234375,0.18854624032974243,-0.39613354206085205,0.4952002167701721
1772534490400342500,3.599342529296875,0.3599156141281128,-0.09480573982000351,0.34074142575263977
1772534490410276000,3.609276123046875,0.4461994767189026,0.13208889961242676,0.1267627328634262
1772534490420232400,3.619232421875,0.4131772518157959,0.2236989289522171,-0.13421936333179474
1772534490430168600,3.62916845703125,0.299330472946167,0.14700216054916382,-0.4142425060272217
1772534490440085200,3.639085205078125,0.18961147964000702,-0.05432688444852829,-0.6379414200782776
1772534490450019300,3.649019287109375,0.10119713842868805,-0.28015628457069397,-0.7593780159950256
1772534490459933000,3.658932861328125,0.03408745676279068,-0.4962654411792755,-0.7870740294456482
1772534490469865000,3.668864990234375,0.02450035884976387,-0.6496589779853821,-0.7444647550582886
1772534490479809300,3.678809326171875,0.10119713842868805,-0.6358109712600708,-0.6720288991928101
1772534490489742300,3.688742431640625,0.24287313222885132,-0.42702528834342957,-0.5868102312088013
1772534490499645200,3.698645263671875,0.423829585313797,-0.13208889961242676,-0.4547213613986969
1772534490509575400,3.708575439453125,0.5644403696060181,0.012782796286046505,-0.2354165017604828
1772534490519533600,3.718533447265625,0.5601794123649597,-0.1821548491716385,0.10758853703737259
1772534490529466400,3.72846630859375,0.40998154878616333,-0.7306166887283325,0.5484618544578552
1772534490539391500,3.7383916015625,0.23222079873085022,-1.6081024408340454,1.0266183614730835
1772534490549323500,3.748323486328125,0.10971900075674057,-2.4005026817321777,1.4505810737609863
1772534490559255600,3.758255615234375,-0.03621792420744896,-2.7870490550994873,1.6784077882766724
1772534490569187600,3.7681875,-0.3492632806301117,-2.9553558826446533,1.5388622283935547
1772534490579120400,3.778120361328125,-0.7348776459693909,-2.755092144012451,1.0191617012023926
1772534490589052700,3.788052734375,-0.9616391062736511,-1.9383246898651123,0.17576344311237335
1772534490598988300,3.79798828125,-0.9722914695739746,-0.6720288991928101,-0.9360735416412354
1772534490608920800,3.8079208984375,-0.9488562941551208,0.6400718688964844,-2.1309986114501953
1772534490618858500,3.8178583984375,-1.054314374923706,1.9159547090530396,-2.8807895183563232
1772534490628791600,3.82779150390625,-1.1299458742141724,3.407946825027466,-2.3397843837738037
1772534490638714600,3.837714599609375,-1.199186086654663,4.2376298904418945,-0.741269052028656
1772534490648646700,3.847646728515625,-1.283339500427246,3.3154046535491943,0.6752246022224426
1772534490658584000,3.857583984375,-1.216229796409607,1.5324708223342896,1.4559072256088257
1772534490668516600,3.8675166015625,-0.8350095152854919,0.1065233051776886,1.8467146158218384
1772534490678457000,3.87745703125,-0.3279586136341095,-0.8009220957756042,1.8403232097625732
1772534490688390400,3.887390380859375,0.1374150663614273,-1.2684261798858643,1.5292751789093018
1772534490698308600,3.89730859375,0.5484618544578552,-1.2428606748580933,1.199186086654663
1772534490708240400,3.907240478515625,0.8073135018348694,-0.9605738520622253,0.9095758199691772
1772534490718178800,3.9171787109375,0.9200950264930725,-0.7327471375465393,0.703985869884491
1772534490728111400,3.927111328125,0.9200950264930725,-0.6677679419517517,0.619832456111908
1772534490738039600,3.93703955078125,0.779617428779602,-0.7934654355049133,0.549527108669281
1772534490747971600,3.9469716796875,0.5015916228294373,-1.0138355493545532,0.3492632806301117
1772534490757898500,3.9568984375,0.1800243854522705,-1.2098383903503418,0.01384802907705307
1772534490767830000,3.966830078125,-0.007456631399691105,-0.9893351793289185,-0.24180789291858673
1772534490777762000,3.976761962890625,-0.04900071769952774,-0.20985090732574463,-0.28335198760032654
1772534490787693600,3.986693603515625,-0.0532616525888443,0.5932016372680664,-0.20665520429611206
1772534490797642500,3.996642578125,-0.06284874677658081,0.9275516271591187,-0.1384802907705307
1772534490807576000,4.006576171875,-0.12250179797410965,0.8904016613960266,-0.08415340632200241
1772534490817507000,4.016507080078125,-0.2023942768573761,0.7924002408981323,-0.01810896210372448
1772534490827440000,4.026440185546875,-0.20452474057674408,0.6741593480110168,0.03408745676279068
1772534490837356800,4.036356689453125,-0.14487169682979584,0.4334166944026947,0.0159784946590662
1772534490847288000,4.0462880859375,-0.1171756312251091,0.02343512699007988,-0.07989247888326645
1772534490857222400,4.056222412109375,-0.10013190656900406,-0.4643084406852722,-0.14700216054916382
1772534490867154200,4.066154296875,-0.0106523297727108,-0.8350095152854919,-0.02236989326775074
1772534490877088500,4.076088623046875,0.10013190656900406,-0.9520519971847534,0.28441721200942993
1772534490887020500,4.0860205078125,0.1288931965827942,-0.9179645776748657,0.57296222448349
1772534490896953600,4.09595361328125,0.03834838792681694,-0.8978582620620728,0.6858769059181213
1772534490906886000,4.105885986328125,-0.11504516750574112,-0.8627055883407593,0.611310601234436
1772534490916816000,4.11581591796875,-0.28335198760032654,-0.7551170587539673,0.381220281124115
1772534490926748000,4.125747802734375,-0.45898228883743286,-0.7061163187026978,0.0159784946590662
1772534490936679200,4.13567919921875,-0.6070496439933777,-0.8520532846450806,-0.38441595435142517
1772534490946611000,4.14561083984375,-0.7061163187026978,-1.1022498607635498,-0.6667027473449707
1772534490956540200,4.1555400390625,-0.8094439506530762,-1.3483186960220337,-0.7636389136314392
1772534490966471700,4.1654716796875,-1.0202269554138184,-1.5644278526306152,-0.6826812028884888
1772534490976425500,4.175425537109375,-1.3227530717849731,-1.5505797863006592,-0.5111786723136902
1772534490986359300,4.185359375,-1.468690037727356,-1.206642746925354,-0.35458943247795105
1772534490996274000,4.19527392578125,-1.3046441078186035,-0.6390066742897034,-0.22689463198184967
1772534491006205700,4.205205810546875,-1.0362054109573364,0.05219641700387001,-0.00852186419069767
1772534491016118500,4.215118408203125,-0.9063801765441895,0.7093120217323303,0.43980807065963745
1772534491026048500,4.225048583984375,-0.9499215483665466,1.0553796291351318,1.0734885931015015
1772534491036004900,4.2350048828125,-1.0820103883743286,0.9637695550918579,1.7625612020492554
1772534491045937400,4.2449375,-1.1970555782318115,0.42915576696395874,2.3813283443450928
1772534491055881200,4.254881103515625,-1.1906641721725464,-0.39826399087905884,2.8051578998565674
1772534491065815000,4.26481494140625,-1.0649666786193848,-1.1629681587219238,2.9265944957733154
1772534491075741000,4.274740966796875,-0.8605751395225525,-1.451646327972412,2.7200725078582764
1772534491085673700,4.284673828125,-0.5388747453689575,-1.216229796409607,2.3184797763824463
1772534491095592400,4.294592529296875,-0.2034595012664795,-0.7380733489990234,1.904237151145935
1772534491105524000,4.30452392578125,-0.01704372838139534,-0.19813334941864014,1.565493106842041
1772534491115461000,4.314461181640625,-0.02769605815410614,0.29080861806869507,1.2716219425201416
1772534491125393200,4.32439306640625,-0.17469821870326996,0.4994611442089081,0.993596076965332
1772534491135326000,4.334325927734375,-0.40891632437705994,0.29080861806869507,0.6645722389221191
1772534491145258000,4.344258056640625,-0.6560503840446472,-0.04900071769952774,0.2023942768573761
1772534491155223600,4.3542236328125,-0.7838783264160156,-0.1065233051776886,-0.2450035959482193
1772534491165159000,4.364158935546875,-0.849922776222229,0.2545906901359558,-0.57296222448349
1772534491175047200,4.374047119140625,-0.803052544593811,0.8701622486114502,-0.8701622486114502
1772534491184978000,4.38397802734375,-0.4685693681240082,1.429276466369629,-1.2758828401565552
1772534491194920000,4.393919921875,0.07030537724494934,1.544188380241394,-1.8499102592468262
1772534491204851700,4.403851806640625,0.6262238621711731,0.9680305123329163,-2.3397843837738037
1772534491214793000,4.41379296875,1.0670971870422363,-0.2354165017604828,-2.3962416648864746
1772534491224725800,4.423725830078125,1.3419272899627686,-1.81795334815979,-1.8925195932388306
1772534491234647800,4.433647705078125,1.4441896677017212,-3.739234209060669,-1.0607057809829712
1772534491244579600,4.44357958984375,1.459102988243103,-5.728690147399902,-0.26311254501342773
1772534491254512600,4.4535126953125,1.5303404331207275,-6.738264560699463,0.3279586136341095
1772534491264444700,4.463444580078125,1.6762772798538208,-6.081149101257324,0.6698983907699585
1772534491274386400,4.473386474609375,1.8073009252548218,-4.363327503204346,0.7007901668548584
1772534491284319200,4.4833193359375,1.895715355873108,-2.6497671604156494,0.5697665214538574
1772534491294242300,4.4932421875,1.6943862438201904,-1.3014484643936157,0.6166367530822754
1772534491304174000,4.503174072265625,1.0969237089157104,-0.45152565836906433,0.9424648880958557
1772534491314112800,4.51311279296875,0.4536561071872711,-0.28015628457069397,1.429276466369629
1772534491324045300,4.52304541015625,0.06604444980621338,-0.6230281591415405,1.8605626821517944
1772534491333951000,4.532950927734375,-0.07776200771331787,-0.849922776222229,2.038456439971924
1772534491343880700,4.542880615234375,-0.1267627328634262,-0.5750926733016968,1.7721482515335083
1772534491353850400,4.552850341796875,-0.1800243854522705,-0.12143656611442566,1.1139674186706543
1772534491363784200,4.5627841796875,-0.10865376889705658,0.3087844252586365,0.503722071647644
1772534491373679600,4.5726796875,0.12143656611442566,0.8243572115898132,0.28441721200942993
1772534491383609600,4.582609619140625,0.33115431666374207,1.3664276599884033,0.3460675776004791
1772534491393549600,4.592549560546875,0.35458943247795105,1.719951868057251,0.40891632437705994
1772534491403480600,4.60248046875,0.12037133425474167,1.759365439414978,0.3290238380432129
1772534491413407200,4.6124072265625,-0.27163442969322205,1.596384882926941,0.20558997988700867
1772534491423338000,4.622337890625,-0.6539199352264404,1.4324721097946167,0.1693720519542694
1772534491433274000,4.632274169921875,-0.9232907295227051,1.330209732055664,0.13208889961242676
1772534491443205400,4.642205322265625,-1.0234225988388062,1.3035788536071777,-0.05219641700387001
1772534491453135400,4.65213525390625,-0.9264864325523376,1.4409940242767334,-0.339676171541214
1772534491463066400,4.66206640625,-0.7061163187026978,1.6773425340652466,-0.6667027473449707
1772534491473027000,4.672027099609375,-0.4770912528038025,1.8168880939483643,-1.0521838665008545
1772534491482961200,4.681961181640625,-0.2972000241279602,1.8264751434326172,-1.4942556619644165
1772534491492864500,4.691864501953125,-0.18854624032974243,1.837127447128296,-1.8701497316360474
1772534491502795500,4.70179541015625,-0.13315412402153015,2.027804136276245,-1.9915863275527954
1772534491512733200,4.711733154296875,-0.09800143539905548,2.5336568355560303,-1.733799934387207
1772534491522665000,4.7216650390625,-0.11078423261642456,3.059748649597168,-1.0734885931015015
1772534491532617700,4.73161767578125,-0.2876129150390625,3.0256612300872803,-0.10226237028837204
1772534491542551300,4.74155126953125,-0.5942668914794922,2.2971749305725098,0.9424648880958557
1772534491552480000,4.75147998046875,-0.8041177988052368,1.2844047546386719,1.7689526081085205
1772534491562413000,4.7614130859375,-0.8158353567123413,0.6059844493865967,2.1098270416259766
1772534491572347000,4.771346923828125,-0.5942668914794922,0.43661239743232727,1.902106761932373
1772534491582280200,4.7812802734375,-0.12143656611442566,0.5974625945091248,1.2726871967315674
1772534491592210400,4.79121044921875,0.49306973814964294,0.9307473301887512,0.39506828784942627
1772534491602143500,4.8011435546875,1.122489333152771,1.178946614265442,-0.484547883272171
1772534491612081200,4.8110810546875,1.6102328300476074,1.2311431169509888,-1.1395330429077148
1772534491622014700,4.8210146484375,1.8051705360412598,1.1118369102478027,-1.5218185186386108
1772534491631938600,4.8309384765625,1.7242127656936646,0.8094439506530762,-1.6741468906402588
1772534491641847300,4.840847412109375,1.5644278526306152,0.5420704483985901,-1.5878629684448242
1772534491661736000,4.86073583984375,1.5601669549942017,0.5697665214538574,-1.1682943105697632
1772534491671670500,4.87067041015625,1.7156909704208374,0.2141118347644806,-1.0138355493545532
1772534491681581000,4.8805810546875,1.8467146158218384,-0.32369768619537354,-0.9307473301887512
1772534491691513000,4.89051318359375,1.8531060218811035,-0.6400718688964844,-1.0031832456588745
1772534491701463600,4.900463623046875,1.5910587310791016,-0.3183715343475342,-0.9669652581214905
1772534491711397600,4.910397705078125,1.1437939405441284,0.9222254753112793,-0.26098209619522095
1772534491721331500,4.92033154296875,0.803052544593811,1.948976993560791,0.8360747694969177
1772534491731265500,4.930265625,0.9360735416412354,1.6879948377609253,1.5123646259307861
1772534491741195300,4.9401953125,1.4367330074310303,1.047922968864441,1.7540392875671387
1772534491751128800,4.95012890625,1.727408528327942,0.969095766544342,1.9436508417129517
1772534491761061000,4.96006103515625,1.5772106647491455,1.0362054109573364,1.9894558191299438
1772534491770994700,4.96999462890625,1.306774616241455,0.8509880304336548,1.7231475114822388
1772534491780943600,4.979943603515625,1.2417954206466675,0.5473966002464294,1.3089051246643066
1772534491790878700,4.989878662109375,1.3632320165634155,0.3833507299423218,0.9085106253623962
1772534491800794400,4.99979443359375,1.461233377456665,0.2343512624502182,0.4536561071872711
1772534491810727700,5.009727783203125,1.4910598993301392,-0.0852186381816864,-0.0958709716796875
1772534491820661800,5.019661865234375,1.5857324600219727,-0.3684374690055847,-0.6091801524162292
1772534491830595000,5.029594970703125,1.7529741525650024,-0.4781564772129059,-0.9392692446708679
1772534491840529700,5.03952978515625,1.9361941814422607,-0.5143743753433228,-0.9904004335403442
1772534491850463000,5.049462890625,2.1204795837402344,-0.596397340297699,-0.7402037978172302
1772534491860384000,5.059384033203125,2.2183477878570557,-0.7870740294456482,-0.19813334941864014
1772534491870316300,5.06931640625,2.141650915145874,-1.0958584547042847,0.6027887463569641
1772534491880288500,5.07928857421875,1.9425855875015259,-1.414363145828247,1.5388622283935547
1772534491890224600,5.089224609375,1.6933209896087646,-1.5899934768676758,2.3813283443450928
1772534491900109600,5.099109619140625,1.4132978916168213,-1.542057991027832,2.914876937866211
1772534491910040600,5.10904052734375,1.1416635513305664,-1.230077862739563,3.0672054290771484
1772534491919951600,5.11895166015625,0.887205958366394,-0.7742912769317627,2.9042246341705322
1772534491929880600,5.128880615234375,0.6102453470230103,-0.3620460629463196,2.5357871055603027
1772534491939842600,5.138842529296875,0.31304535269737244,-0.01171756349503994,2.061891555786133
1772534491949774800,5.14877490234375,0.0532616525888443,0.3151758313179016,1.5198211669921875
1772534491959705000,5.158705078125,-0.10119713842868805,0.5452661514282227,0.9137036204338074
1772534491969637000,5.16863720703125,-0.10439283400774002,0.6379414200782776,0.3055887222290039
1772534491979567900,5.17856787109375,-0.05006595328450203,0.5665708184242249,-0.2460688352584839
1772534491989499600,5.188499755859375,-0.10971900075674057,0.3492632806301117,-0.872292697429657
1772534491999409700,5.19840966796875,-0.14274121820926666,0.04047885537147522,-1.5367318391799927
1772534492009339400,5.20833935546875,-0.07563154399394989,-0.16298064589500427,-2.033130407333374
1772534492019273000,5.21827294921875,-0.07882724702358246,-0.2023942768573761,-2.300370693206787
1772534492029203200,5.228203125,-0.24926452338695526,-0.18854624032974243,-2.413285493850708
1772534492039164000,5.238163818359375,-0.5378095507621765,-0.23861220479011536,-2.417546272277832
1772534492049097000,5.248096923828125,-0.8712274432182312,-0.3577851355075836,-2.334458112716675
1772534492059023600,5.258023681640625,-1.2002513408660889,-0.5090482234954834,-2.1853256225585938
1772534492068956200,5.2679560546875,-1.4367330074310303,-0.6262238621711731,-2.0033037662506104
1772534492078890500,5.277890380859375,-1.5228837728500366,-0.6219629049301147,-1.8360623121261597
1772534492088823300,5.2878232421875,-1.4654942750930786,-0.4760259985923767,-1.7050386667251587
1772534492098757000,5.297757080078125,-1.2982527017593384,-0.22156846523284912,-1.651776909828186
1772534492108690000,5.30768994140625,-1.0351401567459106,0.12569749355316162,-1.6698858737945557
1772534492118620000,5.317619873046875,-0.6912030577659607,0.5335485935211182,-1.7071690559387207
1772534492128552200,5.32755224609375,-0.3940030634403229,0.9339430332183838,-1.7465827465057373
1772534492138483700,5.337483642578125,-0.28228676319122314,1.2471215724945068,-1.773213505744934
1772534492148416000,5.347416015625,-0.335415244102478,1.2748175859451294,-1.7614959478378296
1772534492158348000,5.35734814453125,-0.39932921528816223,0.9010539650917053,-1.649646520614624
1772534492168280300,5.3672802734375,-0.29293906688690186,0.19600287079811096,-1.3813409805297852
1772534492178215200,5.377215087890625,0.01491326279938221,-0.6890726089477539,-0.9616391062736511
1772534492188147700,5.387147705078125,0.41956865787506104,-1.5697540044784546,-0.4035901725292206
1772534492198089200,5.397089111328125,0.7199643850326538,-2.328066825866699,0.15658925473690033
1772534492208022800,5.407022705078125,0.7295514941215515,-2.9638776779174805,0.5090482234954834
1772534492217918200,5.416918212890625,0.49306973814964294,-3.269599676132202,0.5921363830566406
1772534492227848000,5.426847900390625,0.08628387749195099,-2.93831205368042,0.3492632806301117
1772534492237817900,5.43681787109375,-0.7370080947875977,-2.2939794063568115,-0.680550754070282
1772534492247751700,5.446751708984375,-1.8605626821517944,-1.8190184831619263,-2.5943751335144043
1772534492257674200,5.45667431640625,-2.352567195892334,-0.17469821870326996,-3.963865280151367
1772534492267606800,5.466606689453125,-2.0629568099975586,2.9649429321289062,-3.8010177612304688
1772534492277510700,5.4765107421875,-1.347253441810608,5.072639465332031,-2.807288408279419
1772534492287440400,5.4864404296875,-0.5090482234954834,4.89261531829834,-1.7369955778121948
1772534492297405200,5.4964052734375,-0.04793548583984375,3.978778600692749,-0.20558997988700867
1772534492307338500,5.50633837890625,0.01384802907705307,2.866941452026367,1.5793410539627075
1772534492317267700,5.516267822265625,0.11611039936542511,1.4282112121582031,2.9265944957733154
1772534492327200800,5.52620068359375,0.43767762184143066,0.07350108027458191,3.7040815353393555
1772534492337105400,5.53610546875,0.8616403341293335,-1.1022498607635498,3.845757484436035
1772534492347035600,5.54603564453125,1.1597723960876465,-1.9894558191299438,3.260012626647949
1772534492356970000,5.555969970703125,1.2428606748580933,-2.2002387046813965,2.1672165393829346
1772534492366900500,5.565900390625,1.1949251890182495,-1.5548408031463623,0.9637695550918579
1772534492376861700,5.57586181640625,1.0511187314987183,-0.49413496255874634,-0.10119713842868805
1772534492386795300,5.585795166015625,0.8382052183151245,0.4877435564994812,-0.8797492980957031
1772534492396728800,5.595728759765625,0.57296222448349,1.2716219425201416,-1.3717538118362427
1772534492406598400,5.605598388671875,0.16298064589500427,1.7167562246322632,-1.7838658094406128
1772534492416532000,5.615531982421875,-0.30359140038490295,1.5303404331207275,-2.1405856609344482
1772534492426519300,5.625519287109375,-0.48348262906074524,0.9158340692520142,-2.1523032188415527
1772534492436457500,5.63545751953125,-0.3268933892250061,0.43874284625053406,-1.6272765398025513
1772534492446361300,5.645361328125,-0.1288931965827942,0.25991687178611755,-0.6965292692184448
1772534492456296000,5.6552958984375,-0.09267527610063553,0.21624229848384857,0.3386109471321106
1772534492466250500,5.66525048828125,-0.17363297939300537,0.16830681264400482,1.2258168458938599
1772534492476187100,5.675187255859375,-0.32156720757484436,0.14593692123889923,1.7742787599563599
1772534492486119700,5.68511962890625,-0.4749607741832733,0.19600287079811096,1.8946501016616821
1772534492496056000,5.69505615234375,-0.5591141581535339,0.191741943359375,1.6400593519210815
1772534492505980000,5.70497998046875,-0.596397340297699,0.08202294260263443,1.0969237089157104
1772534492515914800,5.714914794921875,-0.6645722389221191,0.02876129187643528,0.3471328020095825
1772534492525846000,5.724845947265625,-0.7082468271255493,0.2141118347644806,-0.4227643609046936
1772534492535780400,5.7347802734375,-0.6358109712600708,0.49413496255874634,-1.0862714052200317
1772534492545686500,5.7446865234375,-0.47176507115364075,0.7934654355049133,-1.6666902303695679
1772534492555618300,5.754618408203125,-0.2556559145450592,1.1107717752456665,-2.1714775562286377
1772534492565553200,5.76455322265625,-0.01917419396340847,1.3312749862670898,-2.549635171890259
1772534492575485400,5.7744853515625,0.16617634892463684,1.339796781539917,-2.750831127166748
1772534492585417500,5.78441748046875,0.34500235319137573,1.0841408967971802,-2.7540268898010254
1772534492595349500,5.794349609375,0.5537880063056946,0.57296222448349,-2.5709400177001953
1772534492605286100,5.8042861328125,0.726355791091919,-0.0213046595454216,-2.2620222568511963
1772534492615218700,5.81421875,0.7540518045425415,-0.4440690279006958,-1.8307361602783203
1772534492625149200,5.824149169921875,0.6294195652008057,-0.6677679419517517,-1.2780133485794067
1772534492635081500,5.83408154296875,0.38441595435142517,-0.8073135018348694,-0.6890726089477539
1772534492645009700,5.844009765625,0.04047885537147522,-0.9179645776748657,-0.15552401542663574
1772534492654941700,5.853941650390625,-0.316241055727005,-1.0042483806610107,0.30359140038490295
1772534492664915000,5.8639150390625,-0.550592303276062,-1.0798799991607666,0.6880073547363281
1772534492674851000,5.87385107421875,-0.6635070443153381,-1.175750970840454,0.9797480702400208
1772534492684769500,5.88376953125,-0.7913349866867065,-1.2236864566802979,1.1427286863327026
1772534492694703600,5.89370361328125,-0.9573782086372375,-1.155511498451233,1.1725552082061768
1772534492704599800,5.903599853515625,-1.0266183614730835,-0.9021192193031311,1.1725552082061768
1772534492714530000,5.913530029296875,-0.9914656281471252,-0.6379414200782776,1.1672290563583374
1772534492724499700,5.923499755859375,-1.0298140048980713,-0.6528546810150146,1.14592444896698
1772534492734434000,5.93343408203125,-1.0521838665008545,-0.8307486176490784,1.246056318283081
1772534492744365600,5.943365478515625,-0.7210295796394348,-0.8435314297676086,1.6539074182510376
1772534492754299600,5.953299560546875,-0.14167599380016327,-0.7934654355049133,2.037391424179077
1772534492764219600,5.9632197265625,0.2556559145450592,-0.9520519971847534,1.857366919517517
1772534492774152400,5.97315234375,0.34074142575263977,-1.2961223125457764,1.0447273254394531
1772534492784085800,5.983085693359375,0.16298064589500427,-1.6528421640396118,-0.1501978635787964
1772534492794018600,5.9930185546875,-0.19706811010837555,-1.7242127656936646,-1.3728190660476685
1772534492803954400,6.002954345703125,-0.39719876646995544,-0.8840102553367615,-1.962825059890747
1772534492813887500,6.012887451171875,-0.1810896098613739,1.132076382637024,-1.2439258098602295
1772534492823785500,6.022785400390625,0.27376487851142883,2.801962375640869,0.18961147964000702
1772534492833715200,6.032715087890625,0.5143743753433228,2.6412453651428223,1.0340749025344849
1772534492843673000,6.042673095703125,0.6496589779853821,1.7071690559387207,1.4622986316680908
1772534492853605400,6.05260546875,0.810509204864502,1.3025137186050415,2.15549898147583
1772534492863538000,6.062537841796875,0.8584446907043457,1.155511498451233,2.7636139392852783
1772534492873470500,6.072470458984375,0.8914669156074524,0.9882699251174927,3.0022261142730713
1772534492883411000,6.082410888671875,1.0734885931015015,0.9085106253623962,3.013943672180176
1772534492893344000,6.092343994140625,1.2620347738265991,0.8467270731925964,2.826462745666504
1772534492903266300,6.102266357421875,1.2385996580123901,0.742334246635437,2.421807289123535
1772534492913198300,6.1121982421875,1.0159659385681152,0.6869421601295471,1.8477798700332642
1772534492923130000,6.122130126953125,0.6997249722480774,0.6933335661888123,1.1917294263839722
1772534492933062400,6.1320625,0.2897433936595917,0.6773550510406494,0.5399399995803833
1772534492942999800,6.141999755859375,-0.1501978635787964,0.5197005867958069,-0.05432688444852829
1772534492952932600,6.1519326171875,-0.3940030634403229,0.23222079873085022,-0.488808810710907
1772534492962860800,6.16186083984375,-0.4121120274066925,-0.1267627328634262,-0.6411371231079102
1772534492972792800,6.171792724609375,-0.33328479528427124,-0.5708317756652832,-0.5101134777069092
1772534492982703000,6.181703125,-0.22582940757274628,-0.9797480702400208,-0.17682868242263794
1772534492992633000,6.191633056640625,-0.20772044360637665,-1.1725552082061768,0.28228676319122314
1772534493002603000,6.20160302734375,-0.3940030634403229,-1.1192935705184937,0.7806826233863831
1772534493012537000,6.211537109375,-0.7146382331848145,-0.8882712125778198,1.1864032745361328
1772534493022469600,6.2214697265625,-1.0372706651687622,-0.5814840793609619,1.4037108421325684
1772534493032403500,6.231403564453125,-1.2865351438522339,-0.3279586136341095,1.431406855583191
1772534493042296800,6.241296875,-1.4495158195495605,-0.1267627328634262,1.2961223125457764
1772534493052226600,6.2512265625,-1.4963860511779785,0.04793548583984375,1.108641266822815
1772534493062182000,6.261181884765625,-1.4154284000396729,0.1928071826696396,0.8935973644256592
1772534493072114200,6.2711142578125,-1.2439258098602295,0.23222079873085022,0.574027419090271
1772534493082048800,6.281048828125,-1.0127702951431274,0.06604444980621338,0.14274121820926666
1772534493091981300,6.290981201171875,-0.7668346166610718,-0.28122150897979736,-0.3364804685115814
1772534493101909200,6.3009091796875,-0.5974625945091248,-0.6773550510406494,-0.8563141822814941
1772534493111841300,6.31084130859375,-0.5484618544578552,-0.9861394762992859,-1.4271459579467773
1772534493121775600,6.320775634765625,-0.5868102312088013,-1.1405982971191406,-2.0533697605133057
1772534493131708000,6.3307080078125,-0.5932016372680664,-1.108641266822815,-2.6806588172912598
1772534493141646600,6.340646484375,-0.44087332487106323,-0.8680317401885986,-3.1929028034210205
1772534493151579600,6.35057958984375,-0.15232832729816437,-0.41743817925453186,-3.500622034072876
1772534493161491700,6.36049169921875,0.12143656611442566,0.02982652559876442,-3.569862127304077
1772534493171422500,6.37042236328125,0.1906767040491104,0.2226337045431137,-3.4090120792388916
1772534493181385000,6.380385009765625,0,0.14487169682979584,-3.0341830253601074
1772534493191319000,6.390319091796875,-0.316241055727005,-0.06284874677658081,-2.5741355419158936
1772534493201240800,6.40024072265625,-0.5473966002464294,-0.2450035959482193,-2.15549898147583
1772534493211173600,6.410173583984375,-0.534613847732544,-0.36524176597595215,-1.6837339401245117
1772534493221103600,6.420103515625,-0.2780258059501648,-0.339676171541214,-1.0649666786193848
1772534493231036000,6.430035888671875,0.02876129187643528,-0.17256775498390198,-0.587875485420227
1772534493240977200,6.43997705078125,0.21943800151348114,0.007456631399691105,-0.3726983964443207
1772534493250910500,6.449910400390625,0.24926452338695526,0.1587197184562683,-0.36311131715774536
1772534493260828000,6.459827880859375,0.17789392173290253,0.16724158823490143,-0.4419385492801666
1772534493270759700,6.469759765625,0.06284874677658081,0.15552401542663574,-0.48241740465164185
1772534493280676600,6.479676513671875,-0.0053261648863554,0.21943800151348114,-0.40891632437705994
1772534493290606800,6.48960693359375,0.0213046595454216,0.21624229848384857,-0.17576344311237335
1772534493300557800,6.499557861328125,0.1597849577665329,0.02663082629442215,0.22689463198184967
1772534493310490000,6.509489990234375,0.3386109471321106,-0.15339355170726776,0.7178338766098022
1772534493320418600,6.51941845703125,0.49200451374053955,-0.22795987129211426,1.1288807392120361
1772534493330350600,6.5293505859375,0.5601794123649597,-0.5942668914794922,1.267361044883728
1772534493340281900,6.53928173828125,0.5186353325843811,-1.316361665725708,1.0117050409317017
1772534493350213600,6.549213623046875,0.47176507115364075,-1.8499102592468262,0.34180665016174316
1772534493360149200,6.559149169921875,0.41743817925453186,-1.5878629684448242,-0.6975944638252258
1772534493370081500,6.56908154296875,0.4248948097229004,0.1171756312251091,-1.4559072256088257
1772534493380015600,6.579015625,0.6709636449813843,2.713681221008301,-1.2641652822494507
1772534493389948200,6.5889482421875,1.0063788890838623,4.043757915496826,-0.5154396295547485
1772534493399883300,6.59888330078125,1.2726871967315674,3.6146018505096436,0.29187384247779846
1772534493409816000,6.608816162109375,1.2439258098602295,2.4111549854278564,1.099054217338562
1772534493419756000,6.618756103515625,0.703985869884491,1.0212922096252441,1.6336679458618164
1772534493429689600,6.628689697265625,0.20772044360637665,-0.28015628457069397,1.6539074182510376
1772534493439616000,6.638615966796875,0.28441721200942993,-0.9275516271591187,1.377079963684082
1772534493449548800,6.648548828125,0.7465952038764954,-0.9669652581214905,1.1310111284255981
1772534493459482600,6.658482666015625,1.1310111284255981,-0.8541837334632874,0.9117063283920288
1772534493469415400,6.66841552734375,1.267361044883728,-0.8520532846450806,0.6560503840446472
1772534493479344600,6.6783447265625,1.2045122385025024,-1.0447273254394531,0.404655396938324
1772534493489277200,6.688277099609375,1.0117050409317017,-1.222621202468872,0.2226337045431137
1772534493499210500,6.69821044921875,0.703985869884491,-1.2119688987731934,0.07776200771331787
1772534493509143000,6.70814306640625,0.32050198316574097,-1.108641266822815,-0.15232832729816437
1772534493519068000,6.71806787109375,-0.01810896210372448,-0.9085106253623962,-0.48135218024253845
1772534493528999700,6.727999755859375,-0.2865476906299591,-0.6943987607955933,-0.9360735416412354
1772534493538939600,6.737939697265625,-0.4525908827781677,-0.2790910601615906,-1.3557753562927246
1772534493548872200,6.7478720703125,-0.339676171541214,0.535679042339325,-1.3248835802078247
1772534493558793500,6.75779345703125,-0.10013190656900406,1.1714900732040405,-0.9137036204338074
1772534493568725000,6.76772509765625,0.07030537724494934,1.183207631111145,-0.3609808385372162
1772534493578664000,6.777663818359375,0.0852186381816864,0.7199643850326538,0.38441595435142517
1772534493588596200,6.78759619140625,-0.11291470378637314,0.08947957307100296,1.2748175859451294
1772534493598511000,6.797510986328125,-0.3577851355075836,-0.49093925952911377,2.024608612060547
1772534493608441600,6.807441650390625,-0.48135218024253845,-0.8925321102142334,2.417546272277832
1772534493618402300,6.81740234375,-0.4770912528038025,-1.075619101524353,2.4345901012420654
1772534493628335900,6.8273359375,-0.3790898025035858,-0.9872047305107117,2.1194143295288086
1772534493638257700,6.837257568359375,-0.1288931965827942,-0.7327471375465393,1.596384882926941
1772534493648190000,6.84718994140625,0.25991687178611755,-0.5314181447029114,0.9978570342063904
1772534493658123300,6.857123291015625,0.658180832862854,-0.3503285050392151,0.4248948097229004
1772534493668055800,6.867055908203125,0.9127715229988098,-0.16617634892463684,-0.03408745676279068
1772534493677959000,6.876958984375,0.895727813243866,-0.16830681264400482,-0.3780245780944824
1772534493687888400,6.886888427734375,0.5772231221199036,-0.3726983964443207,-0.5921363830566406
1772534493697851100,6.89685107421875,0.09800143539905548,-0.703985869884491,-0.6730940937995911
1772534493707784200,6.9067841796875,-0.35352420806884766,-0.992530882358551,-0.7071815729141235
1772534493717724200,6.91672412109375,-0.6070496439933777,-1.030879259109497,-0.765769362449646
1772534493727657700,6.92665771484375,-0.5324833393096924,-0.7721607685089111,-0.811574399471283
1772534493737563600,6.936563720703125,-0.14167599380016327,-0.335415244102478,-0.7817478775978088
1772534493747494400,6.946494384765625,0.37589409947395325,0.19706811010837555,-0.6965292692184448
1772534493757454000,6.9564541015625,0.7828131318092346,0.5239614844322205,-0.6134410500526428
1772534493767388000,6.966387939453125,0.8637708425521851,0.4557865858078003,-0.5580489635467529
1772534493777316900,6.97631689453125,0.5900059342384338,0.13528458774089813,-0.5197005867958069
1772534493787250200,6.986250244140625,0.12356702983379364,-0.26098209619522095,-0.5186353325843811
1772534493797150500,6.996150390625,-0.3077192008495331,-0.5836145281791687,-0.6230281591415405
1772534493807080400,7.00608056640625,-0.49413496255874634,-0.6730940937995911,-0.7860088348388672
1772534493817022200,7.016022216796875,-0.35245898365974426,-0.5058525204658508,-0.9137036204338074
1772534493826953200,7.025953125,-0.0213046595454216,-0.2450035959482193,-0.992530882358551
1772534493836884000,7.035884033203125,0.2748301327228546,-0.009587096981704235,-0.9872047305107117
1772534493846815000,7.04581494140625,0.4110468029975891,0.05432688444852829,-0.9021192193031311
1772534493856743400,7.055743408203125,0.38441595435142517,-0.14593692123889923,-0.6794854998588562
1772534493866674200,7.065674072265625,0.39719876646995544,-0.4994611442089081,0.05219641700387001
1772534493876604000,7.07560400390625,0.5335485935211182,-0.7604432106018066,0.8797492980957031
1772534493886534700,7.08553466796875,0.6496589779853821,-1.6070371866226196,1.2130341529846191
1772534493896473000,7.09547314453125,0.6890726089477539,-2.183195114135742,0.8605751395225525
1772534493906404600,7.105404541015625,0.4760259985923767,-1.813692331314087,-0.19493764638900757
1772534493916339000,7.1153388671875,0.10545806586742401,-0.1597849577665329,-1.0830756425857544
1772534493926270700,7.125270751953125,0.2343512624502182,1.8531060218811035,-1.0670971870422363
1772534493936224300,7.135224365234375,0.8541837334632874,2.4015679359436035,-0.5005263686180115
1772534493946158000,7.145157958984375,1.1725552082061768,1.7412564754486084,0.1384802907705307
1772534493956091100,7.155091064453125,0.8350095152854919,1.2109036445617676,1.0053136348724365
1772534493966025200,7.165025146484375,0.1608501821756363,0.8062482476234436,1.8818672895431519
1772534493975954000,7.174953857421875,-0.29506954550743103,0.48135218024253845,2.2098259925842285
1772534493985887200,7.18488720703125,-0.23222079873085022,0.6507242321968079,2.0320651531219482
1772534493995819000,7.194819091796875,0.11397993564605713,1.007444143295288,1.6006457805633545
1772534494005752300,7.20475244140625,0.33435001969337463,1.1778813600540161,0.9861394762992859
1772534494015658800,7.21465869140625,0.29400432109832764,1.1203588247299194,0.31198012828826904
1772534494025589200,7.22458935546875,0.07030537724494934,0.7348776459693909,-0.33221954107284546
1772534494035499500,7.23449951171875,-0.23861220479011536,0.08308817446231842,-0.8648360371589661
1772534494045428200,7.24442822265625,-0.40785109996795654,-0.5047873258590698,-1.0628362894058228
1772534494055417000,7.2544169921875,-0.33115431666374207,-0.9085106253623962,-0.8808145523071289
1772534494065351700,7.2643515625,-0.1928071826696396,-1.2279473543167114,-0.5250267386436462
1772534494075278800,7.27427880859375,-0.18641577661037445,-1.3898627758026123,-0.18428531289100647
1772534494085212700,7.284212646484375,-0.30984964966773987,-1.1033151149749756,0.14700216054916382
1772534494095138300,7.29413818359375,-0.45898228883743286,-0.4792217016220093,0.4675041437149048
1772534494105071400,7.3040712890625,-0.5846797823905945,0.27056917548179626,0.7338123917579651
1772534494115020000,7.31402001953125,-0.6880073547363281,0.970160961151123,0.9382039904594421
1772534494124954600,7.32395458984375,-0.7668346166610718,1.3653624057769775,1.069227695465088
1772534494134873000,7.333873046875,-0.8712274432182312,1.2780133485794067,1.0926628112792969
1772534494144806000,7.343805908203125,-1.0138355493545532,0.7561823129653931,0.992530882358551
1772534494154733000,7.353733154296875,-1.0362054109573364,0.1608501821756363,0.849922776222229
1772534494164665600,7.36366552734375,-0.8648360371589661,-0.22050324082374573,0.7178338766098022
1772534494174596600,7.3735966796875,-0.5846797823905945,-0.37695932388305664,0.5324833393096924
1772534494184529000,7.38352880859375,-0.30359140038490295,-0.46111273765563965,0.2247641682624817
1772534494194460200,7.393460205078125,-0.09054480493068695,-0.4749607741832733,-0.16724158823490143
1772534494204392200,7.40339208984375,0.06924014538526535,-0.41850343346595764,-0.5750926733016968
1772534494214332400,7.41333251953125,0.1693720519542694,-0.38761165738105774,-0.9680305123329163
1772534494224265200,7.42326513671875,0.1608501821756363,-0.4355471432209015,-1.2801437377929688
1772534494234193200,7.433193115234375,0.02663082629442215,-0.4153077304363251,-1.4772119522094727
1772534494244125400,7.44312548828125,-0.15232832729816437,-0.30146095156669617,-1.551645040512085
1772534494254056400,7.453056396484375,-0.31304535269737244,-0.1501978635787964,-1.5166255235671997
1772534494263988700,7.46298876953125,-0.4131772518157959,-0.0031956990715116262,-1.4069064855575562
1772534494273928400,7.472928466796875,-0.3588503897190094,0.17363297939300537,-1.208773136138916
1772534494283861200,7.482861328125,-0.14700216054916382,0.38761165738105774,-0.8989235162734985
1772534494293794600,7.492794677734375,0.08095771074295044,0.4792217016220093,-0.5537880063056946
1772534494303727600,7.5027275390625,0.18322007358074188,0.3673722445964813,-0.2673735022544861
1772534494313648000,7.512648193359375,0.1715025156736374,0.15339355170726776,-0.05539211630821228
1772534494323580000,7.522579833984375,0.06497921794652939,-0.10758853703737259,0.07243584841489792
1772534494333519600,7.53251953125,-0.11930610239505768,-0.3151758313179016,0.11504516750574112
1772534494343452200,7.5424521484375,-0.24713405966758728,-0.3492632806301117,0.08308817446231842
1772534494353382100,7.552382080078125,-0.19706811010837555,-0.06710968166589737,-0.04047885537147522
1772534494363314400,7.562314453125,-0.004260932095348835,0.4781564772129059,-0.2023942768573761
1772534494373244200,7.572244140625,0.2013290375471115,1.024487853050232,-0.32050198316574097
1772534494383176200,7.58217626953125,0.3833507299423218,1.3344706296920776,-0.3045234978199005
1772534494393115600,7.59211572265625,0.46111273765563965,1.2918612957000732,-0.08308817446231842
1772534494403048400,7.60204833984375,0.2790910601615906,0.7668346166610718,0.3599156141281128
1772534494412970800,7.611970703125,-0.03834838792681694,-0.4035901725292206,0.9307473301887512
1772534494422902500,7.621902587890625,-0.1597849577665329,-1.7583003044128418,1.4697552919387817
1772534494432852200,7.631852294921875,0.07243584841489792,-2.4761340618133545,1.6794730424880981
1772534494442785800,7.641785888671875,0.46217799186706543,-2.4250030517578125,1.0287487506866455
1772534494452709000,7.651709228515625,0.6240934133529663,-1.7327346801757812,-0.6038539409637451
1772534494462641700,7.6616416015625,0.48028692603111267,-0.2141118347644806,-2.178934097290039
1772534494472577000,7.671576904296875,0.3087844252586365,1.4324721097946167,-2.811549425125122
1772534494482509800,7.681509765625,0.3290238380432129,1.8776063919067383,-2.7497658729553223
1772534494492430600,7.6914306640625,0.41850343346595764,1.5260794162750244,-2.1480424404144287
1772534494502362000,7.701362060546875,0.28122150897979736,1.3738843202590942,-1.075619101524353
1772534494512295000,7.711294921875,-0.14380645751953125,1.3270140886306763,-0.03515268862247467
1772534494522226700,7.721226806640625,-0.41850343346595764,1.0298140048980713,0.633680522441864
1772534494532158000,7.731157958984375,-0.2226337045431137,0.6422023773193359,1.045792579650879
1772534494542089500,7.74108935546875,0.23115555942058563,0.09054480493068695,1.3834713697433472
1772534494552025300,7.751025390625,0.5260919332504272,-0.6986597180366516,1.6230156421661377
1772534494561957400,7.760957275390625,0.48241740465164185,-1.5228837728500366,1.621950387954712
1772534494571888600,7.770888671875,0.2034595012664795,-2.125805616378784,1.3919932842254639
1772534494581820700,7.780820556640625,-0.11930610239505768,-2.1672165393829346,1.0809452533721924
1772534494591754800,7.790754638671875,-0.3290238380432129,-1.682668685913086,0.7476604580879211
1772534494601686800,7.800686767578125,-0.3940030634403229,-0.992530882358551,0.36311131715774536
1772534494611616000,7.810615966796875,-0.40891632437705994,-0.19813334941864014,-0.03302222490310669
1772534494621548000,7.820548095703125,-0.4738955497741699,0.6070496439933777,-0.316241055727005
1772534494631484200,7.830484130859375,-0.5633751153945923,1.1608376502990723,-0.4014596939086914
1772534494641416400,7.84041650390625,-0.6379414200782776,1.390928030014038,-0.28015628457069397
1772534494651345700,7.850345703125,-0.7103772759437561,1.2982527017593384,-0.0426093190908432
1772534494661277700,7.860277587890625,-0.779617428779602,0.9371387362480164,0.19706811010837555
1772534494671218200,7.87021826171875,-0.8147701025009155,0.43874284625053406,0.34074142575263977
1772534494681151200,7.880151123046875,-0.7689650654792786,0.08308817446231842,0.40891632437705994
1772534494691082800,7.890082763671875,-0.5399399995803833,-0.02556559257209301,0.5069177746772766
1772534494701015600,7.900015625,-0.18748101592063904,-0.13208889961242676,0.6560503840446472
1772534494710939400,7.909939453125,0.12569749355316162,-0.2854824364185333,0.7764217257499695
1772534494720871200,7.91987109375,0.39932921528816223,-0.35565468668937683,0.8445966243743896
1772534494730809900,7.929809814453125,0.5910711884498596,-0.5303528904914856,0.8200962543487549
1772534494740742400,7.939742431640625,0.5111786723136902,-0.969095766544342,0.6368761658668518
1772534494750645500,7.9496455078125,0.1491326242685318,-1.3387316465377808,0.34074142575263977
1772534494760575000,7.959574951171875,-0.2854824364185333,-1.3174269199371338,-0.0106523297727108
1772534494770509800,7.969509765625,-0.5921363830566406,-0.848857581615448,-0.4451342523097992
1772534494780439800,7.979439697265625,-0.6922683119773865,-0.2013290375471115,-0.9595086574554443
1772534494790394600,7.98939453125,-0.6006582975387573,0.36417654156684875,-1.475081443786621
1772534494800327200,7.9993271484375,-0.3780245780944824,0.8083786964416504,-1.86695396900177
1772534494810265600,8.009265625,-0.11184946447610855,1.132076382637024,-2.0693483352661133
1772534494820198700,8.01919873046875,0.11930610239505768,1.2045122385025024,-2.0874571800231934
1772534494830129200,8.029129150390625,0.256721168756485,0.9222254753112793,-1.9638901948928833
1772534494840062000,8.03906201171875,0.24819929897785187,0.3908073604106903,-1.7764092683792114
1772534494849993200,8.0489931640625,0.15658925473690033,0.05006595328450203,-1.5622973442077637
1772534494859926000,8.058926025390624,0.12463226169347763,0.22050324082374573,-1.347253441810608
1772534494869859800,8.06885986328125,0.1501978635787964,0.7306166887283325,-1.283339500427246
1772534494879793000,8.07879296875,0.12463226169347763,1.2705566883087158,-1.5049079656600952
1772534494889729800,8.088729736328125,0.02982652559876442,1.5942543745040894,-1.9180852174758911
1772534494899663000,8.0986630859375,-0.15126308798789978,1.5314055681228638,-2.329132080078125
1772534494909581300,8.108581298828126,-0.3599156141281128,1.11503267288208,-2.5411133766174316
1772534494919513000,8.11851318359375,-0.33115431666374207,0.7540518045425415,-2.328066825866699
1772534494929447700,8.12844775390625,0.10865376889705658,0.7391385436058044,-1.5548408031463623
1772534494939379700,8.138379638671875,0.6390066742897034,0.7998568415641785,-0.5143743753433228
1772534494949289200,8.148289306640624,0.9413996934890747,0.658180832862854,0.42702528834342957
1772534494959219200,8.15821923828125,0.9307473301887512,0.32369768619537354,1.1395330429077148
1772534494969158400,8.168158447265625,0.5761579275131226,-0.3045234978199005,1.6326028108596802
1772534494979089200,8.178089111328125,-0.1928071826696396,-1.2641652822494507,1.948976993560791
1772534494989018400,8.188018310546875,-1.085206151008606,-2.2662832736968994,2.0341956615448
1772534494998948900,8.197948974609375,-1.5388622283935547,-2.946834087371826,1.5271446704864502
1772534495008881400,8.20788134765625,-1.3483186960220337,-2.9649429321289062,0.14487169682979584
1772534495018812200,8.217812255859375,-0.6208977103233337,-1.6070371866226196,-1.5612322092056274
1772534495028744400,8.227744384765625,0.2535254657268524,0.6975944638252258,-2.8562891483306885
1772534495038675500,8.237675537109375,0.7391385436058044,2.3962416648864746,-3.370663642883301
1772534495048645400,8.247645263671876,0.619832456111908,3.101292848587036,-2.8317887783050537
1772534495058580500,8.25758056640625,0.04687025398015976,2.8935723304748535,-1.3483186960220337
1772534495068479000,8.26747900390625,-0.527157187461853,1.9308680295944214,0.38761165738105774
1772534495078410200,8.27741015625,-0.618767261505127,0.7838783264160156,1.6879948377609253
1772534495088380000,8.2873798828125,-0.2876129150390625,0.0532616525888443,2.418611526489258
1772534495098315000,8.29731494140625,0.12995843589305878,-0.20772044360637665,2.671071767807007
1772534495108205300,8.307205322265625,0.41743817925453186,-0.3609808385372162,2.5123519897460938
1772534495118136000,8.317135986328125,0.488808810710907,-0.7668346166610718,2.0086300373077393
1772534495128103400,8.327103515625,0.44832995533943176,-1.2034469842910767,1.306774616241455
1772534495138037800,8.337037841796874,0.4749607741832733,-1.2652305364608765,0.484547883272171
1772534495148004600,8.347004638671875,0.5591141581535339,-0.811574399471283,-0.4664389193058014
1772534495157942300,8.3569423828125,0.6123758554458618,-0.08308817446231842,-1.4644291400909424
1772534495167831600,8.36683154296875,0.6901378631591797,0.36311131715774536,-2.3770675659179688
1772534495177764400,8.376764404296875,0.8595098853111267,0.28441721200942993,-3.1236627101898193
1772534495187688200,8.386688232421875,1.124619722366333,-0.009587096981704235,-3.4942305088043213
1772534495197620000,8.396619873046875,1.3994499444961548,-0.20558997988700867,-3.3770549297332764
1772534495207559000,8.406558837890625,1.5176907777786255,-0.3183715343475342,-2.8467020988464355
1772534495217491500,8.416491455078125,1.3280792236328125,-0.2556559145450592,-2.019282341003418
1772534495227415300,8.426415283203125,0.9085106253623962,-0.04367455467581749,-1.054314374923706
1772534495237346800,8.436346923828125,0.46111273765563965,0.06817491352558136,-0.1608501821756363
1772534495247281700,8.44628173828125,0.10013190656900406,-0.06071828305721283,0.4866783320903778
1772534495257213400,8.45621337890625,-0.15232832729816437,-0.32050198316574097,0.8467270731925964
1772534495267149800,8.46614990234375,-0.28335198760032654,-0.39719876646995544,0.9829437732696533
1772534495277082000,8.47608203125,-0.2972000241279602,-0.09800143539905548,1.0532491207122803
1772534495287006700,8.4860068359375,-0.24713405966758728,0.3268933892250061,1.1278154850006104
1772534495296938500,8.4959384765625,-0.16830681264400482,0.5207657814025879,1.0969237089157104
1772534495306871600,8.50587158203125,-0.08947957307100296,0.44939517974853516,0.8414009213447571
1772534495316803300,8.51580322265625,-0.0213046595454216,0.3492632806301117,0.4035901725292206
1772534495326740000,8.525739990234374,0.05219641700387001,0.3886769115924835,-0.10013190656900406
1772534495336672300,8.53567236328125,0.12250179797410965,0.5484618544578552,-0.6262238621711731
1772534495346605000,8.54560498046875,0.1928071826696396,0.811574399471283,-1.2481868267059326
1772534495356537300,8.555537353515625,0.2439383566379547,1.1278154850006104,-1.9479117393493652
1772534495366477000,8.56547705078125,0.25032976269721985,1.4740161895751953,-2.5794618129730225
1772534495376410000,8.57541015625,0.20878566801548004,1.8456493616104126,-2.984117269515991
1772534495386331100,8.5853310546875,0.13315412402153015,2.146977186203003,-3.115140914916992
1772534495396263000,8.595262939453125,0.11078423261642456,2.278000831604004,-2.9723997116088867
1772534495406202000,8.6052021484375,0.22902509570121765,2.23006534576416,-2.4846560955047607
1772534495416134700,8.615134765625,0.4312862157821655,1.9947819709777832,-1.6485812664031982
1772534495426058800,8.625058837890625,0.5591141581535339,1.5166255235671997,-0.6230281591415405
1772534495435990500,8.634990478515626,0.5186353325843811,0.8360747694969177,0.3918725848197937
1772534495445926000,8.64492578125,0.3790898025035858,0.04367455467581749,1.2684261798858643
1772534495455858000,8.65485791015625,0.15339355170726776,-0.8584446907043457,1.927672266960144
1772534495465795300,8.66479541015625,-0.1597849577665329,-1.680538296699524,2.4047634601593018
1772534495475728000,8.674727783203124,-0.3726983964443207,-2.231130599975586,2.820071220397949
1772534495485652700,8.68465283203125,-0.42809051275253296,-2.6433756351470947,3.1929028034210205
1772534495495584500,8.69458447265625,-0.381220281124115,-2.9873127937316895,3.485708713531494
1772534495505517300,8.704517333984375,-0.2897433936595917,-3.0991623401641846,3.667863607406616
1772534495515449000,8.714448974609375,-0.23861220479011536,-3.0245959758758545,3.7562780380249023
1772534495525383700,8.7243837890625,-0.21943800151348114,-3.116206169128418,3.8915624618530273
1772534495535316000,8.73431591796875,-0.3183715343475342,-3.542165994644165,4.090628147125244
1772534495545253000,8.744253173828126,-0.6667027473449707,-3.9798436164855957,4.156672477722168
1772534495555186000,8.75418603515625,-1.0670971870422363,-3.9000844955444336,3.9341719150543213
1772534495565108700,8.764108642578124,-1.2780133485794067,-3.250425338745117,3.378120183944702
1772534495575040300,8.774040283203124,-1.1917294263839722,-2.4207420349121094,2.7158114910125732
1772534495584981200,8.783981201171875,-0.848857581615448,-1.7135604619979858,2.2321958541870117
1772534495594913800,8.793913818359375,-0.5569837093353271,-1.230077862739563,1.6922558546066284
1772534495604817400,8.8038173828125,-0.3173062801361084,-0.7348776459693909,0.8765535950660706
1772534495614747100,8.8137470703125,-0.08841434121131897,-0.16724158823490143,-0.1065233051776886
1772534495624707600,8.82370751953125,-0.03941362351179123,0.3716331720352173,-1.077749490737915
1772534495634640400,8.833640380859375,-0.15126308798789978,0.9616391062736511,-1.6911906003952026
1772534495644566800,8.84356689453125,-0.2588516175746918,1.5495145320892334,-1.766822099685669
1772534495654498800,8.853498779296874,-0.34393709897994995,1.9031718969345093,-1.3642971515655518
1772534495664430600,8.8634306640625,-0.3726983964443207,1.8925195932388306,-0.6826812028884888
1772534495674362600,8.873362548828124,-0.3375457227230072,1.5070384740829468,0.05965305119752884
1772534495684295000,8.883294921875,-0.3929378390312195,0.9339430332183838,0.6688331961631775
1772534495694227200,8.893227294921875,-0.6304848194122314,0.28228676319122314,1.0031832456588745
1772534495704162800,8.903162841796876,-0.931812584400177,-0.36311131715774536,1.017031192779541
1772534495714095400,8.913095458984374,-1.1160979270935059,-0.788139283657074,0.7210295796394348
1772534495724007400,8.92300732421875,-1.0947932004928589,-0.8552489876747131,0.24819929897785187
1772534495733938000,8.93293798828125,-0.9669652581214905,-0.7433995008468628,-0.3588503897190094
1772534495743864600,8.942864501953125,-0.8935973644256592,-0.1288931965827942,-0.8435314297676086
1772534495753794800,8.952794921875,-0.803052544593811,0.8307486176490784,-0.9074453711509705
1772534495763757300,8.96275732421875,-0.5431357026100159,1.1565767526626587,-0.9243559837341309
1772534495773690600,8.972690673828126,-0.2865476906299591,1.175750970840454,-0.9946613311767578
1772534495783620900,8.982620849609376,-0.1395455300807953,1.4548419713974,-0.9339430332183838
1772534495793554000,8.992553955078124,-0.08947957307100296,1.9063676595687866,-0.7295514941215515
1772534495803477800,9.002477783203124,-0.3364804685115814,2.2939794063568115,-0.4973306655883789
1772534495813409800,9.012409912109375,-0.718899130821228,2.009695291519165,-0.28441721200942993
1772534495823347500,9.022347412109376,-0.7561823129653931,0.7178338766098022,-0.05752258375287056
1772534495833280300,9.0322802734375,-0.404655396938324,-0.6624417901039124,0.02450035884976387
1772534495843213300,9.04221337890625,0.05858781561255455,-1.3355358839035034,0.01704372838139534
1772534495853145900,9.052145751953125,0.4312862157821655,-1.4441896677017212,0.09267527610063553
1772534495863079400,9.062079345703125,0.6880073547363281,-1.4324721097946167,0.27269965410232544
1772534495873012200,9.07201220703125,0.8680317401885986,-1.4559072256088257,0.5175700783729553
1772534495882943700,9.08194384765625,0.9296821355819702,-1.537796974182129,0.7700303196907043
1772534495892876300,9.091876220703124,0.8509880304336548,-1.6709511280059814,0.978682816028595
1772534495902811100,9.10181103515625,0.6848116517066956,-1.6560379266738892,1.1139674186706543
1772534495912744200,9.111744140625,0.5101134777069092,-1.4207545518875122,1.1608376502990723
1772534495922674700,9.1216748046875,0.381220281124115,-1.0500534772872925,1.0969237089157104
1772534495932607200,9.131607177734375,0.33115431666374207,-0.6943987607955933,0.9179645776748657
1772534495942538800,9.141538818359376,0.3599156141281128,-0.4579170346260071,0.6411371231079102
1772534495952471000,9.151470947265626,0.4014596939086914,-0.33115431666374207,0.34287187457084656
1772534495962404900,9.16140478515625,0.40572062134742737,-0.20558997988700867,0.13208889961242676
1772534495972337700,9.171337646484375,0.3695026934146881,-0.05006595328450203,0.08841434121131897
1772534495982270500,9.1812705078125,0.2865476906299591,0.07350108027458191,0.20665520429611206
1772534495992203000,9.191203125,0.16617634892463684,0.10119713842868805,0.43022099137306213
1772534496002137000,9.20113720703125,0.03728315606713295,0.06817491352558136,0.703985869884491
1772534496012070000,9.21106982421875,-0.09161003679037094,0.11078423261642456,0.9627043604850769
1772534496021984800,9.22098486328125,-0.2343512624502182,0.17256775498390198,1.1501853466033936
1772534496031915800,9.230915771484375,-0.3801550269126892,0.15765449404716492,1.208773136138916
1772534496041838600,9.240838623046875,-0.5015916228294373,0.11504516750574112,1.0969237089157104
1772534496051768800,9.250768798828124,-0.5772231221199036,0.1171756312251091,0.8296833634376526
1772534496061731300,9.2607314453125,-0.619832456111908,0.1906767040491104,0.4461994767189026
1772534496071664600,9.27066455078125,-0.6091801524162292,0.30146095156669617,-0.009587096981704235
1772534496081576000,9.280575927734375,-0.5207657814025879,0.5133091807365417,-0.4419385492801666
1772534496091507200,9.290507080078125,-0.39719876646995544,0.9168993234634399,-0.7306166887283325
1772534496101457200,9.30045703125,-0.2961347699165344,1.3515143394470215,-0.8467270731925964
1772534496111390200,9.31039013671875,-0.19493764638900757,1.5942543745040894,-0.8414009213447571
1772534496121320000,9.32031982421875,-0.0852186381816864,1.5187560319900513,-0.7274209856987
1772534496131252700,9.330252685546874,-0.0021304660476744175,1.1075760126113892,-0.48241740465164185
1772534496141164300,9.340164306640625,0.06924014538526535,0.4312862157821655,-0.10971900075674057
1772534496151094800,9.3500947265625,0.1278279572725296,-0.3492632806301117,0.34393709897994995
1772534496161023000,9.36002294921875,0.1501978635787964,-0.978682816028595,0.7977263927459717
1772534496170953200,9.369953125,0.12463226169347763,-1.3429925441741943,1.1587072610855103
1772534496180894000,9.37989404296875,0.10332760214805603,-1.4367330074310303,1.337666392326355
1772534496190825500,9.389825439453125,0.15445879101753235,-1.3248835802078247,1.260969638824463
1772534496200784600,9.39978466796875,0.21730753779411316,-1.1097065210342407,0.9010539650917053
1772534496210719000,9.409718994140626,0.23861220479011536,-0.8541837334632874,0.3620460629463196
1772534496220613600,9.419613525390625,0.1810896098613739,-0.4110468029975891,-0.12037133425474167
1772534496230544000,9.4295439453125,0.02236989326775074,0.18428531289100647,-0.4344819188117981
1772534496240481300,9.439481201171875,-0.17895914614200592,0.8126396536827087,-0.6304848194122314
1772534496250412000,9.449412109375,-0.2577863931655884,1.1374025344848633,-0.7710955739021301
1772534496260379100,9.459379150390625,-0.08734910935163498,1.0362054109573364,-0.8978582620620728
1772534496270313700,9.469313720703125,0.08841434121131897,0.6848116517066956,-0.8946625590324402
1772534496280243000,9.479242919921875,0.14380645751953125,0.06497921794652939,-0.7753564715385437
1772534496290177000,9.489177001953125,0.07776200771331787,-0.3567199110984802,-0.6145063042640686
1772534496300070400,9.4990703125,0.01491326279938221,-0.3599156141281128,-0.43661239743232727
1772534496310000400,9.50900048828125,0.2961347699165344,-0.5154396295547485,-0.16298064589500427
1772534496319964200,9.518964111328126,0.765769362449646,-0.7380733489990234,0.0010652330238372087
1772534496329897500,9.5288974609375,0.9967917799949646,-0.8882712125778198,0.0426093190908432
1772534496339844600,9.5388447265625,0.9445953965187073,-0.8637708425521851,0.06071828305721283
1772534496349779500,9.548779541015625,0.8286181092262268,-0.7210295796394348,0.11291470378637314
1772534496359691300,9.558691162109374,0.6965292692184448,-0.5612446665763855,0.17363297939300537
1772534496369623800,9.568623779296875,0.5282224416732788,-0.49413496255874634,0.18322007358074188
1772534496379552800,9.578552734375,0.34500235319137573,-0.5143743753433228,0.10971900075674057
1772534496389484800,9.58848486328125,0.2119813710451126,-0.549527108669281,-0.05432688444852829
1772534496399419400,9.59841943359375,0.15126308798789978,-0.6645722389221191,-0.28015628457069397
1772534496409352000,9.60835205078125,0.09161003679037094,-0.7774869799613953,-0.5175700783729553
1772534496419287300,9.618287353515624,-0.04154408723115921,-0.6709636449813843,-0.7455299496650696
1772534496429219800,9.6282197265625,-0.28122150897979736,-0.33221954107284546,-0.9573782086372375
1772534496439154200,9.638154296875,-0.5047873258590698,0.21943800151348114,-1.1310111284255981
1772534496449087000,9.6480869140625,-0.5995930433273315,0.8041177988052368,-1.2492520809173584
1772534496459020000,9.65802001953125,-0.5708317756652832,1.1416635513305664,-1.2961223125457764
1772534496468953000,9.667953125,-0.4770912528038025,1.2290126085281372,-1.2503172159194946
1772534496478849300,9.677849365234374,-0.4153077304363251,1.2151645421981812,-1.1054456233978271
1772534496488778500,9.687778564453126,-0.39932921528816223,1.26949143409729,-0.8978582620620728
1772534496498720800,9.697720703125,-0.34287187457084656,1.3813409805297852,-0.6677679419517517
1772534496508651300,9.7076513671875,-0.24287313222885132,1.3834713697433472,-0.45046040415763855
1772534496518585000,9.717585205078125,-0.1491326242685318,1.2652305364608765,-0.27056917548179626
1772534496528516000,9.72751611328125,-0.07776200771331787,1.0436620712280273,-0.1065233051776886
1772534496538473500,9.737473388671875,-0.0639139786362648,0.7178338766098022,0.0426093190908432
1772534496548407000,9.747406982421875,-0.10013190656900406,0.36630702018737793,0.1608501821756363
1772534496558336000,9.7573359375,-0.11184946447610855,0.28335198760032654,0.2460688352584839
1772534496568269000,9.76726904296875,-0.04793548583984375,0.6017234921455383,0.2439383566379547
1772534496578196200,9.7771962890625,0.02769605815410614,1.014900803565979,0.11291470378637314
1772534496588128800,9.787128662109374,0.02236989326775074,1.2822742462158203,0.07243584841489792
1772534496598069200,9.7970693359375,-0.1395455300807953,1.1768162250518799,0.3577851355075836
1772534496608002600,9.80700244140625,-0.33328479528427124,0.6943987607955933,0.6368761658668518
1772534496617903900,9.81690380859375,-0.4547213613986969,0.07989247888326645,0.7029206156730652
1772534496627833900,9.826833740234376,-0.5069177746772766,-0.527157187461853,0.634745717048645
1772534496637792800,9.836792724609374,-0.5005263686180115,-0.8509880304336548,0.48028692603111267
1772534496647725800,9.846725830078125,-0.44087332487106323,-0.7593780159950256,0.2535254657268524
1772534496657630700,9.856630615234375,-0.3194367587566376,-0.33435001969337463,-0.0213046595454216
1772534496667561000,9.86656103515625,-0.18961147964000702,0.18961147964000702,-0.28228676319122314
1772534496677497600,9.87649755859375,-0.15232832729816437,0.6145063042640686,-0.4419385492801666
1772534496687428600,9.8864287109375,-0.19600287079811096,0.8659012913703918,-0.4536561071872711
1772534496697385200,9.89638525390625,-0.22156846523284912,0.8754884004592896,-0.37482887506484985
