time,seconds_elapsed,z,y,x
1772534486943619000,0.142619140625,-0.1440727710723877,-0.29853156208992004,0.1765623688697815
1772534486993553200,0.19255322265625,-0.17283405363559723,0.14660269021987915,0.14780108630657196
1772534487013422600,0.212422607421875,-0.13555090129375458,0.5023905038833618,0.0370168462395668
1772534487033335000,0.2323349609375,-0.21544337272644043,0.4512593448162079,-0.11637670546770096
1772534487043252500,0.24225244140625,-0.302792489528656,0.4288894534111023,-0.13981182873249054
1772534487053189600,0.252189697265625,-0.29640108346939087,0.49812960624694824,-0.13022473454475403
1772534487063106300,0.262106201171875,-0.2591179311275482,0.3873453438282013,-0.14833369851112366
1772534487073035300,0.27203515625,-0.2505960762500763,0.0880148783326149,-0.12702903151512146
1772534487082967600,0.281967529296875,-0.2953358590602875,-0.008921326138079166,-0.009853405877947807
1772534487102831400,0.301831298828125,-0.3592498302459717,-0.012117025442421436,0.16271434724330902
1772534487112763000,0.311762939453125,-0.13555090129375458,-1.1527153253555298,0.06151720881462097
1772534487122708000,0.3217080078125,0.28614822030067444,-1.4955871105194092,0.28401774168014526
1772534487132645000,0.33164501953125,0.5109124183654785,-0.7095783352851868,0.5577826499938965
1772534487142567000,0.34156689453125,0.3553883731365204,0.03581846132874489,0.5098471641540527
1772534487152497700,0.35149755859375,-0.023701434955000877,0.37882348895072937,0.25312599539756775
1772534487162427100,0.36142724609375,-0.27616167068481445,0.34899696707725525,0.09347419440746307
1772534487172357400,0.371357421875,-0.19946488738059998,-0.004660394508391619,0.10945269465446472
1772534487182294500,0.38129443359375,0.12103710323572159,-0.3773587942123413,0.19134248793125153
1772534487192227600,0.3912275390625,0.47469446063041687,-0.3762935698032379,0.2488650679588318
1772534487202164500,0.40116455078125,0.6493926644325256,0.02516612969338894,0.28295251727104187
1772534487212099000,0.41109912109375,0.5812177658081055,0.3117138147354126,0.3031919598579407
1772534487222017300,0.421017333984375,0.3948020040988922,0.04220985993742943,0.3575188219547272
1772534487231945500,0.430945556640625,0.2616478502750397,-0.5627093315124512,0.48960772156715393
1772534487241891000,0.44089111328125,0.2818872928619385,-0.9684299826622009,0.6589797735214233
1772534487251826200,0.450826171875,0.4288894534111023,-0.9055812358856201,0.8324795961380005
1772534487261751600,0.46075146484375,0.5641740560531616,-0.6511237025260925,0.950720489025116
1772534487271682800,0.470682861328125,0.6611102223396301,-0.684012770652771,0.8953283429145813
1772534487281592000,0.480592041015625,0.8292838931083679,-1.0035827159881592,0.7186328172683716
1772534487291514400,0.490514404296875,0.9635032415390015,-0.9716256856918335,0.5023905038833618
1772534487301477400,0.500477294921875,1.0540480613708496,-0.5424699187278748,0.28614822030067444
1772534487311416300,0.510416259765625,1.0700265169143677,-0.14087706804275513,0.15951864421367645
1772534487321344500,0.520344482421875,0.9411333799362183,-0.06098458915948868,0.04234301298856735
1772534487331279000,0.530279052734375,0.758978545665741,-0.3464670479297638,-0.12809427082538605
1772534487341182200,0.54018212890625,0.5780220627784729,-0.9886693954467773,-0.29853156208992004
1772534487351113700,0.55011376953125,0.41184571385383606,-1.6053061485290527,-0.3464670479297638
1772534487361076700,0.56007666015625,0.24460414052009583,-0.8011884093284607,-0.16857312619686127
1772534487371011300,0.57001123046875,0.10412652790546417,1.1732209920883179,0.47575968503952026
1772534487380945400,0.5799453125,0.09773512929677963,2.049774646759033,1.2404638528823853
1772534487390880000,0.5898798828125,0.08495233207941055,2.874131917953491,1.7804038524627686
1772534487400803600,0.599803466796875,0.17749445140361786,2.8432400226593018,1.6365973949432373
1772534487410737000,0.60973681640625,0.41184571385383606,1.8633588552474976,0.8793498873710632
1772534487420642800,0.619642822265625,0.6760234832763672,0.5311518311500549,-0.05672365799546242
1772534487430573600,0.629573486328125,0.8388710021972656,-0.23355233669281006,-0.7766880393028259
1772534487440537600,0.63953759765625,0.7536523938179016,-0.08655018359422684,-1.3549764156341553
1772534487450471700,0.6494716796875,0.6419360637664795,0.41184571385383606,-1.9950482845306396
1772534487460404000,0.659404052734375,0.7461957335472107,0.6982602477073669,-2.4795961380004883
1772534487470338000,0.669338134765625,0.9826774597167969,0.8282186985015869,-2.4316606521606445
1772534487480289000,0.6792890625,1.0902659893035889,0.7898702621459961,-1.8970468044281006
1772534487490224600,0.689224609375,0.9379376769065857,0.5439345836639404,-1.1525821685791016
1772534487500118000,0.699117919921875,0.5588479042053223,0.205190509557724,-0.41677242517471313
1772534487510049300,0.70904931640625,0.04553871229290962,-0.05459319427609444,0.08495233207941055
1772534487519986000,0.71898583984375,-0.40612009167671204,-0.29640108346939087,0.1531272530555725
1772534487529917700,0.728917724609375,-0.6531209945678711,-0.7969274520874023,-0.2825530469417572
1772534487539859500,0.738859375,-0.7095783352851868,-1.3389979600906372,-0.9726908802986145
1772534487549792300,0.748792236328125,-0.6328815817832947,-1.5903929471969604,-1.517957091331482
1772534487559718400,0.758718505859375,-0.5146406888961792,-1.5882624387741089,-1.7127615213394165
1772534487569650700,0.768650634765625,-0.4284899830818176,-1.4316731691360474,-1.5360660552978516
1772534487579584300,0.778584228515625,-0.3794892728328705,-1.1868027448654175,-1.0982552766799927
1772534487589516500,0.7885166015625,-0.3581846058368683,-0.8342106342315674,-0.5817503929138184
1772534487599443000,0.79844287109375,-0.2921401560306549,-0.4327509105205536,-0.027962366119027138
1772534487609374500,0.80837451171875,-0.2591179311275482,0.06031882017850876,0.6216966509819031
1772534487619286000,0.8182861328125,-0.27509641647338867,0.40225863456726074,1.2798774242401123
1772534487629215700,0.8282158203125,-0.1983996480703354,0.34899696707725525,1.805969476699829
1772534487639192600,0.838192626953125,-0.08441971987485886,0.10825430601835251,2.103036403656006
1772534487649127000,0.848126953125,0.027429750189185143,0.09547150880098343,2.1562979221343994
1772534487659039500,0.85803955078125,0.3628450036048889,0.5768237113952637,2.0614922046661377
1772534487668971500,0.867971435546875,1.0625699758529663,1.2413959503173828,2.074275016784668
1772534487678900000,0.87789990234375,1.6259450912475586,1.6429888010025024,2.649367570877075
1772534487688831700,0.887831787109375,1.3500497341156006,1.8995767831802368,4.2224507331848145
1772534487698781200,0.89778125,0.5726959109306335,1.1477885246276855,5.9413371086120605
1772534487708714800,0.90771484375,-0.2942706346511841,-1.3038451671600342,6.337470531463623
1772534487718611700,0.91761181640625,-1.3464545011520386,-2.4456417560577393,5.504724979400635
1772534487728541700,0.927541748046875,-2.027005195617676,-2.3284661769866943,3.966794729232788
1772534487738508000,0.937508056640625,-1.969482660293579,-2.003570079803467,2.0710792541503906
1772534487748441600,0.947441650390625,-1.6670897006988525,-1.184672236442566,-0.06204982474446297
1772534487758337300,0.957337158203125,-1.4849348068237305,0.16577689349651337,-2.261223316192627
1772534487768267000,0.96726708984375,-1.4742825031280518,1.7132941484451294,-4.085567951202393
1772534487778204000,0.977203857421875,-1.3507155179977417,3.073197364807129,-5.189016342163086
1772534487788134400,0.987134521484375,-1.0035827159881592,4.023252010345459,-5.7108473777771
1772534487798102500,0.9971025390625,-0.4934692084789276,4.781564712524414,-5.820566177368164
1772534487808036600,1.00703662109375,0.05299534276127815,5.208590030670166,-5.474365711212158
1772534487817934300,1.016934326171875,0.3873453438282013,4.535495758056641,-4.6862263679504395
1772534487827864800,1.02686474609375,0.3426055610179901,2.6568243503570557,-3.5530848503112793
1772534487837798100,1.036798095703125,0.07323476672172546,0.37988871335983276,-2.2166168689727783
1772534487847729000,1.04672900390625,-0.020505735650658607,-1.3336716890335083,-0.8821461200714111
1772534487857665300,1.056665283203125,0.23395180702209473,-2.1186153888702393,0.27549588680267334
1772534487867596800,1.0665966796875,0.7472609877586365,-2.1580288410186768,1.213832974433899
1772534487877561300,1.076561279296875,1.180810809135437,-1.8183528184890747,1.8315349817276
1772534487887496000,1.086495849609375,1.2362029552459717,-1.4913262128829956,1.997711420059204
1772534487897415200,1.096415283203125,0.9358072280883789,-1.332606554031372,1.7484468221664429
1772534487907348200,1.10634814453125,0.49599912762641907,-1.205976963043213,1.2830731868743896
1772534487917275000,1.11627490234375,0.10199606418609619,-0.8789504170417786,0.8250229954719543
1772534487927207400,1.12620751953125,-0.11850717663764954,-0.17176882922649384,0.7165023684501648
1772534487937147400,1.1361474609375,-0.12809427082538605,0.6332810521125793,1.0391348600387573
1772534487947080700,1.146080810546875,-0.00133154122158885,0.9752208590507507,1.4437901973724365
1772534487957000200,1.156000244140625,0.1742987483739853,0.9411333799362183,1.8379263877868652
1772534487966932000,1.165931884765625,0.14979839324951172,-0.05352795869112015,2.3107566833496094
1772534487976867300,1.175867431640625,-0.16857312619686127,-2.2677478790283203,2.767608642578125
1772534487986799600,1.185799560546875,-0.3752283453941345,-4.381702899932861,2.8688056468963623
1772534487996735200,1.1957353515625,-0.17922545969486237,-4.926969051361084,2.2638864517211914
1772534488006667800,1.205667724609375,0.31810522079467773,-3.627784252166748,1.0242215394973755
1772534488016612000,1.215612060546875,0.7781527042388916,-1.044061541557312,-0.6360772848129272
1772534488026546000,1.2255458984375,0.9826774597167969,1.7654905319213867,-2.3560290336608887
1772534488036462800,1.235462890625,0.9379376769065857,3.7164647579193115,-3.5381715297698975
1772534488046395000,1.245394775390625,0.7536523938179016,4.323514461517334,-3.8055450916290283
1772534488056326400,1.255326416015625,0.5737611651420593,3.577052593231201,-3.211278200149536
1772534488066258400,1.265258544921875,0.4800206422805786,1.9155552387237549,-2.091984510421753
1772534488076206600,1.27520654296875,0.5268908739089966,0.06031882017850876,-0.9577776193618774
1772534488086140200,1.28514013671875,0.7717612981796265,-1.3240846395492554,-0.14726845920085907
1772534488096061700,1.295061767578125,1.1818760633468628,-1.8077003955841064,0.2680392563343048
1772534488105994000,1.304993896484375,1.6355321407318115,-1.3688244819641113,0.44593316316604614
1772534488115919400,1.31491943359375,2.0156872272491455,-0.39653298258781433,0.6398055553436279
1772534488125851100,1.32485107421875,2.213820457458496,0.7067821025848389,0.9134373068809509
1772534488135795500,1.33479541015625,2.092383861541748,1.4097027778625488,1.1914631128311157
1772534488145728300,1.344728271484375,1.532204508781433,1.2765486240386963,1.4821386337280273
1772534488155692300,1.3546923828125,0.774957001209259,0.5545869469642639,1.885861873626709
1772534488165628400,1.36462841796875,0.21158191561698914,-0.14939893782138824,2.271343231201172
1772534488175515000,1.374514892578125,-0.05565842613577843,-0.5115781426429749,2.401301622390747
1772534488185446100,1.384446044921875,-0.09294158220291138,-0.4955996572971344,2.166950225830078
1772534488195391000,1.394390869140625,0.06045197322964668,-0.18881255388259888,1.6504454612731934
1772534488205323500,1.404323486328125,0.31917044520378113,0.2595174014568329,0.9837427139282227
1772534488215223000,1.41422314453125,0.5055862069129944,0.605584979057312,0.2264951765537262
1772534488225152300,1.42415234375,0.5684349536895752,0.6780208349227905,-0.5487281680107117
1772534488235107300,1.434107421875,0.47895538806915283,0.4054543077945709,-1.189865231513977
1772534488245039000,1.4440390625,0.1721682846546173,-0.008921326138079166,-1.5935885906219482
1772534488254979800,1.453979736328125,-0.3017272651195526,-0.29746630787849426,-1.738327145576477
1772534488264912600,1.46391259765625,-0.7298177480697632,-0.39333727955818176,-1.6903916597366333
1772534488274847700,1.47384765625,-0.9641690254211426,-0.3656412363052368,-1.4860000610351562
1772534488284780500,1.483780517578125,-0.9822779893875122,-0.28681400418281555,-1.1312774419784546
1772534488294707700,1.493707763671875,-0.8246235251426697,-0.22183477878570557,-0.6914693713188171
1772534488304640000,1.503639892578125,-0.5860112905502319,-0.1227681040763855,-0.23781327903270721
1772534488314565400,1.5135654296875,-0.2697702646255493,-0.05139749497175217,0.2041252851486206
1772534488324497200,1.5234970703125,0.07003907114267349,-0.09613727778196335,0.5812177658081055
1772534488334436400,1.533436279296875,0.16471165418624878,-0.43594661355018616,0.8963935971260071
1772534488344369000,1.543368896484375,-0.19200825691223145,-1.3762810230255127,1.1690932512283325
1772534488354296300,1.55329638671875,-0.8363410830497742,-2.5062270164489746,1.2244853973388672
1772534488364228000,1.56322802734375,-1.3219541311264038,-3.022865056991577,0.7931991219520569
1772534488374159400,1.573159423828125,-1.2729535102844238,-2.559488534927368,-0.04607132822275162
1772534488384091100,1.583091064453125,-0.8246235251426697,-1.463630199432373,-0.9780170917510986
1772534488394032400,1.593032470703125,-0.39227205514907837,-0.6457974910736084,-1.7628275156021118
1772534488403965200,1.602965087890625,-0.1653774231672287,-0.7713618874549866,-2.326202630996704
1772534488413904000,1.61290380859375,-0.13981182873249054,-1.7821348905563354,-2.565880060195923
1772534488423837200,1.622837158203125,-0.27722689509391785,-3.004755973815918,-2.2452449798583984
1772534488433729800,1.632729736328125,-0.5476629137992859,-3.9504165649414062,-1.4007813930511475
1772534488443659300,1.6426591796875,-0.8981245756149292,-4.47224760055542,-0.4390091598033905
1772534488453629700,1.652629638671875,-1.2633663415908813,-4.16559362411499,0.5204994678497314
1772534488463563000,1.66256298828125,-1.648980736732483,-2.811948776245117,1.4810733795166016
1772534488473473800,1.672473876953125,-1.9918526411056519,-1.41036856174469,1.9551020860671997
1772534488483404800,1.68240478515625,-1.9801350831985474,-0.3230319023132324,1.7804038524627686
1772534488493352700,1.692352783203125,-1.60850191116333,0.7206301689147949,1.405574917793274
1772534488503285500,1.702285400390625,-1.3688244819641113,1.631271243095398,1.171223759651184
1772534488513211400,1.71221142578125,-1.3411283493041992,2.0859925746917725,1.0710917711257935
1772534488523143400,1.722143310546875,-1.2026480436325073,1.9379252195358276,0.974155604839325
1772534488533083600,1.732083740234375,-0.8224930763244629,1.4608339071273804,0.7900034189224243
1772534488543016700,1.7420166015625,-0.30811864137649536,1.057243824005127,0.44486793875694275
1772534488552941000,1.751941162109375,0.24034319818019867,0.8047835230827332,-0.06737598776817322
1772534488562873000,1.761873046875,0.668566882610321,0.4395417869091034,-0.6882736682891846
1772534488572806100,1.77180615234375,0.9571118950843811,0.08908011019229889,-1.1557778120040894
1772534488582738400,1.781738525390625,1.2532466650009155,0.01664426550269127,-1.2601706981658936
1772534488602600700,1.8016005859375,1.4949214458465576,0.11677616834640503,-1.1163642406463623
1772534488612532000,1.811531982421875,1.3596367835998535,0.1423417627811432,-1.0078436136245728
1772534488622464000,1.821464111328125,1.0849398374557495,0.1402112990617752,-0.8363410830497742
1772534488632397600,1.8313974609375,0.7037195563316345,-0.0025299284607172012,-0.6520557403564453
1772534488642329600,1.84132958984375,0.2616478502750397,-0.20266057550907135,-0.5700328350067139
1772534488652260900,1.8512607421875,-0.13448566198349,-0.2495308369398117,-0.6115769147872925
1772534488662193000,1.86119287109375,-0.30705341696739197,-0.09400681406259537,-0.6350120306015015
1772534488672134700,1.871134765625,-0.2079867422580719,0.13595037162303925,-0.49866220355033875
1772534488682067700,1.881067626953125,0.023168819025158882,0.4182371199131012,-0.20479105412960052
1772534488691996000,1.890995849609375,0.20838621258735657,0.6162372827529907,0.12436595559120178
1772534488701928400,1.900928466796875,0.2275604009628296,0.629020094871521,0.3564535975456238
1772534488711853000,1.91085302734375,0.04873441159725189,0.5418041348457336,0.42356327176094055
1772534488721784800,1.920784912109375,-0.13661614060401917,0.3884105980396271,0.33727940917015076
1772534488731724000,1.93072412109375,-0.2910749316215515,0.1721682846546173,0.07430000603199005
1772534488741656300,1.94065625,-0.47962117195129395,0.07629731297492981,-0.5178363919258118
1772534488751562800,1.950562744140625,-0.6222292184829712,0.07203638553619385,-1.3304760456085205
1772534488761492500,1.960492431640625,-0.6318163275718689,0.16471165418624878,-2.0461795330047607
1772534488771451100,1.970451171875,-0.5497934222221375,0.3351489305496216,-2.444443464279175
1772534488781384000,1.980384033203125,-0.4604469835758209,0.5343475341796875,-2.5637495517730713
1772534488791313700,1.990313720703125,-0.34007564187049866,0.6599118709564209,-2.5445754528045654
1772534488801246000,2.000245849609375,-0.1536598652601242,0.7323477268218994,-2.5158140659332275
1772534488811179500,2.010179443359375,0.11677616834640503,0.7994573712348938,-2.519009828567505
1772534488821112000,2.020112060546875,0.46723783016204834,0.8644366264343262,-2.4646828174591064
1772534488831046400,2.03004638671875,0.8463276624679565,0.8505885601043701,-2.2782671451568604
1772534488840979200,2.039979248046875,1.2031806707382202,0.567236602306366,-2.0003745555877686
1772534488850929200,2.04992919921875,1.5364655256271362,0.09440627694129944,-1.6424561738967896
1772534488860863700,2.05986376953125,1.752707839012146,-0.345401793718338,-1.1557778120040894
1772534488870774800,2.06977490234375,1.654706358909607,-0.8033188581466675,-0.5242277979850769
1772534488880706800,2.079706787109375,1.1754846572875977,-1.3432588577270508,0.1956034153699875
1772534488890644200,2.089644287109375,0.4629769027233124,-1.7981133460998535,0.7825468182563782
1772534488900576800,2.09957666015625,-0.21224768459796906,-2.0227444171905518,0.9773513078689575
1772534488910514400,2.109514404296875,-0.5689675807952881,-1.9556347131729126,0.8292838931083679
1772534488920447500,2.119447509765625,-0.5220973491668701,-1.3379327058792114,0.5886744260787964
1772534488930343200,2.12934326171875,-0.2388785034418106,-0.08974587917327881,0.28614822030067444
1772534488940272600,2.139272705078125,0.10412652790546417,1.0370043516159058,-0.1334204375743866
1772534488950208500,2.14920849609375,0.3862801194190979,1.287200927734375,-0.5380758047103882
1772534488960138500,2.159138427734375,0.4832163453102112,0.5535216927528381,-0.7649704813957214
1772534488970107400,2.169107421875,0.30425718426704407,-0.8342106342315674,-0.7660356760025024
1772534488980041500,2.17904150390625,-0.13768136501312256,-2.0653536319732666,-0.57748943567276
1772534488989980000,2.18897998046875,-0.6669690012931824,-2.3188791275024414,-0.2580527067184448
1772534488999914200,2.198914306640625,-0.9822779893875122,-1.204911708831787,0.2914743721485138
1772534489009838000,2.208838134765625,-0.9023855328559875,1.1552451848983765,1.1818760633468628
1772534489019771400,2.218771484375,-0.5924026966094971,3.3885061740875244,1.8869271278381348
1772534489029667600,2.22866748046875,-0.34220612049102783,4.220186710357666,1.8688181638717651
1772534489039597000,2.23859716796875,-0.37309786677360535,3.8890326023101807,1.3938573598861694
1772534489049530600,2.248530517578125,-0.6137073636054993,2.949763298034668,0.9475247859954834
1772534489059460600,2.258460693359375,-0.7149044871330261,1.896381139755249,0.7591117024421692
1772534489069394200,2.268394287109375,-0.48175162076950073,1.1168968677520752,0.7782858610153198
1772534489079324400,2.278324462890625,-0.011983871459960938,0.48960772156715393,0.8047835230827332
1772534489089276000,2.28827587890625,0.44486793875694275,0.05925358831882477,0.8303491473197937
1772534489099208400,2.29820849609375,0.7133066654205322,0.0027962366584688425,0.9528509378433228
1772534489109138400,2.308138427734375,0.7696308493614197,0.15832026302814484,1.1467233896255493
1772534489119070700,2.31807080078125,0.6557840704917908,0.2989310026168823,1.325682520866394
1772534489128987100,2.327987060546875,0.46617260575294495,0.33727940917015076,1.4576382637023926
1772534489138918000,2.33791796875,0.3106485903263092,0.24993029236793518,1.5268783569335938
1772534489148899600,2.347899658203125,0.16471165418624878,0.1093195378780365,1.471486210823059
1772534489158835500,2.35783544921875,-0.006657706573605537,0.08588441461324692,1.241529107093811
1772534489168742100,2.3677421875,-0.17816022038459778,0.21903854608535767,0.8388710021972656
1772534489178675000,2.377675048828125,-0.3656412363052368,0.4086500108242035,0.3628450036048889
1772534489188604400,2.3876044921875,-0.5892069935798645,0.5704323053359985,-0.04713656008243561
1772534489198537000,2.397536865234375,-0.7905360460281372,0.6311505436897278,-0.2932053804397583
1772534489208469200,2.40746923828125,-0.9087769389152527,0.5386084318161011,-0.3347494900226593
1772534489218401800,2.41740185546875,-0.9705604314804077,0.27549588680267334,-0.17389929294586182
1772534489228330500,2.42733056640625,-1.022756814956665,-0.02809552103281021,0.14034445583820343
1772534489238262500,2.437262451171875,-1.053648591041565,-0.2687050402164459,0.5194342732429504
1772534489248198100,2.4471982421875,-1.077083706855774,-0.5371437668800354,0.7793511152267456
1772534489258130700,2.457130615234375,-1.1163642406463623,-0.8406019806861877,0.8037183284759521
1772534489268062500,2.4670625,-1.1483211517333984,-1.0568443536758423,0.6483274698257446
1772534489277995000,2.4769951171875,-1.1451255083084106,-1.077083706855774,0.38947582244873047
1772534489287927300,2.48692724609375,-1.0760184526443481,-0.899189829826355,0.0370168462395668
1772534489297859800,2.49685986328125,-0.9045159816741943,-0.5371437668800354,-0.38161972165107727
1772534489307803100,2.50680322265625,-0.6488600373268127,-0.05033225938677788,-0.8065145611763
1772534489317736400,2.516736328125,-0.4018591642379761,0.5311518311500549,-1.1802781820297241
1772534489327655000,2.526655029296875,-0.23142187297344208,1.164832353591919,-1.510500431060791
1772534489337587000,2.5365869140625,-0.132355198264122,1.6834676265716553,-1.7862626314163208
1772534489347521800,2.546521728515625,-0.05246272683143616,1.7644253969192505,-1.9726784229278564
1772534489357454000,2.5564541015625,0.008255556225776672,1.277613878250122,-2.1654856204986572
1772534489367395300,2.566395263671875,-0.013049104250967503,0.46404212713241577,-2.405029773712158
1772534489377328600,2.57632861328125,-0.10998530685901642,-0.32835808396339417,-2.57440185546875
1772534489387254800,2.5862548828125,-0.21544337272644043,-0.9439296126365662,-2.596771717071533
1772534489397187000,2.59618701171875,-0.3145100474357605,-1.2091726064682007,-2.443378210067749
1772534489407121700,2.60612158203125,-0.36244553327560425,-0.876819908618927,-2.110093355178833
1772534489417054200,2.61605419921875,-0.30811864137649536,-0.08335448056459427,-1.6754783391952515
1772534489426979000,2.62597900390625,-0.12170287221670151,0.6556509137153625,-1.227148413658142
1772534489436911000,2.6359111328125,0.16577689349651337,0.9997211694717407,-0.7894708514213562
1772534489446846500,2.645846435546875,0.3415403366088867,0.7430000305175781,-0.410381019115448
1772534489456778800,2.65577880859375,0.2691044807434082,-0.1227681040763855,-0.07483261823654175
1772534489466712000,2.665712158203125,0.1508636325597763,-1.27401864528656,0.3639102280139923
1772534489476644400,2.675644287109375,0.16471165418624878,-2.2485737800598145,0.8857412338256836
1772534489486552600,2.685552490234375,0.24140843749046326,-2.6660120487213135,1.2734861373901367
1772534489496482600,2.695482666015625,0.3553883731365204,-2.5168793201446533,1.3128997087478638
1772534489506434000,2.70543408203125,0.44380271434783936,-1.8140918016433716,0.8697627782821655
1772534489516366300,2.715366455078125,0.41291093826293945,-0.532882809638977,0.1328878253698349
1772534489526298400,2.72529833984375,0.26377832889556885,0.965633749961853,-0.5636414289474487
1772534489536230400,2.73523046875,0.09347419440746307,2.176537275314331,-1.0652329921722412
1772534489546171400,2.74517138671875,-0.05672365799546242,2.763347625732422,-1.3837376832962036
1772534489556104400,2.7551044921875,-0.13022473454475403,2.6344544887542725,-1.627676010131836
1772534489566043000,2.76504296875,-0.023701434955000877,1.8814678192138672,-1.8608289957046509
1772534489575976400,2.7749765625,0.15938548743724823,0.950720489025116,-2.0845279693603516
1772534489585892600,2.784892578125,0.461911678314209,0.3575188219547272,-2.0387227535247803
1772534489595824400,2.794824462890625,0.8015878796577454,0.07416684925556183,-1.691456913948059
1772534489605733000,2.804733154296875,1.0039820671081543,-0.009986559860408306,-1.3304760456085205
1772534489615662600,2.81466259765625,0.9528509378433228,0.02303566411137581,-1.0238220691680908
1772534489625622000,2.8246220703125,0.5982614755630493,0.15725502371788025,-0.6904041767120361
1772534489635554600,2.834554443359375,0.19240771234035492,0.30745288729667664,-0.391206830739975
1772534489645489400,2.844489501953125,0.0018641578499227762,0.47789016366004944,-0.2729659676551819
1772534489655422200,2.854422119140625,-0.021570969372987747,0.7099778056144714,-0.3485974967479706
1772534489665354800,2.864354736328125,0.03275591507554054,0.9336767196655273,-0.4517919421195984
1772534489675287600,2.87428759765625,0.13275466859340668,0.9805470108985901,-0.4283568263053894
1772534489685219000,2.884218994140625,0.20838621258735657,0.7483261823654175,-0.2825530469417572
1772534489705085000,2.9040849609375,0.13488513231277466,-0.14087706804275513,0.0583215095102787
1772534489715017500,2.914017578125,0.022103585302829742,-0.37096738815307617,0.2477998286485672
1772534489724945200,2.923945068359375,-0.018375270068645477,-0.3336842358112335,0.5524564981460571
1772534489734877200,2.933877197265625,-0.0002663082559593022,-0.19200825691223145,0.9475247859954834
1772534489744787000,2.943786865234375,0.04447348043322563,-0.09400681406259537,1.3619004487991333
1772534489754717000,2.953717041015625,0.12423279881477356,-0.12063764035701752,1.7537729740142822
1772534489764653300,2.9636533203125,0.2169080674648285,-0.26657456159591675,2.116884231567383
1772534489774583800,2.973583740234375,0.26377832889556885,-0.49240395426750183,2.4556283950805664
1772534489784541000,2.983541015625,0.26484355330467224,-0.7756227850914001,2.753760576248169
1772534489794474200,2.99347412109375,0.2477998286485672,-1.0941274166107178,2.9753289222717285
1772534489804401200,3.003401123046875,0.22436471283435822,-1.4146294593811035,3.0925047397613525
1772534489814333700,3.013333740234375,0.22329947352409363,-1.6681549549102783,3.0914394855499268
1772534489824263200,3.02326318359375,0.23075610399246216,-1.7288732528686523,2.9231326580047607
1772534489834195500,3.033195556640625,0.20838621258735657,-1.5935885906219482,2.5216729640960693
1772534489844135700,3.0431357421875,0.17962491512298584,-1.3453893661499023,1.9327322244644165
1772534489854068700,3.05306884765625,0.16045072674751282,-1.0323439836502075,1.2734861373901367
1772534489863999700,3.062999755859375,0.09880036115646362,-0.7234264016151428,0.6291532516479492
1772534489873932800,3.072932861328125,-0.024766668677330017,-0.5211652517318726,0.10732222348451614
1772534489883862800,3.08286279296875,-0.18455162644386292,-0.4742949903011322,-0.23568280041217804
1772534489893795300,3.09279541015625,-0.36244553327560425,-0.5030562877655029,-0.4304873049259186
1772534489903728400,3.102728271484375,-0.5082492828369141,-0.6712299585342407,-0.5007926821708679
1772534489913661200,3.1126611328125,-0.5987941026687622,-1.0280829668045044,-0.47842279076576233
1772534489923586000,3.1225859375,-0.638207733631134,-1.2603038549423218,-0.4411396384239197
1772534489933518000,3.13251806640625,-0.5732285380363464,-1.0195611715316772,-0.4709661602973938
1772534489943456000,3.1424560546875,-0.4199681282043457,-0.4402075409889221,-0.5604457259178162
1772534489953388500,3.152388427734375,-0.326227605342865,0.24460414052009583,-0.6861432194709778
1772534489963324000,3.162323974609375,-0.46896883845329285,0.8655018210411072,-0.8565804958343506
1772534489973256700,3.172256591796875,-0.853384792804718,1.1753515005111694,-1.0673635005950928
1772534489983182300,3.182182373046875,-1.2601706981658936,1.059374213218689,-1.2633663415908813
1772534489993114600,3.192114501953125,-1.3368674516677856,0.7291520237922668,-1.2995842695236206
1772534490003063000,3.20206298828125,-0.9567124247550964,0.5023905038833618,-1.0641677379608154
1772534490012996600,3.21199658203125,-0.43594661355018616,0.5439345836639404,-0.6552514433860779
1772534490022913500,3.22191357421875,-0.06311506032943726,0.7089125514030457,-0.218639075756073
1772534490032845600,3.231845458984375,0.08814803510904312,0.7451304793357849,0.24140843749046326
1772534490042790400,3.241790283203125,-0.04181039705872536,0.2584521770477295,0.699458658695221
1772534490052723700,3.2517236328125,-0.43807709217071533,-1.0195611715316772,0.9997211694717407
1772534490062644200,3.261644287109375,-0.8214278221130371,-2.6063590049743652,1.164832353591919
1772534490072576300,3.271576171875,-0.8469933867454529,-3.268800735473633,1.3619004487991333
1772534490082506500,3.281506591796875,-0.623294472694397,-2.2006382942199707,1.4608339071273804
1772534490092438300,3.291438232421875,-0.471099317073822,-0.112115778028965,0.9933298230171204
1772534490102370800,3.301370849609375,-0.45938172936439514,1.394789457321167,-0.2527265250682831
1772534490112302800,3.311302734375,-0.4870778024196625,1.7537729740142822,-1.8640246391296387
1772534490122214000,3.3212138671875,-0.5263582468032837,1.7271422147750854,-3.009948968887329
1772534490132143600,3.3311435546875,-0.5732285380363464,1.7399250268936157,-3.2091476917266846
1772534490142113300,3.34111328125,-0.6424686908721924,1.555639624595642,-2.71075177192688
1772534490152047000,3.351047119140625,-0.6680342555046082,1.2605701684951782,-1.9875916242599487
1772534490161941000,3.36094091796875,-0.4742949903011322,0.950720489025116,-1.2431269884109497
1772534490171870700,3.37087060546875,-0.15898603200912476,0.6428681015968323,-0.5402063131332397
1772534490181814300,3.380814208984375,0.00719032296910882,0.4363460838794708,-0.014114337973296642
1772534490191745300,3.390745361328125,0.00399462366476655,0.457650750875473,0.25312599539756775
1772534490201670100,3.400670166015625,0.009320789016783237,0.6162372827529907,0.28401774168014526
1772534490211601000,3.410600830078125,0.07003907114267349,0.8718932271003723,0.07643046975135803
1772534490231481300,3.4304814453125,-0.03435376659035683,1.1710906028747559,-0.8853418231010437
1772534490241403400,3.4404033203125,-0.32090145349502563,0.8271534442901611,-1.365628719329834
1772534490251335000,3.4503349609375,-0.5178363919258118,0.35858407616615295,-1.4625649452209473
1772534490261263600,3.460263671875,-0.554054319858551,0.08055824786424637,-1.127016544342041
1772534490271194600,3.470194580078125,-0.494534432888031,0.0667102187871933,-0.6414034366607666
1772534490281173800,3.480173828125,-0.3901416063308716,0.24140843749046326,-0.2825530469417572
1772534490291109600,3.490109619140625,-0.22183477878570557,0.523695170879364,-0.13661614060401917
1772534490300993500,3.49999365234375,0.002929390873759985,0.8921326398849487,-0.15898603200912476
1772534490310924000,3.509924072265625,0.2275604009628296,1.310636043548584,-0.23355233669281006
1772534490320883500,3.519883544921875,0.354323148727417,1.6504454612731934,-0.3038577139377594
1772534490330816800,3.529816650390625,0.3447360396385193,1.555639624595642,-0.3123795986175537
1772534490340721400,3.539721435546875,0.2254299372434616,1.0039820671081543,-0.17283405363559723
1772534490350652000,3.54965185546875,0.06577813625335693,0.29573532938957214,0.09986559301614761
1772534490360588300,3.55958837890625,-0.07270215451717377,-0.3038577139377594,0.3628450036048889
1772534490370519300,3.569519287109375,-0.11957240849733353,-0.6181014776229858,0.5130428671836853
1772534490380478000,3.57947802734375,-0.011983871459960938,-0.6266233325004578,0.5535216927528381
1772534490390411800,3.589411865234375,0.18708154559135437,-0.39653298258781433,0.4928034245967865
1772534490400342500,3.599342529296875,0.35858407616615295,-0.09507204592227936,0.33834463357925415
1772534490410276000,3.609276123046875,0.44486793875694275,0.1316894292831421,0.12436595559120178
1772534490420232400,3.619232421875,0.41184571385383606,0.22329947352409363,-0.13661614060401917
1772534490430168600,3.62916845703125,0.29786577820777893,0.14660269021987915,-0.41677242517471313
1772534490440085200,3.639085205078125,0.18814678490161896,-0.05459319427609444,-0.6403381824493408
1772534490450019300,3.649019287109375,0.09986559301614761,-0.2804225981235504,-0.7617747783660889
1772534490459933000,3.658932861328125,0.03275591507554054,-0.4966649115085602,-0.7894708514213562
1772534490469865000,3.668864990234375,0.023168819025158882,-0.6500584483146667,-0.7468615174293518
1772534490479809300,3.678809326171875,0.09986559301614761,-0.6362104415893555,-0.6744256615638733
1772534490489742300,3.688742431640625,0.24140843749046326,-0.42742475867271423,-0.5892069935798645
1772534490499645200,3.698645263671875,0.42249804735183716,-0.132355198264122,-0.45711812376976013
1772534490509575400,3.708575439453125,0.5631088018417358,0.012383334338665009,-0.23781327903270721
1772534490519533600,3.718533447265625,0.5588479042053223,-0.18242116272449493,0.10519175976514816
1772534490529466400,3.72846630859375,0.4086500108242035,-0.730883002281189,0.546065092086792
1772534490539391500,3.7383916015625,0.23075610399246216,-1.60850191116333,1.0242215394973755
1772534490549323500,3.748323486328125,0.10838746279478073,-2.400902032852173,1.44805109500885
1772534490559255600,3.758255615234375,-0.0375494658946991,-2.7874484062194824,1.6760109663009644
1772534490569187600,3.7681875,-0.35072797536849976,-2.9557552337646484,1.5364655256271362
1772534490579120400,3.778120361328125,-0.7362091541290283,-2.7554914951324463,1.0167648792266846
1772534490589052700,3.788052734375,-0.9631038308143616,-1.9385910034179688,0.17336668074131012
1772534490598988300,3.79798828125,-0.9737561345100403,-0.6722952127456665,-0.9386034607887268
1772534490608920800,3.8079208984375,-0.9503210186958313,0.6396724581718445,-2.133528709411621
1772534490618858500,3.8178583984375,-1.0557790994644165,1.9155552387237549,-2.8831863403320312
1772534490628791600,3.82779150390625,-1.1312774419784546,3.4076805114746094,-2.3421812057495117
1772534490638714600,3.837714599609375,-1.2005176544189453,4.2372307777404785,-0.7436658143997192
1772534490648646700,3.847646728515625,-1.2846710681915283,3.31500506401062,0.6728277802467346
1772534490658584000,3.857583984375,-1.2175613641738892,1.532204508781433,1.453377366065979
1772534490668516600,3.8675166015625,-0.8363410830497742,0.10612384229898453,1.8443177938461304
1772534490678457000,3.87745703125,-0.32942330837249756,-0.8011884093284607,1.8379263877868652
1772534490688390400,3.887390380859375,0.13595037162303925,-1.2686924934387207,1.5268783569335938
1772534490698308600,3.89730859375,0.547130286693573,-1.243260145187378,1.196789264678955
1772534490708240400,3.907240478515625,0.8058487772941589,-0.96097332239151,0.9070459008216858
1772534490718178800,3.9171787109375,0.9187634587287903,-0.7330134510993958,0.7015891075134277
1772534490728111400,3.927111328125,0.9187634587287903,-0.6680342555046082,0.6174356937408447
1772534490738039600,3.93703955078125,0.7781527042388916,-0.7937317490577698,0.547130286693573
1772534490747971600,3.9469716796875,0.500260055065155,-1.014235019683838,0.34686651825904846
1772534490757898500,3.9568984375,0.17855969071388245,-1.2102378606796265,0.011451254598796368
1772534490767830000,3.966830078125,-0.008788172155618668,-0.9897346496582031,-0.24420467019081116
1772534490777762000,3.976761962890625,-0.05033225938677788,-0.21011722087860107,-0.28574874997138977
1772534490787693600,3.986693603515625,-0.05459319427609444,0.5928021669387817,-0.2090519815683365
1772534490797642500,3.996642578125,-0.06418029218912125,0.927285373210907,-0.14087706804275513
1772534490807576000,4.006576171875,-0.12383333593606949,0.8900021910667419,-0.08655018359422684
1772534490827440000,4.026440185546875,-0.20585627853870392,0.6737598776817322,0.03169068321585655
1772534490837356800,4.036356689453125,-0.14620323479175568,0.43315038084983826,0.013581721112132072
1772534490847288000,4.0462880859375,-0.11850717663764954,0.02303566411137581,-0.08228924870491028
1772534490857222400,4.056222412109375,-0.1014634445309639,-0.4647079110145569,-0.14939893782138824
1772534490867154200,4.066154296875,-0.011983871459960938,-0.8352758288383484,-0.024766668677330017
1772534490877088500,4.076088623046875,0.09880036115646362,-0.9524514675140381,0.2818872928619385
1772534490887020500,4.0860205078125,0.12742850184440613,-0.9183640480041504,0.5705654621124268
1772534490896953600,4.09595361328125,0.0370168462395668,-0.8981245756149292,0.6834801435470581
1772534490906886000,4.105885986328125,-0.11637670546770096,-0.8629719018936157,0.6089138388633728
1772534490916816000,4.11581591796875,-0.2846835255622864,-0.7553833723068237,0.37882348895072937
1772534490926748000,4.125747802734375,-0.4604469835758209,-0.7063826322555542,0.013581721112132072
1772534490936679200,4.13567919921875,-0.6083812117576599,-0.852319598197937,-0.386945903301239
1772534490946611000,4.14561083984375,-0.70744788646698,-1.1026493310928345,-0.6690995097160339
1772534490956540200,4.1555400390625,-0.8107754588127136,-1.3485850095748901,-0.7660356760025024
1772534490966471700,4.1654716796875,-1.0216916799545288,-1.5648273229599,-0.685077965259552
1772534490976425500,4.175425537109375,-1.3240846395492554,-1.5509792566299438,-0.5135754942893982
1772534490986359300,4.185359375,-1.4700216054916382,-1.2070422172546387,-0.3571193814277649
1772534490996274000,4.19527392578125,-1.3059756755828857,-0.639406144618988,-0.2292914092540741
1772534491006205700,4.205205810546875,-1.0376701354980469,0.05179695412516594,-0.010918638668954372
1772534491016118500,4.215118408203125,-0.9077116847038269,0.7089125514030457,0.4374113082885742
1772534491026048500,4.225048583984375,-0.9513862729072571,1.0551133155822754,1.0710917711257935
1772534491036004900,4.2350048828125,-1.083475112915039,0.9635032415390015,1.7601643800735474
1772534491045937400,4.2449375,-1.1983871459960938,0.4288894534111023,2.378931760787964
1772534491055881200,4.254881103515625,-1.1919957399368286,-0.3986634612083435,2.8027613162994385
1772534491065815000,4.26481494140625,-1.0664314031600952,-1.1633676290512085,2.9241979122161865
1772534491075741000,4.274740966796875,-0.8619066476821899,-1.4519126415252686,2.7175426483154297
1772534491085673700,4.284673828125,-0.5402063131332397,-1.2166292667388916,2.3160829544067383
1772534491095592400,4.294592529296875,-0.20479105412960052,-0.7383396625518799,1.9018404483795166
1772534491105524000,4.30452392578125,-0.018375270068645477,-0.1983996480703354,1.563096284866333
1772534491115461000,4.314461181640625,-0.029027599841356277,0.2904091477394104,1.2692251205444336
1772534491125393200,4.32439306640625,-0.1760297566652298,0.49919483065605164,0.9911993145942688
1772534491135326000,4.334325927734375,-0.410381019115448,0.2904091477394104,0.6621754765510559
1772534491145258000,4.344258056640625,-0.6573819518089294,-0.04926702752709389,0.19986434280872345
1772534491155223600,4.3542236328125,-0.7852098941802979,-0.10678961127996445,-0.24740037322044373
1772534491165159000,4.364158935546875,-0.8512543439865112,0.25419121980667114,-0.5753589868545532
1772534491175047200,4.374047119140625,-0.8043841123580933,0.8697627782821655,-0.8725590109825134
1772534491184978000,4.38397802734375,-0.47003406286239624,1.4288769960403442,-1.2782796621322632
1772534491194920000,4.393919921875,0.0689738392829895,1.5439220666885376,-1.8523070812225342
1772534491204851700,4.403851806640625,0.6248922944068909,0.9677641987800598,-2.3421812057495117
1772534491214793000,4.41379296875,1.065765619277954,-0.23568280041217804,-2.3986384868621826
1772534491224725800,4.423725830078125,1.340462565422058,-1.8183528184890747,-1.8949164152145386
1772534491234647800,4.433647705078125,1.4427249431610107,-3.7395005226135254,-1.0631026029586792
1772534491244579600,4.44357958984375,1.4576382637023926,-5.72895622253418,-0.26550933718681335
1772534491254512600,4.4535126953125,1.5290088653564453,-6.738664150238037,0.32556185126304626
1772534491264444700,4.463444580078125,1.6749458312988281,-6.081548690795898,0.6675016283988953
1772534491274386400,4.473386474609375,1.805969476699829,-4.363594055175781,0.6983934044837952
1772534491284319200,4.4833193359375,1.8943837881088257,-2.650033473968506,0.5673697590827942
1772534491294242300,4.4932421875,1.6930547952651978,-1.3017147779464722,0.6142399907112122
1772534491304174000,4.503174072265625,1.0955921411514282,-0.4519250988960266,0.9400681257247925
1772534491314112800,4.51311279296875,0.4523245692253113,-0.2804225981235504,1.4267464876174927
1772534491324045300,4.52304541015625,0.06471290439367294,-0.6234276294708252,1.8581658601760864
1772534491333951000,4.532950927734375,-0.0790935531258583,-0.8501890897750854,2.035926580429077
1772534491343880700,4.542880615234375,-0.12809427082538605,-0.5754921436309814,1.7697515487670898
1772534491353850400,4.552850341796875,-0.18135592341423035,-0.12170287221670151,1.1115707159042358
1772534491363784200,4.5627841796875,-0.10998530685901642,0.30851811170578003,0.5013253092765808
1772534491373679600,4.5726796875,0.1199718713760376,0.8239577412605286,0.2818872928619385
1772534491383609600,4.582609619140625,0.3298227787017822,1.3660281896591187,0.3436708152294159
1772534491393549600,4.592549560546875,0.3532578945159912,1.7196855545043945,0.4065195620059967
1772534491403480600,4.60248046875,0.11890663951635361,1.7590991258621216,0.32662707567214966
1772534491413407200,4.6124072265625,-0.2729659676551819,1.5961185693740845,0.20306004583835602
1772534491423338000,4.622337890625,-0.6552514433860779,1.432072639465332,0.16697527468204498
1772534491433274000,4.632274169921875,-0.9247553944587708,1.3298102617263794,0.12969212234020233
1772534491443205400,4.642205322265625,-1.0248873233795166,1.3031795024871826,-0.05459319427609444
1772534491453135400,4.65213525390625,-0.9279510974884033,1.4405945539474487,-0.34220612049102783
1772534491463066400,4.66206640625,-0.70744788646698,1.6770762205123901,-0.6690995097160339
1772534491473027000,4.672027099609375,-0.47855594754219055,1.8164886236190796,-1.0545806884765625
1772534491482961200,4.681961181640625,-0.29853156208992004,1.8260756731033325,-1.496652364730835
1772534491492864500,4.691864501953125,-0.18987779319286346,1.8367280960083008,-1.8725465536117554
1772534491502795500,4.70179541015625,-0.13448566198349,2.02740478515625,-1.9939830303192139
1772534491512733200,4.711733154296875,-0.09933298081159592,2.533257246017456,-1.7361966371536255
1772534491522665000,4.7216650390625,-0.112115778028965,3.059349298477173,-1.07588529586792
1772534491532617700,4.73161767578125,-0.28894445300102234,3.025261878967285,-0.10465914756059647
1772534491542551300,4.74155126953125,-0.5955983996391296,2.2969086170196533,0.9400681257247925
1772534491552480000,4.75147998046875,-0.8054493069648743,1.2840052843093872,1.7665557861328125
1772534491562413000,4.7614130859375,-0.8171668648719788,0.605584979057312,2.10729718208313
1772534491572347000,4.771346923828125,-0.5955983996391296,0.4363460838794708,1.899709939956665
1772534491582280200,4.7812802734375,-0.1227681040763855,0.5970631241798401,1.2702903747558594
1772534491592210400,4.79121044921875,0.4917382001876831,0.9304810166358948,0.39267152547836304
1772534491602143500,4.8011435546875,1.1211577653884888,1.1785471439361572,-0.48694464564323425
1772534491612081200,4.8110810546875,1.6089013814926147,1.230743646621704,-1.1419297456741333
1772534491622014700,4.8210146484375,1.8038389682769775,1.1115707159042358,-1.524348497390747
1772534491631938600,4.8309384765625,1.7228813171386719,0.8090444803237915,-1.6765435934066772
1772534491641847300,4.840847412109375,1.563096284866333,0.5418041348457336,-1.5903929471969604
1772534491661736000,4.86073583984375,1.5588353872299194,0.5693670511245728,-1.1706911325454712
1772534491671670500,4.87067041015625,1.7143594026565552,0.21371237933635712,-1.0163654088974
1772534491681581000,4.8805810546875,1.8453830480575562,-0.3240971565246582,-0.9332773089408875
1772534491691513000,4.89051318359375,1.8517744541168213,-0.640471339225769,-1.0057131052017212
1772534491701463600,4.900463623046875,1.5897271633148193,-0.31877097487449646,-0.9694951772689819
1772534491711397600,4.910397705078125,1.1424623727798462,0.9219591617584229,-0.2633788585662842
1772534491721331500,4.92033154296875,0.8015878796577454,1.9485775232315063,0.8335448503494263
1772534491731265500,4.930265625,0.9347419738769531,1.6877285242080688,1.50983464717865
1772534491741195300,4.9401953125,1.4352684020996094,1.0476566553115845,1.7516425848007202
1772534491751128800,4.95012890625,1.7260769605636597,0.9688294529914856,1.9412540197372437
1772534491761061000,4.96006103515625,1.5758790969848633,1.03593909740448,1.9870589971542358
1772534491770994700,4.96999462890625,1.3054430484771729,0.8505885601043701,1.7207508087158203
1772534491780943600,4.979943603515625,1.2404638528823853,0.547130286693573,1.3065083026885986
1772534491790878700,4.989878662109375,1.361767292022705,0.38308441638946533,0.9059807062149048
1772534491800794400,4.99979443359375,1.4597686529159546,0.23395180702209473,0.4512593448162079
1772534491810727700,5.009727783203125,1.4895951747894287,-0.08548495173454285,-0.09826774895191193
1772534491820661800,5.019661865234375,1.58440101146698,-0.3688369393348694,-0.6115769147872925
1772534491830595000,5.029594970703125,1.7516425848007202,-0.47855594754219055,-0.9417991638183594
1772534491840529700,5.03952978515625,1.9348626136779785,-0.5147738456726074,-0.9929303526878357
1772534491850463000,5.049462890625,2.1190147399902344,-0.5967968106269836,-0.7426005601882935
1772534491860384000,5.059384033203125,2.2170162200927734,-0.7873403429985046,-0.20053011178970337
1772534491870316300,5.06931640625,2.140319347381592,-1.0962579250335693,0.6003919839859009
1772534491880288500,5.07928857421875,1.9411208629608154,-1.4146294593811035,1.5364655256271362
1772534491890224600,5.089224609375,1.691989541053772,-1.5903929471969604,2.378931760787964
1772534491900109600,5.099109619140625,1.4118331670761108,-1.5424574613571167,2.912480354309082
1772534491910040600,5.10904052734375,1.1403319835662842,-1.2304773330688477,3.0648086071014404
1772534491919951600,5.11895166015625,0.8857412338256836,-0.7745575904846191,2.901827812194824
1772534491929880600,5.128880615234375,0.6089138388633728,-0.36244553327560425,2.533390522003174
1772534491939842600,5.138842529296875,0.3117138147354126,-0.012117025442421436,2.059361696243286
1772534491949774800,5.14877490234375,0.05193011090159416,0.31490951776504517,1.5172913074493408
1772534491959705000,5.158705078125,-0.10252867639064789,0.5449998378753662,0.9113068580627441
1772534491969637000,5.16863720703125,-0.10572437942028046,0.6375419497489929,0.3031919598579407
1772534491979567900,5.17856787109375,-0.05139749497175217,0.5661713480949402,-0.24846559762954712
1772534491989499600,5.188499755859375,-0.111050546169281,0.34899696707725525,-0.8746894598007202
1772534491999409700,5.19840966796875,-0.1440727710723877,0.04007939249277115,-1.5392616987228394
1772534492009339400,5.20833935546875,-0.07696308940649033,-0.16324695944786072,-2.035527229309082
1772534492019273000,5.21827294921875,-0.0801587849855423,-0.20266057550907135,-2.302767515182495
1772534492029203200,5.228203125,-0.2505960762500763,-0.18881255388259888,-2.415682077407837
1772534492039164000,5.238163818359375,-0.539141058921814,-0.2388785034418106,-2.41994309425354
1772534492049097000,5.248096923828125,-0.8725590109825134,-0.3581846058368683,-2.336854934692383
1772534492059023600,5.258023681640625,-1.201582908630371,-0.5094476938247681,-2.1878554821014404
1772534492068956200,5.2679560546875,-1.4380645751953125,-0.6266233325004578,-2.0057005882263184
1772534492078890500,5.277890380859375,-1.524348497390747,-0.6223623752593994,-1.8384590148925781
1772534492088823300,5.2878232421875,-1.4668258428573608,-0.4764254689216614,-1.7074353694915771
1772534492098757000,5.297757080078125,-1.2995842695236206,-0.22183477878570557,-1.654173731803894
1772534492108690000,5.30768994140625,-1.036604881286621,0.12529803812503815,-1.6722826957702637
1772534492118620000,5.317619873046875,-0.6925346255302429,0.5332822799682617,-1.7095658779144287
1772534492128552200,5.32755224609375,-0.39546775817871094,0.9336767196655273,-1.7489794492721558
1772534492138483700,5.337483642578125,-0.283618301153183,1.2467221021652222,-1.775610327720642
1772534492148416000,5.347416015625,-0.3368799388408661,1.2744181156158447,-1.7638927698135376
1772534492158348000,5.35734814453125,-0.4007939398288727,0.9006544947624207,-1.6520432233810425
1772534492168280300,5.3672802734375,-0.2942706346511841,0.1956034153699875,-1.3837376832962036
1772534492178215200,5.377215087890625,0.013581721112132072,-0.6893389225006104,-0.9641690254211426
1772534492188147700,5.387147705078125,0.4182371199131012,-1.5701534748077393,-0.40612009167671204
1772534492198089200,5.397089111328125,0.7186328172683716,-2.3284661769866943,0.1541924774646759
1772534492208022800,5.407022705078125,0.7280867695808411,-2.9642772674560547,0.5066514611244202
1772534492217918200,5.416918212890625,0.4917382001876831,-3.2698659896850586,0.5897396206855774
1772534492227848000,5.426847900390625,0.08495233207941055,-2.938711643218994,0.34686651825904846
1772534492237817900,5.43681787109375,-0.7383396625518799,-2.2943787574768066,-0.6829475164413452
1772534492247751700,5.446751708984375,-1.861894130706787,-1.819417953491211,-2.596771717071533
1772534492257674200,5.45667431640625,-2.353898763656616,-0.1749645173549652,-3.966395139694214
1772534492267606800,5.466606689453125,-2.064288377761841,2.96467661857605,-3.8034145832061768
1772534492277510700,5.4765107421875,-1.3485850095748901,5.072240352630615,-2.8098185062408447
1772534492287440400,5.4864404296875,-0.5103797912597656,4.892215728759766,-1.7393923997879028
1772534492297405200,5.4964052734375,-0.04926702752709389,3.9785122871398926,-0.2079867422580719
1772534492307338500,5.50633837890625,0.012516488321125507,2.8666751384735107,1.576944351196289
1772534492317267700,5.516267822265625,0.11464570462703705,1.4278117418289185,2.9241979122161865
1772534492327200800,5.52620068359375,0.4363460838794708,0.07310161739587784,3.7016847133636475
1772534492337105400,5.53610546875,0.8601756691932678,-1.1026493310928345,3.8432276248931885
1772534492347035600,5.54603564453125,1.1584409475326538,-1.9897221326828003,3.2574825286865234
1772534492356970000,5.555969970703125,1.241529107093811,-2.2006382942199707,2.1648197174072266
1772534492366900500,5.565900390625,1.1935936212539673,-1.555240273475647,0.9613727927207947
1772534492376861700,5.57586181640625,1.049787163734436,-0.494534432888031,-0.10359390825033188
1772534492386795300,5.585795166015625,0.8367405533790588,0.48747727274894714,-0.8821461200714111
1772534492396728800,5.595728759765625,0.5716306567192078,1.271222472190857,-1.3741506338119507
1772534492406598400,5.605598388671875,0.1615159511566162,1.7164899110794067,-1.7862626314163208
1772534492416532000,5.615531982421875,-0.3049229383468628,1.530074119567871,-2.143115758895874
1772534492426519300,5.625519287109375,-0.4849473237991333,0.9155677556991577,-2.1548333168029785
1772534492436457500,5.63545751953125,-0.32835808396339417,0.4384765326976776,-1.6298065185546875
1772534492446361300,5.645361328125,-0.13022473454475403,0.2595174014568329,-0.6989260315895081
1772534492456296000,5.6552958984375,-0.09400681406259537,0.2158428430557251,0.33621418476104736
1772534492466250500,5.66525048828125,-0.1749645173549652,0.16790735721588135,1.2234201431274414
1772534492476187100,5.675187255859375,-0.3230319023132324,0.14553746581077576,1.7718819379806519
1772534492486119700,5.68511962890625,-0.4764254689216614,0.1956034153699875,1.8922532796859741
1772534492496056000,5.69505615234375,-0.5604457259178162,0.19134248793125153,1.637662649154663
1772534492505980000,5.70497998046875,-0.5977289080619812,0.08162347972393036,1.0945268869400024
1772534492515914800,5.714914794921875,-0.6659038066864014,0.02836182899773121,0.3447360396385193
1772534492525846000,5.724845947265625,-0.7095783352851868,0.21371237933635712,-0.42516112327575684
1772534492535780400,5.7347802734375,-0.6371424794197083,0.4938686490058899,-1.0886681079864502
1772534492545686500,5.7446865234375,-0.4732297658920288,0.7930659651756287,-1.6690870523452759
1772534492555618300,5.754618408203125,-0.25698745250701904,1.11050546169281,-2.1740074157714844
1772534492565553200,5.76455322265625,-0.020505735650658607,1.3308755159378052,-2.552031993865967
1772534492575485400,5.7744853515625,0.16471165418624878,1.3393974304199219,-2.7533609867095947
1772534492585417500,5.78441748046875,0.3436708152294159,1.0838745832443237,-2.756556749343872
1772534492595349500,5.794349609375,0.5524564981460571,0.5725627541542053,-2.573336601257324
1772534492605286100,5.8042861328125,0.7248910665512085,-0.02170412242412567,-2.2644190788269043
1772534492615218700,5.81421875,0.7525871396064758,-0.4444684684276581,-1.8331328630447388
1772534492625149200,5.824149169921875,0.6280879974365234,-0.6680342555046082,-1.2804100513458252
1772534492635081500,5.83408154296875,0.38308441638946533,-0.8075798153877258,-0.6914693713188171
1772534492645009700,5.844009765625,0.03914731368422508,-0.9183640480041504,-0.15792079269886017
1772534492654941700,5.853941650390625,-0.31770575046539307,-1.0046478509902954,0.3010614812374115
1772534492664915000,5.8639150390625,-0.5519238710403442,-1.0802794694900513,0.6856105923652649
1772534492674851000,5.87385107421875,-0.6648385524749756,-1.1761504411697388,0.9773513078689575
1772534492684769500,5.88376953125,-0.792666494846344,-1.2240859270095825,1.1403319835662842
1772534492694703600,5.89370361328125,-0.9588428735733032,-1.1559109687805176,1.1701585054397583
1772534492704599800,5.903599853515625,-1.0280829668045044,-0.9023855328559875,1.1701585054397583
1772534492714530000,5.913530029296875,-0.9929303526878357,-0.6383408904075623,1.164832353591919
1772534492724499700,5.923499755859375,-1.0312787294387817,-0.6532541513442993,1.143527626991272
1772534492734434000,5.93343408203125,-1.053648591041565,-0.8310149312019348,1.243659496307373
1772534492744365600,5.943365478515625,-0.722361147403717,-0.8437976837158203,1.6515105962753296
1772534492754299600,5.953299560546875,-0.1430075317621231,-0.7937317490577698,2.0348613262176514
1772534492764219600,5.9632197265625,0.25419121980667114,-0.9524514675140381,1.854970097541809
1772534492774152400,5.97315234375,0.33940985798835754,-1.2963886260986328,1.0423305034637451
1772534492784085800,5.983085693359375,0.1615159511566162,-1.6532416343688965,-0.15259462594985962
1772534492794018600,5.9930185546875,-0.1983996480703354,-1.7246122360229492,-1.3752158880233765
1772534492803954400,6.002954345703125,-0.3986634612083435,-0.8842765688896179,-1.9652217626571655
1772534492813887500,6.012887451171875,-0.18242116272449493,1.1318100690841675,-1.2463226318359375
1772534492823785500,6.022785400390625,0.27230018377304077,2.8016960620880127,0.1872147023677826
1772534492833715200,6.032715087890625,0.5130428671836853,2.640845775604248,1.0316781997680664
1772534492843673000,6.042673095703125,0.6483274698257446,1.7069027423858643,1.4597686529159546
1772534492853605400,6.05260546875,0.8090444803237915,1.3021142482757568,2.153102159500122
1772534492863538000,6.062537841796875,0.8569799661636353,1.1552451848983765,2.7612171173095703
1772534492873470500,6.072470458984375,0.8900021910667419,0.9880036115646362,2.9998292922973633
1772534492883411000,6.082410888671875,1.0721570253372192,0.9081111550331116,3.0115468502044678
1772534492893344000,6.092343994140625,1.2607033252716064,0.8463276624679565,2.824065923690796
1772534492903266300,6.102266357421875,1.2372682094573975,0.7419347763061523,2.419410467147827
1772534492913198300,6.1121982421875,1.0146344900131226,0.6865426898002625,1.8453830480575562
1772534492923130000,6.122130126953125,0.6983934044837952,0.6929340958595276,1.1893327236175537
1772534492933062400,6.1320625,0.2882786989212036,0.6769555807113647,0.5375432372093201
1772534492942999800,6.141999755859375,-0.15152940154075623,0.5194342732429504,-0.05672365799546242
1772534492952932600,6.1519326171875,-0.39546775817871094,0.23182134330272675,-0.4912055730819702
1772534492962860800,6.16186083984375,-0.41357672214508057,-0.12702903151512146,-0.6435338854789734
1772534492972792800,6.171792724609375,-0.3347494900226593,-0.5712311863899231,-0.5125102400779724
1772534492982703000,6.181703125,-0.22716094553470612,-0.9801475405693054,-0.17922545969486237
1772534492992633000,6.191633056640625,-0.2090519815683365,-1.1729546785354614,0.2797568142414093
1772534493002603000,6.20160302734375,-0.39546775817871094,-1.1196930408477783,0.7782858610153198
1772534493012537000,6.211537109375,-0.7159697413444519,-0.8885374665260315,1.1840064525604248
1772534493022469600,6.2214697265625,-1.0387353897094727,-0.5818835496902466,1.4013140201568604
1772534493032403500,6.231403564453125,-1.2878667116165161,-0.32835808396339417,1.4288769960403442
1772534493042296800,6.241296875,-1.4508473873138428,-0.12702903151512146,1.2937254905700684
1772534493052226600,6.2512265625,-1.4977176189422607,0.04753602296113968,1.106244444847107
1772534493062182000,6.261181884765625,-1.416759967803955,0.19240771234035492,0.8910674452781677
1772534493072114200,6.2711142578125,-1.2452573776245117,0.23182134330272675,0.5716306567192078
1772534493082048800,6.281048828125,-1.014235019683838,0.06564498692750931,0.14034445583820343
1772534493091981300,6.290981201171875,-0.768166184425354,-0.2814878225326538,-0.33901041746139526
1772534493101909200,6.3009091796875,-0.5987941026687622,-0.6776213645935059,-0.8587109446525574
1772534493111841300,6.31084130859375,-0.5497934222221375,-0.9865389466285706,-1.4295426607131958
1772534493121775600,6.320775634765625,-0.5881417989730835,-1.1409977674484253,-2.0557665824890137
1772534493131708000,6.3307080078125,-0.5945332050323486,-1.1090407371520996,-2.6830556392669678
1772534493141646600,6.340646484375,-0.4423380196094513,-0.8682980537414551,-3.1952996253967285
1772534493151579600,6.35057958984375,-0.1536598652601242,-0.41783764958381653,-3.503018856048584
1772534493161491700,6.36049169921875,0.1199718713760376,0.02942706272006035,-3.572258949279785
1772534493171422500,6.37042236328125,0.18921200931072235,0.22223423421382904,-3.4115419387817383
1772534493181385000,6.380385009765625,-0.00133154122158885,0.14447222650051117,-3.0365798473358154
1772534493191319000,6.390319091796875,-0.31770575046539307,-0.06311506032943726,-2.5765323638916016
1772534493201240800,6.40024072265625,-0.5487281680107117,-0.24526990950107574,-2.1580288410186768
1772534493211173600,6.410173583984375,-0.5359453558921814,-0.3656412363052368,-1.6861307621002197
1772534493221103600,6.420103515625,-0.279357373714447,-0.34007564187049866,-1.0673635005950928
1772534493231036000,6.430035888671875,0.027429750189185143,-0.17283405363559723,-0.5902722477912903
1772534493240977200,6.43997705078125,0.21797330677509308,0.007057168986648321,-0.3752283453941345
1772534493250910500,6.449910400390625,0.2477998286485672,0.15832026302814484,-0.3656412363052368
1772534493260828000,6.459827880859375,0.17642922699451447,0.16684211790561676,-0.44433531165122986
1772534493270759700,6.469759765625,0.06151720881462097,0.15512455999851227,-0.4848141670227051
1772534493280676600,6.479676513671875,-0.006657706573605537,0.21903854608535767,-0.4114462435245514
1772534493290606800,6.48960693359375,0.019973119720816612,0.2158428430557251,-0.17816022038459778
1772534493300557800,6.499557861328125,0.15832026302814484,0.02623136341571808,0.22436471283435822
1772534493310490000,6.509489990234375,0.33727940917015076,-0.1536598652601242,0.715437114238739
1772534493320418600,6.51941845703125,0.4906729757785797,-0.2282261699438095,1.1264839172363281
1772534493330350600,6.5293505859375,0.5588479042053223,-0.5946663618087769,1.26496422290802
1772534493340281900,6.53928173828125,0.5173037648200989,-1.3166279792785645,1.0093083381652832
1772534493350213600,6.549213623046875,0.4704335331916809,-1.8503097295761108,0.33940985798835754
1772534493360149200,6.559149169921875,0.416106641292572,-1.5882624387741089,-0.6999912261962891
1772534493370081500,6.56908154296875,0.42356327176094055,0.11677616834640503,-1.4583040475845337
1772534493380015600,6.579015625,0.6696321368217468,2.7132816314697266,-1.2665621042251587
1772534493389948200,6.5889482421875,1.00504732131958,4.043491363525391,-0.5178363919258118
1772534493399883300,6.59888330078125,1.2713556289672852,3.6142024993896484,0.289343923330307
1772534493409816000,6.608816162109375,1.2425943613052368,2.4107553958892822,1.096657395362854
1772534493419756000,6.618756103515625,0.7026543617248535,1.0210258960723877,1.631271243095398
1772534493429689600,6.628689697265625,0.2062557488679886,-0.2804225981235504,1.6515105962753296
1772534493439616000,6.638615966796875,0.28295251727104187,-0.9279510974884033,1.3746832609176636
1772534493449548800,6.648548828125,0.7451304793357849,-0.9673647284507751,1.1286144256591797
1772534493459482600,6.658482666015625,1.1296796798706055,-0.8544500470161438,0.9091764092445374
1772534493469415400,6.66841552734375,1.2660294771194458,-0.852319598197937,0.653653621673584
1772534493479344600,6.6783447265625,1.2031806707382202,-1.0451267957687378,0.40225863456726074
1772534493489277200,6.688277099609375,1.0103734731674194,-1.2230206727981567,0.22010377049446106
1772534493499210500,6.69821044921875,0.7026543617248535,-1.212368369102478,0.07536523789167404
1772534493509143000,6.70814306640625,0.31917044520378113,-1.1090407371520996,-0.1547250896692276
1772534493519068000,6.71806787109375,-0.019440501928329468,-0.9087769389152527,-0.4837489426136017
1772534493528999700,6.727999755859375,-0.28787922859191895,-0.6946650743484497,-0.9386034607887268
1772534493538939600,6.737939697265625,-0.4540555775165558,-0.279357373714447,-1.358172059059143
1772534493548872200,6.7478720703125,-0.34114086627960205,0.5354127287864685,-1.3272804021835327
1772534493558793500,6.75779345703125,-0.1014634445309639,1.1710906028747559,-0.9162335395812988
1772534493568725000,6.76772509765625,0.0689738392829895,1.1828081607818604,-0.36351075768470764
1772534493578664000,6.777663818359375,0.08388710021972656,0.7195649147033691,0.38201919198036194
1772534493588596200,6.78759619140625,-0.11424624174833298,0.08908011019229889,1.272420883178711
1772534493598511000,6.797510986328125,-0.3592498302459717,-0.49133872985839844,2.022078514099121
1772534493608441600,6.807441650390625,-0.4828168749809265,-0.8927984237670898,2.415149688720703
1772534493618402300,6.81740234375,-0.47855594754219055,-1.0760184526443481,2.4321932792663574
1772534493628335900,6.8273359375,-0.3805544972419739,-0.9876041412353516,2.116884231567383
1772534493638257700,6.837257568359375,-0.13022473454475403,-0.7330134510993958,1.593988060951233
1772534493648190000,6.84718994140625,0.2584521770477295,-0.531817615032196,0.9954602718353271
1772534493658123300,6.857123291015625,0.6568493247032166,-0.35072797536849976,0.42249804735183716
1772534493668055800,6.867055908203125,0.9113068580627441,-0.1664426624774933,-0.03648423030972481
1772534493677959000,6.876958984375,0.8942631483078003,-0.16857312619686127,-0.3805544972419739
1772534493687888400,6.886888427734375,0.5758916139602661,-0.37309786677360535,-0.5945332050323486
1772534493697851100,6.89685107421875,0.09666989743709564,-0.7042521834373474,-0.6754909157752991
1772534493707784200,6.9067841796875,-0.3549889028072357,-0.9929303526878357,-0.7095783352851868
1772534493717724200,6.91672412109375,-0.6083812117576599,-1.0312787294387817,-0.768166184425354
1772534493727657700,6.92665771484375,-0.5338149070739746,-0.7724270820617676,-0.8139711618423462
1772534493737563600,6.936563720703125,-0.1430075317621231,-0.3358147144317627,-0.7841446399688721
1772534493747494400,6.946494384765625,0.3745625615119934,0.19666863977909088,-0.6989260315895081
1772534493757454000,6.9564541015625,0.7813484072685242,0.523695170879364,-0.615837812423706
1772534493767388000,6.966387939453125,0.8623061180114746,0.45552027225494385,-0.5604457259178162
1772534493777316900,6.97631689453125,0.5886744260787964,0.13488513231277466,-0.5220973491668701
1772534493787250200,6.986250244140625,0.12210233509540558,-0.2612484097480774,-0.5210320949554443
1772534493797150500,6.996150390625,-0.30918389558792114,-0.5840139985084534,-0.6254249215126038
1772534493807080400,7.00608056640625,-0.4955996572971344,-0.6733604073524475,-0.7884055972099304
1772534493817022200,7.016022216796875,-0.3539236783981323,-0.5062519907951355,-0.9162335395812988
1772534493826953200,7.025953125,-0.022636201232671738,-0.24526990950107574,-0.9950608015060425
1772534493836884000,7.035884033203125,0.27336543798446655,-0.009986559860408306,-0.9897346496582031
1772534493846815000,7.04581494140625,0.4097152650356293,0.05392742156982422,-0.9045159816741943
1772534493856743400,7.055743408203125,0.38308441638946533,-0.14620323479175568,-0.6818822622299194
1772534493866674200,7.065674072265625,0.3958672285079956,-0.49986058473587036,0.04979964345693588
1772534493876604000,7.07560400390625,0.5322170257568359,-0.7607095241546631,0.8772193789482117
1772534493886534700,7.08553466796875,0.6483274698257446,-1.6074366569519043,1.2106373310089111
1772534493896473000,7.09547314453125,0.6877411007881165,-2.1835944652557373,0.858045220375061
1772534493906404600,7.105404541015625,0.47469446063041687,-1.8140918016433716,-0.197334423661232
1772534493916339000,7.1153388671875,0.10412652790546417,-0.16005125641822815,-1.0854724645614624
1772534493926270700,7.125270751953125,0.23288656771183014,1.8527065515518188,-1.0694940090179443
1772534493936224300,7.135224365234375,0.8527190089225769,2.4011683464050293,-0.5029231309890747
1772534493946158000,7.145157958984375,1.171223759651184,1.7409902811050415,0.13608351349830627
1772534493956091100,7.155091064453125,0.8335448503494263,1.210504174232483,1.002916932106018
1772534493966025200,7.165025146484375,0.15938548743724823,0.8058487772941589,1.8794704675674438
1772534493975954000,7.174953857421875,-0.29640108346939087,0.481085866689682,2.2074291706085205
1772534493985887200,7.18488720703125,-0.23355233669281006,0.6503247618675232,2.0295352935791016
1772534493995819000,7.194819091796875,0.11251524090766907,1.0071778297424316,1.5982489585876465
1772534494005752300,7.20475244140625,0.3330184817314148,1.177482008934021,0.9837427139282227
1772534494015658800,7.21465869140625,0.2925396263599396,1.120092511177063,0.3095833361148834
1772534494025589200,7.22458935546875,0.0689738392829895,0.7344781756401062,-0.3347494900226593
1772534494035499500,7.23449951171875,-0.2399437427520752,0.08268871158361435,-0.8672328591346741
1772534494045428200,7.24442822265625,-0.4093157947063446,-0.5051867365837097,-1.0652329921722412
1772534494055417000,7.2544169921875,-0.3326190114021301,-0.9087769389152527,-0.8832113146781921
1772534494065351700,7.2643515625,-0.19413872063159943,-1.228346824645996,-0.5274235010147095
1772534494075278800,7.27427880859375,-0.1877473145723343,-1.3901290893554688,-0.1866820901632309
1772534494085212700,7.284212646484375,-0.31131434440612793,-1.1037145853042603,0.1446053832769394
1772534494095138300,7.29413818359375,-0.4604469835758209,-0.47962117195129395,0.46510738134384155
1772534494105071400,7.3040712890625,-0.5860112905502319,0.270169734954834,0.7314156293869019
1772534494115020000,7.31402001953125,-0.6893389225006104,0.9698946475982666,0.9358072280883789
1772534494124954600,7.32395458984375,-0.768166184425354,1.3649629354476929,1.0668308734893799
1772534494134873000,7.333873046875,-0.8725590109825134,1.277613878250122,1.0902659893035889
1772534494144806000,7.343805908203125,-1.0153002738952637,0.7557828426361084,0.9901341199874878
1772534494154733000,7.353733154296875,-1.0376701354980469,0.16045072674751282,0.8473928570747375
1772534494164665600,7.36366552734375,-0.8661676049232483,-0.22076953947544098,0.715437114238739
1772534494174596600,7.3735966796875,-0.5860112905502319,-0.3773587942123413,0.5300865769386292
1772534494184529000,7.38352880859375,-0.3049229383468628,-0.4615122079849243,0.22223423421382904
1772534494194460200,7.393460205078125,-0.09187635034322739,-0.475360244512558,-0.16963836550712585
1772534494204392200,7.40339208984375,0.06790860742330551,-0.4189028739929199,-0.57748943567276
1772534494214332400,7.41333251953125,0.16790735721588135,-0.3880111277103424,-0.9705604314804077
1772534494224265200,7.42326513671875,0.15938548743724823,-0.43594661355018616,-1.2825405597686768
1772534494234193200,7.433193115234375,0.025299284607172012,-0.41570720076560974,-1.4796086549758911
1772534494244125400,7.44312548828125,-0.1536598652601242,-0.3017272651195526,-1.5541750192642212
1772534494254056400,7.453056396484375,-0.3145100474357605,-0.15046416223049164,-1.5190223455429077
1772534494263988700,7.46298876953125,-0.41464194655418396,-0.00359516148455441,-1.4093033075332642
1772534494273928400,7.472928466796875,-0.36031508445739746,0.1732335239648819,-1.211169958114624
1772534494283861200,7.482861328125,-0.14833369851112366,0.3873453438282013,-0.9013202786445618
1772534494293794600,7.492794677734375,0.07962616533041,0.47895538806915283,-0.5561847686767578
1772534494303727600,7.5027275390625,0.18175537884235382,0.3671059310436249,-0.2697702646255493
1772534494313648000,7.512648193359375,0.17003782093524933,0.1529940962791443,-0.05778888985514641
1772534494323580000,7.522579833984375,0.06364767253398895,-0.10785484313964844,0.07003907114267349
1772534494333519600,7.53251953125,-0.12063764035701752,-0.3155752718448639,0.1126483902335167
1772534494343452200,7.5424521484375,-0.24846559762954712,-0.34966275095939636,0.08069140464067459
1772534494353382100,7.552382080078125,-0.1983996480703354,-0.06737598776817322,-0.04287562891840935
1772534494363314400,7.562314453125,-0.005592473316937685,0.47789016366004944,-0.20479105412960052
1772534494373244200,7.572244140625,0.19986434280872345,1.0242215394973755,-0.3230319023132324
1772534494383176200,7.58217626953125,0.38201919198036194,1.334071159362793,-0.30705341696739197
1772534494393115600,7.59211572265625,0.4597811996936798,1.2914619445800781,-0.08548495173454285
1772534494403048400,7.60204833984375,0.2776263654232025,0.7664351463317871,0.3575188219547272
1772534494412970800,7.611970703125,-0.03967992961406708,-0.40398961305618286,0.928350567817688
1772534494422902500,7.621902587890625,-0.16111649572849274,-1.7586997747421265,1.4672253131866455
1772534494432852200,7.631852294921875,0.07110430300235748,-2.4765336513519287,1.6770762205123901
1772534494442785800,7.641785888671875,0.4608464241027832,-2.4254024028778076,1.026352047920227
1772534494452709000,7.651709228515625,0.6227618455886841,-1.733134150505066,-0.6062507629394531
1772534494462641700,7.6616416015625,0.47895538806915283,-0.21437814831733704,-2.181464195251465
1772534494472577000,7.671576904296875,0.30745288729667664,1.432072639465332,-2.8140792846679688
1772534494482509800,7.681509765625,0.32769230008125305,1.8772069215774536,-2.752295732498169
1772534494492430600,7.6914306640625,0.4171718955039978,1.525813102722168,-2.1505722999572754
1772534494502362000,7.701362060546875,0.2797568142414093,1.3734848499298096,-1.0780158042907715
1772534494512295000,7.711294921875,-0.1451379954814911,1.3266146183013916,-0.0375494658946991
1772534494522226700,7.721226806640625,-0.4199681282043457,1.0295476913452148,0.631283700466156
1772534494532158000,7.731157958984375,-0.22396524250507355,0.6418029069900513,1.043395757675171
1772534494542089500,7.74108935546875,0.22969086468219757,0.09014534205198288,1.3810746669769287
1772534494552025300,7.751025390625,0.5247604250907898,-0.6989260315895081,1.6206189393997192
1772534494561957400,7.760957275390625,0.481085866689682,-1.5232832431793213,1.6195536851882935
1772534494571888600,7.770888671875,0.20199480652809143,-2.1260719299316406,1.3895964622497559
1772534494581820700,7.780820556640625,-0.12063764035701752,-2.167616128921509,1.0785484313964844
1772534494591754800,7.790754638671875,-0.33048853278160095,-1.6830681562423706,0.7452636361122131
1772534494601686800,7.800686767578125,-0.39546775817871094,-0.9929303526878357,0.36071452498435974
1772534494611616000,7.810615966796875,-0.410381019115448,-0.1983996480703354,-0.03541899845004082
1772534494621548000,7.820548095703125,-0.475360244512558,0.6066502332687378,-0.31877097487449646
1772534494631484200,7.830484130859375,-0.5647066831588745,1.1605713367462158,-0.40398961305618286
1772534494641416400,7.84041650390625,-0.6392729878425598,1.3905285596847534,-0.2825530469417572
1772534494651345700,7.850345703125,-0.7117088437080383,1.2978532314300537,-0.04500609636306763
1772534494661277700,7.860277587890625,-0.7809489369392395,0.9368724226951599,0.1945381760597229
1772534494671218200,7.87021826171875,-0.8161016702651978,0.4384765326976776,0.33834463357925415
1772534494681151200,7.880151123046875,-0.7702966332435608,0.08268871158361435,0.4065195620059967
1772534494691082800,7.890082763671875,-0.5412715077400208,-0.02596505545079708,0.5045210123062134
1772534494701015600,7.900015625,-0.18881255388259888,-0.132355198264122,0.653653621673584
1772534494710939400,7.909939453125,0.12423279881477356,-0.28574874997138977,0.7740249633789062
1772534494720871200,7.91987109375,0.3979976773262024,-0.3560541272163391,0.8420667052268982
1772534494730809900,7.929809814453125,0.5897396206855774,-0.5307523608207703,0.8175663352012634
1772534494740742400,7.939742431640625,0.5098471641540527,-0.9694951772689819,0.6344794034957886
1772534494750645500,7.9496455078125,0.14766792953014374,-1.3389979600906372,0.33834463357925415
1772534494760575000,7.959574951171875,-0.28681400418281555,-1.3176932334899902,-0.013049104250967503
1772534494770509800,7.969509765625,-0.5934679508209229,-0.8491238951683044,-0.4475310146808624
1772534494780439800,7.979439697265625,-0.6935998797416687,-0.20159535109996796,-0.9620385766029358
1772534494790394600,7.98939453125,-0.6019898056983948,0.3639102280139923,-1.4774781465530396
1772534494800327200,7.9993271484375,-0.3794892728328705,0.8079792261123657,-1.869350790977478
1772534494810265600,8.009265625,-0.11318100988864899,1.1318100690841675,-2.0717451572418213
1772534494820198700,8.01919873046875,0.11784140020608902,1.2041127681732178,-2.0898540019989014
1772534494830129200,8.029129150390625,0.2552564740180969,0.9219591617584229,-1.9662870168685913
1772534494840062000,8.03906201171875,0.2467346042394638,0.39054104685783386,-1.7788059711456299
1772534494849993200,8.0489931640625,0.15512455999851227,0.04966649040579796,-1.5648273229599
1772534494859926000,8.058926025390624,0.12316756695508957,0.22010377049446106,-1.349650263786316
1772534494869859800,8.06885986328125,0.14873315393924713,0.7302172183990479,-1.2857362031936646
1772534494879793000,8.07879296875,0.12316756695508957,1.2701572179794312,-1.5073047876358032
1772534494889729800,8.088729736328125,0.028494983911514282,1.593988060951233,-1.9204820394515991
1772534494899663000,8.0986630859375,-0.15259462594985962,1.5311393737792969,-2.331528663635254
1772534494909581300,8.108581298828126,-0.36138030886650085,1.1147663593292236,-2.5435101985931396
1772534494919513000,8.11851318359375,-0.3326190114021301,0.7536523938179016,-2.3304636478424072
1772534494929447700,8.12844775390625,0.10732222348451614,0.7387390732765198,-1.557370662689209
1772534494939379700,8.138379638671875,0.6376751065254211,0.7994573712348938,-0.5167711973190308
1772534494949289200,8.148289306640624,0.9400681257247925,0.6577813625335693,0.42462852597236633
1772534494959219200,8.15821923828125,0.9294158220291138,0.3234313726425171,1.1371362209320068
1772534494969158400,8.168158447265625,0.5748263597488403,-0.3049229383468628,1.6302059888839722
1772534494979089200,8.178089111328125,-0.19413872063159943,-1.2645647525787354,1.946580171585083
1772534494989018400,8.188018310546875,-1.0866708755493164,-2.2666826248168945,2.031665802001953
1772534494998948900,8.197948974609375,-1.5403269529342651,-2.9472334384918213,1.5247479677200317
1772534495008881400,8.20788134765625,-1.349650263786316,-2.9653425216674805,0.1424749195575714
1772534495018812200,8.217812255859375,-0.6222292184829712,-1.6074366569519043,-1.5637620687484741
1772534495028744400,8.227744384765625,0.25206077098846436,0.6971949934959412,-2.8586859703063965
1772534495038675500,8.237675537109375,0.7376738786697388,2.3958423137664795,-3.3731935024261475
1772534495048645400,8.247645263671876,0.6185009479522705,3.100893259048462,-2.8343188762664795
1772534495058580500,8.25758056640625,0.04553871229290962,2.893306016921997,-1.3507155179977417
1772534495068479000,8.26747900390625,-0.5284887552261353,1.9304685592651367,0.3852148950099945
1772534495078410200,8.27741015625,-0.6200987696647644,0.7834789156913757,1.6855981349945068
1772534495088380000,8.2873798828125,-0.28894445300102234,0.05286218971014023,2.41621470451355
1772534495098315000,8.29731494140625,0.12849372625350952,-0.2079867422580719,2.66854190826416
1772534495108205300,8.307205322265625,0.416106641292572,-0.36138030886650085,2.509955406188965
1772534495118136000,8.317135986328125,0.48747727274894714,-0.7671009302139282,2.0062332153320312
1772534495128103400,8.327103515625,0.4469984173774719,-1.2038464546203613,1.304377794265747
1772534495138037800,8.337037841796874,0.4736292362213135,-1.265496850013733,0.4821510910987854
1772534495148004600,8.347004638671875,0.5577826499938965,-0.8118407130241394,-0.4688356816768646
1772534495157942300,8.3569423828125,0.6110442876815796,-0.08335448056459427,-1.4668258428573608
1772534495167831600,8.36683154296875,0.6888062953948975,0.3628450036048889,-2.3794641494750977
1772534495177764400,8.376764404296875,0.858045220375061,0.28401774168014526,-3.1260595321655273
1772534495187688200,8.386688232421875,1.1232882738113403,-0.009986559860408306,-3.4966273307800293
1772534495197620000,8.396619873046875,1.3979852199554443,-0.20585627853870392,-3.379585027694702
1772534495207559000,8.406558837890625,1.516226053237915,-0.31877097487449646,-2.8492319583892822
1772534495217491500,8.416491455078125,1.3267477750778198,-0.25592222809791565,-2.021679162979126
1772534495227415300,8.426415283203125,0.9070459008216858,-0.04407401755452156,-1.056711196899414
1772534495237346800,8.436346923828125,0.4597811996936798,0.06777545064687729,-0.16324695944786072
1772534495247281700,8.44628173828125,0.09880036115646362,-0.06098458915948868,0.4842815697193146
1772534495257213400,8.45621337890625,-0.1536598652601242,-0.32090145349502563,0.844197154045105
1772534495267149800,8.46614990234375,-0.2846835255622864,-0.3975982367992401,0.9805470108985901
1772534495277082000,8.47608203125,-0.29853156208992004,-0.09826774895191193,1.0508524179458618
1772534495287006700,8.4860068359375,-0.24846559762954712,0.32662707567214966,1.1254186630249023
1772534495296938500,8.4959384765625,-0.16963836550712585,0.5204994678497314,1.0945268869400024
1772534495306871600,8.50587158203125,-0.0908111184835434,0.4491288661956787,0.8388710021972656
1772534495316803300,8.51580322265625,-0.022636201232671738,0.34899696707725525,0.40119338035583496
1772534495326740000,8.525739990234374,0.05086487531661987,0.3884105980396271,-0.10252867639064789
1772534495336672300,8.53567236328125,0.12103710323572159,0.5481955409049988,-0.6286206245422363
1772534495346605000,8.54560498046875,0.19134248793125153,0.8111749291419983,-1.250583529472351
1772534495356537300,8.555537353515625,0.24247366189956665,1.127549171447754,-1.9503085613250732
1772534495366477000,8.56547705078125,0.2488650679588318,1.4736167192459106,-2.5818586349487305
1772534495376410000,8.57541015625,0.20732097327709198,1.845249891281128,-2.98651385307312
1772534495386331100,8.5853310546875,0.1316894292831421,2.1467108726501465,-3.117537498474121
1772534495396263000,8.595262939453125,0.10945269465446472,2.2777345180511475,-2.9747962951660156
1772534495406202000,8.6052021484375,0.2275604009628296,2.2297990322113037,-2.4870529174804688
1772534495416134700,8.615134765625,0.4299546778202057,1.9943825006484985,-1.6509780883789062
1772534495426058800,8.625058837890625,0.5577826499938965,1.516226053237915,-0.6254249215126038
1772534495435990500,8.634990478515626,0.5173037648200989,0.8356752991676331,0.38947582244873047
1772534495445926000,8.64492578125,0.377758264541626,0.04327509179711342,1.2660294771194458
1772534495455858000,8.65485791015625,0.1519288569688797,-0.8587109446525574,1.9252755641937256
1772534495465795300,8.66479541015625,-0.16111649572849274,-1.6809377670288086,2.402366876602173
1772534495475728000,8.674727783203124,-0.37416309118270874,-2.231529951095581,2.817674398422241
1772534495485652700,8.68465283203125,-0.429555207490921,-2.643641948699951,3.1905059814453125
1772534495495584500,8.69458447265625,-0.38268497586250305,-2.9877123832702637,3.483311891555786
1772534495505517300,8.704517333984375,-0.2910749316215515,-3.099428653717041,3.665466785430908
1772534495515449000,8.714448974609375,-0.2399437427520752,-3.0249955654144287,3.7538812160491943
1772534495525383700,8.7243837890625,-0.22076953947544098,-3.1164724826812744,3.8890326023101807
1772534495535316000,8.73431591796875,-0.31983622908592224,-3.5425655841827393,4.088231086730957
1772534495545253000,8.744253173828126,-0.6680342555046082,-3.98024320602417,4.154275417327881
1772534495555186000,8.75418603515625,-1.0685619115829468,-3.90035080909729,3.9316420555114746
1772534495565108700,8.764108642578124,-1.279344916343689,-3.2506916522979736,3.375723361968994
1772534495575040300,8.774040283203124,-1.1930609941482544,-2.4211416244506836,2.7132816314697266
1772534495584981200,8.783981201171875,-0.8501890897750854,-1.7139599323272705,2.2297990322113037
1772534495594913800,8.793913818359375,-0.5583152770996094,-1.2304773330688477,1.6898590326309204
1772534495604817400,8.8038173828125,-0.31877097487449646,-0.7351439595222473,0.8740236759185791
1772534495614747100,8.8137470703125,-0.08974587917327881,-0.16750788688659668,-0.10892007499933243
1772534495624707600,8.82370751953125,-0.04074516147375107,0.37136685848236084,-1.080146312713623
1772534495634640400,8.833640380859375,-0.15259462594985962,0.9613727927207947,-1.693587303161621
1772534495644566800,8.84356689453125,-0.2601831555366516,1.5492483377456665,-1.769218921661377
1772534495654498800,8.853498779296874,-0.345401793718338,1.9027725458145142,-1.3666939735412598
1772534495664430600,8.8634306640625,-0.37416309118270874,1.892120122909546,-0.685077965259552
1772534495674362600,8.873362548828124,-0.33901041746139526,1.506639003753662,0.05725627392530441
1772534495684295000,8.883294921875,-0.39440253376960754,0.9336767196655273,0.6664364337921143
1772534495694227200,8.893227294921875,-0.6318163275718689,0.2818872928619385,1.0007864236831665
1772534495704162800,8.903162841796876,-0.9332773089408875,-0.36351075768470764,1.0146344900131226
1772534495714095400,8.913095458984374,-1.117429494857788,-0.7884055972099304,0.7186328172683716
1772534495724007400,8.92300732421875,-1.0962579250335693,-0.8555153012275696,0.24566936492919922
1772534495733938000,8.93293798828125,-0.9684299826622009,-0.7436658143997192,-0.36138030886650085
1772534495743864600,8.942864501953125,-0.8949288725852966,-0.12915951013565063,-0.8459281921386719
1772534495753794800,8.952794921875,-0.8043841123580933,0.8303491473197937,-0.9098421335220337
1772534495763757300,8.96275732421875,-0.5444672107696533,1.1563104391098022,-0.9268859028816223
1772534495773690600,8.972690673828126,-0.28787922859191895,1.1753515005111694,-0.9971912503242493
1772534495783620900,8.982620849609376,-0.14087706804275513,1.4544425010681152,-0.9364729523658752
1772534495793554000,8.992553955078124,-0.0908111184835434,1.905968189239502,-0.7319482564926147
1772534495803477800,9.002477783203124,-0.3379451632499695,2.293713092803955,-0.49972742795944214
1772534495813409800,9.012409912109375,-0.7202306985855103,2.009295701980591,-0.28681400418281555
1772534495823347500,9.022347412109376,-0.7575138211250305,0.7174344658851624,-0.05991935729980469
1772534495833280300,9.0322802734375,-0.40612009167671204,-0.6627081036567688,0.022103585302829742
1772534495843213300,9.04221337890625,0.05725627392530441,-1.3358021974563599,0.014646953903138638
1772534495853145900,9.052145751953125,0.4299546778202057,-1.4444559812545776,0.0902784988284111
1772534495863079400,9.062079345703125,0.6866758465766907,-1.4327384233474731,0.270169734954834
1772534495873012200,9.07201220703125,0.866567075252533,-1.4561735391616821,0.5151733160018921
1772534495882943700,9.08194384765625,0.928350567817688,-1.5381964445114136,0.7676335573196411
1772534495892876300,9.091876220703124,0.8495233654975891,-1.6713505983352661,0.9762860536575317
1772534495902811100,9.10181103515625,0.6834801435470581,-1.6564373970031738,1.1115707159042358
1772534495912744200,9.111744140625,0.508781909942627,-1.4210208654403687,1.1584409475326538
1772534495922674700,9.1216748046875,0.37988871335983276,-1.0504529476165771,1.0945268869400024
1772534495932607200,9.131607177734375,0.3298227787017822,-0.6946650743484497,0.9155677556991577
1772534495942538800,9.141538818359376,0.35858407616615295,-0.45831650495529175,0.6387403607368469
1772534495952471000,9.151470947265626,0.40012815594673157,-0.33155378699302673,0.3404751121997833
1772534495962404900,9.16140478515625,0.40438908338546753,-0.20585627853870392,0.12969212234020233
1772534495972337700,9.171337646484375,0.36817115545272827,-0.05033225938677788,0.08601756393909454
1772534495982270500,9.1812705078125,0.28508299589157104,0.07310161739587784,0.2041252851486206
1772534495992203000,9.191203125,0.16471165418624878,0.10079767554998398,0.4278241991996765
1772534496002137000,9.20113720703125,0.03595161437988281,0.06777545064687729,0.7015891075134277
1772534496012070000,9.21106982421875,-0.09294158220291138,0.11038476973772049,0.9603075981140137
1772534496021984800,9.22098486328125,-0.23568280041217804,0.1721682846546173,1.1477885246276855
1772534496031915800,9.230915771484375,-0.38161972165107727,0.15725502371788025,1.2063764333724976
1772534496041838600,9.240838623046875,-0.5029231309890747,0.11464570462703705,1.0945268869400024
1772534496051768800,9.250768798828124,-0.5785546898841858,0.11677616834640503,0.8271534442901611
1772534496061731300,9.2607314453125,-0.6211640238761902,0.19027724862098694,0.44380271434783936
1772534496071664600,9.27066455078125,-0.6105116605758667,0.3010614812374115,-0.011983871459960938
1772534496081576000,9.280575927734375,-0.5220973491668701,0.5130428671836853,-0.44433531165122986
1772534496091507200,9.290507080078125,-0.3986634612083435,0.9166330099105835,-0.7330134510993958
1772534496101457200,9.30045703125,-0.29746630787849426,1.3511149883270264,-0.8491238951683044
1772534496111390200,9.31039013671875,-0.1962691843509674,1.593988060951233,-0.8437976837158203
1772534496121320000,9.32031982421875,-0.08655018359422684,1.5183565616607666,-0.7298177480697632
1772534496131252700,9.330252685546874,-0.0034620072692632675,1.1073096990585327,-0.4848141670227051
1772534496141164300,9.340164306640625,0.06790860742330551,0.4310199022293091,-0.112115778028965
1772534496151094800,9.3500947265625,0.12636326253414154,-0.34966275095939636,0.3415403366088867
1772534496161023000,9.36002294921875,0.14873315393924713,-0.9790822863578796,0.7953296303749084
1772534496170953200,9.369953125,0.12316756695508957,-1.3432588577270508,1.1563104391098022
1772534496180894000,9.37989404296875,0.10199606418609619,-1.4369993209838867,1.335269570350647
1772534496190825500,9.389825439453125,0.1529940962791443,-1.3251498937606812,1.2585728168487549
1772534496200784600,9.39978466796875,0.2158428430557251,-1.1101059913635254,0.8985240459442139
1772534496210719000,9.409718994140626,0.2371474951505661,-0.8544500470161438,0.35964930057525635
1772534496220613600,9.419613525390625,0.17962491512298584,-0.4114462435245514,-0.1227681040763855
1772534496230544000,9.4295439453125,0.021038351580500603,0.183885857462883,-0.43687868118286133
1772534496240481300,9.439481201171875,-0.18029068410396576,0.8122401833534241,-0.6328815817832947
1772534496260379100,9.459379150390625,-0.08868064731359482,1.03593909740448,-0.9002550840377808
1772534496270313700,9.469313720703125,0.08708280324935913,0.6844122409820557,-0.8970593810081482
1772534496280243000,9.479242919921875,0.1423417627811432,0.06457975506782532,-0.7777532339096069
1772534496290177000,9.489177001953125,0.07643046975135803,-0.3571193814277649,-0.6169030666351318
1772534496300070400,9.4990703125,0.013581721112132072,-0.36031508445739746,-0.4390091598033905
1772534496310000400,9.50900048828125,0.29467007517814636,-0.5158390998840332,-0.1653774231672287
1772534496319964200,9.518964111328126,0.7643046975135803,-0.7383396625518799,-0.00133154122158885
1772534496329897500,9.5288974609375,0.9954602718353271,-0.8885374665260315,0.04021254554390907
1772534496339844600,9.5388447265625,0.943263828754425,-0.8640371561050415,0.0583215095102787
1772534496349779500,9.548779541015625,0.8271534442901611,-0.7212958931922913,0.11051792651414871
1772534496359691300,9.558691162109374,0.6951977014541626,-0.5616441369056702,0.17123620212078094
1772534496369623800,9.568623779296875,0.5268908739089966,-0.494534432888031,0.18082331120967865
1772534496379552800,9.578552734375,0.3436708152294159,-0.5147738456726074,0.10732222348451614
1772534496389484800,9.58848486328125,0.21051667630672455,-0.5499265193939209,-0.05672365799546242
1772534496399419400,9.59841943359375,0.14979839324951172,-0.6648385524749756,-0.2825530469417572
1772534496409352000,9.60835205078125,0.0902784988284111,-0.7777532339096069,-0.5199668407440186
1772534496419287300,9.618287353515624,-0.04287562891840935,-0.6712299585342407,-0.7479267120361328
1772534496429219800,9.6282197265625,-0.2825530469417572,-0.3326190114021301,-0.959908127784729
1772534496439154200,9.638154296875,-0.5061188340187073,0.21903854608535767,-1.1334079504013062
1772534496449087000,9.6480869140625,-0.600924551486969,0.8037183284759521,-1.2516487836837769
1772534496459020000,9.65802001953125,-0.5721632838249207,1.14139723777771,-1.2985190153121948
1772534496468953000,9.667953125,-0.47855594754219055,1.2286131381988525,-1.2527140378952026
1772534496478849300,9.677849365234374,-0.41677242517471313,1.2147650718688965,-1.1078423261642456
1772534496488778500,9.687778564453126,-0.4007939398288727,1.2690919637680054,-0.9002550840377808
1772534496498720800,9.697720703125,-0.3443365693092346,1.3809415102005005,-0.6701647043228149
1772534496508651300,9.7076513671875,-0.24420467019081116,1.3830718994140625,-0.45285719633102417
1772534496518585000,9.717585205078125,-0.15046416223049164,1.2648310661315918,-0.2729659676551819
1772534496528516000,9.72751611328125,-0.0790935531258583,1.043395757675171,-0.10892007499933243
1772534496538473500,9.737473388671875,-0.06524552404880524,0.7174344658851624,0.04021254554390907
1772534496548407000,9.747406982421875,-0.1014634445309639,0.3660407066345215,0.15845340490341187
1772534496558336000,9.7573359375,-0.11318100988864899,0.28295251727104187,0.24353890120983124
1772534496568269000,9.76726904296875,-0.04926702752709389,0.6013240218162537,0.24140843749046326
1772534496578196200,9.7771962890625,0.026364516466856003,1.0146344900131226,0.11051792651414871
1772534496588128800,9.787128662109374,0.021038351580500603,1.2818747758865356,0.07003907114267349
1772534496598069200,9.7970693359375,-0.14087706804275513,1.1764167547225952,0.3553883731365204
1772534496608002600,9.80700244140625,-0.3347494900226593,0.6939992904663086,0.6344794034957886
1772534496617903900,9.81690380859375,-0.45618605613708496,0.07949301600456238,0.700523853302002
1772534496627833900,9.826833740234376,-0.5082492828369141,-0.5275566577911377,0.6323489546775818
1772534496637792800,9.836792724609374,-0.5018579363822937,-0.8512543439865112,0.47789016366004944
1772534496647725800,9.846725830078125,-0.4423380196094513,-0.7596443295478821,0.2509955167770386
1772534496657630700,9.856630615234375,-0.32090145349502563,-0.3347494900226593,-0.023701434955000877
1772534496667561000,9.86656103515625,-0.19094301760196686,0.18921200931072235,-0.2846835255622864
1772534496677497600,9.87649755859375,-0.1536598652601242,0.6141068339347839,-0.44433531165122986
1772534496687428600,9.8864287109375,-0.197334423661232,0.8655018210411072,-0.45605289936065674
1772534496697385200,9.89638525390625,-0.22290000319480896,0.8750889301300049,-0.3773587942123413
