time,seconds_elapsed,z,y,x
1772538591071519500,0.04451953125,-0.9978179931640625,-0.0666961669921875,-0.0631256103515625
1772538591081534700,0.05453466796875,-1.0096588134765625,-0.0726318359375,-0.0690155029296875
1772538591091550700,0.06455078125,-1.0053558349609375,-0.0809478759765625,-0.0683135986328125
1772538591101565700,0.074565673828125,-1.0080413818359375,-0.0747833251953125,-0.065338134765625
1772538591111580700,0.08458056640625,-1.0077362060546875,-0.0779571533203125,-0.059783935546875
1772538591121597000,0.094596923828125,-0.9998626708984375,-0.0809783935546875,-0.053375244140625
1772538591131612000,0.10461181640625,-1.000152587890625,-0.078369140625,-0.04864501953125
1772538591141628000,0.1146279296875,-1.000152587890625,-0.0788726806640625,-0.0425567626953125
1772538591151643000,0.124642822265625,-0.998931884765625,-0.0797271728515625,-0.0374298095703125
1772538591161657900,0.134657958984375,-0.9998016357421875,-0.0821075439453125,-0.0348663330078125
1772538591171673900,0.144673828125,-1.0008697509765625,-0.084442138671875,-0.03985595703125
1772538591181688800,0.154688720703125,-1.0013427734375,-0.0852813720703125,-0.0536651611328125
1772538591191703800,0.164703857421875,-0.9982757568359375,-0.081573486328125,-0.06610107421875
1772538591201719800,0.1747197265625,-0.998046875,-0.082305908203125,-0.0697021484375
1772538591211734800,0.18473486328125,-0.9976806640625,-0.0855865478515625,-0.0693359375
1772538591221750800,0.194750732421875,-0.9997406005859375,-0.0873870849609375,-0.065948486328125
1772538591231765800,0.204765869140625,-1.000030517578125,-0.0843048095703125,-0.0638580322265625
1772538591241780700,0.21478076171875,-0.9968109130859375,-0.0828094482421875,-0.0613555908203125
1772538591251796700,0.224796630859375,-0.99285888671875,-0.0824127197265625,-0.0594635009765625
1772538591261811700,0.234811767578125,-0.9880828857421875,-0.0853424072265625,-0.0594329833984375
1772538591271827700,0.24482763671875,-0.98956298828125,-0.0838775634765625,-0.059783935546875
1772538591281842700,0.2548427734375,-0.9960479736328125,-0.0814971923828125,-0.0644073486328125
1772538591291857700,0.264857666015625,-1.00421142578125,-0.0808868408203125,-0.0701751708984375
1772538591301873700,0.274873779296875,-1.007568359375,-0.081878662109375,-0.0736083984375
1772538591311888600,0.284888671875,-0.99932861328125,-0.0814361572265625,-0.077056884765625
1772538591321904600,0.294904541015625,-0.9929351806640625,-0.085052490234375,-0.0755767822265625
1772538591331919600,0.304919677734375,-0.9895172119140625,-0.0888519287109375,-0.07037353515625
1772538591341934600,0.3149345703125,-0.9855194091796875,-0.08905029296875,-0.07049560546875
1772538591351950600,0.32495068359375,-0.984954833984375,-0.087890625,-0.0660858154296875
1772538591361965600,0.334965576171875,-0.9866790771484375,-0.0875396728515625,-0.065704345703125
1772538591371980500,0.34498046875,-0.9870147705078125,-0.0863494873046875,-0.06982421875
1772538591381996500,0.35499658203125,-0.98333740234375,-0.0868377685546875,-0.0715179443359375
1772538591392011500,0.365011474609375,-0.979217529296875,-0.0884857177734375,-0.0675506591796875
1772538591402027500,0.375027587890625,-0.9864959716796875,-0.089111328125,-0.0651092529296875
1772538591412042500,0.38504248046875,-0.9941864013671875,-0.0878753662109375,-0.066253662109375
1772538591422057700,0.3950576171875,-0.999237060546875,-0.08447265625,-0.06524658203125
1772538591432073500,0.405073486328125,-1.002227783203125,-0.082305908203125,-0.06317138671875
1772538591442088700,0.415088623046875,-1.00250244140625,-0.0843963623046875,-0.0606689453125
1772538591452104700,0.425104736328125,-0.99835205078125,-0.087158203125,-0.0576019287109375
1772538591462120000,0.435119873046875,-0.997344970703125,-0.0894775390625,-0.0543212890625
1772538591472135000,0.445135009765625,-1.0008544921875,-0.085418701171875,-0.054718017578125
1772538591482151000,0.45515087890625,-1.0042877197265625,-0.0791015625,-0.055633544921875
1772538591492166000,0.465165771484375,-1.0089263916015625,-0.0762176513671875,-0.0532989501953125
1772538591502182000,0.475181884765625,-1.0090484619140625,-0.07598876953125,-0.0504913330078125
1772538591512196900,0.48519677734375,-1.0058135986328125,-0.0761566162109375,-0.0467529296875
1772538591522211800,0.4952119140625,-0.999053955078125,-0.076416015625,-0.044342041015625
1772538591532227800,0.505227783203125,-0.994232177734375,-0.0773773193359375,-0.048309326171875
1772538591542242800,0.515242919921875,-0.987884521484375,-0.078216552734375,-0.0526275634765625
1772538591552257800,0.5252578125,-0.98651123046875,-0.07757568359375,-0.053802490234375
1772538591562273800,0.535273681640625,-0.987274169921875,-0.0791015625,-0.053497314453125
1772538591572288800,0.545288818359375,-0.98736572265625,-0.0803985595703125,-0.0536956787109375
1772538591582304800,0.5553046875,-0.9895477294921875,-0.0787200927734375,-0.0533599853515625
1772538591592319700,0.56531982421875,-0.9937896728515625,-0.0772705078125,-0.053070068359375
1772538591602334700,0.575334716796875,-0.99169921875,-0.074188232421875,-0.0535736083984375
1772538591612350700,0.585350830078125,-0.9882049560546875,-0.072662353515625,-0.052886962890625
1772538591622365700,0.59536572265625,-0.982940673828125,-0.0756072998046875,-0.0505828857421875
1772538591632381700,0.605381591796875,-0.9759521484375,-0.080718994140625,-0.0473480224609375
1772538591642396700,0.615396728515625,-0.973297119140625,-0.081024169921875,-0.048919677734375
1772538591652411600,0.62541162109375,-0.9764862060546875,-0.0809783935546875,-0.0502166748046875
1772538591662428000,0.635427978515625,-0.9846649169921875,-0.0769195556640625,-0.04937744140625
1772538591672442600,0.645442626953125,-0.995086669921875,-0.074462890625,-0.0511474609375
1772538591682459000,0.655458984375,-1.005523681640625,-0.071014404296875,-0.05548095703125
1772538591692473900,0.665473876953125,-1.013214111328125,-0.0717010498046875,-0.05999755859375
1772538591702488800,0.67548876953125,-1.0153656005859375,-0.073974609375,-0.0602874755859375
1772538591712504800,0.6855048828125,-1.0147552490234375,-0.076751708984375,-0.0579681396484375
1772538591722519800,0.695519775390625,-1.0102386474609375,-0.07928466796875,-0.055694580078125
1772538591732534800,0.70553466796875,-1.00341796875,-0.0792388916015625,-0.05615234375
1772538591742550800,0.71555078125,-0.9942169189453125,-0.07708740234375,-0.05859375
1772538591752565800,0.725565673828125,-0.985504150390625,-0.080169677734375,-0.0569000244140625
1772538591762581800,0.735581787109375,-0.9829254150390625,-0.085052490234375,-0.0565338134765625
1772538591772596700,0.7455966796875,-0.98162841796875,-0.0865936279296875,-0.056121826171875
1772538591782612000,0.755612060546875,-0.980072021484375,-0.0872650146484375,-0.0594940185546875
1772538591792627700,0.765627685546875,-0.980133056640625,-0.08746337890625,-0.0637969970703125
1772538591802643000,0.775642822265625,-0.986541748046875,-0.087677001953125,-0.0664215087890625
1772538591812658700,0.78565869140625,-0.990692138671875,-0.0873260498046875,-0.0733184814453125
1772538591822674000,0.795673828125,-0.9936370849609375,-0.0849761962890625,-0.0756072998046875
1772538591832689000,0.80568896484375,-0.9967041015625,-0.083526611328125,-0.0730438232421875
1772538591842705000,0.815704833984375,-0.9984588623046875,-0.0840606689453125,-0.0694122314453125
1772538591852719900,0.825719970703125,-0.993896484375,-0.082275390625,-0.0651092529296875
1772538591862734800,0.83573486328125,-0.992340087890625,-0.0803985595703125,-0.05914306640625
1772538591872750800,0.845750732421875,-0.99664306640625,-0.0823211669921875,-0.056365966796875
1772538591882765800,0.855765869140625,-0.9987640380859375,-0.0803070068359375,-0.0564117431640625
1772538591892781800,0.86578173828125,-0.9952850341796875,-0.079071044921875,-0.0606689453125
1772538591902796800,0.875796875,-0.9952850341796875,-0.07855224609375,-0.0595550537109375
1772538591912811800,0.885811767578125,-0.9940643310546875,-0.079833984375,-0.0550994873046875
1772538591922827800,0.895827880859375,-0.991973876953125,-0.082244873046875,-0.0509796142578125
1772538591932842800,0.9058427734375,-0.9937591552734375,-0.0786590576171875,-0.0551300048828125
1772538591942858800,0.915858642578125,-0.9976959228515625,-0.075927734375,-0.0589447021484375
1772538591952873700,0.925873779296875,-1.000030517578125,-0.07452392578125,-0.0595550537109375
1772538591962888700,0.935888671875,-0.999176025390625,-0.0743255615234375,-0.0566864013671875
1772538591972904700,0.94590478515625,-0.996673583984375,-0.0758819580078125,-0.052886962890625
1772538591982919700,0.955919677734375,-0.991607666015625,-0.0772247314453125,-0.050628662109375
1772538591992936000,0.96593603515625,-0.989013671875,-0.0794830322265625,-0.048797607421875
1772538592002951000,0.975950927734375,-0.9896240234375,-0.0790557861328125,-0.05035400390625
1772538592012965600,0.985965576171875,-0.9928131103515625,-0.075897216796875,-0.053466796875
1772538592022982000,0.99598193359375,-0.9967193603515625,-0.075469970703125,-0.0577850341796875
1772538592032996900,1.005996826171875,-0.99407958984375,-0.0766448974609375,-0.0622100830078125
1772538592043011800,1.01601171875,-0.99560546875,-0.0800933837890625,-0.0574798583984375
1772538592053027800,1.02602783203125,-0.998809814453125,-0.0814056396484375,-0.0537261962890625
1772538592063042800,1.036042724609375,-0.99993896484375,-0.0800933837890625,-0.0510711669921875
1772538592073058800,1.046058837890625,-1.0000762939453125,-0.0768585205078125,-0.04949951171875
1772538592083073800,1.05607373046875,-1.0014495849609375,-0.07568359375,-0.0471343994140625
1772538592093088800,1.0660888671875,-1.00335693359375,-0.076446533203125,-0.0460968017578125
1772538592103104800,1.076104736328125,-1.0007171630859375,-0.0771026611328125,-0.0491943359375
1772538592113119700,1.08611962890625,-0.9977569580078125,-0.07598876953125,-0.0530548095703125
1772538592123135700,1.0961357421875,-0.9975128173828125,-0.0772705078125,-0.05499267578125
1772538592133150700,1.106150634765625,-0.9988861083984375,-0.077056884765625,-0.0549774169921875
1772538592143166000,1.116166015625,-0.9990081787109375,-0.075714111328125,-0.05401611328125
1772538592153181700,1.126181640625,-0.9994354248046875,-0.07452392578125,-0.04925537109375
1772538592163197000,1.136197021484375,-0.9958953857421875,-0.073760986328125,-0.045013427734375
1772538592173212000,1.1462119140625,-0.9916534423828125,-0.0731658935546875,-0.042938232421875
1772538592183228000,1.156227783203125,-0.990509033203125,-0.074798583984375,-0.04510498046875
1772538592193243000,1.166242919921875,-0.9907989501953125,-0.074676513671875,-0.05133056640625
1772538592203259000,1.1762587890625,-0.9874725341796875,-0.0743408203125,-0.054901123046875
1772538592213273900,1.18627392578125,-0.9846343994140625,-0.0775299072265625,-0.0549468994140625
1772538592223288800,1.196288818359375,-0.9854278564453125,-0.0817413330078125,-0.0513916015625
1772538592233304800,1.206304931640625,-0.9828948974609375,-0.0800323486328125,-0.0481109619140625
1772538592243319800,1.21631982421875,-0.9840087890625,-0.07708740234375,-0.0489959716796875
1772538592253335800,1.226335693359375,-0.9864654541015625,-0.0754547119140625,-0.0477294921875
1772538592263350800,1.236350830078125,-0.9937896728515625,-0.074462890625,-0.0468292236328125
1772538592273365800,1.24636572265625,-1.0013427734375,-0.0723876953125,-0.048065185546875
1772538592283381800,1.2563818359375,-1.00543212890625,-0.0704193115234375,-0.0482025146484375
1772538592293396700,1.266396728515625,-1.006988525390625,-0.06884765625,-0.0481414794921875
1772538592303411700,1.27641162109375,-1.005859375,-0.0678863525390625,-0.04833984375
1772538592313427700,1.286427734375,-1.0079498291015625,-0.070709228515625,-0.048492431640625
1772538592323442700,1.296442626953125,-1.004119873046875,-0.0684967041015625,-0.0491790771484375
1772538592333459000,1.306458984375,-1.001739501953125,-0.0658111572265625,-0.0485382080078125
1772538592343474000,1.316473876953125,-1.001129150390625,-0.0661163330078125,-0.0467376708984375
1772538592353488600,1.326488525390625,-0.99798583984375,-0.06964111328125,-0.0494842529296875
1772538592363505000,1.3365048828125,-0.9923858642578125,-0.070159912109375,-0.0533905029296875
1772538592373520000,1.346519775390625,-0.9875946044921875,-0.07257080078125,-0.0562744140625
1772538592383534800,1.356534912109375,-0.9861297607421875,-0.0755615234375,-0.05303955078125
1772538592393550800,1.36655078125,-0.98828125,-0.075469970703125,-0.051055908203125
1772538592403565800,1.37656591796875,-0.990875244140625,-0.0740203857421875,-0.0508575439453125
1772538592413581800,1.386581787109375,-0.9955596923828125,-0.074371337890625,-0.05047607421875
1772538592423596800,1.3965966796875,-0.995361328125,-0.0732269287109375,-0.0539398193359375
1772538592433611800,1.40661181640625,-0.9949798583984375,-0.073272705078125,-0.055511474609375
1772538592443627800,1.416627685546875,-0.9965362548828125,-0.0745391845703125,-0.055511474609375
1772538592453642800,1.426642822265625,-0.9931793212890625,-0.075286865234375,-0.0562591552734375
1772538592463658800,1.43665869140625,-0.991943359375,-0.0760650634765625,-0.05401611328125
1772538592473673700,1.446673828125,-0.9953460693359375,-0.0762939453125,-0.047882080078125
1772538592483688700,1.456688720703125,-0.9963226318359375,-0.074859619140625,-0.0457305908203125
1772538592493704700,1.46670458984375,-0.99737548828125,-0.0731048583984375,-0.0469512939453125
1772538592503719700,1.4767197265625,-1.0005035400390625,-0.071624755859375,-0.047821044921875
1772538592513735000,1.48673486328125,-1.003021240234375,-0.0714874267578125,-0.046844482421875
1772538592523750700,1.496750732421875,-1.0045928955078125,-0.0703887939453125,-0.0471954345703125
1772538592533766000,1.506765869140625,-1.00128173828125,-0.0703582763671875,-0.045166015625
1772538592543781000,1.516781005859375,-0.996795654296875,-0.0708770751953125,-0.0437164306640625
1772538592553796000,1.526796142578125,-0.9940643310546875,-0.072296142578125,-0.0426025390625
1772538592563811000,1.53681103515625,-0.990753173828125,-0.0738372802734375,-0.0430450439453125
1772538592573827000,1.5468271484375,-0.98590087890625,-0.07611083984375,-0.0422821044921875
1772538592583842000,1.556842041015625,-0.9851226806640625,-0.077606201171875,-0.0433349609375
1772538592593857000,1.56685693359375,-0.9888763427734375,-0.076751708984375,-0.0474700927734375
1772538592603873000,1.576873046875,-0.9948577880859375,-0.07293701171875,-0.0486907958984375
1772538592613888000,1.586887939453125,-1.0034332275390625,-0.0701904296875,-0.051849365234375
1772538592623904000,1.596904052734375,-1.0091400146484375,-0.0678558349609375,-0.0533294677734375
1772538592633919000,1.6069189453125,-1.0166473388671875,-0.06591796875,-0.0529327392578125
1772538592643934000,1.616933837890625,-1.015472412109375,-0.064239501953125,-0.0501251220703125
1772538592653950000,1.626949951171875,-1.0121002197265625,-0.06683349609375,-0.0478057861328125
1772538592663965000,1.63696484375,-1.006805419921875,-0.068511962890625,-0.0480194091796875
1772538592673981000,1.64698095703125,-1.0034637451171875,-0.068267822265625,-0.051605224609375
1772538592683996000,1.656995849609375,-1.00030517578125,-0.068328857421875,-0.05120849609375
1772538592694011000,1.667010986328125,-0.9975738525390625,-0.0665130615234375,-0.04962158203125
1772538592704027000,1.67702685546875,-0.9987640380859375,-0.0648040771484375,-0.0472412109375
1772538592714041900,1.687041748046875,-0.9946746826171875,-0.0636138916015625,-0.043609619140625
1772538592724056800,1.697056884765625,-0.989776611328125,-0.0648651123046875,-0.0397491455078125
1772538592734073000,1.707072998046875,-0.9872894287109375,-0.0657806396484375,-0.04168701171875
1772538592744087800,1.717087890625,-0.98370361328125,-0.0654754638671875,-0.0431976318359375
1772538592754104000,1.72710400390625,-0.984527587890625,-0.0646820068359375,-0.0409393310546875
1772538592764119000,1.737119140625,-0.9852294921875,-0.0648956298828125,-0.04229736328125
1772538592774134300,1.74713427734375,-0.9826507568359375,-0.0669708251953125,-0.0447235107421875
1772538592784150000,1.75714990234375,-0.9834747314453125,-0.0671539306640625,-0.0468597412109375
1772538592794165200,1.767165283203125,-0.9852752685546875,-0.062896728515625,-0.049530029296875
1772538592804180200,1.77718017578125,-0.987274169921875,-0.0614013671875,-0.049041748046875
1772538592814196200,1.7871962890625,-0.9931182861328125,-0.0601654052734375,-0.0471649169921875
1772538592824211200,1.797211181640625,-0.9958953857421875,-0.06182861328125,-0.0437774658203125
1772538592834227200,1.807227294921875,-1.000396728515625,-0.0664215087890625,-0.040985107421875
1772538592844242200,1.8172421875,-0.9987945556640625,-0.0689239501953125,-0.0420989990234375
1772538592854257200,1.827257080078125,-0.9951019287109375,-0.0699920654296875,-0.0445404052734375
1772538592864273200,1.837273193359375,-0.99505615234375,-0.0694122314453125,-0.04449462890625
1772538592874288000,1.8472880859375,-0.9944915771484375,-0.0700836181640625,-0.04620361328125
1772538592884304100,1.85730419921875,-0.9975738525390625,-0.07098388671875,-0.0457763671875
1772538592894319000,1.867319091796875,-1.0031585693359375,-0.0718994140625,-0.0482940673828125
1772538592904334000,1.877333984375,-1.0098419189453125,-0.071929931640625,-0.0501251220703125
1772538592914350000,1.88735009765625,-1.010223388671875,-0.0736236572265625,-0.047119140625
1772538592924365000,1.897364990234375,-1.0096588134765625,-0.0749053955078125,-0.045074462890625
1772538592934380000,1.907380126953125,-1.008392333984375,-0.0778350830078125,-0.0454559326171875
1772538592944396000,1.91739599609375,-1.0082550048828125,-0.0760345458984375,-0.0449066162109375
1772538592954411000,1.927410888671875,-1.0032958984375,-0.0703277587890625,-0.042236328125
1772538592964427000,1.937427001953125,-0.999420166015625,-0.067718505859375,-0.0415191650390625
1772538592974442000,1.94744189453125,-0.9987640380859375,-0.06793212890625,-0.040374755859375
1772538592984457000,1.95745703125,-0.998992919921875,-0.0673980712890625,-0.03814697265625
1772538592994473000,1.967472900390625,-0.99835205078125,-0.07000732421875,-0.0403900146484375
1772538593004488000,1.977488037109375,-0.998626708984375,-0.070159912109375,-0.0428314208984375
1772538593014503000,1.9875029296875,-1.0042572021484375,-0.06878662109375,-0.0444488525390625
1772538593024519000,1.997518798828125,-1.0090789794921875,-0.066131591796875,-0.0485992431640625
1772538593034534000,2.007533935546875,-1.00933837890625,-0.063201904296875,-0.0504608154296875
1772538593044550000,2.0175498046875,-1.0051727294921875,-0.062835693359375,-0.049102783203125
1772538593054564900,2.02756494140625,-0.999725341796875,-0.0636138916015625,-0.0459442138671875
1772538593064579800,2.037579833984375,-0.9987335205078125,-0.0621490478515625,-0.043548583984375
1772538593074595800,2.047595947265625,-0.9947509765625,-0.0655517578125,-0.0428314208984375
1772538593084610800,2.05761083984375,-0.9980316162109375,-0.066009521484375,-0.04827880859375
1772538593094626000,2.0676259765625,-1.00048828125,-0.0643157958984375,-0.0540771484375
1772538593104642000,2.07764208984375,-0.9958038330078125,-0.063079833984375,-0.0565185546875
1772538593114657000,2.087656982421875,-0.9904937744140625,-0.06390380859375,-0.05389404296875
1772538593124673000,2.097673095703125,-0.98785400390625,-0.068328857421875,-0.051055908203125
1772538593134688300,2.107688232421875,-0.984161376953125,-0.0657501220703125,-0.0528411865234375
1772538593144703200,2.117703125,-0.9850006103515625,-0.0636444091796875,-0.0556182861328125
1772538593154719200,2.12771923828125,-0.99163818359375,-0.0633392333984375,-0.0599365234375
1772538593164734200,2.137734130859375,-0.99945068359375,-0.062652587890625,-0.0615234375
1772538593174750200,2.147750244140625,-1.0074005126953125,-0.0621185302734375,-0.0579986572265625
1772538593184765200,2.15776513671875,-1.009002685546875,-0.0647735595703125,-0.0562286376953125
1772538593194780200,2.1677802734375,-1.0018157958984375,-0.0657958984375,-0.0509490966796875
1772538593204796200,2.177796142578125,-0.9962921142578125,-0.063140869140625,-0.0511932373046875
1772538593214811100,2.18781103515625,-0.987762451171875,-0.0634613037109375,-0.0539703369140625
1772538593224826000,2.197826171875,-0.9818878173828125,-0.065673828125,-0.055145263671875
1772538593234842000,2.207842041015625,-0.98297119140625,-0.066192626953125,-0.0522918701171875
1772538593244857000,2.217857177734375,-0.9906463623046875,-0.067626953125,-0.04931640625
1772538593254873000,2.227873046875,-0.9930877685546875,-0.0667266845703125,-0.0510406494140625
1772538593264888000,2.23788818359375,-0.9968719482421875,-0.0662841796875,-0.0521697998046875
1772538593274903000,2.247903076171875,-1.001190185546875,-0.066375732421875,-0.0533599853515625
1772538593284919000,2.2579189453125,-1.0041351318359375,-0.065582275390625,-0.054931640625
1772538593294934000,2.26793408203125,-1.001739501953125,-0.0645751953125,-0.0555267333984375
1772538593304949000,2.277948974609375,-1.0023651123046875,-0.064453125,-0.052215576171875
1772538593314965000,2.287965087890625,-1.0030059814453125,-0.0654754638671875,-0.0502777099609375
1772538593324980000,2.29797998046875,-0.998046875,-0.06573486328125,-0.04656982421875
1772538593334996000,2.307995849609375,-0.9941253662109375,-0.0681915283203125,-0.042510986328125
1772538593345011000,2.318010986328125,-0.9916839599609375,-0.0712432861328125,-0.0427093505859375
1772538593355026000,2.32802587890625,-0.989288330078125,-0.0700225830078125,-0.044830322265625
1772538593365042000,2.3380419921875,-0.985015869140625,-0.07073974609375,-0.047149658203125
1772538593375057000,2.348056884765625,-0.988006591796875,-0.0703277587890625,-0.0470428466796875
1772538593385071900,2.35807177734375,-0.9924163818359375,-0.07159423828125,-0.0478973388671875
1772538593395088000,2.368087890625,-0.9943695068359375,-0.0697479248046875,-0.0483245849609375
1772538593405102800,2.378102783203125,-0.995025634765625,-0.067352294921875,-0.0467376708984375
1772538593415118800,2.388118896484375,-1.000335693359375,-0.068145751953125,-0.046966552734375
1772538593425133800,2.3981337890625,-1.0009002685546875,-0.068634033203125,-0.0484466552734375
1772538593435149000,2.408149169921875,-0.999755859375,-0.0672760009765625,-0.05126953125
1772538593445165000,2.4181650390625,-0.997894287109375,-0.070220947265625,-0.0524749755859375
1772538593455180000,2.428179931640625,-0.9945831298828125,-0.0738525390625,-0.0496826171875
1772538593465195000,2.438195068359375,-0.9886932373046875,-0.0728607177734375,-0.0518951416015625
1772538593475211300,2.448211181640625,-0.985198974609375,-0.0726776123046875,-0.0532379150390625
1772538593485226200,2.458226318359375,-0.9827728271484375,-0.071685791015625,-0.051483154296875
1772538593495242200,2.4682421875,-0.989990234375,-0.0662841796875,-0.0503997802734375
1772538593505257200,2.47825732421875,-0.9977264404296875,-0.0632781982421875,-0.0473785400390625
1772538593515272200,2.488272216796875,-1.0039825439453125,-0.0635986328125,-0.04632568359375
1772538593525288200,2.4982880859375,-1.0089874267578125,-0.0639801025390625,-0.0482940673828125
1772538593535303700,2.5083037109375,-1.00775146484375,-0.0652618408203125,-0.053131103515625
1772538593545318700,2.518318603515625,-1.0006103515625,-0.0667266845703125,-0.0560455322265625
1772538593555334700,2.528334716796875,-0.9870758056640625,-0.0683746337890625,-0.0540008544921875
1772538593565349600,2.538349609375,-0.990081787109375,-0.0731353759765625,-0.0520477294921875
1772538593575365600,2.54836572265625,-0.9908905029296875,-0.0732269287109375,-0.0546112060546875
1772538593585380600,2.558380615234375,-0.9909820556640625,-0.068603515625,-0.0604400634765625
1772538593595395600,2.5683955078125,-0.99908447265625,-0.0681915283203125,-0.06500244140625
1772538593605411600,2.57841162109375,-1.0035858154296875,-0.06988525390625,-0.0634918212890625
1772538593615426600,2.588426513671875,-1.0051116943359375,-0.06951904296875,-0.0601654052734375
1772538593625441500,2.598441650390625,-1.0026702880859375,-0.0691680908203125,-0.0589752197265625
1772538593635457500,2.60845751953125,-1.00244140625,-0.067962646484375,-0.053466796875
1772538593645472500,2.618472412109375,-1.0005645751953125,-0.070770263671875,-0.0538330078125
1772538593655488500,2.628488525390625,-1.0023193359375,-0.0709228515625,-0.056549072265625
1772538593665503500,2.63850341796875,-1.0012054443359375,-0.0682373046875,-0.0598907470703125
1772538593675518500,2.6485185546875,-1.0001220703125,-0.067596435546875,-0.0586090087890625
1772538593685534500,2.658534423828125,-0.9998779296875,-0.0693206787109375,-0.056671142578125
1772538593695549400,2.668549560546875,-0.9947662353515625,-0.0692138671875,-0.055877685546875
1772538593705564400,2.678564453125,-0.989898681640625,-0.0685577392578125,-0.0565643310546875
1772538593715580400,2.688580322265625,-0.9875030517578125,-0.0687103271484375,-0.0577545166015625
1772538593725595400,2.698595458984375,-0.9935455322265625,-0.068389892578125,-0.0577850341796875
1772538593735611400,2.708611328125,-1.00054931640625,-0.06683349609375,-0.05902099609375
1772538593745626400,2.71862646484375,-1.0038299560546875,-0.0639801025390625,-0.0595245361328125
1772538593755641300,2.728641357421875,-1.0072479248046875,-0.0629119873046875,-0.058990478515625
1772538593765657300,2.7386572265625,-1.0028076171875,-0.06854248046875,-0.0583648681640625
1772538593775672300,2.74867236328125,-0.9936065673828125,-0.0701904296875,-0.059722900390625
1772538593785687600,2.7586875,-0.9859161376953125,-0.0709228515625,-0.058319091796875
1772538593795703600,2.76870361328125,-0.9829864501953125,-0.072357177734375,-0.05615234375
1772538593805718800,2.77871875,-0.98675537109375,-0.0723876953125,-0.0538177490234375
1772538593815734500,2.788734619140625,-0.9923248291015625,-0.0691986083984375,-0.05450439453125
1772538593825749800,2.798749755859375,-0.9960784912109375,-0.0663299560546875,-0.053924560546875
1772538593835764700,2.8087646484375,-0.9975738525390625,-0.0679931640625,-0.0529937744140625
1772538593845780700,2.81878076171875,-0.9972381591796875,-0.071502685546875,-0.0556182861328125
1772538593855795700,2.828795654296875,-0.9929656982421875,-0.070220947265625,-0.0583038330078125
1772538593865810700,2.838810791015625,-0.990509033203125,-0.0701904296875,-0.059356689453125
1772538593875826700,2.84882666015625,-0.990020751953125,-0.0724334716796875,-0.06011962890625
1772538593885841700,2.858841552734375,-0.9892730712890625,-0.075225830078125,-0.0581207275390625
1772538593895857700,2.868857666015625,-0.9862060546875,-0.073272705078125,-0.058624267578125
1772538593905872600,2.87887255859375,-0.98431396484375,-0.07318115234375,-0.05718994140625
1772538593915887600,2.8888876953125,-0.9839324951171875,-0.07379150390625,-0.056976318359375
1772538593925903600,2.898903564453125,-0.988677978515625,-0.0726318359375,-0.05841064453125
1772538593935918600,2.908918701171875,-0.9921722412109375,-0.0761871337890625,-0.057464599609375
1772538593945933600,2.91893359375,-1.0054168701171875,-0.0763092041015625,-0.0587310791015625
1772538593955949600,2.928949462890625,-1.0124664306640625,-0.0738525390625,-0.0581817626953125
1772538593965964500,2.938964599609375,-1.010101318359375,-0.074493408203125,-0.057525634765625
1772538593975980500,2.94898046875,-0.999725341796875,-0.0741424560546875,-0.0582733154296875
1772538593985995500,2.95899560546875,-0.991424560546875,-0.07635498046875,-0.05810546875
1772538593996010500,2.969010498046875,-0.9848480224609375,-0.0773468017578125,-0.059844970703125
1772538594006026500,2.979026611328125,-0.9825286865234375,-0.0795135498046875,-0.0633544921875
1772538594016041500,2.98904150390625,-0.98651123046875,-0.0810394287109375,-0.0682830810546875
1772538594026056400,2.999056396484375,-0.9933624267578125,-0.0817413330078125,-0.0679473876953125
1772538594036072400,3.009072509765625,-1.003021240234375,-0.0774993896484375,-0.0614471435546875
1772538594046087400,3.01908740234375,-1.008392333984375,-0.074066162109375,-0.0576629638671875
1772538594056103400,3.029103515625,-1.00872802734375,-0.07147216796875,-0.0548858642578125
1772538594066118400,3.039118408203125,-1.007354736328125,-0.0732269287109375,-0.0530548095703125
1772538594076133400,3.04913330078125,-0.99859619140625,-0.0782928466796875,-0.0579833984375
1772538594086149400,3.0591494140625,-0.9978179931640625,-0.0736541748046875,-0.0604705810546875
1772538594096164400,3.069164306640625,-0.9990997314453125,-0.0713348388671875,-0.062530517578125
1772538594106179600,3.0791796875,-0.9937591552734375,-0.0752410888671875,-0.0576629638671875
1772538594116195300,3.0891953125,-0.993865966796875,-0.076080322265625,-0.05743408203125
1772538594126210600,3.09921044921875,-0.9898223876953125,-0.0728302001953125,-0.0559539794921875
1772538594136226600,3.1092265625,-0.98248291015625,-0.0718231201171875,-0.0516357421875
1772538594146241500,3.119241455078125,-0.9775238037109375,-0.07330322265625,-0.0482177734375
1772538594156256500,3.129256591796875,-0.97265625,-0.07366943359375,-0.045989990234375
1772538594166272800,3.139272705078125,-0.97235107421875,-0.0736236572265625,-0.0460968017578125
1772538594176287700,3.149287841796875,-0.9810333251953125,-0.073516845703125,-0.0493011474609375
1772538594186302700,3.159302734375,-0.9853363037109375,-0.0740203857421875,-0.0500335693359375
1772538594196318700,3.169318603515625,-0.993194580078125,-0.0703887939453125,-0.0511932373046875
1772538594206333700,3.179333740234375,-1.0000152587890625,-0.06646728515625,-0.0518798828125
1772538594216349700,3.189349609375,-1.0055389404296875,-0.067108154296875,-0.0501708984375
1772538594226364700,3.19936474609375,-1.0122222900390625,-0.069671630859375,-0.0518798828125
1772538594236379600,3.209379638671875,-1.0122222900390625,-0.06732177734375,-0.052764892578125
1772538594246395600,3.219395751953125,-1.0097198486328125,-0.069610595703125,-0.054534912109375
1772538594256410600,3.22941064453125,-1.0059051513671875,-0.073883056640625,-0.0582122802734375
1772538594266425600,3.239425537109375,-0.9979095458984375,-0.074432373046875,-0.0615386962890625
1772538594276441600,3.249441650390625,-0.9908599853515625,-0.074493408203125,-0.0592803955078125
1772538594286456600,3.25945654296875,-0.9884796142578125,-0.0750885009765625,-0.0577239990234375
1772538594296472600,3.26947265625,-0.9859771728515625,-0.0754852294921875,-0.0557708740234375
1772538594306487600,3.279487548828125,-0.9904327392578125,-0.0742645263671875,-0.0595703125
1772538594316502500,3.28950244140625,-0.991485595703125,-0.074554443359375,-0.0672454833984375
1772538594326518500,3.2995185546875,-0.9941558837890625,-0.0728607177734375,-0.0689849853515625
1772538594336533500,3.309533447265625,-0.9951629638671875,-0.07208251953125,-0.0680084228515625
1772538594346548500,3.319548583984375,-1,-0.0706939697265625,-0.0660400390625
1772538594356564500,3.329564453125,-1.00262451171875,-0.0691375732421875,-0.064605712890625
1772538594366579500,3.339579345703125,-1.0017852783203125,-0.0666351318359375,-0.0648651123046875
1772538594376594400,3.349594482421875,-0.9997406005859375,-0.067596435546875,-0.0648956298828125
1772538594386610400,3.3596103515625,-0.9968109130859375,-0.0724029541015625,-0.0632171630859375
1772538594396625400,3.36962548828125,-0.98931884765625,-0.07269287109375,-0.0625762939453125
1772538594406641400,3.379641357421875,-0.983551025390625,-0.072967529296875,-0.066802978515625
1772538594416656400,3.389656494140625,-0.98126220703125,-0.0732574462890625,-0.071075439453125
1772538594426671600,3.399671630859375,-0.977996826171875,-0.0763092041015625,-0.0722198486328125
1772538594436687400,3.409687255859375,-0.9770660400390625,-0.0785980224609375,-0.071685791015625
1772538594446702600,3.41970263671875,-0.980743408203125,-0.0773773193359375,-0.0649566650390625
1772538594456717600,3.429717529296875,-0.9873809814453125,-0.0735931396484375,-0.0643157958984375
1772538594466733600,3.439733642578125,-0.9967498779296875,-0.0691375732421875,-0.0612945556640625
1772538594476748500,3.44974853515625,-1.0030059814453125,-0.06805419921875,-0.062744140625
1772538594486764500,3.4597646484375,-1.007354736328125,-0.0668487548828125,-0.065338134765625
1772538594496779500,3.469779541015625,-1.0077667236328125,-0.06500244140625,-0.0595855712890625
1772538594506794500,3.47979443359375,-1.004486083984375,-0.065704345703125,-0.055877685546875
1772538594516810800,3.489810791015625,-1.002410888671875,-0.0662841796875,-0.0506439208984375
1772538594526825500,3.499825439453125,-0.997650146484375,-0.069610595703125,-0.0520477294921875
1772538594536841000,3.509841064453125,-0.994049072265625,-0.0700531005859375,-0.057037353515625
1772538594546857000,3.51985693359375,-0.993377685546875,-0.0708160400390625,-0.0625152587890625
1772538594556872000,3.529871826171875,-0.9978790283203125,-0.0723419189453125,-0.06512451171875
1772538594566888000,3.539887939453125,-0.9953765869140625,-0.0725860595703125,-0.066650390625
1772538594576903000,3.54990283203125,-0.9921722412109375,-0.07373046875,-0.0620880126953125
1772538594586918000,3.55991796875,-0.99639892578125,-0.0736846923828125,-0.05859375
1772538594596934000,3.569933837890625,-0.9949798583984375,-0.0709075927734375,-0.0591278076171875
1772538594606948900,3.579948974609375,-0.99029541015625,-0.0664215087890625,-0.0621185302734375
1772538594616963800,3.5899638671875,-0.99267578125,-0.0659942626953125,-0.0630645751953125
1772538594626979800,3.599979736328125,-0.99029541015625,-0.06817626953125,-0.0609893798828125
1772538594636994800,3.609994873046875,-0.990081787109375,-0.0687103271484375,-0.0579986572265625
1772538594647009800,3.620009765625,-0.993896484375,-0.0663299560546875,-0.0566864013671875
1772538594657025800,3.63002587890625,-0.9984130859375,-0.0655670166015625,-0.0535430908203125
1772538594667040800,3.640040771484375,-1.000244140625,-0.0640411376953125,-0.050201416015625
1772538594677057000,3.65005712890625,-1.003875732421875,-0.0640106201171875,-0.051971435546875
1772538594687071700,3.66007177734375,-1.0028076171875,-0.0658111572265625,-0.0572662353515625
1772538594697086700,3.670086669921875,-0.999755859375,-0.0676727294921875,-0.061859130859375
1772538594707103000,3.68010302734375,-0.9979095458984375,-0.0723419189453125,-0.063262939453125
1772538594717118000,3.690117919921875,-0.9944610595703125,-0.074493408203125,-0.0645751953125
1772538594727133000,3.7001328125,-0.9910430908203125,-0.0746917724609375,-0.0615997314453125
1772538594737149000,3.71014892578125,-0.98876953125,-0.074676513671875,-0.0598602294921875
1772538594747164000,3.720163818359375,-0.9853363037109375,-0.074951171875,-0.0563812255859375
1772538594757180000,3.730179931640625,-0.9854583740234375,-0.0731964111328125,-0.0539703369140625
1772538594767195000,3.74019482421875,-0.98779296875,-0.0724639892578125,-0.0545196533203125
1772538594777210000,3.750210205078125,-0.9925079345703125,-0.0711669921875,-0.053375244140625
1772538594787225900,3.760225830078125,-0.9968414306640625,-0.07012939453125,-0.0570831298828125
1772538594797241000,3.770240966796875,-1.00372314453125,-0.066558837890625,-0.05877685546875
1772538594807256000,3.780256103515625,-1.011260986328125,-0.063873291015625,-0.0582122802734375
1772538594817272000,3.79027197265625,-1.01385498046875,-0.0623016357421875,-0.05389404296875
1772538594827287000,3.800287109375,-1.01287841796875,-0.062164306640625,-0.048065185546875
1772538594837302000,3.810302001953125,-1.0075531005859375,-0.0598297119140625,-0.0449981689453125
1772538594847318000,3.820318115234375,-1.002197265625,-0.059844970703125,-0.041595458984375
1772538594857333000,3.8303330078125,-0.99627685546875,-0.0626678466796875,-0.0426483154296875
1772538594867349000,3.840348876953125,-0.9954376220703125,-0.0625762939453125,-0.0464935302734375
1772538594877364000,3.850364013671875,-0.9942474365234375,-0.06402587890625,-0.049652099609375
1772538594887379000,3.86037890625,-0.996246337890625,-0.06561279296875,-0.048614501953125
1772538594897395000,3.87039501953125,-0.9965057373046875,-0.06671142578125,-0.0471343994140625
1772538594907410000,3.880409912109375,-0.9915618896484375,-0.0645751953125,-0.050323486328125
1772538594917425000,3.8904248046875,-0.984954833984375,-0.0647125244140625,-0.0547943115234375
1772538594927441000,3.90044091796875,-0.98095703125,-0.070526123046875,-0.05517578125
1772538594937455900,3.910455810546875,-0.978790283203125,-0.0717315673828125,-0.0572357177734375
1772538594947472000,3.920471923828125,-0.9826812744140625,-0.0685882568359375,-0.0582427978515625
1772538594957486800,3.93048681640625,-0.991119384765625,-0.06695556640625,-0.0594024658203125
1772538594967501800,3.940501708984375,-1.0033416748046875,-0.0634918212890625,-0.057373046875
1772538594977517800,3.950517822265625,-1.01300048828125,-0.0607452392578125,-0.0557861328125
1772538594987532800,3.96053271484375,-1.0178375244140625,-0.056396484375,-0.05511474609375
1772538594997547800,3.9705478515625,-1.014892578125,-0.05523681640625,-0.0556182861328125
1772538595007563800,3.980563720703125,-1.0075836181640625,-0.0571746826171875,-0.0573272705078125
1772538595017578800,3.990578857421875,-0.9993896484375,-0.060699462890625,-0.0593719482421875
1772538595027593700,4.00059375,-0.9971923828125,-0.063385009765625,-0.06207275390625
1772538595037609700,4.010609619140625,-0.998199462890625,-0.0623779296875,-0.06500244140625
1772538595047624700,4.020624755859375,-1.0025482177734375,-0.0609283447265625,-0.0681915283203125
1772538595057641000,4.030640869140625,-1.0032806396484375,-0.0601959228515625,-0.0682830810546875
1772538595067655700,4.04065576171875,-1.001983642578125,-0.060546875,-0.0673980712890625
1772538595077671000,4.0506708984375,-0.99969482421875,-0.0616607666015625,-0.068756103515625
1772538595087687000,4.06068701171875,-0.992828369140625,-0.0625762939453125,-0.0695648193359375
1772538595097702100,4.0707021484375,-0.987152099609375,-0.0664520263671875,-0.0688934326171875
1772538595107717000,4.080717041015625,-0.986846923828125,-0.0688323974609375,-0.067352294921875
1772538595117733000,4.090733154296875,-0.984771728515625,-0.0684356689453125,-0.066619873046875
1772538595127748000,4.100748046875,-0.986083984375,-0.0690155029296875,-0.067230224609375
1772538595137763000,4.11076318359375,-0.9890899658203125,-0.0713958740234375,-0.06964111328125
1772538595147779000,4.120779052734375,-0.9889678955078125,-0.0707855224609375,-0.0680389404296875
1772538595157794000,4.1307939453125,-0.9919281005859375,-0.07183837890625,-0.0677032470703125
1772538595167810000,4.14081005859375,-0.9908294677734375,-0.0696868896484375,-0.0668487548828125
1772538595177825000,4.150824951171875,-0.98895263671875,-0.0660400390625,-0.0598297119140625
1772538595187840000,4.160840087890625,-0.9900970458984375,-0.0680694580078125,-0.0527496337890625
1772538595197856000,4.17085595703125,-0.9913482666015625,-0.066986083984375,-0.0493011474609375
1772538595207871000,4.18087109375,-0.9918212890625,-0.061309814453125,-0.04754638671875
1772538595217886000,4.190885986328125,-0.99493408203125,-0.06103515625,-0.0482940673828125
1772538595227902000,4.20090185546875,-0.9986724853515625,-0.0616912841796875,-0.0469207763671875
1772538595237917000,4.2109169921875,-1.0008544921875,-0.063323974609375,-0.0495452880859375
1772538595247932000,4.220931884765625,-0.9992828369140625,-0.06402587890625,-0.0565185546875
1772538595257948000,4.230947998046875,-0.995208740234375,-0.0609130859375,-0.0578765869140625
1772538595267963000,4.240962890625,-0.995758056640625,-0.0618743896484375,-0.05657958984375
1772538595277979000,4.250978759765625,-0.9960784912109375,-0.064453125,-0.051361083984375
1772538595287993900,4.260993896484375,-0.9986419677734375,-0.05987548828125,-0.0471649169921875
1772538595298008800,4.2710087890625,-0.9900054931640625,-0.057159423828125,-0.047454833984375
1772538595308024800,4.28102490234375,-0.995452880859375,-0.0596771240234375,-0.039459228515625
1772538595318039800,4.291039794921875,-1.008087158203125,-0.061065673828125,-0.0411376953125
1772538595328054800,4.3010546875,-1.0054779052734375,-0.0507965087890625,-0.0445098876953125
1772538595338070800,4.31107080078125,-1.0031585693359375,-0.049041748046875,-0.051300048828125
1772538595348085800,4.321085693359375,-1.002166748046875,-0.0557403564453125,-0.0510711669921875
1772538595358101000,4.33110107421875,-0.9977874755859375,-0.0605926513671875,-0.04974365234375
1772538595368116700,4.34111669921875,-0.99114990234375,-0.0592193603515625,-0.053070068359375
1772538595378132000,4.351132080078125,-0.988677978515625,-0.060577392578125,-0.05157470703125
1772538595388147700,4.361147705078125,-0.9893798828125,-0.0651092529296875,-0.0479278564453125
1772538595398163000,4.371162841796875,-0.9916839599609375,-0.065948486328125,-0.0500030517578125
1772538595408178000,4.381177978515625,-0.994049072265625,-0.065704345703125,-0.0520477294921875
1772538595418194000,4.39119384765625,-0.999237060546875,-0.062835693359375,-0.0504150390625
1772538595428209000,4.401208984375,-0.999786376953125,-0.0600128173828125,-0.05047607421875
1772538595438224000,4.411223876953125,-0.9998626708984375,-0.06011962890625,-0.04888916015625
1772538595448239900,4.421239990234375,-1.0005035400390625,-0.05938720703125,-0.0476226806640625
1772538595458254800,4.4312548828125,-0.99786376953125,-0.0579833984375,-0.0473480224609375
1772538595468269800,4.441269775390625,-0.995941162109375,-0.0568389892578125,-0.045806884765625
1772538595478286000,4.4512861328125,-0.9954681396484375,-0.06011962890625,-0.044921875
1772538595488300800,4.46130078125,-0.9966888427734375,-0.058624267578125,-0.044464111328125
1772538595498317000,4.471317138671875,-0.9967803955078125,-0.055206298828125,-0.04534912109375
1772538595508332000,4.48133203125,-0.9995574951171875,-0.054351806640625,-0.0442962646484375
1772538595518347000,4.491346923828125,-1.0012359619140625,-0.0547943115234375,-0.042724609375
1772538595528363000,4.501363037109375,-0.9999542236328125,-0.0521392822265625,-0.0450592041015625
1772538595538378200,4.511378173828125,-0.9965362548828125,-0.0504150390625,-0.0452728271484375
1772538595548393200,4.521393310546875,-0.9915771484375,-0.051422119140625,-0.043914794921875
1772538595558409200,4.5314091796875,-0.98675537109375,-0.0533905029296875,-0.044647216796875
1772538595568424200,4.541424072265625,-0.9856109619140625,-0.05474853515625,-0.0435333251953125
1772538595578439200,4.551439208984375,-0.982025146484375,-0.0539703369140625,-0.04010009765625
1772538595588455200,4.561455078125,-0.986175537109375,-0.054168701171875,-0.0408935546875
1772538595598470100,4.57147021484375,-0.98992919921875,-0.05328369140625,-0.04254150390625
1772538595608486100,4.581486083984375,-0.99578857421875,-0.0533599853515625,-0.045074462890625
1772538595618501000,4.591501220703125,-1.002105712890625,-0.0524444580078125,-0.0477447509765625
1772538595628516000,4.60151611328125,-1.0094757080078125,-0.0513153076171875,-0.0489959716796875
1772538595638532000,4.611531982421875,-1.0113525390625,-0.05157470703125,-0.050537109375
1772538595648547000,4.621547119140625,-1.0094451904296875,-0.05230712890625,-0.0523681640625
1772538595658562300,4.631562255859375,-1.0088653564453125,-0.0522918701171875,-0.053131103515625
1772538595668578000,4.641578125,-1.0074462890625,-0.052886962890625,-0.0531158447265625
1772538595678593300,4.65159326171875,-1.006500244140625,-0.0558013916015625,-0.052398681640625
1772538595688608300,4.661608154296875,-1.0067901611328125,-0.055023193359375,-0.05572509765625
1772538595698624300,4.671624267578125,-1.0031280517578125,-0.05206298828125,-0.0592041015625
1772538595708639200,4.68163916015625,-1.002838134765625,-0.051605224609375,-0.0590057373046875
1772538595718654200,4.691654296875,-1.002685546875,-0.051513671875,-0.055938720703125
1772538595728670200,4.701670166015625,-0.9990997314453125,-0.05523681640625,-0.0521240234375
1772538595738685200,4.711685302734375,-0.99822998046875,-0.05499267578125,-0.0473785400390625
1772538595748701200,4.721701171875,-1.0001373291015625,-0.0539398193359375,-0.0500335693359375
1772538595758716200,4.731716064453125,-1.00225830078125,-0.0519561767578125,-0.051300048828125
1772538595768731100,4.741731201171875,-1.0009765625,-0.0513763427734375,-0.0521087646484375
1772538595778747100,4.7517470703125,-1.001953125,-0.05078125,-0.0524444580078125
1772538595788762000,4.76176220703125,-1.003570556640625,-0.049163818359375,-0.05340576171875
1772538595798777000,4.771777099609375,-1.004730224609375,-0.0500030517578125,-0.04888916015625
1772538595808793000,4.78179296875,-1.00543212890625,-0.049072265625,-0.0465240478515625
1772538595818808000,4.79180810546875,-1.0010223388671875,-0.0517120361328125,-0.047332763671875
1772538595828823000,4.801822998046875,-0.993743896484375,-0.05108642578125,-0.0472259521484375
1772538595838839000,4.811839111328125,-0.9849395751953125,-0.0523834228515625,-0.044921875
1772538595848854000,4.82185400390625,-0.9796142578125,-0.0583343505859375,-0.0423431396484375
1772538595858870300,4.831870361328125,-0.977783203125,-0.059295654296875,-0.040435791015625
1772538595868885200,4.84188525390625,-0.979461669921875,-0.057403564453125,-0.044952392578125
1772538595878900000,4.85189990234375,-0.9873809814453125,-0.057525634765625,-0.0502471923828125
1772538595888916200,4.861916259765625,-0.9937286376953125,-0.053863525390625,-0.05218505859375
1772538595898931200,4.87193115234375,-0.9962615966796875,-0.05377197265625,-0.04962158203125
1772538595908946200,4.8819462890625,-0.99932861328125,-0.054351806640625,-0.0454559326171875
1772538595918962200,4.891962158203125,-0.999908447265625,-0.052734375,-0.040863037109375
1772538595928977200,4.90197705078125,-1.002166748046875,-0.0521240234375,-0.039459228515625
1772538595938992400,4.911992431640625,-1.0024871826171875,-0.0489959716796875,-0.04022216796875
1772538595949008100,4.922008056640625,-1.002044677734375,-0.047119140625,-0.0384521484375
1772538595959023400,4.9320234375,-1.0036773681640625,-0.0468597412109375,-0.0355377197265625
1772538595969038300,4.942038330078125,-1.003082275390625,-0.0474395751953125,-0.0361785888671875
1772538595979054300,4.952054443359375,-1.0014190673828125,-0.048583984375,-0.03961181640625
1772538595989069300,4.9620693359375,-0.999725341796875,-0.051361083984375,-0.03948974609375
1772538595999085300,4.972085205078125,-0.9963836669921875,-0.04949951171875,-0.039031982421875
1772538596009100300,4.982100341796875,-0.9974822998046875,-0.047454833984375,-0.0379791259765625
1772538596019115300,4.992115234375,-0.9946746826171875,-0.0481109619140625,-0.0389251708984375
1772538596029131300,5.00213134765625,-0.9942474365234375,-0.0484619140625,-0.0373077392578125
1772538596039146200,5.012146240234375,-0.997100830078125,-0.0487823486328125,-0.037261962890625
1772538596049161200,5.0221611328125,-0.9956817626953125,-0.049224853515625,-0.0370330810546875
1772538596059177200,5.03217724609375,-0.99407958984375,-0.052154541015625,-0.037689208984375
1772538596069192200,5.042192138671875,-0.99627685546875,-0.0515594482421875,-0.037139892578125
1772538596079207200,5.052207275390625,-0.995086669921875,-0.05255126953125,-0.0396575927734375
1772538596089223200,5.06222314453125,-0.995819091796875,-0.051361083984375,-0.0424652099609375
1772538596099238100,5.072238037109375,-0.9962158203125,-0.052490234375,-0.047027587890625
1772538596109253000,5.082253173828125,-1.00146484375,-0.0532073974609375,-0.0475311279296875
1772538596119269000,5.09226904296875,-0.9896697998046875,-0.0587921142578125,-0.04986572265625
1772538596129284000,5.1022841796875,-0.99859619140625,-0.06085205078125,-0.05682373046875
1772538596139300000,5.112300048828125,-0.996337890625,-0.05743408203125,-0.0564422607421875
1772538596149315000,5.122315185546875,-0.99591064453125,-0.0608673095703125,-0.051300048828125
1772538596159330000,5.132330078125,-1.003204345703125,-0.060638427734375,-0.0506744384765625
1772538596169346000,5.142345947265625,-0.9988555908203125,-0.0567626953125,-0.049652099609375
1772538596179361000,5.152361083984375,-0.9925537109375,-0.05401611328125,-0.049224853515625
1772538596189376000,5.1623759765625,-0.9915924072265625,-0.0553131103515625,-0.045257568359375
1772538596199392000,5.17239208984375,-0.9886322021484375,-0.0572509765625,-0.04486083984375
1772538596209407000,5.182406982421875,-0.986541748046875,-0.0587615966796875,-0.0474700927734375
1772538596219422200,5.192422119140625,-0.98614501953125,-0.0599365234375,-0.0512847900390625
1772538596229438000,5.20243798828125,-0.98687744140625,-0.0594482421875,-0.0522613525390625
1772538596239453200,5.212453125,-0.9931793212890625,-0.059478759765625,-0.0518341064453125
1772538596249468200,5.22246826171875,-1.0001373291015625,-0.059173583984375,-0.0486602783203125
1772538596259484200,5.232484130859375,-1.005157470703125,-0.0625152587890625,-0.0450897216796875
1772538596269499100,5.2424990234375,-1.0089111328125,-0.061126708984375,-0.04327392578125
1772538596279515400,5.252515380859375,-1.0113067626953125,-0.0560455322265625,-0.0401611328125
1772538596289530400,5.2625302734375,-1.00860595703125,-0.0516204833984375,-0.0348968505859375
1772538596299545000,5.272545166015625,-1.0056610107421875,-0.0506744384765625,-0.03076171875
1772538596309561300,5.282561279296875,-1.0041351318359375,-0.05377197265625,-0.034942626953125
1772538596319576300,5.292576416015625,-1.0003509521484375,-0.0536651611328125,-0.0396881103515625
1772538596329591300,5.30259130859375,-0.9991455078125,-0.053253173828125,-0.044342041015625
1772538596343989200,5.3169892578125,-1.0019989013671875,-0.0493927001953125,-0.043487548828125
1772538596354004200,5.327004150390625,-1.004302978515625,-0.047332763671875,-0.03985595703125
1772538596364019200,5.337019287109375,-1.0086517333984375,-0.04693603515625,-0.0412139892578125
1772538596374035200,5.34703515625,-1.0121917724609375,-0.04449462890625,-0.042724609375
1772538596384050200,5.35705029296875,-1.0090789794921875,-0.041473388671875,-0.0411834716796875
1772538596394065200,5.367065185546875,-1.0050811767578125,-0.0423583984375,-0.0393218994140625
1772538596404081200,5.3770810546875,-1.0030670166015625,-0.0438079833984375,-0.034942626953125
1772538596414096100,5.38709619140625,-1.0009918212890625,-0.0444793701171875,-0.034423828125
1772538596424111000,5.397111083984375,-1.0009918212890625,-0.046875,-0.039886474609375
1772538596434127000,5.407127197265625,-0.9926300048828125,-0.04547119140625,-0.037139892578125
1772538596444142000,5.41714208984375,-0.99334716796875,-0.0426177978515625,-0.03955078125
1772538596454158000,5.427157958984375,-0.983642578125,-0.0423431396484375,-0.0416259765625
1772538596464173000,5.437173095703125,-0.975555419921875,-0.04693603515625,-0.037628173828125
1772538596474188000,5.44718798828125,-0.978790283203125,-0.0545196533203125,-0.0337677001953125
1772538596484204000,5.4572041015625,-0.9818878173828125,-0.0509033203125,-0.0394744873046875
1772538596494219000,5.467218994140625,-0.988677978515625,-0.0466766357421875,-0.0498809814453125
1772538596504234000,5.47723388671875,-0.99456787109375,-0.0510101318359375,-0.049072265625
1772538596514250200,5.487250244140625,-0.9995574951171875,-0.0537109375,-0.0442047119140625
1772538596524265000,5.497264892578125,-0.999176025390625,-0.0533447265625,-0.0434112548828125
1772538596534280000,5.507280029296875,-0.99566650390625,-0.0509490966796875,-0.0431976318359375
1772538596544295200,5.517295166015625,-0.992767333984375,-0.0512237548828125,-0.044464111328125
1772538596554310100,5.52731005859375,-0.990966796875,-0.0542144775390625,-0.0483856201171875
1772538596564325000,5.5373251953125,-0.9930267333984375,-0.0578460693359375,-0.05316162109375
1772538596574341000,5.547341064453125,-0.997161865234375,-0.055938720703125,-0.0557861328125
1772538596584356000,5.557356201171875,-1.00152587890625,-0.053009033203125,-0.055389404296875
1772538596594372000,5.5673720703125,-1.0050201416015625,-0.0546875,-0.05029296875
1772538596604387000,5.577386962890625,-1.004791259765625,-0.0573272705078125,-0.0453948974609375
1772538596614402000,5.587402099609375,-1.00482177734375,-0.0556793212890625,-0.04638671875
1772538596624418000,5.59741796875,-1.002227783203125,-0.054443359375,-0.0504150390625
1772538596634433000,5.60743310546875,-1.0030670166015625,-0.0547332763671875,-0.0500335693359375
1772538596644448000,5.617447998046875,-1.00555419921875,-0.0527801513671875,-0.0460968017578125
1772538596654464000,5.627464111328125,-1.00677490234375,-0.049224853515625,-0.04315185546875
1772538596664479000,5.63747900390625,-1.0040283203125,-0.0502471923828125,-0.0383758544921875
1772538596674494000,5.647493896484375,-0.9969024658203125,-0.0523529052734375,-0.034576416015625
1772538596684510000,5.657510009765625,-0.991943359375,-0.053955078125,-0.0362091064453125
1772538596695151000,5.668151123046875,-0.9915008544921875,-0.054351806640625,-0.0409088134765625
1772538596705166000,5.678166015625,-0.9972381591796875,-0.0550537109375,-0.0470733642578125
1772538596715182000,5.68818212890625,-0.9960174560546875,-0.0573272705078125,-0.048797607421875
1772538596725197000,5.698197021484375,-0.9943084716796875,-0.0577545166015625,-0.0482177734375
1772538596735212000,5.7082119140625,-0.994354248046875,-0.0606231689453125,-0.0472564697265625
1772538596745228000,5.71822802734375,-0.98870849609375,-0.060302734375,-0.0453948974609375
1772538596755243000,5.728242919921875,-0.9867095947265625,-0.05810546875,-0.0411376953125
1772538596765258000,5.738258056640625,-0.98968505859375,-0.058319091796875,-0.0370025634765625
1772538596775274000,5.74827392578125,-0.9931640625,-0.0577392578125,-0.037384033203125
1772538596785289000,5.7582890625,-1.0003814697265625,-0.0529022216796875,-0.0367889404296875
1772538596795304000,5.768303955078125,-1.00946044921875,-0.052093505859375,-0.036712646484375
1772538596805320000,5.77831982421875,-1.0116119384765625,-0.052825927734375,-0.0354156494140625
1772538596815335000,5.7883349609375,-1.0106201171875,-0.054931640625,-0.034515380859375
1772538596825350100,5.79835009765625,-1.0064239501953125,-0.05364990234375,-0.0354156494140625
1772538596835366000,5.808365966796875,-1.0019378662109375,-0.05450439453125,-0.0375518798828125
1772538596845381000,5.818381103515625,-0.9996490478515625,-0.0544281005859375,-0.0359954833984375
1772538596855396000,5.82839599609375,-0.9979705810546875,-0.0510711669921875,-0.0353240966796875
1772538596865412000,5.838412109375,-1.0022430419921875,-0.0493927001953125,-0.036590576171875
1772538596875427000,5.848427001953125,-0.99908447265625,-0.04931640625,-0.0360260009765625
1772538596885443000,5.858443115234375,-1.002105712890625,-0.0480804443359375,-0.03765869140625
1772538596895458000,5.8684580078125,-1.000274658203125,-0.050201416015625,-0.0384521484375
1772538596905473000,5.87847314453125,-0.991943359375,-0.0515899658203125,-0.0388641357421875
1772538596915489300,5.8884892578125,-0.984527587890625,-0.0522918701171875,-0.03765869140625
1772538596925504000,5.89850390625,-0.98126220703125,-0.0537872314453125,-0.03643798828125
1772538596935519000,5.90851904296875,-0.9819488525390625,-0.0531463623046875,-0.0364837646484375
1772538596945535200,5.91853515625,-0.9843902587890625,-0.0519561767578125,-0.0380096435546875
1772538596955550200,5.92855029296875,-0.9865875244140625,-0.0523529052734375,-0.0411224365234375
1772538596965565000,5.93856494140625,-0.9895172119140625,-0.052734375,-0.039886474609375
1772538596975581200,5.948581298828125,-0.9953765869140625,-0.05450439453125,-0.04180908203125
1772538596985596200,5.95859619140625,-0.9941558837890625,-0.057220458984375,-0.0438079833984375
1772538596995611100,5.968611083984375,-0.9940948486328125,-0.06024169921875,-0.0452117919921875
1772538597005627100,5.978627197265625,-0.9960479736328125,-0.061798095703125,-0.0434417724609375
1772538597015642000,5.98864208984375,-0.9947357177734375,-0.0601654052734375,-0.045074462890625
1772538597025657000,5.998656982421875,-0.996856689453125,-0.0569305419921875,-0.04339599609375
1772538597035673000,6.008673095703125,-1.003143310546875,-0.0584869384765625,-0.0443572998046875
1772538597045688000,6.01868798828125,-1.00860595703125,-0.0621185302734375,-0.0444183349609375
1772538597055703000,6.028703125,-1.015380859375,-0.064056396484375,-0.045562744140625
1772538597065719000,6.038718994140625,-1.0112457275390625,-0.0619964599609375,-0.0490875244140625
1772538597075734000,6.048734130859375,-1.0048980712890625,-0.061187744140625,-0.051300048828125
1772538597085750000,6.05875,-0.9998779296875,-0.065704345703125,-0.0477447509765625
1772538597095765000,6.068764892578125,-0.995819091796875,-0.06671142578125,-0.0419769287109375
1772538597105780200,6.0787802734375,-0.9975128173828125,-0.0650482177734375,-0.0397796630859375
1772538597115796000,6.0887958984375,-1.003875732421875,-0.0618896484375,-0.039520263671875
1772538597125811200,6.098811279296875,-1.0109100341796875,-0.05908203125,-0.042388916015625
1772538597135826200,6.108826171875,-1.0162200927734375,-0.0578765869140625,-0.0446624755859375
1772538597145842200,6.11884228515625,-1.0169830322265625,-0.055450439453125,-0.045989990234375
1772538597155857200,6.128857177734375,-1.0092010498046875,-0.0572052001953125,-0.0457305908203125
1772538597165872000,6.1388720703125,-0.9979400634765625,-0.0579986572265625,-0.044952392578125
1772538597175888100,6.14888818359375,-0.995697021484375,-0.0583648681640625,-0.0428009033203125
1772538597185903000,6.158903076171875,-0.9945220947265625,-0.056976318359375,-0.043304443359375
1772538597195918000,6.16891796875,-0.9897918701171875,-0.056549072265625,-0.043426513671875
1772538597205934000,6.17893408203125,-0.987640380859375,-0.058197021484375,-0.0439300537109375
1772538597215949000,6.188948974609375,-0.9853668212890625,-0.059112548828125,-0.04193115234375
1772538597225964000,6.198964111328125,-0.981292724609375,-0.059722900390625,-0.0372314453125
1772538597235980000,6.20897998046875,-0.978546142578125,-0.0611114501953125,-0.033660888671875
1772538597245995000,6.2189951171875,-0.976593017578125,-0.06201171875,-0.03265380859375
1772538597256010000,6.229010009765625,-0.980133056640625,-0.0586090087890625,-0.03375244140625
1772538597266026000,6.23902587890625,-0.988525390625,-0.0592803955078125,-0.036895751953125
1772538597276041000,6.249041015625,-0.9970703125,-0.06011962890625,-0.0393218994140625
1772538597286056000,6.259055908203125,-1.0027008056640625,-0.0612945556640625,-0.040374755859375
1772538597296072000,6.269072021484375,-1.0007781982421875,-0.0615234375,-0.0394439697265625
1772538597306087000,6.2790869140625,-0.9990081787109375,-0.0629425048828125,-0.0352630615234375
1772538597316103000,6.28910302734375,-0.9975433349609375,-0.06243896484375,-0.03497314453125
1772538597326118000,6.299117919921875,-0.9967803955078125,-0.0604248046875,-0.0292205810546875
1772538597336133000,6.309133056640625,-0.997528076171875,-0.059814453125,-0.02716064453125
1772538597346148900,6.31914892578125,-0.9985198974609375,-0.061279296875,-0.0286102294921875
1772538597356164000,6.3291640625,-0.9975128173828125,-0.05621337890625,-0.02972412109375
1772538597366179000,6.339178955078125,-0.99505615234375,-0.054290771484375,-0.0281982421875
1772538597376195000,6.349195068359375,-0.993499755859375,-0.05474853515625,-0.026397705078125
1772538597386210300,6.359210205078125,-0.9886474609375,-0.0539093017578125,-0.024078369140625
1772538597396225000,6.36922509765625,-0.9900054931640625,-0.05133056640625,-0.0204925537109375
1772538597406241300,6.3792412109375,-0.9925384521484375,-0.0517578125,-0.02032470703125
1772538597416256300,6.38925634765625,-0.9882659912109375,-0.0495758056640625,-0.0225372314453125
1772538597426271200,6.399271240234375,-0.9864501953125,-0.04864501953125,-0.0204315185546875
1772538597436287200,6.409287353515625,-0.9869232177734375,-0.05010986328125,-0.01971435546875
1772538597446302200,6.41930224609375,-0.9855499267578125,-0.0500946044921875,-0.022125244140625
1772538597456317200,6.429317138671875,-0.9898223876953125,-0.0496978759765625,-0.027496337890625
1772538597466333200,6.439333251953125,-0.997222900390625,-0.0495452880859375,-0.032257080078125
1772538597476348200,6.44934814453125,-1.002899169921875,-0.052093505859375,-0.0375518798828125
1772538597486363100,6.459363037109375,-1.0100860595703125,-0.0534515380859375,-0.040924072265625
1772538597496379100,6.469379150390625,-1.0161285400390625,-0.054656982421875,-0.0477142333984375
1772538597506394000,6.47939404296875,-1.016265869140625,-0.0534820556640625,-0.0533599853515625
1772538597516409000,6.4894091796875,-1.0142822265625,-0.0532989501953125,-0.0566253662109375
1772538597526425000,6.499425048828125,-1.0133056640625,-0.0558013916015625,-0.0557708740234375
1772538597536440800,6.50944091796875,-1.0096435546875,-0.0579833984375,-0.0537261962890625
1772538597546456800,6.519456787109375,-1.003753662109375,-0.06072998046875,-0.0541229248046875
1772538597556471800,6.529471923828125,-0.9989776611328125,-0.0611114501953125,-0.0592803955078125
1772538597566486800,6.53948681640625,-0.9961700439453125,-0.0621337890625,-0.064697265625
1772538597576502800,6.549502685546875,-0.9942779541015625,-0.0645294189453125,-0.0648956298828125
1772538597586517800,6.559517822265625,-0.9931640625,-0.0651092529296875,-0.0617218017578125
1772538597596532700,6.56953271484375,-0.9920501708984375,-0.0635528564453125,-0.0605316162109375
1772538597606548700,6.579548828125,-0.9906158447265625,-0.064788818359375,-0.059814453125
1772538597616563700,6.589563720703125,-0.9925079345703125,-0.067657470703125,-0.0560455322265625
1772538597626578700,6.59957861328125,-0.9954833984375,-0.06591796875,-0.0520782470703125
1772538597636594700,6.6095947265625,-1.0012664794921875,-0.0623016357421875,-0.0488128662109375
1772538597646609700,6.619609619140625,-1.0048370361328125,-0.0606842041015625,-0.0444793701171875
1772538597656625000,6.629625,-1.0015411376953125,-0.057220458984375,-0.044830322265625
1772538597666640600,6.639640625,-0.995513916015625,-0.0584259033203125,-0.043304443359375
1772538597676655900,6.64965576171875,-0.9937744140625,-0.0618133544921875,-0.040771484375
1772538597686670800,6.6596708984375,-0.99554443359375,-0.06341552734375,-0.0381317138671875
1772538597696686800,6.669686767578125,-0.9984893798828125,-0.0612030029296875,-0.037353515625
1772538597706701800,6.679701904296875,-1.0019989013671875,-0.058013916015625,-0.034271240234375
1772538597716716800,6.689716796875,-1.0045166015625,-0.0569000244140625,-0.0333709716796875
1772538597726732800,6.69973291015625,-1.003021240234375,-0.0609588623046875,-0.030609130859375
1772538597736747800,6.709747802734375,-1.0041046142578125,-0.0572967529296875,-0.03033447265625
1772538597746762800,6.7197626953125,-1.002960205078125,-0.0552825927734375,-0.0266571044921875
1772538597756778800,6.72977880859375,-1.0014801025390625,-0.0546875,-0.019256591796875
1772538597766793700,6.739793701171875,-1.0018768310546875,-0.05511474609375,-0.0168609619140625
1772538597776808700,6.74980859375,-0.9966278076171875,-0.0531158447265625,-0.0192413330078125
1772538597786825000,6.759824951171875,-0.9922943115234375,-0.0530242919921875,-0.0190887451171875
1772538597796840000,6.76983984375,-0.990753173828125,-0.0570831298828125,-0.018585205078125
1772538597806854700,6.779854736328125,-0.9927825927734375,-0.0575103759765625,-0.022186279296875
1772538597816871000,6.789870849609375,-0.9942779541015625,-0.055694580078125,-0.026092529296875
1772538597826886000,6.799885986328125,-0.9993438720703125,-0.055877685546875,-0.029510498046875
1772538597836900900,6.80990087890625,-1.0009002685546875,-0.0515289306640625,-0.0317535400390625
1772538597846916900,6.819916748046875,-1.0021514892578125,-0.050994873046875,-0.0310211181640625
1772538597856931800,6.829931884765625,-1.0030975341796875,-0.0548553466796875,-0.028167724609375
1772538597866947800,6.83994775390625,-0.9988250732421875,-0.0555572509765625,-0.0258636474609375
1772538597876962800,6.849962890625,-0.995880126953125,-0.057037353515625,-0.0279388427734375
1772538597886977800,6.859977783203125,-0.9928741455078125,-0.056121826171875,-0.0321502685546875
1772538597896993800,6.869993896484375,-0.9886322021484375,-0.0550384521484375,-0.033294677734375
1772538597907008800,6.8800087890625,-0.9874420166015625,-0.0548095703125,-0.029571533203125
1772538597917024000,6.89002392578125,-0.983795166015625,-0.05596923828125,-0.0236053466796875
1772538597927039700,6.900039794921875,-0.9870452880859375,-0.0560150146484375,-0.0181732177734375
1772538597937055000,6.910054931640625,-0.9896697998046875,-0.055206298828125,-0.0177459716796875
1772538597947070000,6.920070068359375,-0.9919281005859375,-0.0545806884765625,-0.02606201171875
1772538597957086000,6.9300859375,-0.9971466064453125,-0.0536346435546875,-0.0329742431640625
1772538597967101000,6.940100830078125,-1.0008087158203125,-0.0512237548828125,-0.0366973876953125
1772538597977116000,6.950115966796875,-1.0015106201171875,-0.0533294677734375,-0.0375213623046875
1772538597987132000,6.9601318359375,-1.0041046142578125,-0.0535736083984375,-0.0358734130859375
1772538597997147000,6.97014697265625,-1.0004730224609375,-0.052947998046875,-0.0347442626953125
1772538598007161900,6.980161865234375,-0.998321533203125,-0.05413818359375,-0.031646728515625
1772538598017177900,6.990177734375,-0.9976348876953125,-0.05584716796875,-0.028900146484375
1772538598027192800,7.00019287109375,-0.994049072265625,-0.0555877685546875,-0.0287322998046875
1772538598037207800,7.010207763671875,-0.9924468994140625,-0.0594940185546875,-0.028533935546875
1772538598047223800,7.020223876953125,-0.9978790283203125,-0.0619354248046875,-0.0283966064453125
1772538598057238800,7.03023876953125,-1.003875732421875,-0.0601806640625,-0.02923583984375
1772538598067253800,7.040253662109375,-1.0089263916015625,-0.0570068359375,-0.0305328369140625
1772538598077269800,7.050269775390625,-1.014251708984375,-0.0564117431640625,-0.0312652587890625
1772538598087284700,7.06028466796875,-1.0144195556640625,-0.05694580078125,-0.0341949462890625
1772538598097299700,7.0702998046875,-1.00836181640625,-0.0593109130859375,-0.0344390869140625
1772538598107315700,7.080315673828125,-1.002777099609375,-0.062255859375,-0.03363037109375
1772538598117330700,7.09033056640625,-0.995361328125,-0.0651702880859375,-0.0356597900390625
1772538598127346000,7.100345947265625,-0.990997314453125,-0.0657501220703125,-0.034942626953125
1772538598137361700,7.110361572265625,-0.9958343505859375,-0.0638275146484375,-0.0360260009765625
1772538598147377000,7.120376953125,-0.9966888427734375,-0.0599212646484375,-0.035064697265625
1772538598157392000,7.130391845703125,-0.9984283447265625,-0.0616912841796875,-0.0344390869140625
1772538598167407900,7.140407958984375,-0.99652099609375,-0.0659332275390625,-0.036041259765625
1772538598177422800,7.1504228515625,-0.9916839599609375,-0.0652618408203125,-0.0392303466796875
1772538598187437800,7.160437744140625,-0.98907470703125,-0.064422607421875,-0.0419921875
1772538598197453800,7.170453857421875,-0.988037109375,-0.06561279296875,-0.0403594970703125
1772538598207468800,7.18046875,-0.9906005859375,-0.067169189453125,-0.034820556640625
1772538598217483800,7.19048388671875,-0.9973907470703125,-0.06488037109375,-0.0325927734375
1772538598227499800,7.200499755859375,-1.000579833984375,-0.0635223388671875,-0.0303192138671875
1772538598237514800,7.2105146484375,-1.0009307861328125,-0.06463623046875,-0.027862548828125
1772538598247529700,7.22052978515625,-1.0027008056640625,-0.0659637451171875,-0.0294647216796875
1772538598257546000,7.2305458984375,-1.0064697265625,-0.066680908203125,-0.0286102294921875
1772538598267560700,7.240560791015625,-1.0079498291015625,-0.0646514892578125,-0.0329132080078125
1772538598277575700,7.25057568359375,-1.00738525390625,-0.06182861328125,-0.0345611572265625
1772538598287592000,7.260592041015625,-1.0076751708984375,-0.06097412109375,-0.033050537109375
1772538598297607000,7.27060693359375,-1.002838134765625,-0.060699462890625,-0.0290069580078125
1772538598307621600,7.28062158203125,-0.996490478515625,-0.0587310791015625,-0.0254669189453125
1772538598317638000,7.290637939453125,-0.9914398193359375,-0.0576019287109375,-0.01898193359375
1772538598327652900,7.30065283203125,-0.9866485595703125,-0.0560302734375,-0.0182647705078125
1772538598337667800,7.310667724609375,-0.98272705078125,-0.0558319091796875,-0.01885986328125
1772538598347683800,7.320683837890625,-0.9823150634765625,-0.0581817626953125,-0.0174560546875
1772538598357698800,7.33069873046875,-0.9845428466796875,-0.0601959228515625,-0.0205078125
1772538598367714000,7.340714111328125,-0.986083984375,-0.059661865234375,-0.0237579345703125
1772538598377729800,7.350729736328125,-0.9902191162109375,-0.058563232421875,-0.0280914306640625
1772538598387745000,7.3607451171875,-0.9943084716796875,-0.057220458984375,-0.0323028564453125
1772538598397760800,7.3707607421875,-0.99505615234375,-0.0576934814453125,-0.0327911376953125
1772538598407776000,7.38077587890625,-0.9971466064453125,-0.0586700439453125,-0.0347442626953125
1772538598417791000,7.390791015625,-0.997650146484375,-0.0634918212890625,-0.0337982177734375
1772538598427807000,7.400806884765625,-0.996826171875,-0.0643768310546875,-0.0360870361328125
1772538598437822000,7.410822021484375,-0.99835205078125,-0.06402587890625,-0.03973388671875
1772538598447837000,7.4208369140625,-0.9954376220703125,-0.062225341796875,-0.0398101806640625
1772538598457853000,7.43085302734375,-1.0000762939453125,-0.063690185546875,-0.037811279296875
1772538598467868000,7.440867919921875,-1.002899169921875,-0.0639190673828125,-0.036773681640625
1772538598477883000,7.4508828125,-1.0019073486328125,-0.0630950927734375,-0.036834716796875
1772538598487899000,7.46089892578125,-1.0001983642578125,-0.06280517578125,-0.0384979248046875
1772538598497913900,7.470913818359375,-0.9956512451171875,-0.062744140625,-0.0411224365234375
1772538598507928800,7.4809287109375,-0.99261474609375,-0.0634613037109375,-0.0426025390625
1772538598517944800,7.49094482421875,-0.989776611328125,-0.0630035400390625,-0.03948974609375
1772538598527959800,7.500959716796875,-0.98736572265625,-0.0657196044921875,-0.0366058349609375
1772538598537974300,7.510974365234375,-0.9865875244140625,-0.0654296875,-0.0318756103515625
1772538598547990300,7.520990234375,-0.9900054931640625,-0.06231689453125,-0.027099609375
1772538598558005200,7.531005126953125,-0.999664306640625,-0.0574951171875,-0.0299224853515625
1772538598568020200,7.541020263671875,-1.010223388671875,-0.0561065673828125,-0.0342864990234375
1772538598578036200,7.5510361328125,-1.0186309814453125,-0.0558929443359375,-0.0371246337890625
1772538598588051200,7.56105126953125,-1.0211029052734375,-0.0564117431640625,-0.0372772216796875
1772538598598066400,7.57106640625,-1.01727294921875,-0.0596466064453125,-0.035919189453125
1772538598608082400,7.58108251953125,-1.0080108642578125,-0.060760498046875,-0.033721923828125
1772538598618097400,7.591097412109375,-1.0013427734375,-0.066619873046875,-0.03057861328125
1772538598628112400,7.6011123046875,-0.9976043701171875,-0.073028564453125,-0.0267333984375
1772538598638128600,7.611128662109375,-0.9926910400390625,-0.0768280029296875,-0.0284271240234375
1772538598648143600,7.6211435546875,-0.9879608154296875,-0.076690673828125,-0.03387451171875
1772538598658158300,7.631158447265625,-0.9842071533203125,-0.0759429931640625,-0.035491943359375
1772538598668174600,7.641174560546875,-0.9842987060546875,-0.079864501953125,-0.036529541015625
1772538598678189600,7.651189453125,-0.9866485595703125,-0.0789031982421875,-0.0366363525390625
1772538598688204500,7.66120458984375,-0.9896087646484375,-0.0780487060546875,-0.0361480712890625
1772538598698220500,7.671220458984375,-0.9906768798828125,-0.0760650634765625,-0.035858154296875
1772538598708235500,7.681235595703125,-0.994354248046875,-0.076507568359375,-0.0347900390625
1772538598718250500,7.69125048828125,-0.99847412109375,-0.0738677978515625,-0.0349884033203125
1772538598728266500,7.7012666015625,-0.998504638671875,-0.07257080078125,-0.0350341796875
1772538598738281500,7.711281494140625,-1.003143310546875,-0.071380615234375,-0.0299224853515625
1772538598748296400,7.72129638671875,-0.998291015625,-0.06939697265625,-0.0269927978515625
1772538598758312400,7.7313125,-0.9959259033203125,-0.06939697265625,-0.0250701904296875
1772538598768327400,7.741327392578125,-0.9936065673828125,-0.070220947265625,-0.0223541259765625
1772538598778342400,7.75134228515625,-0.9912872314453125,-0.06793212890625,-0.0206451416015625
1772538598788358400,7.7613583984375,-0.994476318359375,-0.0647735595703125,-0.02081298828125
1772538598798373400,7.771373291015625,-0.9973907470703125,-0.06744384765625,-0.0220489501953125
1772538598808388400,7.781388427734375,-1.002838134765625,-0.068695068359375,-0.0216064453125
1772538598818404400,7.791404296875,-1.012054443359375,-0.068603515625,-0.0264892578125
1772538598828419300,7.80141943359375,-1.01593017578125,-0.0687408447265625,-0.03411865234375
1772538598838434600,7.8114345703125,-1.0146331787109375,-0.0679931640625,-0.038604736328125
1772538598848450300,7.8214501953125,-1.0137481689453125,-0.0698394775390625,-0.0386810302734375
1772538598858465500,7.831465576171875,-1.011566162109375,-0.0707244873046875,-0.038055419921875
1772538598868480500,7.84148046875,-1.0088653564453125,-0.0701751708984375,-0.0403289794921875
1772538598878496500,7.85149658203125,-1.0077972412109375,-0.067352294921875,-0.04205322265625
1772538598888511500,7.861511474609375,-1.0076904296875,-0.06597900390625,-0.0436553955078125
1772538598898526500,7.8715263671875,-1.004486083984375,-0.0657806396484375,-0.04547119140625
1772538598908542500,7.88154248046875,-0.9962310791015625,-0.0655059814453125,-0.04931640625
1772538598918557400,7.891557373046875,-0.987030029296875,-0.0683441162109375,-0.0494232177734375
1772538598928572400,7.901572509765625,-0.98095703125,-0.07061767578125,-0.047393798828125
1772538598938588400,7.91158837890625,-0.97607421875,-0.0717010498046875,-0.0445098876953125
1772538598948603400,7.921603271484375,-0.9715423583984375,-0.068878173828125,-0.040069580078125
1772538598958618400,7.931618408203125,-0.9759521484375,-0.0646514892578125,-0.03631591796875
1772538598968633300,7.94163330078125,-0.9838104248046875,-0.0644378662109375,-0.0353240966796875
1772538598978649300,7.9516494140625,-0.9883575439453125,-0.065155029296875,-0.03375244140625
1772538598988664300,7.961664306640625,-0.9919586181640625,-0.062896728515625,-0.033477783203125
1772538598998680300,7.971680419921875,-0.9931640625,-0.0655517578125,-0.031524658203125
1772538599008695300,7.9816953125,-0.989654541015625,-0.0681915283203125,-0.0300140380859375
1772538599018710300,7.991710205078125,-0.9889373779296875,-0.06768798828125,-0.0291595458984375
1772538599028725500,8.0017255859375,-0.990509033203125,-0.0697784423828125,-0.0280914306640625
1772538599038741200,8.0117412109375,-0.9900970458984375,-0.06951904296875,-0.0271148681640625
1772538599048756500,8.021756591796875,-0.9937286376953125,-0.069488525390625,-0.027008056640625
1772538599058772200,8.031772216796876,-0.9955902099609375,-0.0721893310546875,-0.027496337890625
1772538599068787500,8.041787353515625,-0.996978759765625,-0.0729217529296875,-0.0287933349609375
1772538599078802400,8.051802490234374,-1.0005645751953125,-0.071807861328125,-0.02935791015625
1772538599088817400,8.0618173828125,-1.0035552978515625,-0.0695343017578125,-0.0307159423828125
1772538599098833400,8.07183349609375,-1.006195068359375,-0.069427490234375,-0.02984619140625
1772538599108848400,8.081848388671874,-1.00994873046875,-0.0672760009765625,-0.0308837890625
1772538599118863400,8.09186328125,-1.007904052734375,-0.0678558349609375,-0.0380401611328125
1772538599128879400,8.10187939453125,-1.000732421875,-0.0694580078125,-0.0386505126953125
1772538599138894300,8.111894287109376,-0.999908447265625,-0.070220947265625,-0.036651611328125
1772538599148909300,8.121909423828125,-0.9968719482421875,-0.070343017578125,-0.0348968505859375
1772538599158925600,8.131925537109375,-0.9915313720703125,-0.0714874267578125,-0.0323028564453125
1772538599168940300,8.141940185546876,-0.9875640869140625,-0.0691375732421875,-0.03094482421875
1772538599178955300,8.151955322265625,-0.98590087890625,-0.071380615234375,-0.0297698974609375
1772538599188971500,8.161971435546874,-0.9842529296875,-0.072052001953125,-0.028167724609375
1772538599198986500,8.171986572265626,-0.9860382080078125,-0.0720977783203125,-0.0254058837890625
1772538599209001200,8.182001220703125,-0.9860687255859375,-0.074066162109375,-0.0272979736328125
1772538599219017500,8.192017578125,-0.9848480224609375,-0.073883056640625,-0.030731201171875
1772538599229032400,8.202032470703125,-0.989013671875,-0.072845458984375,-0.03057861328125
1772538599239047400,8.21204736328125,-0.9984893798828125,-0.0732421875,-0.03338623046875
1772538599249063400,8.2220634765625,-1.0015716552734375,-0.07037353515625,-0.0355224609375
1772538599259078400,8.232078369140625,-1.008270263671875,-0.0690155029296875,-0.0356292724609375
1772538599269093600,8.24209375,-1.0103302001953125,-0.0682220458984375,-0.03582763671875
1772538599279109400,8.252109375,-1.005340576171875,-0.0680694580078125,-0.031951904296875
1772538599289124600,8.26212451171875,-0.99957275390625,-0.0699920654296875,-0.02813720703125
1772538599299139600,8.2721396484375,-0.99560546875,-0.0733184814453125,-0.0274810791015625
1772538599309155600,8.282155517578126,-0.9924774169921875,-0.0749053955078125,-0.0290985107421875
1772538599319170600,8.292170654296875,-0.98773193359375,-0.0753173828125,-0.029754638671875
1772538599329185500,8.302185546875,-0.9879302978515625,-0.076507568359375,-0.0331268310546875
1772538599339201500,8.312201416015625,-0.993743896484375,-0.0770111083984375,-0.03607177734375
1772538599349216500,8.322216552734375,-0.9947052001953125,-0.0758819580078125,-0.0388336181640625
1772538599359231500,8.3322314453125,-0.998016357421875,-0.072021484375,-0.035491943359375
1772538599369247500,8.34224755859375,-1.0012054443359375,-0.07354736328125,-0.027587890625
1772538599379262500,8.352262451171875,-1.000396728515625,-0.0756072998046875,-0.0233917236328125
1772538599389277400,8.36227734375,-1.0008087158203125,-0.074859619140625,-0.0256500244140625
1772538599399293400,8.37229345703125,-1.0069580078125,-0.0716094970703125,-0.0309600830078125
1772538599409308400,8.382308349609374,-1.01007080078125,-0.067657470703125,-0.0308990478515625
1772538599419323400,8.392323486328126,-1.01409912109375,-0.0686492919921875,-0.0252227783203125
1772538599429339400,8.40233935546875,-1.0104522705078125,-0.074066162109375,-0.0194091796875
1772538599439354400,8.412354248046874,-0.9973297119140625,-0.0765838623046875,-0.018341064453125
1772538599449369300,8.422369384765625,-0.9862213134765625,-0.0763702392578125,-0.0216217041015625
1772538599459385300,8.43238525390625,-0.9871826171875,-0.075531005859375,-0.0313720703125
1772538599469400300,8.442400390625,-0.9925994873046875,-0.074005126953125,-0.0411376953125
1772538599479415300,8.452415283203125,-0.999847412109375,-0.072509765625,-0.04119873046875
1772538599489431300,8.462431396484375,-1.010498046875,-0.076812744140625,-0.0356903076171875
1772538599499446300,8.4724462890625,-1.008270263671875,-0.0789642333984375,-0.03204345703125
1772538599509461500,8.48246142578125,-0.999053955078125,-0.0743865966796875,-0.030364990234375
1772538599519477200,8.492477294921875,-0.98773193359375,-0.0728302001953125,-0.0295257568359375
1772538599529492500,8.502492431640626,-0.9825286865234375,-0.073699951171875,-0.0254058837890625
1772538599539507500,8.512507568359375,-0.980621337890625,-0.076080322265625,-0.0239105224609375
1772538599549523700,8.522523681640624,-0.97674560546875,-0.07684326171875,-0.0294189453125
1772538599559539000,8.5325390625,-0.978515625,-0.076324462890625,-0.03533935546875
1772538599569554000,8.542553955078125,-0.99249267578125,-0.0750732421875,-0.0382232666015625
1772538599579570000,8.55256982421875,-1.0019378662109375,-0.070037841796875,-0.042633056640625
1772538599589585000,8.5625849609375,-1.008270263671875,-0.064117431640625,-0.0361328125
1772538599599599900,8.572599853515625,-1.0120697021484375,-0.064971923828125,-0.024017333984375
1772538599609614800,8.58261474609375,-1.0081939697265625,-0.06915283203125,-0.0183563232421875
1772538599619630800,8.592630859375,-0.9982147216796875,-0.069671630859375,-0.0189666748046875
1772538599629645800,8.602645751953125,-0.9930419921875,-0.068023681640625,-0.0223388671875
1772538599639660800,8.612660888671876,-0.989410400390625,-0.068389892578125,-0.0240631103515625
1772538599649676800,8.6226767578125,-0.98736572265625,-0.0692596435546875,-0.0260162353515625
1772538599659691800,8.63269189453125,-0.9822540283203125,-0.070281982421875,-0.0272369384765625
1772538599669706800,8.642706787109375,-0.9819488525390625,-0.07403564453125,-0.02734375
1772538599679722800,8.65272265625,-0.98675537109375,-0.076934814453125,-0.029632568359375
1772538599689737700,8.66273779296875,-0.9965362548828125,-0.0741424560546875,-0.029693603515625
1772538599699752700,8.672752685546875,-1.003662109375,-0.07147216796875,-0.0327606201171875
1772538599709768700,8.682768798828125,-1.0071868896484375,-0.0675811767578125,-0.0318756103515625
1772538599719783700,8.69278369140625,-1.0074920654296875,-0.069305419921875,-0.032684326171875
1772538599729799000,8.702798828125,-1.0010986328125,-0.072784423828125,-0.033966064453125
1772538599739814700,8.712814697265625,-0.996185302734375,-0.0745697021484375,-0.033843994140625
1772538599749830000,8.722829833984376,-0.9950408935546875,-0.0746307373046875,-0.0339202880859375
1772538599759844900,8.732844970703125,-0.9950408935546875,-0.07684326171875,-0.032806396484375
1772538599769860900,8.74286083984375,-0.99444580078125,-0.0757293701171875,-0.0326080322265625
1772538599779875800,8.752875732421876,-0.99365234375,-0.0739288330078125,-0.0378570556640625
1772538599789890800,8.762890869140625,-0.9940948486328125,-0.0743408203125,-0.0402069091796875
1772538599799906800,8.77290673828125,-0.9900665283203125,-0.074676513671875,-0.038909912109375
1772538599809921800,8.782921875,-0.99151611328125,-0.073699951171875,-0.0319976806640625
1772538599819936800,8.792936767578125,-0.997955322265625,-0.0714263916015625,-0.0311279296875
1772538599829952800,8.802952880859374,-1.0020904541015625,-0.0671234130859375,-0.034088134765625
1772538599839967700,8.8129677734375,-1.0028839111328125,-0.0668182373046875,-0.0365447998046875
1772538599849982700,8.822982666015625,-1.002166748046875,-0.067535400390625,-0.0369110107421875
1772538599859998700,8.832998779296876,-0.9943084716796875,-0.06695556640625,-0.0346221923828125
1772538599870013700,8.843013671875,-0.9886627197265625,-0.070831298828125,-0.0308074951171875
1772538599880028700,8.853028564453124,-0.9885406494140625,-0.0723724365234375,-0.0306549072265625
1772538599890044700,8.863044677734376,-0.9921417236328125,-0.0719451904296875,-0.0298919677734375
1772538599900059600,8.8730595703125,-0.9958953857421875,-0.0699462890625,-0.0290374755859375
1772538599910074600,8.88307470703125,-0.997314453125,-0.0716400146484375,-0.0291748046875
1772538599920089600,8.893089599609375,-0.999725341796875,-0.0741729736328125,-0.0290069580078125
1772538599930105600,8.903105712890625,-0.9999237060546875,-0.0746307373046875,-0.0304412841796875
1772538599940120600,8.91312060546875,-0.9989166259765625,-0.07623291015625,-0.031463623046875
1772538599950135800,8.9231357421875,-0.9972381591796875,-0.0753173828125,-0.0352020263671875
1772538599960151800,8.93315185546875,-0.9962158203125,-0.0728607177734375,-0.0367279052734375
1772538599970166800,8.943166748046876,-1.000640869140625,-0.0747222900390625,-0.0367889404296875
1772538599980181800,8.953181640625,-1.0037689208984375,-0.075439453125,-0.03704833984375
1772538599990198000,8.963197998046875,-1.00543212890625,-0.0718536376953125,-0.0354156494140625
1772538600000213000,8.973212890625,-1.0054779052734375,-0.069610595703125,-0.0370025634765625
1772538600010227700,8.983227783203125,-1.00152587890625,-0.073333740234375,-0.03753662109375
1772538600020244000,8.993243896484374,-0.99951171875,-0.073089599609375,-0.039337158203125
1772538600030259000,9.003259033203125,-0.996002197265625,-0.0736083984375,-0.0420989990234375
1772538600040274000,9.01327392578125,-0.9910430908203125,-0.073974609375,-0.043243408203125
1772538600050290000,9.0232900390625,-0.985015869140625,-0.0738525390625,-0.0403900146484375
1772538600060305000,9.033304931640625,-0.985870361328125,-0.0747222900390625,-0.0371551513671875
1772538600070319900,9.04331982421875,-0.99200439453125,-0.0736083984375,-0.0345916748046875
1772538600080336000,9.0533359375,-0.9952392578125,-0.06866455078125,-0.036041259765625
1772538600090350800,9.063350830078125,-0.9998016357421875,-0.065216064453125,-0.035308837890625
1772538600100365800,9.07336572265625,-1.0038909912109375,-0.0636444091796875,-0.0362548828125
1772538600110381800,9.0833818359375,-1.003265380859375,-0.0631256103515625,-0.035247802734375
1772538600120396800,9.093396728515625,-1.00054931640625,-0.0622711181640625,-0.03411865234375
1772538600130411800,9.103411865234374,-0.9970245361328125,-0.0638275146484375,-0.0318145751953125
1772538600140427800,9.113427734375,-0.991180419921875,-0.0654296875,-0.03070068359375
1772538600150442800,9.12344287109375,-0.9881134033203125,-0.065460205078125,-0.0316925048828125
1772538600160457700,9.133457763671874,-0.9916839599609375,-0.06207275390625,-0.034698486328125
1772538600170473000,9.143472900390625,-0.99468994140625,-0.061614990234375,-0.0378265380859375
1772538600180488700,9.15348876953125,-0.995941162109375,-0.061126708984375,-0.03955078125
1772538600190504000,9.16350390625,-0.995849609375,-0.0640869140625,-0.0364990234375
1772538600200519000,9.173518798828125,-0.994842529296875,-0.065338134765625,-0.0340728759765625
1772538600210535000,9.183534912109375,-0.992919921875,-0.066497802734375,-0.032745361328125
1772538600220550000,9.1935498046875,-0.9882965087890625,-0.0659027099609375,-0.0320281982421875
1772538600230564900,9.20356494140625,-0.9904937744140625,-0.064849853515625,-0.030426025390625
1772538600240580900,9.213580810546874,-1.0002899169921875,-0.0649261474609375,-0.0328826904296875
1772538600250595800,9.223595947265625,-1.006072998046875,-0.06414794921875,-0.0354461669921875
1772538600260610800,9.23361083984375,-1.0069580078125,-0.062225341796875,-0.0375518798828125
1772538600270626800,9.243626708984374,-1.00225830078125,-0.0673828125,-0.0380706787109375
1772538600280641800,9.253641845703125,-0.994415283203125,-0.07244873046875,-0.0361175537109375
1772538600290656800,9.26365673828125,-0.98785400390625,-0.07550048828125,-0.036712646484375
1772538600300672800,9.2736728515625,-0.9853057861328125,-0.07440185546875,-0.039276123046875
1772538600310687700,9.283687744140625,-0.9863433837890625,-0.0716705322265625,-0.0380859375
1772538600320702700,9.29370263671875,-0.9964752197265625,-0.073486328125,-0.036529541015625
1772538600330718700,9.30371875,-1.00439453125,-0.07171630859375,-0.041015625
1772538600340733700,9.313733642578125,-1.0047149658203125,-0.0702362060546875,-0.0391082763671875
1772538600351374800,9.324374755859376,-1.0044097900390625,-0.0716705322265625,-0.0342559814453125
1772538600361390800,9.334390869140625,-0.9996337890625,-0.072723388671875,-0.0312042236328125
1772538600371405800,9.34440576171875,-0.9987030029296875,-0.075225830078125,-0.0294342041015625
1772538600381420800,9.3544208984375,-1.004913330078125,-0.075439453125,-0.03460693359375
1772538600391436800,9.364436767578125,-1.0145111083984375,-0.0721282958984375,-0.0433807373046875
1772538600401451800,9.37445166015625,-1.0166168212890625,-0.0679931640625,-0.0447845458984375
1772538600411466800,9.384466796875,-1.0191802978515625,-0.0690155029296875,-0.0413665771484375
1772538600421482800,9.394482666015625,-1.0114288330078125,-0.07318115234375,-0.0352325439453125
1772538600431497700,9.404497802734374,-1.00079345703125,-0.0756988525390625,-0.031494140625
1772538600441512700,9.4145126953125,-0.991180419921875,-0.0748291015625,-0.0339202880859375
1772538600451528000,9.42452783203125,-0.990264892578125,-0.0755462646484375,-0.0380096435546875
1772538600461543700,9.434543701171876,-0.9922943115234375,-0.07391357421875,-0.04095458984375
1772538600471559000,9.444558837890625,-0.988372802734375,-0.073577880859375,-0.0434417724609375
1772538600481574000,9.454573974609374,-0.98944091796875,-0.075103759765625,-0.0420379638671875
1772538600491590000,9.46458984375,-0.985595703125,-0.0766143798828125,-0.0374908447265625
1772538600501604900,9.47460498046875,-0.9833526611328125,-0.074462890625,-0.037017822265625
1772538600511619800,9.484619873046874,-0.989532470703125,-0.071563720703125,-0.03558349609375
1772538600521635800,9.4946357421875,-0.9952545166015625,-0.065521240234375,-0.034942626953125
1772538600531650800,9.50465087890625,-0.9971160888671875,-0.0615386962890625,-0.029998779296875
1772538600541665800,9.514665771484376,-0.99853515625,-0.065399169921875,-0.0248565673828125
1772538600551681800,9.524681884765625,-0.9959716796875,-0.068389892578125,-0.0218048095703125
1772538600561696800,9.53469677734375,-0.9936065673828125,-0.0688629150390625,-0.0186004638671875
1772538600571711700,9.544711669921876,-0.9943389892578125,-0.06866455078125,-0.01922607421875
1772538600581727700,9.554727783203125,-0.99859619140625,-0.0673828125,-0.021240234375
1772538600591742700,9.56474267578125,-1.0053863525390625,-0.0657196044921875,-0.0229339599609375
1772538600601757700,9.5747578125,-1.0025787353515625,-0.0642547607421875,-0.0284423828125
1772538600611773700,9.584773681640625,-1.0004425048828125,-0.0640106201171875,-0.031341552734375
1772538600621788700,9.59478857421875,-0.997161865234375,-0.06634521484375,-0.0268096923828125
1772538600631803600,9.6048037109375,-0.996673583984375,-0.06536865234375,-0.0245513916015625
1772538600641819600,9.614819580078125,-0.995697021484375,-0.063720703125,-0.0245513916015625
1772538600651834600,9.624834716796874,-0.99462890625,-0.0623779296875,-0.0253448486328125
1772538600661849900,9.634849853515625,-0.99639892578125,-0.0609893798828125,-0.0264434814453125
1772538600671864800,9.64486474609375,-0.9940185546875,-0.0601654052734375,-0.029693603515625
1772538600681880800,9.654880859375,-0.990081787109375,-0.0614776611328125,-0.0322113037109375
1772538600692521500,9.665521484375,-0.98944091796875,-0.063323974609375,-0.035858154296875
1772538600702536700,9.67553662109375,-0.9873046875,-0.0653533935546875,-0.03680419921875
1772538600712552700,9.685552734375,-0.984466552734375,-0.06475830078125,-0.0381622314453125
1772538600722567700,9.695567626953125,-0.9876556396484375,-0.066070556640625,-0.04083251953125
1772538600732582700,9.705582763671876,-0.99053955078125,-0.065216064453125,-0.0428619384765625
1772538600742597600,9.71559765625,-0.9936370849609375,-0.0652923583984375,-0.042388916015625
1772538600752614000,9.72561376953125,-0.9957427978515625,-0.0628814697265625,-0.044158935546875
1772538600762628600,9.735628662109375,-0.99456787109375,-0.05889892578125,-0.04498291015625
1772538600772643600,9.7456435546875,-0.99664306640625,-0.061248779296875,-0.0381011962890625
1772538600782659800,9.755659912109374,-1.002899169921875,-0.0634918212890625,-0.0387420654296875
1772538600792674800,9.7656748046875,-1.0047454833984375,-0.0611419677734375,-0.044189453125
1772538600802689500,9.775689453125,-1.00347900390625,-0.059112548828125,-0.0497283935546875
1772538600812705800,9.785705810546874,-1.004608154296875,-0.062713623046875,-0.051361083984375
1772538600822720800,9.795720703125,-1.0043182373046875,-0.0662841796875,-0.0471649169921875
1772538600832735700,9.80573583984375,-0.9998016357421875,-0.0631103515625,-0.0437164306640625
1772538600842751700,9.815751708984376,-0.995391845703125,-0.0604248046875,-0.03863525390625
1772538600852766700,9.8257666015625,-0.99127197265625,-0.0626678466796875,-0.034149169921875
1772538600862781700,9.83578173828125,-0.98455810546875,-0.0665283203125,-0.0335540771484375
1772538600872797700,9.845797607421876,-0.9815216064453125,-0.0686798095703125,-0.0323944091796875
1772538600882812700,9.855812744140625,-0.9777984619140625,-0.073150634765625,-0.0349273681640625
1772538600892827600,9.86582763671875,-0.9765625,-0.0732421875,-0.037506103515625
1772538600902843600,9.87584375,-0.981903076171875,-0.0731201171875,-0.0376739501953125
1772538600912858600,9.885858642578125,-0.99029541015625,-0.073822021484375,-0.03765869140625
1772538600922873900,9.895873779296876,-0.9960174560546875,-0.0751190185546875,-0.035430908203125
1772538600932888800,9.905888916015625,-1.0012054443359375,-0.073944091796875,-0.0321502685546875
1772538600942904800,9.91590478515625,-1.0050048828125,-0.074859619140625,-0.0300445556640625
1772538600952919800,9.925919921875,-1.004425048828125,-0.0768890380859375,-0.0273284912109375
1772538600962934800,9.935934814453125,-1.000091552734375,-0.0775909423828125,-0.027069091796875
1772538600972950800,9.94595068359375,-0.9946746826171875,-0.0768585205078125,-0.0254058837890625
1772538600982965800,9.9559658203125,-0.991058349609375,-0.07635498046875,-0.0217742919921875
1772538600992980700,9.965980712890625,-0.98858642578125,-0.07501220703125,-0.019012451171875
1772538601002996700,9.975996826171874,-0.9913177490234375,-0.07208251953125,-0.0152740478515625
1772538601013011700,9.98601171875,-0.99505615234375,-0.06744384765625,-0.018524169921875
1772538601023026700,9.996026611328125,-0.99896240234375,-0.06195068359375,-0.0243988037109375
1772538601033042700,10.006042724609374,-1.0021209716796875,-0.0600738525390625,-0.024505615234375
1772538601043057700,10.0160576171875,-1.0058441162109375,-0.0600433349609375,-0.02545166015625
1772538601053072600,10.02607275390625,-1.0081329345703125,-0.0594329833984375,-0.024200439453125
1772538601063088600,10.036088623046876,-1.009521484375,-0.0555877685546875,-0.0228271484375
1772538601073103600,10.046103515625,-1.011077880859375,-0.053192138671875,-0.02532958984375
1772538601083118600,10.05611865234375,-1.0095367431640625,-0.0498199462890625,-0.0245513916015625
1772538601093134600,10.066134521484376,-1.0073699951171875,-0.04815673828125,-0.0207366943359375
1772538601103149600,10.076149658203125,-1.0052490234375,-0.0495147705078125,-0.016387939453125
1772538601113164500,10.08616455078125,-0.9981536865234375,-0.047393798828125,-0.0202789306640625
1772538601123179800,10.0961796875,-0.9918670654296875,-0.0489959716796875,-0.025238037109375
1772538601133195500,10.106195556640625,-0.9911041259765625,-0.05389404296875,-0.034393310546875
1772538601143210800,10.116210693359376,-0.989349365234375,-0.057342529296875,-0.0395965576171875
1772538601153225700,10.126225830078125,-0.9881744384765625,-0.0615386962890625,-0.0473175048828125
1772538601163241700,10.13624169921875,-0.9835968017578125,-0.063446044921875,-0.0523529052734375
1772538601173256700,10.146256591796876,-0.9811553955078125,-0.06524658203125,-0.05279541015625
1772538601183271700,10.156271728515625,-0.9824371337890625,-0.0705718994140625,-0.05047607421875
1772538601193287700,10.16628759765625,-0.98681640625,-0.0711517333984375,-0.0471649169921875
1772538601203302700,10.176302734375,-0.991607666015625,-0.06805419921875,-0.0456085205078125
1772538601213317600,10.186317626953125,-1.001373291015625,-0.0672149658203125,-0.0424041748046875
1772538601223333600,10.196333740234374,-1.0078277587890625,-0.0662689208984375,-0.0418243408203125
1772538601233348600,10.2063486328125,-1.0080108642578125,-0.064788818359375,-0.046051025390625
1772538601243363600,10.216363525390625,-1.0101776123046875,-0.0667877197265625,-0.0464019775390625
1772538601253379600,10.226379638671874,-1.011077880859375,-0.0693359375,-0.048919677734375
1772538601263394600,10.23639453125,-1.0087127685546875,-0.069305419921875,-0.0453033447265625
1772538601273409500,10.246409423828124,-1.00836181640625,-0.068328857421875,-0.04046630859375
1772538601283424500,10.256424560546876,-1.0072021484375,-0.0640411376953125,-0.033935546875
1772538601293440500,10.2664404296875,-1.006622314453125,-0.0621795654296875,-0.0275726318359375
1772538601303455500,10.27645556640625,-1.0059356689453125,-0.0622406005859375,-0.02508544921875
1772538601313470700,10.286470703125,-1.0036163330078125,-0.06298828125,-0.0271453857421875
1772538601323486500,10.296486572265625,-1.0004425048828125,-0.0621337890625,-0.033111572265625
1772538601333501700,10.306501708984374,-0.9992828369140625,-0.062591552734375,-0.036468505859375
1772538601343516700,10.3165166015625,-0.9982452392578125,-0.0607757568359375,-0.0395050048828125
1772538601353532700,10.32653271484375,-0.9940948486328125,-0.0601043701171875,-0.0347137451171875
1772538601363547600,10.336547607421876,-0.99273681640625,-0.0623016357421875,-0.02923583984375
1772538601373562600,10.346562744140625,-0.990875244140625,-0.062591552734375,-0.0250244140625
1772538601383579000,10.356578857421875,-0.989166259765625,-0.0605316162109375,-0.02825927734375
1772538601393593600,10.366593505859376,-0.99310302734375,-0.054840087890625,-0.0277557373046875
1772538601403608600,10.376608642578125,-1.00164794921875,-0.0567626953125,-0.0262603759765625
1772538601413623600,10.38662353515625,-1.0032806396484375,-0.0555572509765625,-0.0247344970703125
1772538601423639800,10.396639892578126,-1.0029144287109375,-0.0551300048828125,-0.021087646484375
1772538601433654800,10.40665478515625,-1.0024261474609375,-0.05413818359375,-0.0204620361328125
1772538601443669500,10.41666943359375,-0.9969940185546875,-0.055999755859375,-0.0212249755859375
1772538601453685800,10.426685791015625,-0.9934539794921875,-0.057769775390625,-0.0253143310546875
1772538601463700700,10.43670068359375,-0.9951629638671875,-0.057708740234375,-0.029754638671875
1772538601473715700,10.4467158203125,-0.99664306640625,-0.0601654052734375,-0.033935546875
1772538601483731700,10.456731689453125,-0.9989166259765625,-0.05914306640625,-0.033416748046875
1772538601493746700,10.46674658203125,-1.0007781982421875,-0.058807373046875,-0.0269622802734375
1772538601503761700,10.47676171875,-0.9996795654296875,-0.059722900390625,-0.0250396728515625
1772538601513777700,10.486777587890625,-0.99554443359375,-0.0608367919921875,-0.0271148681640625
1772538601523792600,10.496792724609374,-0.996063232421875,-0.0631103515625,-0.029327392578125
1772538601533807900,10.506807861328125,-0.993896484375,-0.0619354248046875,-0.02911376953125
1772538601543823400,10.5168232421875,-0.997100830078125,-0.0616302490234375,-0.0297698974609375
1772538601553838300,10.52683837890625,-0.9937591552734375,-0.0634918212890625,-0.0313720703125
1772538601563853300,10.536853271484375,-0.989166259765625,-0.06341552734375,-0.0296783447265625
1772538601573868300,10.546868408203125,-0.98883056640625,-0.0636444091796875,-0.03240966796875
1772538601583884300,10.55688427734375,-0.995941162109375,-0.0629119873046875,-0.0332794189453125
1772538601593899300,10.566899169921875,-1.00469970703125,-0.05975341796875,-0.0332489013671875
1772538601603914200,10.576914306640624,-1.0107879638671875,-0.05743408203125,-0.0301971435546875
1772538601613930200,10.58693017578125,-1.015228271484375,-0.059295654296875,-0.02520751953125
1772538601623945200,10.5969453125,-1.0143280029296875,-0.05950927734375,-0.0231781005859375
1772538601633960200,10.606960205078124,-1.00897216796875,-0.0570526123046875,-0.021331787109375
1772538601643976200,10.61697607421875,-1.0030975341796875,-0.0566253662109375,-0.023651123046875
1772538601653991200,10.6269912109375,-0.9960784912109375,-0.059173583984375,-0.0285491943359375
1772538601664006100,10.637006103515626,-0.9918060302734375,-0.0646209716796875,-0.0384979248046875
1772538601674022100,10.647022216796875,-0.991973876953125,-0.0682220458984375,-0.0491180419921875
1772538601684037000,10.657037109375,-0.9987945556640625,-0.0662689208984375,-0.04937744140625
1772538601694052000,10.667052001953126,-1.0028839111328125,-0.06219482421875,-0.0399932861328125
1772538601704068000,10.677068115234375,-1.0087127685546875,-0.0657196044921875,-0.032073974609375
1772538601714083000,10.6870830078125,-1.0026397705078125,-0.0641021728515625,-0.0416259765625
1772538601724098300,10.697098388671876,-1.008209228515625,-0.0734100341796875,-0.0556488037109375
1772538601734113300,10.70711328125,-1.01837158203125,-0.0775604248046875,-0.0472869873046875
1772538601744129300,10.71712939453125,-0.986114501953125,-0.0672607421875,-0.0436553955078125
1772538601754144300,10.727144287109375,-0.942779541015625,-0.0498046875,-0.027374267578125
1772538601764159200,10.7371591796875,-0.9719696044921875,-0.0370635986328125,0.0058441162109375
1772538601774175200,10.74717529296875,-1.0182647705078125,-0.0870513916015625,0.031982421875
1772538601784190200,10.757190185546875,-0.9261932373046875,-0.106903076171875,0.0117034912109375
1772538601794205200,10.767205078125,-0.9293365478515625,-0.0803985595703125,-0.0078582763671875
1772538601804221200,10.77722119140625,-0.969696044921875,-0.072357177734375,-0.0317230224609375
1772538601814236200,10.787236083984375,-0.9904937744140625,-0.087127685546875,-0.0525665283203125
1772538601824251100,10.797251220703124,-1.0090179443359375,-0.0935821533203125,-0.0536956787109375
1772538601834267100,10.80726708984375,-1.0126495361328125,-0.0874481201171875,-0.0522918701171875
1772538601844282000,10.8172822265625,-0.99603271484375,-0.07379150390625,-0.0388946533203125
