time,seconds_elapsed,z,y,x
1772538591086542600,0.05954248046875,0.020767347887158394,-0.03823636472225189,-0.000034411903470754623
1772538591096557600,0.0695576171875,0.0006394426454789937,-0.021113568916916847,0.012467797845602036
1772538591106573800,0.07957373046875,-0.02320822700858116,-0.01516718976199627,0.02449963241815567
1772538591116588500,0.089588623046875,-0.03178760036826134,0.007341315038502216,0.023188823834061623
1772538591126603500,0.099603515625,-0.02935713902115822,0.016561364755034447,0.011909659020602703
1772538591136619800,0.109619873046875,-0.014739048667252064,0.02000935934484005,0.0036874155048280954
1772538591146634800,0.119634765625,0.009784610942006111,0.015719087794423103,0.001709631411358714
1772538591156650800,0.129650634765625,0.029913581907749176,-0.00405515031889081,0.0007423711940646172
1772538591166665700,0.139665771484375,0.04571104049682617,-0.03409760072827339,-0.0019444874487817287
1772538591176680700,0.1496806640625,0.04594007506966591,-0.04021541401743889,0.005777081940323114
1772538591186696700,0.15969677734375,0.03639811649918556,-0.019983991980552673,0.005310548935085535
1772538591196711700,0.169711669921875,0.027084244415163994,0.011505757458508015,-0.0023612193763256073
1772538591206727700,0.179727783203125,0.02194826304912567,0.03667999058961868,-0.007603412959724665
1772538591216742700,0.18974267578125,0.013190191239118576,0.04137807339429855,-0.0020693643018603325
1772538591226758000,0.1997578125,0.0019246841548010707,0.02858847565948963,0.005895116366446018
1772538591236773600,0.209773681640625,0.00005727563984692097,0.010695493780076504,0.012450753711163998
1772538591246788900,0.219788818359375,0.004274732433259487,-0.00237494008615613,0.014352277852594852
1772538591256803800,0.229803955078125,0.016032055020332336,-0.00912951584905386,0.0028287796303629875
1772538591266819800,0.23981982421875,0.027655823156237602,-0.013517857529222965,-0.012410479597747326
1772538591276834800,0.249834716796875,0.03871086984872818,-0.012828364968299866,-0.014010240323841572
1772538591286850800,0.259850830078125,0.040903240442276,-0.013321425765752792,-0.002855764701962471
1772538591296865800,0.26986572265625,0.032078057527542114,-0.009501387365162373,0.015430564060807228
1772538591306880800,0.279880859375,0.02915664203464985,0.005873639136552811,0.029779408127069473
1772538591316896800,0.289896728515625,0.03210689499974251,0.01629032753407955,0.03410331532359123
1772538591326911700,0.299911865234375,0.029802586883306503,0.006961734965443611,0.030489202588796616
1772538591336927700,0.309927734375,0.02828112244606018,-0.010980513878166676,0.021282121539115906
1772538591346942700,0.319942626953125,0.028113551437854767,-0.023871198296546936,0.016504555940628052
1772538591356957700,0.329957763671875,0.028879210352897644,-0.028687525540590286,0.015265388414263725
1772538591366973700,0.3399736328125,0.024740062654018402,-0.030706418678164482,0.008454469963908195
1772538591376988700,0.34998876953125,0.017597731202840805,-0.03147101029753685,-0.0005472810007631779
1772538591387004700,0.360004638671875,0.01696055568754673,-0.024815132841467857,-0.012485989369452
1772538591397019600,0.37001953125,0.019697751849889755,-0.023541875183582306,-0.021024882793426514
1772538591407034600,0.38003466796875,0.01797529309988022,-0.028070248663425446,-0.01968291960656643
1772538591417050600,0.390050537109375,0.012275595217943192,-0.030659109354019165,-0.011936316266655922
1772538591427065600,0.400065673828125,0.002543804468587041,-0.029164016246795654,-0.006217650603502989
1772538591437081900,0.410081787109375,0.000327788176946342,-0.022901326417922974,-0.0058557274751365185
1772538591447096800,0.420096923828125,-0.0010667075403034687,-0.013288091868162155,-0.010523095726966858
1772538591457111600,0.430111572265625,-0.0019649919122457504,-0.008278952911496162,-0.022405587136745453
1772538591467127800,0.4401279296875,-0.002139762509614229,-0.0014287770027294755,-0.025037530809640884
1772538591477142800,0.450142822265625,-0.003552569542080164,0.0032067210413515568,-0.018862459808588028
1772538591487157800,0.46015771484375,-0.0013917528558522463,0.005919084884226322,-0.0013713468797504902
1772538591497173800,0.470173828125,-0.00218857079744339,0.0047414349392056465,0.02035658434033394
1772538591507188700,0.480188720703125,0.001887467224150896,0.0023619369603693485,0.04075716435909271
1772538591517204700,0.490204833984375,0.003941829781979322,0.0022114687599241734,0.04952508956193924
1772538591527219700,0.5002197265625,0.0054046339355409145,0.014214564114809036,0.04396843910217285
1772538591537234700,0.510234619140625,0.012240968644618988,0.0272976104170084,0.030092570930719376
1772538591547250700,0.520250732421875,0.01784905232489109,0.03896864876151085,0.015112821012735367
1772538591557265700,0.530265625,0.020164404064416885,0.03336695581674576,0.008560912683606148
1772538591567281700,0.54028173828125,0.016877131536602974,0.018826346844434738,0.009792476892471313
1772538591577296600,0.550296630859375,0.009440253488719463,0.002203161595389247,0.01669805496931076
1772538591587311900,0.560311767578125,0.005783749278634787,-0.0023551967460662127,0.02380034327507019
1772538591597327600,0.57032763671875,0.007442898582667112,0.011671938933432102,0.027258191257715225
1772538591607342800,0.5803427734375,0.013397458009421825,0.03051244467496872,0.02361176162958145
1772538591617358600,0.590358642578125,0.0201264675706625,0.03473089262843132,0.017077695578336716
1772538591627373600,0.60037353515625,0.02555312030017376,0.02451363578438759,0.005645309574902058
1772538591637388800,0.610388916015625,0.03463263809680939,0.01215417217463255,-0.007460105698555708
1772538591647404800,0.62040478515625,0.04030269756913185,-0.00599506963044405,-0.02373095229268074
1772538591657419800,0.630419677734375,0.040458761155605316,-0.019876796752214432,-0.03439504653215408
1772538591667434800,0.640434814453125,0.04227582737803459,-0.016338875517249107,-0.03747561201453209
1772538591677451000,0.650450927734375,0.04959632456302643,0.003346146084368229,-0.03193517401814461
1772538591687466000,0.660466064453125,0.05174270272254944,0.03619282320141792,-0.024029135704040527
1772538591697482000,0.67048193359375,0.04909099265933037,0.06192854419350624,-0.008321811445057392
1772538591707497000,0.6804970703125,0.049310050904750824,0.07217784970998764,0.010595148429274559
1772538591717512000,0.690511962890625,0.04688284546136856,0.06821320205926895,0.02997603639960289
1772538591727528000,0.70052783203125,0.04483027383685112,0.06032805144786835,0.04405936971306801
1772538591737543000,0.71054296875,0.0474175326526165,0.06159917265176773,0.04123295843601227
1772538591747559000,0.720558837890625,0.055260010063648224,0.06321491301059723,0.02644309028983116
1772538591757574000,0.730573974609375,0.06355283409357071,0.05060165002942085,0.010798882693052292
1772538591767588900,0.7405888671875,0.06531677395105362,0.033627476543188095,-0.000819808803498745
1772538591777604900,0.75060498046875,0.06395936757326126,0.011683296412229538,-0.011517727747559547
1772538591787619800,0.760619873046875,0.05895780399441719,-0.005206573288887739,-0.01992396079003811
1772538591797634800,0.770634765625,0.051947832107543945,-0.010650606825947762,-0.0308234803378582
1772538591807650800,0.78065087890625,0.04125305265188217,0.0038219187408685684,-0.03557838127017021
1772538591817665800,0.790665771484375,0.031169258058071136,0.0217127688229084,-0.03579782694578171
1772538591827681800,0.800681884765625,0.017842456698417664,0.030172176659107208,-0.028043020516633987
1772538591837696800,0.81069677734375,0.0037639224901795387,0.030338089913129807,-0.01500684767961502
1772538591847711700,0.820711669921875,-0.003698247019201517,0.02972245402634144,-0.013504473492503166
1772538591857727700,0.830727783203125,0.0004962318344041705,0.025748219341039658,-0.016548199579119682
1772538591867742700,0.84074267578125,0.006249719765037298,0.020780833438038826,-0.021323837339878082
1772538591877758700,0.8507587890625,0.008014862425625324,0.021119054406881332,-0.0186684001237154
1772538591887773700,0.860773681640625,0.0064318799413740635,0.030535725876688957,-0.01396765373647213
1772538591897788700,0.87078857421875,-0.0007807592046447098,0.031608980149030685,-0.013682164251804352
1772538591907804700,0.8808046875,-0.0013356817653402686,0.024700094014406204,-0.01547625195235014
1772538591917819600,0.890819580078125,0.0047738756984472275,0.012386170215904713,-0.02008431777358055
1772538591927834600,0.900834716796875,0.005515295080840588,0.009806574322283268,-0.0242005567997694
1772538591937850600,0.9108505859375,0.0008483715355396271,0.016736384481191635,-0.029278406873345375
1772538591947865600,0.920865478515625,0.0005779362400062382,0.030594510957598686,-0.02807256206870079
1772538591957881600,0.930881591796875,0.003706884104758501,0.03568008169531822,-0.018582653254270554
1772538591967896600,0.940896484375,0.005278795957565308,0.02604321576654911,-0.007281876634806395
1772538591977911800,0.950911865234375,0.008232241496443748,0.007471663877367973,0.0007571415044367313
1772538591987927600,0.960927490234375,0.009995000436902046,-0.012068867683410645,-0.004334945697337389
1772538591997942800,0.97094287109375,0.0188116617500782,-0.016121400520205498,-0.010871142148971558
1772538592007958800,0.980958740234375,0.02217455767095089,-0.011367256753146648,-0.013334561139345169
1772538592017974000,0.99097412109375,0.016230912879109383,-0.002391871064901352,-0.01784435845911503
1772538592027989000,1.000989013671875,0.008647244423627853,0.02271018736064434,-0.0257052481174469
1772538592038005000,1.0110048828125,0.003387235105037689,0.03619164228439331,-0.03207206726074219
1772538592048020000,1.02102001953125,-0.0028840540908277035,0.033254317939281464,-0.031207125633955002
1772538592058036000,1.031035888671875,-0.003913898020982742,0.023999033495783806,-0.03204415738582611
1772538592068051000,1.041051025390625,-0.0028658746741712093,0.016565123572945595,-0.022624321281909943
1772538592078066000,1.05106591796875,0.00474437465891242,0.008331427350640297,-0.014286231249570847
1772538592088082000,1.06108203125,0.010752858594059944,-0.0004837089218199253,-0.004407970700412989
1772538592098097000,1.071096923828125,0.011909736320376396,-0.004195622634142637,-0.001399397850036621
1772538592108112000,1.08111181640625,0.009898779913783073,-0.0021796394139528275,-0.0025762771256268024
1772538592118127900,1.0911279296875,0.0026893368922173977,0.006727568805217743,-0.014935741201043129
1772538592128142800,1.101142822265625,-0.002092312555760145,0.02503269538283348,-0.02054719440639019
1772538592138158800,1.111158935546875,-0.004023903049528599,0.0414540134370327,-0.019796980544924736
1772538592148173800,1.121173828125,-0.005057123489677906,0.038468554615974426,-0.009180683642625809
1772538592158188800,1.131188720703125,-0.005826244130730629,0.021668005734682083,0.0014013866893947124
1772538592168204800,1.141204833984375,0.000685776409227401,0.0022987546399235725,0.005932077765464783
1772538592178219800,1.1512197265625,0.008475788868963718,-0.00722257886081934,0.002619638107717037
1772538592188235800,1.16123583984375,0.011044682003557682,-0.0015158697497099638,-0.007140228990465403
1772538592198250800,1.171250732421875,0.010221499018371105,0.016863401979207993,-0.013861782848834991
1772538592208265700,1.181265625,0.006041527725756168,0.026793725788593292,-0.01881866157054901
1772538592218281700,1.19128173828125,0.0006811171188019216,0.021986985579133034,-0.024491194635629654
1772538592228296700,1.201296630859375,-0.0036136952694505453,0.004686300177127123,-0.026827912777662277
1772538592238311700,1.211311767578125,-0.006072591990232468,-0.012517986819148064,-0.028607435524463654
1772538592248327700,1.22132763671875,-0.008179279044270515,-0.020693019032478333,-0.03246215730905533
1772538592258342700,1.2313427734375,-0.005607730709016323,-0.02242673560976982,-0.03691416233778
1772538592268358700,1.241358642578125,0.003047475591301918,-0.01552542857825756,-0.038128506392240524
1772538592278373600,1.25137353515625,0.0050842612981796265,-0.0017403742531314492,-0.047404561191797256
1772538592288388600,1.261388671875,0.007294262293726206,0.02231490984559059,-0.046945538371801376
1772538592298404600,1.271404541015625,0.0109795443713665,0.03644830733537674,-0.04293268918991089
1772538592308419600,1.281419677734375,0.009200572036206722,0.03231421858072281,-0.033028461039066315
1772538592318434800,1.291434814453125,0.008248492144048214,0.025143394246697426,-0.021368343383073807
1772538592328450600,1.301450439453125,0.01201420184224844,0.019546227529644966,-0.009104220196604729
1772538592338465800,1.3114658203125,0.0157743189483881,0.007317791692912579,0.002011015312746167
1772538592348481800,1.321481689453125,0.015217455103993416,0.0006026604678481817,0.006096865516155958
1772538592358497000,1.3314970703125,0.010264507494866848,0.005619789939373732,0.001905582845211029
1772538592368511700,1.34151171875,0.007684710901230574,0.01932290568947792,-0.009797592647373676
1772538592378528000,1.351528076171875,0.00623515248298645,0.025679070502519608,-0.03133191168308258
1772538592388543000,1.36154296875,0.007003520615398884,0.02339145727455616,-0.041590962558984756
1772538592398559000,1.37155908203125,0.008875456638634205,0.016868576407432556,-0.04307913780212402
1772538592408574000,1.381573974609375,0.008220536634325981,0.0008884754497557878,-0.03502468019723892
1772538592418589000,1.3915888671875,0.004602366127073765,-0.006624301895499229,-0.025407208129763603
1772538592428605000,1.40160498046875,0.00040980568155646324,-0.0027506062760949135,-0.011711305007338524
1772538592438620000,1.411619873046875,-0.011139791458845139,-0.0030571362003684044,-0.004062439780682325
1772538592448635000,1.421634765625,-0.022508297115564346,0.0011106813326478004,-0.0036352970637381077
1772538592458651000,1.43165087890625,-0.024248672649264336,0.0053344545885920525,-0.012288972735404968
1772538592468665900,1.441665771484375,-0.026596643030643463,-0.00031619612127542496,-0.02425224892795086
1772538592478681900,1.451681884765625,-0.026076793670654297,0.003935008309781551,-0.038669537752866745
1772538592488696800,1.46169677734375,-0.022922540083527565,0.01588759943842888,-0.04467011243104935
1772538592498711800,1.4717119140625,-0.019682805985212326,0.023153236135840416,-0.04406158626079559
1772538592508727800,1.481727783203125,-0.01659781113266945,0.0224700178951025,-0.030817795544862747
1772538592518742800,1.49174267578125,-0.02281229756772518,0.014659765176475048,-0.014835633337497711
1772538592528758000,1.501758056640625,-0.024637755006551743,0.009848039597272873,0.0000745430588722229
1772538592538773000,1.51177294921875,-0.017846960574388504,0.01169281080365181,0.009662454947829247
1772538592548788000,1.5217880859375,-0.010025723837316036,0.009219245053827763,0.009388062171638012
1772538592558804000,1.531803955078125,-0.006310880649834871,0.0010579877998679876,0.00134345144033432
1772538592568819000,1.54181884765625,-0.002304025460034609,-0.0002163792960345745,-0.013276414014399052
1772538592578834200,1.551834228515625,0.005308354273438454,-0.0014259869931265712,-0.03568878024816513
1772538592588850000,1.561849853515625,0.010079476982355118,0.0007597063668072224,-0.05493734031915665
1772538592598865200,1.571865234375,0.013505367562174797,-0.00018678116612136364,-0.06389940530061722
1772538592608881000,1.581880859375,0.01182158850133419,-0.006767141632735729,-0.05637367442250252
1772538592618896100,1.591896240234375,0.003484562272205949,-0.008994077332317829,-0.037765901535749435
1772538592628911000,1.6019111328125,-0.0013123906683176756,-0.011698524467647076,-0.01378354150801897
1772538592638927000,1.611927001953125,-0.002617339603602886,-0.011615433730185032,0.007809900678694248
1772538592648942000,1.621942138671875,0.0006376456585712731,-0.010632159188389778,0.020637251436710358
1772538592658957000,1.63195703125,-0.0003961934125982225,-0.007294951006770134,0.023149145767092705
1772538592668973000,1.64197314453125,-0.005021714139729738,0.0059067681431770325,0.018784258514642715
1772538592678988000,1.651988037109375,-0.006967952474951744,0.020608749240636826,0.010768143460154533
1772538592689004000,1.662004150390625,-0.01098106149584055,0.026110395789146423,0.006593989208340645
1772538592699019000,1.67201904296875,-0.0149534335359931,0.02241738885641098,0.007870708592236042
1772538592709034000,1.682033935546875,-0.011947918683290482,0.020158272236585617,0.013753274455666542
1772538592719050000,1.692050048828125,-0.008474357426166534,0.018627755343914032,0.01560497097671032
1772538592729065000,1.70206494140625,-0.0060719894245266914,0.014000210911035538,0.011267511174082756
1772538592739081200,1.712081298828125,-0.0016010748222470284,0.013002058491110802,0.004890838172286749
1772538592749096200,1.72209619140625,0.0032929438166320324,0.002772257197648287,-0.0011673173867166042
1772538592759111000,1.73211083984375,0.0051291934214532375,-0.01467837207019329,-0.003077602479606867
1772538592769127200,1.742127197265625,0.005754637997597456,-0.025211958214640617,-0.007660223636776209
1772538592779142100,1.75214208984375,-0.0010630541946738958,-0.026453258469700813,-0.01709393970668316
1772538592789157000,1.7621572265625,-0.003424941562116146,-0.019217412918806076,-0.0323253870010376
1772538592799173000,1.772173095703125,-0.0009234347380697727,-0.004534074105322361,-0.04599326103925705
1772538592809188000,1.78218798828125,0.005292573943734169,0.010675941593945026,-0.05183732882142067
1772538592819204000,1.7922041015625,0.009254825301468372,0.012068775482475758,-0.041825175285339355
1772538592829219000,1.802218994140625,0.008395162411034107,-0.0005518859252333641,-0.028377484530210495
1772538592839234000,1.812234130859375,0.009368281811475754,-0.020012136548757553,-0.016048116609454155
1772538592849250000,1.82225,0.008602162823081017,-0.03282799944281578,-0.010955886915326118
1772538592859265000,1.83226513671875,0.011067184619605541,-0.04246944561600685,-0.007926808670163155
1772538592869280000,1.842280029296875,0.013101371005177498,-0.042665742337703705,-0.010131727904081345
1772538592879296000,1.8522958984375,0.015735238790512085,-0.02836562879383564,-0.01991165243089199
1772538592889311000,1.86231103515625,0.017295852303504944,-0.00943212304264307,-0.02585447020828724
1772538592899327000,1.872326904296875,0.014884093776345253,0.00042956206016242504,-0.025179624557495117
1772538592909342000,1.882342041015625,0.002069958485662937,0.005471155978739262,-0.019686024636030197
1772538592919357200,1.892357177734375,-0.004273957572877407,0.002703865058720112,-0.01284755952656269
1772538592929373000,1.902373046875,-0.005353202112019062,-0.0011648943182080984,-0.004726901184767485
1772538592939388200,1.91238818359375,-0.010764745995402336,-0.006514385808259249,0.0006769187748432159
1772538592949403100,1.922403076171875,-0.009176770225167274,-0.004788132384419441,0.004902882035821676
1772538592959419100,1.932419189453125,-0.004698930773884058,0.0027909581549465656,0.006185194477438927
1772538592969434000,1.94243408203125,0.00267237052321434,0.0058800093829631805,0.0014640593435615301
1772538592979450000,1.9524501953125,0.005250310525298119,-0.001364853698760271,-0.0022664968855679035
1772538592989465000,1.962465087890625,0.007456849329173565,-0.011841980740427971,-0.005009394604712725
1772538592999480000,1.97247998046875,0.012386360205709934,-0.011463278904557228,-0.00518889119848609
1772538593009496000,1.98249609375,0.017327072098851204,-0.007951752282679081,-0.0015894877724349499
1772538593019511000,1.992510986328125,0.017203500494360924,-0.0027058576233685017,0.010106583125889301
1772538593029527000,2.002527099609375,0.007603735662996769,-0.00005416339263319969,0.02186162769794464
1772538593039542000,2.0125419921875,0.0016182808903977275,0.004327002912759781,0.03022129088640213
1772538593049557000,2.022556884765625,0.0016171482857316732,0.009888474829494953,0.02754167839884758
1772538593059573000,2.032572998046875,0.012269526720046997,0.0099942022934556,0.0174978319555521
1772538593069588000,2.042587890625,0.024283189326524734,0.0144590949639678,0.0039034264627844095
1772538593079603000,2.05260302734375,0.03039700724184513,0.017951032146811485,-0.0023709810338914394
1772538593089619200,2.062619140625,0.028362348675727844,0.019731326028704643,0.003210177179425955
1772538593099634000,2.072634033203125,0.026644345372915268,0.01761358045041561,0.011574367061257362
1772538593109650200,2.082650146484375,0.02327750436961651,0.0035557516384869814,0.015865255147218704
1772538593119665200,2.0926650390625,0.022046059370040894,-0.01818123646080494,0.01625487580895424
1772538593129680100,2.10268017578125,0.025875011458992958,-0.029286690056324005,0.013192037120461464
1772538593139696000,2.112696044921875,0.02546222135424614,-0.037643689662218094,0.006112555041909218
1772538593149711000,2.122711181640625,0.02110249549150467,-0.029369499534368515,-0.0017265789210796356
1772538593159726000,2.13272607421875,0.017950112000107765,-0.009613372385501862,0.0004353756085038185
1772538593169742000,2.1427421875,0.011423520743846893,-0.005635203793644905,0.010458115488290787
1772538593179757000,2.152757080078125,0.005438065622001886,-0.013692065142095089,0.024050090461969376
1772538593189773000,2.16277294921875,0.004395360592752695,-0.017570285126566887,0.03704040125012398
1772538593199788000,2.1727880859375,0.004828923381865025,-0.01645015925168991,0.046661872416734695
1772538593209803000,2.182802978515625,0.005725746508687735,-0.015889786183834076,0.044074516743421555
1772538593219819000,2.192819091796875,0.0028583211824297905,-0.014961407519876957,0.02954750880599022
1772538593229834000,2.202833984375,-0.0000780936679802835,-0.019263358786702156,0.0137990303337574
1772538593239849200,2.21284912109375,-0.00003974413266405463,-0.029431840404868126,-0.003596471156924963
1772538593249865000,2.222864990234375,0.001569009618833661,-0.033335715532302856,-0.012993053533136845
1772538593259880200,2.232880126953125,0.002579945605248213,-0.025370201095938683,-0.016707364469766617
1772538593269896000,2.24289599609375,0.0017068996094167233,-0.016050418838858604,-0.013030221685767174
1772538593279911200,2.2529111328125,-0.007825086824595928,-0.00964551605284214,-0.003225260879844427
1772538593289926100,2.262926025390625,-0.013886522501707077,-0.004849318414926529,0.01164441742002964
1772538593299942100,2.272942138671875,-0.016948889940977097,-0.00024444679729640484,0.02747770957648754
1772538593309957000,2.28295703125,-0.01787278801202774,-0.0011140351416543126,0.03832182288169861
1772538593319972000,2.29297216796875,-0.012177087366580963,-0.0013129732105880976,0.047866061329841614
1772538593329988000,2.302988037109375,-0.005232437048107386,-0.007882288657128811,0.04965914040803909
1772538593340003000,2.313003173828125,-0.0028928504325449467,-0.016421448439359665,0.04108429700136185
1772538593350019000,2.32301904296875,-0.001998754683881998,-0.01652977243065834,0.024993475526571274
1772538593360034000,2.333033935546875,0.0058666253462433815,-0.00590562354773283,0.012100312858819962
1772538593370049000,2.343049072265625,0.0074791498482227325,-0.002679944969713688,0.0023638647980988026
1772538593380065000,2.35306494140625,0.007632547989487648,-0.012903288006782532,-0.000957896001636982
1772538593390080000,2.363080078125,0.005626482889056206,-0.016840999945998192,0.0018061562441289425
1772538593400095000,2.373094970703125,0.009209766983985901,-0.017333419993519783,0.010530405677855015
1772538593410111000,2.383111083984375,0.010131476446986198,-0.016425397247076035,0.021226610988378525
1772538593420126000,2.3931259765625,0.009705636650323868,-0.01077789906412363,0.030811861157417297
1772538593430142000,2.403141845703125,0.008509810082614422,-0.000613419571891427,0.037035729736089706
1772538593440157000,2.413156982421875,0.005776874255388975,0.0029312479309737682,0.04015881568193436
1772538593450172000,2.423171875,-0.000045726774260401726,0.0009543981868773699,0.03700178489089012
1772538593460188200,2.433188232421875,-0.00398587342351675,-0.0005944964941591024,0.023842308670282364
1772538593470203100,2.443203125,-0.004238007590174675,0.006928142160177231,0.0013097766786813736
1772538593480219100,2.45321923828125,-0.003210294060409069,0.010253897868096828,-0.016359496861696243
1772538593490234000,2.463234130859375,-0.007058900780975819,0.0072958581149578094,-0.02602144330739975
1772538593500249000,2.4732490234375,-0.004058583173900843,-0.000046476954594254494,-0.02482382021844387
1772538593510265000,2.48326513671875,0.0012329965829849243,-0.0022551706060767174,-0.011486448347568512
1772538593520280000,2.493280029296875,0.007995028980076313,-0.003366773948073387,0.004494648426771164
1772538593530295600,2.503295654296875,0.013938386924564838,-0.002793335821479559,0.017770040780305862
1772538593540311600,2.5133115234375,0.014393520541489124,0.005975920706987381,0.02714143879711628
1772538593550326500,2.523326416015625,0.013413752429187298,0.014518898911774158,0.02056378312408924
1772538593560342500,2.533342529296875,0.014790606684982777,0.0009927034843713045,0.0056048063561320305
1772538593570357500,2.543357421875,0.02385665848851204,-0.013092121109366417,-0.003658754751086235
1772538593580372500,2.55337255859375,0.022687263786792755,-0.013758443295955658,-0.007228189148008823
1772538593590388500,2.563388427734375,0.009027063846588135,-0.011529975570738316,-0.007406364660710096
1772538593600403500,2.573403564453125,-0.00038055324694141746,-0.004854496102780104,-0.002636376302689314
1772538593610418400,2.58341845703125,-0.0035831527784466743,0.004285841248929501,0.006537924986332655
1772538593620434400,2.593434326171875,-0.003383415751159191,0.005494650453329086,0.010602973401546478
1772538593630449400,2.603449462890625,-0.0017911146860569715,-0.0012240023352205753,0.01427837461233139
1772538593640465400,2.61346533203125,0.0018526222556829453,-0.003919387701898813,0.017305057495832443
1772538593650480400,2.62348046875,0.004674465395510197,-0.007572718895971775,0.021153105422854424
1772538593660495600,2.63349560546875,0.002726629376411438,-0.002672502538189292,0.023221317678689957
1772538593670511400,2.643511474609375,-0.000775909167714417,0.006754918489605188,0.029260603711009026
1772538593680526600,2.653526611328125,-0.002200167626142502,0.0013407114893198013,0.035032473504543304
1772538593690541600,2.66354150390625,0.0007883671205490828,-0.009515908546745777,0.033566225320100784
1772538593700557600,2.6735576171875,0.005400163121521473,-0.02069106511771679,0.0257133599370718
1772538593710572500,2.683572509765625,0.0063541182316839695,-0.024624701589345932,0.012526566162705421
1772538593720588500,2.693588623046875,0.00652243010699749,-0.026987725868821144,0.0013988136779516935
1772538593730603500,2.703603515625,0.008914929814636707,-0.022093551233410835,0.002672493690624833
1772538593740618500,2.713618408203125,0.010000967420637608,-0.01616775244474411,0.019182493910193443
1772538593750634500,2.723634521484375,0.006753850728273392,-0.021187713369727135,0.0375165194272995
1772538593760649500,2.7336494140625,0.0018246059771627188,-0.025112414732575417,0.05080755800008774
1772538593770664400,2.74366455078125,0.00030939895077608526,-0.021212495863437653,0.04535112529993057
1772538593780680700,2.7536806640625,0.003510518465191126,-0.01391623541712761,0.029134605079889297
1772538593790695400,2.7636953125,0.006225014105439186,-0.016227835789322853,0.006308472715318203
1772538593800711700,2.773711669921875,0.0043019456788897514,-0.022749118506908417,-0.005168686620891094
1772538593810726700,2.7837265625,0.006728017702698708,-0.028306078165769577,-0.004683930892497301
1772538593820741600,2.79374169921875,0.00878983736038208,-0.036357879638671875,0.00570319639518857
1772538593830757600,2.803757568359375,0.012036291882395744,-0.04324406757950783,0.015668895095586777
1772538593840772600,2.813772705078125,0.012243486940860748,-0.035823699086904526,0.019927555695176125
1772538593850787600,2.82378759765625,0.012252874672412872,-0.02168204076588154,0.008789092302322388
1772538593860803600,2.833803466796875,0.0193435400724411,0.0009489681106060743,0.0007966789416968822
1772538593870818600,2.843818603515625,0.019612446427345276,0.013422881253063679,-0.0037357513792812824
1772538593880834600,2.85383447265625,0.011747866868972778,0.007292816415429115,-0.00021159043535590172
1772538593890849500,2.863849609375,0.007912053726613522,-0.00425299908965826,0.006115396972745657
1772538593900864500,2.873864501953125,0.004160192795097828,-0.019780026748776436,0.010005209594964981
1772538593910880500,2.883880615234375,0.003975971601903439,-0.030697084963321686,0.00039622699841856956
1772538593920895500,2.8938955078125,0.005746974144130945,-0.03871027007699013,-0.016218969598412514
1772538593930910500,2.903910400390625,0.009020529687404633,-0.02719665691256523,-0.029119350016117096
1772538593940926500,2.913926513671875,0.008983511477708817,-0.013437701389193535,-0.02132480964064598
1772538593950941400,2.92394140625,0.011176359839737415,-0.015251285396516323,-0.006002816837280989
1772538593960957400,2.93395751953125,0.0077794985845685005,-0.01183258555829525,0.014030013233423233
1772538593970972400,2.943972412109375,0.009308487176895142,-0.007418653927743435,0.031454216688871384
1772538593980987600,2.953987548828125,0.010207570157945156,-0.011101007461547852,0.030027031898498535
1772538593991003400,2.96400341796875,0.012735579162836075,-0.019433993846178055,0.016725249588489532
1772538594001018600,2.9740185546875,0.008121652528643608,-0.023293711245059967,-0.0025240792892873287
1772538594011033600,2.98403369140625,-0.0020590173080563545,-0.015565537847578526,-0.020245136693120003
1772538594021049600,2.994049560546875,-0.008685761131346226,-0.015614273957908154,-0.026499036699533463
1772538594031064600,3.004064697265625,-0.016247067600488663,-0.015915395691990852,-0.01805161125957966
1772538594041080600,3.01408056640625,-0.01586863212287426,-0.015261589549481869,-0.0036841235123574734
1772538594051095600,3.024095458984375,-0.013485854491591454,-0.018891148269176483,0.01860308274626732
1772538594061110500,3.034110595703125,-0.013004887849092484,-0.040674205869436264,0.029875710606575012
1772538594071126500,3.04412646484375,-0.002010951517149806,-0.023521509021520615,0.03029829077422619
1772538594081141500,3.0541416015625,0.004017380066215992,0.0006948802620172501,0.021180160343647003
1772538594091156500,3.064156494140625,0.002332734176889062,0.01215316727757454,0.011433225125074387
1772538594101172500,3.07417236328125,-0.005759546998888254,0.024524616077542305,0.009598840028047562
1772538594111187500,3.0841875,-0.01409119088202715,0.03030063584446907,0.0118077602237463
1772538594121203700,3.09420361328125,-0.014623557217419147,0.03630499914288521,0.013393938541412354
1772538594131218400,3.104218505859375,-0.012653267942368984,0.03538449853658676,0.013587897643446922
1772538594141233400,3.1142333984375,-0.011046316474676132,0.020412474870681763,0.00782907847315073
1772538594151249700,3.124249755859375,-0.0038625800516456366,-0.0017051530303433537,0.002125182654708624
1772538594161264600,3.1342646484375,-0.0030175591818988323,-0.023024288937449455,-0.01148143969476223
1772538594171279400,3.144279296875,-0.0029565198346972466,-0.03934241831302643,-0.02552209235727787
1772538594181295600,3.154295654296875,-0.002910713432356715,-0.037591926753520966,-0.03383701294660568
1772538594191310600,3.164310546875,0.00009267654968425632,-0.02970593236386776,-0.039657384157180786
1772538594201325600,3.17432568359375,0.0010652629425749183,-0.017949141561985016,-0.04029867425560951
1772538594211341600,3.184341552734375,0.007957992143929005,-0.000675590243190527,-0.033793285489082336
1772538594221356500,3.1943564453125,0.015678761526942253,0.005599349737167358,-0.024465562775731087
1772538594231372500,3.20437255859375,0.021090630441904068,0.008870961144566536,-0.010694500058889389
1772538594241387500,3.214387451171875,0.029449492692947388,0.012791134417057037,0.007128172088414431
1772538594251402500,3.224402587890625,0.026357505470514297,0.013768595643341541,0.018331967294216156
1772538594261418500,3.23441845703125,0.018333667889237404,0.014374998398125172,0.0196816585958004
1772538594271433500,3.24443359375,0.012466390617191792,0.018517805263400078,0.012159619480371475
1772538594281448700,3.25444873046875,0.011055714450776577,0.01990504562854767,-0.0010169027373194695
1772538594291464400,3.26446435546875,0.016543623059988022,0.020992673933506012,-0.0208898838609457
1772538594301479700,3.274479736328125,0.017833923920989037,0.020525554195046425,-0.036432892084121704
1772538594311495400,3.284495361328125,0.014526555314660072,0.018577303737401962,-0.04273301735520363
1772538594321510700,3.2945107421875,0.011010649614036083,0.019607681781053543,-0.043006524443626404
1772538594331525600,3.304525634765625,0.003695400897413492,0.01927119866013527,-0.036891959607601166
1772538594341541600,3.314541748046875,-0.004102601204067469,0.017511380836367607,-0.028165046125650406
1772538594351556600,3.324556640625,0.000301936554023996,0.019854985177516937,-0.015675000846385956
1772538594361571600,3.334571533203125,0.008163854479789734,0.0213218554854393,0.002085620304569602
1772538594371587600,3.344587646484375,0.011110776104032993,0.012455407530069351,0.01920616626739502
1772538594381602600,3.3546025390625,0.013584586791694164,-0.0021890494972467422,0.026770874857902527
1772538594391618600,3.36461865234375,0.01729782484471798,-0.009036392904818058,0.02717345952987671
1772538594401633500,3.374633544921875,0.017827793955802917,-0.009766630828380585,0.022936638444662094
1772538594411648500,3.3846484375,0.0077708447352051735,-0.01092043798416853,0.013105778023600578
1772538594421664500,3.39466455078125,-0.007911978289484978,-0.006431679241359234,-0.008532139472663403
1772538594431679500,3.404679443359375,-0.018774550408124924,0.0012309970334172249,-0.03624789044260979
1772538594441694500,3.414694580078125,-0.022314690053462982,0.009921424090862274,-0.06069304794073105
1772538594451710500,3.42471044921875,-0.022210296243429184,0.009581041522324085,-0.07485203444957733
1772538594461725400,3.434725341796875,-0.019525829702615738,0.005542092025279999,-0.07269061356782913
1772538594471741400,3.444741455078125,-0.023064836859703064,0.00282940361648798,-0.059255026280879974
1772538594481756400,3.45475634765625,-0.02900288812816143,0.005296290386468172,-0.04154207557439804
1772538594491771400,3.464771484375,-0.02929842472076416,0.005494259297847748,-0.024522854015231133
1772538594501787600,3.47478759765625,-0.020073501393198967,0.006277761422097683,-0.006798453163355589
1772538594511802400,3.48480224609375,-0.010180204175412655,-0.006837131921201944,0.0033547673374414444
1772538594521817300,3.4948173828125,-0.002550780074670911,-0.018087923526763916,0.005895422771573067
1772538594531833900,3.504833740234375,0.005606675520539284,-0.015393669717013836,-0.0003254516050219536
1772538594541848800,3.514848876953125,0.004065237939357758,-0.007214303128421307,-0.0019742147997021675
1772538594551863800,3.52486376953125,-0.004377237521111965,-0.012661679647862911,-0.0010702256113290787
1772538594561879800,3.5348798828125,-0.014703644439578056,-0.01965833455324173,0.005137869156897068
1772538594571894800,3.544894775390625,-0.022935619577765465,-0.022786324843764305,0.007534749340265989
1772538594581910800,3.554910888671875,-0.03138556331396103,-0.03435376286506653,0.003906458616256714
1772538594591925800,3.56492578125,-0.03386969119310379,-0.032335314899683,-0.00528254359960556
1772538594601941000,3.57494091796875,-0.02941928058862686,-0.007444081362336874,-0.017763979732990265
1772538594611956700,3.584956787109375,-0.023859258741140366,0.015884753316640854,-0.024957241490483284
1772538594621972000,3.594971923828125,-0.023566577583551407,0.016243746504187584,-0.02908274531364441
1772538594631987000,3.604987060546875,-0.02808796614408493,0.007037656381726265,-0.02929733321070671
1772538594642003000,3.6150029296875,-0.03171306103467941,-0.006154046393930912,-0.0289873406291008
1772538594652018000,3.625017822265625,-0.026547720655798912,-0.023960132151842117,-0.020159291103482246
1772538594662034000,3.635033935546875,-0.016078833490610123,-0.03270888328552246,-0.012243309989571571
1772538594672049000,3.645048828125,-0.0038926093839108944,-0.03370252251625061,-0.0012137102894484997
1772538594682064000,3.65506396484375,-0.002393249422311783,-0.019723057746887207,0.007264995947480202
1772538594692080000,3.665080078125,-0.0012714562471956015,-0.0012611892307177186,0.015232343226671219
1772538594702095000,3.67509521484375,-0.006921618245542049,0.008109409362077713,0.017086436972022057
1772538594712109800,3.68510986328125,-0.01402474008500576,0.010992228984832764,0.016495099291205406
1772538594722126000,3.6951259765625,-0.02161421626806259,0.0075005581602454185,0.014210905879735947
1772538594732141000,3.70514111328125,-0.022427139803767204,0.0026656638365238905,0.007361991330981255
1772538594742156000,3.715156005859375,-0.022891061380505562,-0.0010760773438960314,-0.0004626424051821232
1772538594752172000,3.725172119140625,-0.018982339650392532,-0.006871648132801056,-0.013541160151362419
1772538594762187000,3.73518701171875,-0.015869105234742165,-0.01156333927065134,-0.024363981559872627
1772538594772203000,3.745203125,-0.015195595100522041,-0.01606597565114498,-0.03142111748456955
1772538594782218000,3.755218017578125,-0.014838198199868202,-0.01624520681798458,-0.03522065281867981
1772538594792233000,3.76523291015625,-0.021167337894439697,-0.01042118389159441,-0.031235937029123306
1772538594802249000,3.7752490234375,-0.029415681958198547,0.0017372115980833769,-0.020997947081923485
1772538594812264000,3.785263916015625,-0.03407541289925575,0.013030345551669598,-0.013374116271734238
1772538594822279000,3.79527880859375,-0.03238110989332199,0.027115005999803543,-0.00693512661382556
1772538594832295000,3.805294921875,-0.02455221302807331,0.03547096997499466,-0.005457310006022453
1772538594842310000,3.815309814453125,-0.009302953258156776,0.0379040353000164,-0.0076075466349720955
1772538594852326000,3.825325927734375,0.0006586684030480683,0.03808353841304779,-0.011280104517936707
1772538594862340900,3.8353408203125,0.007504057139158249,0.034865908324718475,-0.01671614870429039
1772538594872355800,3.84535595703125,0.011771700344979763,0.030921433120965958,-0.013534466736018658
1772538594882371800,3.855371826171875,0.016820253804326057,0.020540431141853333,-0.0034434841945767403
1772538594892386800,3.86538671875,0.01748829521238804,0.006747516803443432,0.014096900820732117
1772538594902402000,3.875402099609375,0.019403373822569847,-0.004287024959921837,0.030638327822089195
1772538594912417800,3.885417724609375,0.019869651645421982,-0.0024627631064504385,0.029353665187954903
1772538594922433000,3.89543310546875,0.019580433145165443,0.0037322824355214834,0.009651599451899529
1772538594932448000,3.905447998046875,0.021310411393642426,0.01771615631878376,-0.020562075078487396
1772538594942464000,3.915464111328125,0.015663711354136467,0.025312025099992752,-0.054145071655511856
1772538594952479000,3.92547900390625,0.006605226546525955,0.02983611263334751,-0.07698895037174225
1772538594962495000,3.935494873046875,0.006644907407462597,0.033716604113578796,-0.08072935789823532
1772538594972510000,3.945510009765625,0.016934242099523544,0.032420024275779724,-0.06473557651042938
1772538594982525000,3.95552490234375,0.017545435577630997,0.019959092140197754,-0.032740622758865356
1772538594992541000,3.965541015625,0.018446452915668488,0.008626047521829605,0.0019571371376514435
1772538595002556000,3.975555908203125,0.015919113531708717,-0.001816206844523549,0.020572366192936897
1772538595012571000,3.98557080078125,0.018910102546215057,-0.005272813607007265,0.018797552213072777
1772538595022587000,3.9955869140625,0.021538909524679184,0.003908434417098761,0.001934682484716177
1772538595032601900,4.005601806640625,0.022015949711203575,0.01587458699941635,-0.014568692073225975
1772538595042616800,4.015616943359375,0.017995109781622887,0.021840069442987442,-0.0214601531624794
1772538595052632800,4.0256328125,0.01194752100855112,0.02552652172744274,-0.01341482438147068
1772538595062647800,4.035647705078125,0.009092878550291061,0.021865207701921463,0.0020826428662985563
1772538595072664000,4.0456640625,0.005322586745023727,0.008898125030100346,0.015504878014326096
1772538595082679000,4.055678955078125,-0.00007963570533320308,-0.005794268101453781,0.020855169743299484
1772538595092693800,4.06569384765625,-0.004399889148771763,-0.014661597087979317,0.015210604295134544
1772538595102710000,4.0757099609375,-0.004706152714788914,-0.015368666499853134,0.0022828211076557636
1772538595112725000,4.08572509765625,-0.0057347966358065605,-0.008308079093694687,-0.014022503048181534
1772538595122740000,4.095739990234375,-0.006706850603222847,0.003441521432250738,-0.0329008512198925
1772538595132756000,4.105755859375,-0.014758368022739887,0.01734313741326332,-0.04559117555618286
1772538595142771000,4.11577099609375,-0.01830356754362583,0.02304709516465664,-0.04570196568965912
1772538595152787000,4.125786865234375,-0.028282303363084793,0.017005402594804764,-0.03802664577960968
1772538595162802000,4.135802001953125,-0.03648856654763222,0.0093445535749197,-0.02346101775765419
1772538595172817000,4.14581689453125,-0.04147842898964882,-0.006588362157344818,-0.01265936903655529
1772538595182833000,4.1558330078125,-0.04212770611047745,-0.028096050024032593,-0.008953580632805824
1772538595192848000,4.165847900390625,-0.03243877366185188,-0.034838687628507614,-0.011549227871000767
1772538595202863000,4.175863037109375,-0.020601820200681686,-0.028114207088947296,-0.017390340566635132
1772538595212878800,4.18587890625,-0.008031756617128849,-0.018735239282250404,-0.01856435462832451
1772538595222894000,4.19589404296875,0.0007542786770500243,-0.02112675830721855,-0.015245523303747177
1772538595232909000,4.205908935546875,-0.0021910485811531544,-0.026545802131295204,-0.008194182068109512
1772538595242925000,4.215925048828125,-0.008187954314053059,-0.024009674787521362,-0.0053496588952839375
1772538595252940000,4.22593994140625,-0.01481789629906416,-0.00663630710914731,-0.009299954399466515
1772538595262956000,4.2359560546875,-0.021804967895150185,0.007639301009476185,-0.021140366792678833
1772538595272971000,4.245970947265625,-0.03005365841090679,0.017910156399011612,-0.034104716032743454
1772538595282986000,4.255986083984375,-0.0343107208609581,0.021532855927944183,-0.04378344118595123
1772538595293002000,4.266001953125,-0.03436204791069031,0.025410454720258713,-0.058620747178792953
1772538595303017000,4.276016845703125,-0.027118250727653503,0.03207341581583023,-0.07846981287002563
1772538595313032000,4.286031982421875,-0.0014321148628368974,0.03129032626748085,-0.07637131214141846
1772538595323048000,4.2960478515625,0.009984857402741909,0.03447839617729187,-0.047101039439439774
1772538595333063000,4.30606298828125,0.0073384735733270645,0.028601597994565964,-0.016414234414696693
1772538595343078000,4.316077880859375,-0.0019964384846389294,0.009328566491603851,0.008003756403923035
1772538595353094000,4.326093994140625,-0.009168462827801704,-0.004862604197114706,0.01646902784705162
1772538595363108900,4.33610888671875,-0.012229233980178833,0.0012980862520635128,0.007061145268380642
1772538595373123800,4.346123779296875,-0.011526177637279034,0.01744731515645981,-0.011842673644423485
1772538595383139800,4.356139892578125,-0.008287773467600346,0.02239733189344406,-0.03174421191215515
1772538595393154800,4.36615478515625,-0.007804596796631813,0.028333913534879684,-0.045226145535707474
1772538595403170800,4.3761708984375,-0.012009728699922562,0.03566346317529678,-0.05000705271959305
1772538595413185800,4.386185791015625,-0.015106791630387306,0.035498280078172684,-0.04507487267255783
1772538595423200800,4.39620068359375,-0.0154292993247509,0.031110456213355064,-0.03363579511642456
1772538595433216800,4.406216796875,-0.01597791723906994,0.027784906327724457,-0.020276904106140137
1772538595443231700,4.416231689453125,-0.01400238461792469,0.022242069244384766,-0.006281194277107716
1772538595453246700,4.426246826171875,-0.013706150464713573,0.017814280465245247,-0.000022333581000566483
1772538595463263000,4.436262939453125,-0.013999630697071552,0.018104564398527145,-0.0002138148993253708
1772538595473277700,4.446277587890625,-0.013064282014966011,0.023090597242116928,-0.010692012496292591
1772538595483294000,4.4562939453125,-0.010834150947630405,0.03056289441883564,-0.01872250810265541
1772538595493309000,4.466308837890625,-0.00976515468209982,0.03425140306353569,-0.025350555777549744
1772538595503324000,4.476323974609375,-0.010868236422538757,0.04073353856801987,-0.026753244921565056
1772538595513340000,4.48633984375,-0.010685677640140057,0.0426882840692997,-0.022373022511601448
1772538595523355000,4.49635498046875,-0.011026562191545963,0.04516449198126793,-0.015962794423103333
1772538595533370400,4.506370361328125,-0.01009452622383833,0.053942762315273285,-0.012008767575025558
1772538595543386000,4.51638623046875,-0.012614143081009388,0.06275463104248047,-0.014763807877898216
1772538595553401300,4.5264013671875,-0.008481045253574848,0.06453339755535126,-0.026247182860970497
1772538595563416300,4.536416259765625,-0.00542373675853014,0.05673912912607193,-0.04167194664478302
1772538595573432300,4.546432373046875,0.0017158001428470016,0.04661354050040245,-0.05297185853123665
1772538595583447300,4.556447265625,0.007911644876003265,0.03343541920185089,-0.05719057098031044
1772538595593462300,4.566462158203125,0.014151500537991524,0.01805863156914711,-0.05791950970888138
1772538595603478300,4.576478271484375,0.015108374878764153,0.006445916369557381,-0.05257853865623474
1772538595613493200,4.5864931640625,0.020371979102492332,0.0027675433084368706,-0.04475858062505722
1772538595623509200,4.59650927734375,0.01957196556031704,-0.00006046728231012821,-0.0314616821706295
1772538595633524200,4.606524169921875,0.017295489087700844,-0.0007249864283949137,-0.020021598786115646
1772538595643539200,4.616539306640625,0.014425666071474552,0.008825375698506832,-0.012114141136407852
1772538595653555200,4.62655517578125,0.0142873739823699,0.01507601235061884,-0.007019509095698595
1772538595663570200,4.636570068359375,0.01877906173467636,0.019216161221265793,-0.002729156520217657
1772538595673585200,4.646585205078125,0.01541117299348116,0.011837190017104149,-0.00025757262483239174
1772538595683601200,4.65660107421875,0.007500519510358572,0.00931997038424015,-0.00025464314967393875
1772538595693616000,4.6666162109375,0.0003012636152561754,0.014262004755437374,0.0009602317586541176
1772538595703631000,4.676631103515625,-0.002527013421058655,0.023633934557437897,0.002633229596540332
1772538595713647000,4.686647216796875,-0.008154477924108505,0.022885801270604134,0.0013808952644467354
1772538595723662000,4.696662109375,-0.011124434880912304,0.013940509408712387,-0.002231682650744915
1772538595733678000,4.706677978515625,-0.008686583489179611,0.005126716569066048,-0.0066941301338374615
1772538595743693000,4.716693115234375,-0.004593570716679096,-0.005619138013571501,-0.007867518812417984
1772538595753708000,4.7267080078125,-0.005034058354794979,-0.00900295004248619,-0.0044213891960680485
1772538595763724000,4.73672412109375,-0.007761667482554913,-0.011536149308085442,0.001757943769916892
1772538595773739000,4.746739013671875,-0.016220781952142715,-0.007911155000329018,0.006423023529350758
1772538595783754000,4.75675390625,-0.01805303618311882,-0.002356866141781211,0.008492032997310162
1772538595793770000,4.76677001953125,-0.01688898168504238,0.005542482249438763,0.01574956625699997
1772538595803785000,4.776784912109375,-0.0112569285556674,0.005399736575782299,0.026429109275341034
1772538595813800200,4.78680029296875,-0.009081459604203701,0.0049009183421730995,0.03716091066598892
1772538595823816000,4.79681591796875,-0.007410858757793903,0.007174725644290447,0.03956441208720207
1772538595833831200,4.8068310546875,-0.002490944229066372,0.005056621506810188,0.03385637700557709
1772538595843846100,4.81684619140625,0.0017285681096836925,-0.00850259605795145,0.024756088852882385
1772538595853862400,4.8268623046875,0.0048623220063745975,-0.027918517589569092,0.011533338576555252
1772538595863877000,4.836877197265625,0.001971727004274726,-0.03192524239420891,-0.0017451830208301544
1772538595873893400,4.846893310546875,-0.006010887678712606,-0.023857349529862404,-0.009674573317170143
1772538595883908400,4.856908447265625,-0.014922888949513435,-0.013416958972811699,-0.012935878708958626
1772538595893923300,4.86692333984375,-0.018289286643266678,-0.002659408375620842,-0.013361850753426552
1772538595903939300,4.876939208984375,-0.022425975650548935,0.00003437907434999943,-0.008926888927817345
1772538595913954300,4.886954345703125,-0.02515791356563568,-0.0022673988714814186,-0.005317979026585817
1772538595923969300,4.89696923828125,-0.021752528846263885,-0.0005118430126458406,-0.0024271178990602493
1772538595933985300,4.9069853515625,-0.022825906053185463,0.004075027070939541,-0.005428269971162081
1772538595944000300,4.917000244140625,-0.019703615456819534,0.010827206075191498,-0.005801379214972258
1772538595954015200,4.92701513671875,-0.013702120631933212,0.015795543789863586,-0.0054720621556043625
1772538595964031200,4.93703125,-0.009186198934912682,0.01936764270067215,-0.0016975635662674904
1772538595974046200,4.947046142578125,-0.011957946233451366,0.01645524799823761,0.0021567975636571646
1772538595984061200,4.957061279296875,-0.018892550840973854,0.015077328309416771,0.004824486095458269
1772538595994077200,4.9670771484375,-0.019671453163027763,0.01172021683305502,0.009324424900114536
1772538596004092200,4.977092041015625,-0.025419088080525398,0.0027091444935649633,0.008704174309968948
1772538596014108200,4.987108154296875,-0.027256129309535027,0.006721523590385914,0.0052794055081903934
1772538596024123100,4.997123046875,-0.022199319675564766,0.01659465953707695,-0.004409173969179392
1772538596034138000,5.00713818359375,-0.01773514784872532,0.019218215718865395,-0.006527293473482132
1772538596044154000,5.017154052734375,-0.011636774986982346,0.01629779301583767,-0.0031823627650737762
1772538596054169000,5.027169189453125,-0.00954505242407322,0.007712927646934986,-0.003786078654229641
1772538596064184000,5.03718408203125,-0.003608066588640213,-0.0041551836766302586,-0.004397273994982243
1772538596074200000,5.047199951171875,0.0038427873514592648,-0.008958240039646626,-0.0035257963463664055
1772538596084215000,5.057215087890625,0.008627689443528652,-0.0054926685988903046,-0.001697269268333912
1772538596094230300,5.067230224609375,0.011301233433187008,-0.004466050770133734,0.001552824629470706
1772538596104246000,5.07724609375,-0.008773408830165863,-0.03684396296739578,0.007290604989975691
1772538596114261200,5.08726123046875,0.005689640529453754,-0.018313750624656677,0.010615283623337746
1772538596124277000,5.097277099609375,0.004465118981897831,-0.00863848626613617,-0.004206805489957333
1772538596134292200,5.107292236328125,-0.0015237454790621996,-0.0015951016684994102,-0.013462821021676064
1772538596144307200,5.11730712890625,-0.01234736479818821,0.017673935741186142,-0.01848580874502659
1772538596154323200,5.1273232421875,-0.01397915929555893,0.018449081107974052,-0.020583871752023697
1772538596164338200,5.137338134765625,-0.009600125253200531,0.02016921527683735,-0.01319919154047966
1772538596174353200,5.147353271484375,-0.005044921766966581,0.014639145694673061,-0.004807184915989637
1772538596184369200,5.157369140625,0.0005692878039553761,-0.005255998112261295,0.010491076856851578
1772538596194384100,5.167384033203125,0.0052595920860767365,-0.03167736902832985,0.022826211526989937
1772538596204399000,5.177399169921875,0.00235514878295362,-0.047730106860399246,0.022089580073952675
1772538596214415000,5.1874150390625,-0.0035819034092128277,-0.044739916920661926,0.006961287930607796
1772538596224430000,5.19743017578125,-0.003788831178098917,-0.020535778254270554,-0.009847253561019897
1772538596234445000,5.207445068359375,-0.0046259332448244095,0.0014629601500928402,-0.019614098593592644
1772538596244461000,5.2174609375,-0.010716582648456097,0.007738166954368353,-0.021622389554977417
1772538596254476000,5.22747607421875,-0.01921086572110653,0.00891263596713543,-0.009962656535208225
1772538596264491000,5.237490966796875,-0.02275926247239113,0.005568504333496094,0.003979258239269257
1772538596274507300,5.24750732421875,-0.017346320673823357,-0.001260365592315793,0.01582280918955803
1772538596284522000,5.25752197265625,-0.008488113060593605,-0.008792584761977196,0.02587144821882248
1772538596294538200,5.267538330078125,0.0019699851982295513,-0.012800389900803566,0.02864285185933113
1772538596304553200,5.27755322265625,0.010570131242275238,-0.015001492574810982,0.02497567981481552
1772538596314568200,5.287568115234375,0.010953690856695175,-0.0034473915584385395,0.02059842087328434
1772538596324584200,5.297584228515625,0.003229191992431879,0.013594708405435085,0.010621154680848122
1772538596334599200,5.30759912109375,-0.007744366303086281,0.02325689233839512,-0.0006227395497262478
1772538596354004200,5.327004150390625,-0.006969775073230267,0.031438760459423065,-0.008762727491557598
1772538596364019200,5.337019287109375,-0.007786566857248545,0.037278808653354645,-0.0023343893699347973
1772538596374035200,5.34703515625,-0.01185702160000801,0.03775964304804802,0.013647189363837242
1772538596384050200,5.35705029296875,-0.015149220824241638,0.04019324108958244,0.02465536631643772
1772538596394065200,5.367065185546875,-0.01636287197470665,0.037579528987407684,0.03329302370548248
1772538596404081200,5.3770810546875,-0.008770733140408993,0.02401391603052616,0.03585045784711838
1772538596414096100,5.38709619140625,-0.01034952886402607,0.004564782604575157,0.040769584476947784
1772538596424111000,5.397111083984375,-0.010376160964369774,0.01014623511582613,0.05156497284770012
1772538596434127000,5.407127197265625,-0.0028093941509723663,0.022481394931674004,0.05681619793176651
1772538596444142000,5.41714208984375,-0.006044336128979921,0.01595425419509411,0.046619221568107605
1772538596454158000,5.427157958984375,-0.006531556602567434,0.019849173724651337,0.026290155947208405
1772538596464173000,5.437173095703125,-0.004131781868636608,0.011364341713488102,0.00001354515552520752
1772538596474188000,5.44718798828125,0.016919441521167755,0.01945236138999462,-0.022808413952589035
1772538596484204000,5.4572041015625,0.02163483388721943,0.02227691002190113,-0.03469303250312805
1772538596494219000,5.467218994140625,0.011328872293233871,0.02511349692940712,-0.03211018815636635
1772538596504234000,5.47723388671875,0.006337042897939682,0.018884098157286644,-0.014411086216568947
1772538596514250200,5.487250244140625,0.005207705777138472,0.004529427736997604,0.005805961787700653
1772538596524265000,5.497264892578125,0.010077294893562794,-0.007420708891004324,0.024047285318374634
1772538596534280000,5.507280029296875,0.014438035897910595,-0.01598397083580494,0.026588521897792816
1772538596544295200,5.517295166015625,0.017356062307953835,-0.017166148871183395,0.012924375012516975
1772538596554310100,5.52731005859375,0.019178520888090134,-0.007882454432547092,-0.0070630572736263275
1772538596564325000,5.5373251953125,0.018902882933616638,0.013290208764374256,-0.02073545940220356
1772538596574341000,5.547341064453125,0.007232997566461563,0.021185874938964844,-0.025323180481791496
1772538596584356000,5.557356201171875,-0.005540854297578335,0.015551158227026463,-0.015146443620324135
1772538596594372000,5.5673720703125,-0.007847039960324764,0.0031408939976245165,-0.004801974166184664
1772538596604387000,5.577386962890625,-0.011468405835330486,-0.011234848760068417,0.006478910334408283
1772538596614402000,5.587402099609375,-0.015437642112374306,-0.014343769289553165,0.008743245154619217
1772538596624418000,5.59741796875,-0.02347479574382305,-0.0014673852128908038,0.007443888578563929
1772538596634433000,5.60743310546875,-0.029915783554315567,0.015937985852360725,0.006038418505340815
1772538596644448000,5.617447998046875,-0.026425976306200027,0.029636753723025322,0.01300178561359644
1772538596654464000,5.627464111328125,-0.023635374382138252,0.028842143714427948,0.017770377919077873
1772538596664479000,5.63747900390625,-0.021974626928567886,0.020206842571496964,0.015850771218538284
1772538596674494000,5.647493896484375,-0.011766338720917702,0.010774383321404457,0.010361794382333755
1772538596684510000,5.657510009765625,-0.0013613691553473473,0.00718337669968605,0.0011275496799498796
1772538596695151000,5.668151123046875,0.0011611769441515207,0.002573710633441806,-0.003620866686105728
1772538596705166000,5.678166015625,-0.006161983590573072,0.004978012293577194,-0.0003323950804769993
1772538596715182000,5.68818212890625,-0.012805556878447533,0.009504732675850391,0.012094112113118172
1772538596725197000,5.698197021484375,-0.019330302253365517,0.013413721695542336,0.024752916768193245
1772538596735212000,5.7082119140625,-0.026448417454957962,0.01225479505956173,0.02888304553925991
1772538596745228000,5.71822802734375,-0.028397586196660995,0.01315733976662159,0.025192704051733017
1772538596755243000,5.728242919921875,-0.027593843638896942,0.00997246615588665,0.015269499272108078
1772538596765258000,5.738258056640625,-0.022935442626476288,0.0031939218752086163,-0.0029142973944544792
1772538596775274000,5.74827392578125,-0.015135770663619041,0.011243632063269615,-0.008404170162975788
1772538596785289000,5.7582890625,-0.006112448405474424,0.01710764691233635,-0.0011265496723353863
1772538596795304000,5.768303955078125,-0.002164373407140374,0.01309431716799736,0.016405953094363213
1772538596805320000,5.77831982421875,-0.00492953322827816,0.00203234376385808,0.03479614481329918
1772538596815335000,5.7883349609375,-0.007006263360381126,-0.006569635588675737,0.04245622083544731
1772538596825350100,5.79835009765625,-0.003734836122021079,0.003932539839297533,0.04292493686079979
1772538596835366000,5.808365966796875,-0.004511295352131128,0.014188501983880997,0.034402035176754
1772538596845381000,5.818381103515625,-0.006268449127674103,0.018755823373794556,0.023476149886846542
1772538596855396000,5.82839599609375,-0.0011097812093794346,0.01666729338467121,0.012651531025767326
1772538596865412000,5.838412109375,0.0020151720382273197,0.026812871918082237,0.010855494067072868
1772538596875427000,5.848427001953125,0.012078089639544487,0.03339490294456482,0.013210124336183071
1772538596885443000,5.858443115234375,0.01221976988017559,0.028193214908242226,0.025103535503149033
1772538596895458000,5.8684580078125,0.008368486538529396,0.019893813878297806,0.0373302660882473
1772538596905473000,5.87847314453125,0.00702359015122056,0.00980895571410656,0.042304251343011856
1772538596915489300,5.8884892578125,0.008902780711650848,-0.004021661821752787,0.036305662244558334
1772538596925504000,5.89850390625,0.010814131237566471,-0.012581327930092812,0.02447403594851494
1772538596935519000,5.90851904296875,0.009966973215341568,-0.016937255859375,0.007335208356380463
1772538596945535200,5.91853515625,0.008977076038718224,-0.009363492950797081,-0.012345551513135433
1772538596955550200,5.92855029296875,0.0172794871032238,0.002464733086526394,-0.02750447392463684
1772538596965565000,5.93856494140625,0.025201059877872467,0.011517882347106934,-0.030358850955963135
1772538596975581200,5.948581298828125,0.028580419719219208,0.007647047750651836,-0.028082121163606644
1772538596985596200,5.95859619140625,0.02522057667374611,0.001364917028695345,-0.021814903244376183
1772538596995611100,5.968611083984375,0.01741964928805828,-0.014358057640492916,-0.016745254397392273
1772538597005627100,5.978627197265625,0.012866177596151829,-0.025943340733647346,-0.015970008447766304
1772538597015642000,5.98864208984375,0.010540897957980633,-0.029224691912531853,-0.021620964631438255
1772538597025657000,5.998656982421875,0.011661289259791374,-0.02282298356294632,-0.023084105923771858
1772538597035673000,6.008673095703125,0.015910157933831215,-0.012520600110292435,-0.01940666139125824
1772538597045688000,6.01868798828125,0.017233747988939285,-0.008992178365588188,-0.005452230107039213
1772538597055703000,6.028703125,0.00916485209017992,-0.011234412901103497,0.009865138679742813
1772538597065719000,6.038718994140625,-0.002359977923333645,-0.007396531756967306,0.020718852058053017
1772538597075734000,6.048734130859375,-0.0070122601464390755,0.0011002221144735813,0.019369639456272125
1772538597085750000,6.05875,-0.011421123519539833,-0.003054575528949499,0.00847065169364214
1772538597095765000,6.068764892578125,-0.013864650391042233,-0.012316085398197174,-0.003840366378426552
1772538597105780200,6.0787802734375,-0.012824952602386475,-0.02052607759833336,-0.014545474201440811
1772538597115796000,6.0887958984375,-0.011530181393027306,-0.025752447545528412,-0.014644401147961617
1772538597125811200,6.098811279296875,-0.012137647718191147,-0.02195744216442108,-0.003638089634478092
1772538597135826200,6.108826171875,-0.01580347865819931,-0.016381459310650826,0.014211059547960758
1772538597145842200,6.11884228515625,-0.021501310169696808,-0.008406889624893665,0.029095733538269997
1772538597155857200,6.128857177734375,-0.026482505723834038,0.0026599583216011524,0.03739504516124725
1772538597165872000,6.1388720703125,-0.02680874429643154,0.010978342033922672,0.03602804243564606
1772538597175888100,6.14888818359375,-0.024283401668071747,0.008360706269741058,0.033658482134342194
1772538597185903000,6.158903076171875,-0.02255021594464779,0.0058783735148608685,0.03140145167708397
1772538597195918000,6.16891796875,-0.02337533049285412,0.007406753487884998,0.030570337548851967
1772538597205934000,6.17893408203125,-0.024029670283198357,0.005643740296363831,0.030811088159680367
1772538597215949000,6.188948974609375,-0.023745663464069366,-0.0012553506530821323,0.02922569215297699
1772538597225964000,6.198964111328125,-0.0200398750603199,-0.012681908905506134,0.019278250634670258
1772538597235980000,6.20897998046875,-0.01400365773588419,-0.02373456209897995,0.0029893931932747364
1772538597245995000,6.2189951171875,-0.009598789736628532,-0.027859266847372055,-0.013164808973670006
1772538597256010000,6.229010009765625,-0.0007698169793002307,-0.024679504334926605,-0.022540582343935966
1772538597266026000,6.23902587890625,-0.00007260148413479328,-0.016611725091934204,-0.020534157752990723
1772538597276041000,6.249041015625,-0.0026952119078487158,-0.010304788127541542,-0.011225642636418343
1772538597286056000,6.259055908203125,-0.00943593867123127,-0.006106048822402954,-0.006678028032183647
1772538597296072000,6.269072021484375,-0.012162563391029835,0.002957355696707964,-0.006640528328716755
1772538597306087000,6.2790869140625,-0.009923910722136497,0.013166051357984543,-0.00955668929964304
1772538597316103000,6.28910302734375,-0.01157459244132042,0.02143608219921589,-0.013269232586026192
1772538597326118000,6.299117919921875,-0.011805754154920578,0.019404621794819832,-0.017332684248685837
1772538597336133000,6.309133056640625,-0.01023295521736145,0.018281057476997375,-0.021553972736001015
1772538597346148900,6.31914892578125,-0.007930652238428593,0.030894586816430092,-0.025633936747908592
1772538597356164000,6.3291640625,-0.0042606983333826065,0.044470176100730896,-0.0263734869658947
1772538597366179000,6.339178955078125,-0.00017647462664172053,0.05020422860980034,-0.02698281779885292
1772538597376195000,6.349195068359375,0.0008022370748221874,0.05061835050582886,-0.025911960750818253
1772538597386210300,6.359210205078125,0.007061464712023735,0.04363793879747391,-0.02360433340072632
1772538597396225000,6.36922509765625,0.012651510536670685,0.0307536069303751,-0.021322567015886307
1772538597406241300,6.3792412109375,0.019578391686081886,0.022015508264303207,-0.015950437635183334
1772538597416256300,6.38925634765625,0.025834687054157257,0.022038646042346954,-0.014231662265956402
1772538597426271200,6.399271240234375,0.037569109350442886,0.017835378646850586,-0.018231995403766632
1772538597436287200,6.409287353515625,0.05003203824162483,0.005671970546245575,-0.027692168951034546
1772538597446302200,6.41930224609375,0.060044724494218826,0.002953148912638426,-0.03824787586927414
1772538597456317200,6.429317138671875,0.06469565629959106,-0.0036553440149873495,-0.04592454433441162
1772538597466333200,6.439333251953125,0.06585998833179474,-0.003972260281443596,-0.050652988255023956
1772538597476348200,6.44934814453125,0.06536118686199188,-0.0008349934360012412,-0.04802572727203369
1772538597486363100,6.459363037109375,0.06361841410398483,-0.0023415435571223497,-0.04253455623984337
1772538597496379100,6.469379150390625,0.05529583990573883,0.0030426080338656902,-0.030688846483826637
1772538597506394000,6.47939404296875,0.04446689784526825,0.01605001837015152,-0.018053211271762848
1772538597516409000,6.4894091796875,0.035976748913526535,0.029075367376208305,-0.003516530618071556
1772538597526425000,6.499425048828125,0.030791839584708214,0.025627106428146362,0.004473485518246889
1772538597536440800,6.50944091796875,0.027271661907434464,0.015778345987200737,0.004659530706703663
1772538597546456800,6.519456787109375,0.02472115308046341,0.014147691428661346,0.004967924673110247
1772538597556471800,6.529471923828125,0.017536215484142303,0.012905390933156013,0.0034332002978771925
1772538597566486800,6.53948681640625,0.0069837067276239395,0.010668866336345673,0.0017719203606247902
1772538597576502800,6.549502685546875,-0.0072616832330822945,0.00887222122400999,0.003310759086161852
1772538597586517800,6.559517822265625,-0.020251784473657608,-0.0003345934674143791,0.010236043483018875
1772538597596532700,6.56953271484375,-0.03246862441301346,-0.012339778244495392,0.006791712716221809
1772538597606548700,6.579548828125,-0.04120912030339241,-0.017967037856578827,-0.0008065518923103809
1772538597616563700,6.589563720703125,-0.04729830473661423,-0.017372339963912964,-0.011961854994297028
1772538597626578700,6.59957861328125,-0.05068105086684227,-0.013713688589632511,-0.01372619904577732
1772538597636594700,6.6095947265625,-0.05092606320977211,-0.010603383183479309,-0.005146292503923178
1772538597646609700,6.619609619140625,-0.05134471133351326,-0.008663270622491837,0.004435760900378227
1772538597656625000,6.629625,-0.04855320230126381,-0.007001346908509731,0.012946819886565208
1772538597666640600,6.639640625,-0.0485561303794384,-0.007676458917558193,0.008710263296961784
1772538597676655900,6.64965576171875,-0.04985034465789795,-0.01431928388774395,0.0011195323895663023
1772538597686670800,6.6596708984375,-0.04900985211133957,-0.01136903278529644,-0.004698409698903561
1772538597696686800,6.669686767578125,-0.05187608301639557,-0.009358393028378487,-0.004061554558575153
1772538597706701800,6.679701904296875,-0.05760560929775238,-0.008043324574828148,0.001269028289243579
1772538597716716800,6.689716796875,-0.06170881167054176,0.0019831713289022446,0.0028259442187845707
1772538597726732800,6.69973291015625,-0.062442511320114136,0.01783324033021927,0.005683782510459423
1772538597736747800,6.709747802734375,-0.06021896377205849,0.024773774668574333,0.005939707159996033
1772538597746762800,6.7197626953125,-0.05585750564932823,0.027388732880353928,0.007260635495185852
1772538597756778800,6.72977880859375,-0.04576939716935158,0.02506607212126255,0.015186832286417484
1772538597766793700,6.739793701171875,-0.037816934287548065,0.020348282530903816,0.025930823758244514
1772538597776808700,6.74980859375,-0.028065640479326248,0.01875113695859909,0.029584771022200584
1772538597786825000,6.759824951171875,-0.016068099066615105,0.009862571023404598,0.028673971071839333
1772538597796840000,6.76983984375,-0.011347444728016853,-0.008532923646271229,0.02231363020837307
1772538597806854700,6.779854736328125,-0.004960385151207447,-0.02342984825372696,0.01574867218732834
1772538597816871000,6.789870849609375,-0.009772713296115398,-0.019056107848882675,0.0070241838693618774
1772538597826886000,6.799885986328125,-0.011656367219984531,-0.000272299163043499,0.00318710133433342
1772538597836900900,6.80990087890625,-0.009087560698390007,0.02451923117041588,0.0034965393133461475
1772538597846916900,6.819916748046875,-0.0069708796218037605,0.02922184020280838,0.012985115870833397
1772538597856931800,6.829931884765625,-0.0030130851082503796,0.02257303148508072,0.023045174777507782
1772538597866947800,6.83994775390625,0.000998966977931559,0.011640489101409912,0.03415801376104355
1772538597876962800,6.849962890625,-0.0008675649296492338,0.00845332071185112,0.039971448481082916
1772538597886977800,6.859977783203125,-0.003307819366455078,0.020527293905615807,0.03868567571043968
1772538597896993800,6.869993896484375,-0.0048569804057478905,0.033701952546834946,0.027937687933444977
1772538597907008800,6.8800087890625,-0.002457887167111039,0.03234173357486725,0.014614437706768513
1772538597917024000,6.89002392578125,0.006173178553581238,0.026215916499495506,0.004636856727302074
1772538597927039700,6.900039794921875,0.015626335516572,0.01106945239007473,-0.007554295472800732
1772538597937055000,6.910054931640625,0.0223982036113739,0.0009357030503451824,-0.014969738200306892
1772538597947070000,6.920070068359375,0.024993721395730972,0.002564492169767618,-0.021238552406430244
1772538597957086000,6.9300859375,0.02361314930021763,0.010594283230602741,-0.021159641444683075
1772538597967101000,6.940100830078125,0.018762467429041862,0.024542855098843575,-0.018331898376345634
1772538597977116000,6.950115966796875,0.01867443136870861,0.03231005743145943,-0.006946900859475136
1772538597987132000,6.9601318359375,0.016071723774075508,0.03082268498837948,0.006983562372624874
1772538597997147000,6.97014697265625,0.014106987975537777,0.025659456849098206,0.017141886055469513
1772538598007161900,6.980161865234375,0.017216496169567108,0.01828383281826973,0.0253010131418705
1772538598017177900,6.990177734375,0.021806906908750534,0.00419134646654129,0.02632417529821396
1772538598027192800,7.00019287109375,0.024288974702358246,-0.004149940330535173,0.016074202954769135
1772538598037207800,7.010207763671875,0.025687269866466522,-0.00610575033351779,-0.0035142647102475166
1772538598047223800,7.020223876953125,0.0269986093044281,-0.0013357624411582947,-0.022270377725362778
1772538598057238800,7.03023876953125,0.03193558752536774,0.011085848324000835,-0.023084156215190887
1772538598067253800,7.040253662109375,0.03465867042541504,0.020785612985491753,-0.006792002357542515
1772538598077269800,7.050269775390625,0.03086685761809349,0.023131560534238815,0.012351837009191513
1772538598087284700,7.06028466796875,0.024620145559310913,0.02593187429010868,0.03256496414542198
1772538598097299700,7.0702998046875,0.026905344799160957,0.02546614035964012,0.043338898569345474
1772538598107315700,7.080315673828125,0.027845174074172974,0.015795137733221054,0.03940354287624359
1772538598117330700,7.09033056640625,0.02741878665983677,0.011558691039681435,0.028137968853116035
1772538598127346000,7.100345947265625,0.030597267672419548,0.012079605832695961,0.015036548487842083
1772538598137361700,7.110361572265625,0.036873217672109604,0.016267545521259308,0.011021736077964306
1772538598147377000,7.120376953125,0.04351034760475159,0.016379930078983307,0.02070392481982708
1772538598157392000,7.130391845703125,0.043243031948804855,0.00642418023198843,0.02883523888885975
1772538598167407900,7.140407958984375,0.045160241425037384,-0.0004851247649639845,0.03233596682548523
1772538598177422800,7.1504228515625,0.04295460879802704,-0.0022521321661770344,0.025243965908885002
1772538598187437800,7.160437744140625,0.04020143300294876,0.002332233125343919,0.015319963917136192
1772538598197453800,7.170453857421875,0.031883787363767624,0.0061129117384552956,0.0101705901324749
1772538598207468800,7.18046875,0.031706951558589935,-0.0013452708953991532,0.01227475330233574
1772538598217483800,7.19048388671875,0.03157978132367134,-0.011080769822001457,0.014496454037725925
1772538598227499800,7.200499755859375,0.03345092013478279,-0.018343210220336914,0.01726560853421688
1772538598237514800,7.2105146484375,0.040981072932481766,-0.023243185132741928,0.016303854063153267
1772538598247529700,7.22052978515625,0.04678676277399063,-0.025750283151865005,0.01451873779296875
1772538598257546000,7.2305458984375,0.046669311821460724,-0.018921436741948128,0.01222839206457138
1772538598267560700,7.240560791015625,0.039632707834243774,-0.0008351117139682174,0.016234051436185837
1772538598277575700,7.25057568359375,0.034441009163856506,0.01498141698539257,0.022381573915481567
1772538598287592000,7.260592041015625,0.03109395131468773,0.02249898947775364,0.028858114033937454
1772538598297607000,7.27060693359375,0.026361515745520592,0.023889722302556038,0.03257165476679802
1772538598307621600,7.28062158203125,0.029812706634402275,0.02425697259604931,0.03384730964899063
1772538598317638000,7.290637939453125,0.03752308711409569,0.02308591827750206,0.030609382316470146
1772538598327652900,7.30065283203125,0.04956163838505745,0.02151438593864441,0.026285741478204727
1772538598337667800,7.310667724609375,0.05901546776294708,0.01289674174040556,0.020209141075611115
1772538598347683800,7.320683837890625,0.06726860255002975,-0.007263652980327606,0.016665538772940636
1772538598357698800,7.33069873046875,0.07221369445323944,-0.026132430881261826,0.013361208140850067
1772538598367714000,7.340714111328125,0.07677728682756424,-0.02899799309670925,0.011625359766185284
1772538598377729800,7.350729736328125,0.08264301717281342,-0.015558494254946709,0.012968403287231922
1772538598387745000,7.3607451171875,0.08193594217300415,-0.0016685107257217169,0.013240844942629337
1772538598397760800,7.3707607421875,0.07620590180158615,0.004556787200272083,0.01338052935898304
1772538598407776000,7.38077587890625,0.06988941878080368,-0.002161036478355527,0.006285069510340691
1772538598417791000,7.390791015625,0.06822359561920166,-0.0003734154161065817,-0.0023082871921360493
1772538598427807000,7.400806884765625,0.06289194524288177,-0.00014571519568562508,-0.008704401552677155
1772538598437822000,7.410822021484375,0.053847987204790115,0.0003360663540661335,-0.015483064576983452
1772538598447837000,7.4208369140625,0.04532613977789879,0.0036085585597902536,-0.019952647387981415
1772538598457853000,7.43085302734375,0.041005708277225494,0.006218584254384041,-0.012661870568990707
1772538598467868000,7.440867919921875,0.03744799271225929,0.002012387616559863,-0.002594322431832552
1772538598477883000,7.4508828125,0.03041232004761696,-0.00033517321571707726,0.010518696159124374
1772538598487899000,7.46089892578125,0.021598055958747864,0.001711199525743723,0.01627485267817974
1772538598497913900,7.470913818359375,0.014704655855894089,0.014259678311645985,0.016553159803152084
1772538598507928800,7.4809287109375,0.007225434295833111,0.020057111978530884,0.013307297602295876
1772538598517944800,7.49094482421875,-0.0011312386486679316,0.008669646456837654,0.003277453128248453
1772538598527959800,7.500959716796875,-0.005581913515925407,-0.008816136978566647,-0.014357734471559525
1772538598537974300,7.510974365234375,0.000005934620276093483,-0.021467451006174088,-0.029979543760418892
1772538598547990300,7.520990234375,0.00909636914730072,-0.03323303163051605,-0.034259505569934845
1772538598558005200,7.531005126953125,0.014071770943701267,-0.04063698649406433,-0.03240693733096123
1772538598568020200,7.541020263671875,0.014348472468554974,-0.029218681156635284,-0.01828952133655548
1772538598578036200,7.5510361328125,0.017517223954200745,-0.012237945571541786,-0.002435152418911457
1772538598588051200,7.56105126953125,0.01845945045351982,0.0047852471470832825,0.016030140221118927
1772538598598066400,7.57106640625,0.0227540023624897,0.023211181163787842,0.033753059804439545
1772538598608082400,7.58108251953125,0.025119688361883163,0.028952689841389656,0.042243748903274536
1772538598618097400,7.591097412109375,0.03312847018241882,0.020922914147377014,0.04543880745768547
1772538598628112400,7.6011123046875,0.040845777839422226,0.009859077632427216,0.042631834745407104
1772538598638128600,7.611128662109375,0.04243675619363785,0.0011047662701457739,0.035967569798231125
1772538598648143600,7.6211435546875,0.04000129550695419,0.0007510983850806952,0.02661321684718132
1772538598658158300,7.631158447265625,0.034506671130657196,0.005412257742136717,0.014715094119310379
1772538598668174600,7.641174560546875,0.029515638947486877,0.0005362757947295904,0.006333859637379646
1772538598678189600,7.651189453125,0.023848019540309906,0.0002296040765941143,-0.00021351035684347153
1772538598688204500,7.66120458984375,0.024261076003313065,0.002155868336558342,0.0011851817835122347
1772538598698220500,7.671220458984375,0.025081587955355644,0.00017893989570438862,0.002118565607815981
1772538598708235500,7.681235595703125,0.02504670061171055,0.0010007915552705526,0.00423418078571558
1772538598718250500,7.69125048828125,0.02105044014751911,0.0066483947448432446,0.009277962148189545
1772538598728266500,7.7012666015625,0.018738016486167908,0.007856138050556183,0.017359323799610138
1772538598738281500,7.711281494140625,0.01757454127073288,0.009574620053172112,0.03062521480023861
1772538598748296400,7.72129638671875,0.01642432250082493,0.00791360717266798,0.03781495243310928
1772538598758312400,7.7313125,0.017113536596298218,0.0002792931627482176,0.03241610899567604
1772538598768327400,7.741327392578125,0.022411895915865898,-0.0021100949961692095,0.018422530964016914
1772538598778342400,7.75134228515625,0.0291178859770298,0.004079235717654228,0.004055297002196312
1772538598788358400,7.7613583984375,0.031139491125941277,0.0005553404334932566,-0.010155330412089825
1772538598798373400,7.771373291015625,0.0347285121679306,0.0002459913957864046,-0.017448969185352325
1772538598808388400,7.781388427734375,0.042934779077768326,0.0051752361468970776,-0.013196165673434734
1772538598818404400,7.791404296875,0.04569412022829056,-0.0020666453056037426,0.00011539552360773087
1772538598828419300,7.80141943359375,0.04392099007964134,0.0007304726168513298,0.018326090648770332
1772538598838434600,7.8114345703125,0.038255054503679276,-0.0027827133890241385,0.04037851095199585
1772538598848450300,7.8214501953125,0.03015771135687828,-0.012812444008886814,0.05744963884353638
1772538598858465500,7.831465576171875,0.02450854703783989,-0.013907011598348618,0.06307243555784225
1772538598868480500,7.84148046875,0.019107390195131302,-0.0036005780566483736,0.06033416837453842
1772538598878496500,7.85149658203125,0.020706817507743835,0.008827853947877884,0.05724549666047096
1772538598888511500,7.861511474609375,0.02121042087674141,0.02408803254365921,0.05739250034093857
1772538598898526500,7.8715263671875,0.017521144822239876,0.03954475373029709,0.06296516209840775
1772538598908542500,7.88154248046875,0.00894462876021862,0.0453067310154438,0.06535325199365616
1772538598918557400,7.891557373046875,-0.0033347310964018106,0.03335428237915039,0.06790816783905029
1772538598928572400,7.901572509765625,-0.015314428135752678,0.00814000703394413,0.06142203509807587
1772538598938588400,7.91158837890625,-0.021398670971393585,-0.008652960881590843,0.04452145844697952
1772538598948603400,7.921603271484375,-0.02112489938735962,-0.01423361524939537,0.026778679341077805
1772538598958618400,7.931618408203125,-0.014958829618990421,-0.01573948562145233,0.010639224201440811
1772538598968633300,7.94163330078125,-0.01031853724271059,-0.00745572242885828,0.00021028472110629082
1772538598978649300,7.9516494140625,-0.005396902561187744,0.004234579857438803,-0.0004725642502307892
1772538598988664300,7.961664306640625,-0.002344120992347598,0.010256253182888031,0.004383443854749203
1772538598998680300,7.971680419921875,0.00048523256555199623,0.006645102985203266,0.010485891252756119
1772538599008695300,7.9816953125,0.0039076609537005424,0.00008254172280430794,0.013392198830842972
1772538599018710300,7.991710205078125,0.005085112061351538,-0.009932800196111202,0.013271497562527657
1772538599028725500,8.0017255859375,0.005306687206029892,-0.015046069398522377,0.013130083680152893
1772538599038741200,8.0117412109375,0.01075751706957817,-0.0187909584492445,0.009311018511652946
1772538599048756500,8.021756591796875,0.014254514127969742,-0.01663300022482872,0.003006517654284835
1772538599058772200,8.031772216796876,0.017216607928276062,-0.011319241486489773,-0.006537626963108778
1772538599068787500,8.041787353515625,0.017006484791636467,-0.010338133201003075,-0.010200539603829384
1772538599078802400,8.051802490234374,0.013028450310230255,-0.0122998571023345,-0.009376789443194866
1772538599088817400,8.0618173828125,0.01098021399229765,-0.011651111766695976,-0.009415405802428722
1772538599098833400,8.07183349609375,0.009869671426713467,-0.015687696635723114,-0.0023101181723177433
1772538599108848400,8.081848388671874,0.0026064328849315643,-0.006969839334487915,0.002633241470903158
1772538599118863400,8.09186328125,-0.004783615469932556,0.010230667889118195,0.003323781304061413
1772538599128879400,8.10187939453125,-0.007194841746240854,0.030109034851193428,0.00539944926276803
1772538599138894300,8.111894287109376,-0.01383217703551054,0.03460919111967087,0.011380529031157494
1772538599148909300,8.121909423828125,-0.01789829134941101,0.03298972174525261,0.014124116860330105
1772538599158925600,8.131925537109375,-0.01946205087006092,0.02978738397359848,0.014396630227565765
1772538599168940300,8.141940185546876,-0.01945912092924118,0.023968111723661423,0.013230964541435242
1772538599178955300,8.151955322265625,-0.017375046387314796,0.012271917425096035,0.01141947042196989
1772538599188971500,8.161971435546874,-0.01288762129843235,-0.0007658537942916155,0.007548033259809017
1772538599198986500,8.171986572265626,-0.008674053475260735,-0.013873301446437836,0.002348934765905142
1772538599209001200,8.182001220703125,-0.0046537453308701515,-0.022243617102503777,-0.006654414348304272
1772538599219017500,8.192017578125,-0.002348498674109578,-0.0195465050637722,-0.016200406476855278
1772538599229032400,8.202032470703125,-0.0014486166182905436,-0.015043899416923523,-0.024370452389121056
1772538599239047400,8.21204736328125,-0.0031426497735083103,-0.0100118238478899,-0.03384541720151901
1772538599249063400,8.2220634765625,-0.004436147399246693,0.0015926340129226446,-0.02889247238636017
1772538599259078400,8.232078369140625,-0.009183164685964584,0.012138227000832558,-0.01646355912089348
1772538599269093600,8.24209375,-0.014531058259308338,0.01786082796752453,-0.0026601296849548817
1772538599279109400,8.252109375,-0.011030152440071106,0.017407122999429703,0.011044688522815704
1772538599289124600,8.26212451171875,-0.00532299792394042,0.011571604758501053,0.013130209408700466
1772538599299139600,8.2721396484375,0.0032314201816916466,0.0037958112079650164,0.011963499709963799
1772538599309155600,8.282155517578126,0.006157169118523598,0.0017126866150647402,0.006637177895754576
1772538599319170600,8.292170654296875,0.006252446211874485,-0.0025310367345809937,0.0012741906102746725
1772538599329185500,8.302185546875,-0.001746890600770712,-0.009631024673581123,-0.009975267574191093
1772538599339201500,8.312201416015625,-0.01246445532888174,-0.003547355066984892,-0.024032609537243843
1772538599349216500,8.322216552734375,-0.015535613521933556,0.018326252698898315,-0.03141675516963005
1772538599359231500,8.3322314453125,-0.013381246477365494,0.02489868365228176,-0.024829016998410225
1772538599369247500,8.34224755859375,-0.011754055507481098,0.007669895887374878,-0.013834955170750618
1772538599379262500,8.352262451171875,-0.01260953489691019,-0.010280382819473743,-0.010422080755233765
1772538599389277400,8.36227734375,-0.012263855896890163,-0.008285941556096077,-0.018620355054736137
1772538599399293400,8.37229345703125,-0.005041750147938728,0.024152537807822227,-0.0232553593814373
1772538599409308400,8.382308349609374,0.005746182985603809,0.05146298557519913,-0.010739567689597607
1772538599419323400,8.392323486328126,0.007399593945592642,0.03897184878587723,0.017923541367053986
1772538599429339400,8.40233935546875,0.009755692444741726,0.0024343475233763456,0.04528459161520004
1772538599439354400,8.412354248046874,0.016624391078948975,-0.03008919209241867,0.05586683377623558
1772538599449369300,8.422369384765625,0.02147054485976696,-0.040952228009700775,0.03576716035604477
1772538599459385300,8.43238525390625,0.023056117817759514,-0.01929757185280323,0.002928286325186491
1772538599469400300,8.442400390625,0.02146647684276104,0.019373124465346336,-0.01258808933198452
1772538599479415300,8.452415283203125,0.013118472881615162,0.03175661340355873,-0.010129878297448158
1772538599489431300,8.462431396484375,0.001841583987697959,0.019442688673734665,0.015527015551924706
1772538599499446300,8.4724462890625,-0.0047109997831285,0.005472997669130564,0.038494717329740524
1772538599509461500,8.48246142578125,-0.001964747905731201,0.000664127990603447,0.03910910710692406
1772538599519477200,8.492477294921875,0.011677883565425873,0.0022078731562942266,0.02578623779118061
1772538599529492500,8.502492431640626,0.017098214477300644,-0.004039369989186525,0.008335608057677746
1772538599539507500,8.512507568359375,0.018823901191353798,-0.02191855013370514,-0.009023427031934261
1772538599549523700,8.522523681640624,0.018742142245173454,-0.031091809272766113,-0.02059219777584076
1772538599559539000,8.5325390625,0.01356646977365017,-0.03554292023181915,-0.03203800693154335
1772538599569554000,8.542553955078125,-0.0014641450252383947,-0.02324683964252472,-0.04089808091521263
1772538599579570000,8.55256982421875,-0.0053632790222764015,0.012962299399077892,-0.036875106394290924
1772538599589585000,8.5625849609375,-0.007653864100575447,0.03281749412417412,-0.01663880981504917
1772538599599599900,8.572599853515625,-0.008176706731319427,0.021246884018182755,0.003887590253725648
1772538599609614800,8.58261474609375,-0.002990999026224017,-0.00016120192594826221,0.020456714555621147
1772538599619630800,8.592630859375,0.008045988157391548,-0.013024424202740192,0.025689896196126938
1772538599629645800,8.602645751953125,0.019167879596352577,-0.021686621010303497,0.0211968794465065
1772538599639660800,8.612660888671876,0.01897628791630268,-0.022749843075871468,0.016376303508877754
1772538599649676800,8.6226767578125,0.019234348088502884,-0.01542135700583458,0.0017859095241874456
1772538599659691800,8.63269189453125,0.016338497400283813,-0.008058475330471992,-0.016381144523620605
1772538599669706800,8.642706787109375,0.014866035431623459,-0.01295070257037878,-0.03319314867258072
1772538599679722800,8.65272265625,0.010700915940105915,-0.021447541192173958,-0.044805679470300674
1772538599689737700,8.66273779296875,0.008424978703260422,-0.026374123990535736,-0.04411059617996216
1772538599699752700,8.672752685546875,0.01252790354192257,-0.017254717648029327,-0.02953815832734108
1772538599709768700,8.682768798828125,0.013445895165205002,-0.010172839276492596,-0.01127499807626009
1772538599719783700,8.69278369140625,0.009589586406946182,-0.008091725409030914,-0.0012946343049407005
1772538599729799000,8.702798828125,0.007852672599256039,-0.0037827303167432547,0.0012561411131173372
1772538599739814700,8.712814697265625,0.012801410630345345,-0.00014603789895772934,-0.0008702944032847881
1772538599749830000,8.722829833984376,0.012036018073558807,-0.005831087939441204,-0.004882080480456352
1772538599759844900,8.732844970703125,0.011915774084627628,-0.015581736341118813,-0.005300874821841717
1772538599769860900,8.74286083984375,0.008611057884991169,-0.019440656527876854,-0.001839298289269209
1772538599779875800,8.752875732421876,0.0004529258294496685,-0.020989324897527695,-0.0028549949638545513
1772538599789890800,8.762890869140625,-0.0020810719579458237,-0.022033018991351128,-0.014547070488333702
1772538599799906800,8.77290673828125,0.0002636537828948349,-0.022892847657203674,-0.027500132098793983
1772538599809921800,8.782921875,0.001884187338873744,-0.025401011109352112,-0.0332469716668129
1772538599819936800,8.792936767578125,0.00281541608273983,-0.02860569953918457,-0.0290309377014637
1772538599829952800,8.802952880859374,0.00748100783675909,-0.020096633583307266,-0.017025673761963844
1772538599839967700,8.8129677734375,0.007285794243216515,-0.015033996663987637,-0.00030531128868460655
1772538599849982700,8.822982666015625,0.002642839215695858,-0.013711203821003437,0.01136705745011568
1772538599859998700,8.832998779296876,-0.0017109602922573686,-0.01738101616501808,0.012957051396369934
1772538599870013700,8.843013671875,-0.00213733222335577,-0.019315270707011223,0.0030703323427587748
1772538599880028700,8.853028564453124,0.0004903526278212667,-0.01182104554027319,-0.011742030270397663
1772538599890044700,8.863044677734376,0.0040781632997095585,-0.003919180482625961,-0.021518759429454803
1772538599900059600,8.8730595703125,0.008487558923661709,-0.001751367119140923,-0.028465617448091507
1772538599910074600,8.88307470703125,0.00991985946893692,-0.0007088612765073776,-0.027822360396385193
1772538599920089600,8.893089599609375,0.01390221156179905,-0.006749758962541819,-0.02337026223540306
1772538599930105600,8.903105712890625,0.019468484446406364,-0.015583730302751064,-0.015378382988274097
1772538599940120600,8.91312060546875,0.018376251682639122,-0.02446647919714451,-0.01181716937571764
1772538599950135800,8.9231357421875,0.015061413869261742,-0.022154055535793304,-0.014474739320576191
1772538599960151800,8.93315185546875,0.014173482544720173,-0.013706757687032223,-0.02025829255580902
1772538599970166800,8.943166748046876,0.01635301485657692,-0.005253085400909185,-0.02610206790268421
1772538599980181800,8.953181640625,0.019688012078404427,0.0019690366461873055,-0.020915580913424492
1772538599990198000,8.963197998046875,0.02170615643262863,-0.0009644353995099664,-0.008423225954174995
1772538600000213000,8.973212890625,0.021433649584650993,-0.0039096008986234665,0.0041365958750247955
1772538600010227700,8.983227783203125,0.022459765896201134,-0.006283543072640896,0.010196618735790253
1772538600020244000,8.993243896484374,0.02140493504703045,-0.006431502755731344,0.017912667244672775
1772538600030259000,9.003259033203125,0.01592947728931904,-0.004373678471893072,0.017301738262176514
1772538600040274000,9.01327392578125,0.009108743630349636,0.0008833142928779125,0.010187117382884026
1772538600050290000,9.0232900390625,0.004455401562154293,0.004618131555616856,-0.003994747996330261
1772538600060305000,9.033304931640625,0.0021945536136627197,-0.004264513496309519,-0.019022531807422638
1772538600070319900,9.04331982421875,0.004795929417014122,-0.00855779554694891,-0.024426085874438286
1772538600080336000,9.0533359375,0.0073675611056387424,-0.007418888621032238,-0.021421728655695915
1772538600090350800,9.063350830078125,0.005889506544917822,-0.0027887169271707535,-0.013537440448999405
1772538600100365800,9.07336572265625,0.003002328099682927,0.0058118803426623344,-0.0038747377693653107
1772538600110381800,9.0833818359375,0.005977079272270203,0.013001084327697754,0.007377916947007179
1772538600120396800,9.093396728515625,0.005855557043105364,0.010389718227088451,0.013688229024410248
1772538600130411800,9.103411865234374,0.006922951899468899,-0.0026725544594228268,0.013608068227767944
1772538600140427800,9.113427734375,0.011284331791102886,-0.010004875250160694,0.009306509047746658
1772538600150442800,9.12344287109375,0.016041003167629242,-0.013439820148050785,0.0011998473200947046
1772538600160457700,9.133457763671874,0.014773191884160042,-0.01119622215628624,-0.0013250545598566532
1772538600170473000,9.143472900390625,0.008516361936926842,-0.002348401816561818,0.0012022852897644043
1772538600180488700,9.15348876953125,-0.0027555872220546007,0.0030954808462411165,0.0008792025037109852
1772538600190504000,9.16350390625,-0.007833968847990036,0.005667828023433685,-0.0013605155982077122
1772538600200519000,9.173518798828125,-0.005792970769107342,0.009220903739333153,-0.004311902914196253
1772538600210535000,9.183534912109375,0.00006864650640636683,0.008502915501594543,-0.015551507472991943
1772538600220550000,9.1935498046875,0.003463438246399164,0.009242686443030834,-0.026124902069568634
1772538600230564900,9.20356494140625,0.004319644533097744,0.0035001118667423725,-0.02940724790096283
1772538600240580900,9.213580810546874,0.007860992103815079,0.0034405377227813005,-0.019984785467386246
1772538600250595800,9.223595947265625,0.005394638516008854,0.008711731992661953,-0.0004334552213549614
1772538600260610800,9.23361083984375,-0.00019190087914466858,0.008412432856857777,0.017545359209179878
1772538600270626800,9.243626708984374,-0.007578178308904171,0.0013968674466013908,0.022221868857741356
1772538600280641800,9.253641845703125,-0.012323577888309956,0.0010803882032632828,0.011607913300395012
1772538600290656800,9.26365673828125,-0.008473712019622326,0.009172669611871243,-0.009492311626672745
1772538600300672800,9.2736728515625,-0.004277579486370087,0.015608109533786774,-0.023911336436867714
1772538600310687700,9.283687744140625,-0.0043494850397109985,0.009635170921683311,-0.02695239894092083
1772538600320702700,9.29370263671875,-0.014763311482965946,-0.0018142987973988056,-0.02325241081416607
1772538600330718700,9.30371875,-0.01855538599193096,0.005243610590696335,-0.013380872085690498
1772538600340733700,9.313733642578125,-0.016302885487675667,0.011222939938306808,-0.0007809251546859741
1772538600351374800,9.324374755859376,-0.013139582239091396,-0.0012584971264004707,0.00809112936258316
1772538600361390800,9.334390869140625,-0.012784002348780632,-0.02177138440310955,0.00929282233119011
1772538600371405800,9.34440576171875,-0.01162978820502758,-0.03253508359193802,-0.0021523786708712578
1772538600381420800,9.3544208984375,-0.007561325095593929,-0.018056385219097137,-0.017019549384713173
1772538600391436800,9.364436767578125,-0.0047791204415261745,0.021782105788588524,-0.01952158845961094
1772538600401451800,9.37445166015625,-0.009894520044326782,0.051703255623579025,0.0009629128035157919
1772538600411466800,9.384466796875,-0.015191146172583103,0.043723106384277344,0.028706274926662445
1772538600421482800,9.394482666015625,-0.016881188377738,0.014631802216172218,0.055353596806526184
1772538600431497700,9.404497802734374,-0.009499036706984043,-0.011727617122232914,0.06550890952348709
1772538600441512700,9.4145126953125,-0.0026755421422421932,-0.02083500660955906,0.06054704636335373
1772538600451528000,9.42452783203125,0.0024084323085844517,-0.016433067619800568,0.04461601749062538
1772538600461543700,9.434543701171876,0.005499739199876785,0.0017422712408006191,0.03106149286031723
1772538600471559000,9.444558837890625,-0.0003043538308702409,0.014170178212225437,0.021228037774562836
1772538600481574000,9.454573974609374,-0.00866474024951458,0.00840903539210558,0.0175147857517004
1772538600491590000,9.46458984375,-0.016597498208284378,0.0006781457923352718,0.013410854153335094
1772538600501604900,9.47460498046875,-0.01954442821443081,-0.0017816319596022367,0.0034568235278129578
1772538600511619800,9.484619873046874,-0.016220804303884506,0.0006604867521673441,-0.003262331709265709
1772538600521635800,9.4946357421875,-0.009864509105682373,0.008839803747832775,-0.0011567426845431328
1772538600531650800,9.50465087890625,-0.007105474825948477,0.009095733985304832,0.01176757737994194
1772538600541665800,9.514665771484376,-0.004037497565150261,-0.0011509133037179708,0.01936887949705124
1772538600551681800,9.524681884765625,-0.0009908414212986827,-0.010322040878236294,0.020528152585029602
1772538600561696800,9.53469677734375,0.006315728183835745,-0.0131208635866642,0.011913605034351349
1772538600571711700,9.544711669921876,0.018128179013729095,-0.012921126559376717,0.0033984140027314425
1772538600581727700,9.554727783203125,0.023676281794905663,-0.005071135237812996,0.0017588180489838123
1772538600591742700,9.56474267578125,0.01872120425105095,-0.003094271058216691,0.006792725063860416
1772538600601757700,9.5747578125,0.013945492915809155,0.010480942204594612,0.008551090955734253
1772538600611773700,9.584773681640625,0.0119654331356287,0.015046666376292706,0.008495697751641273
1772538600621788700,9.59478857421875,0.013493356294929981,0.014126818627119064,0.007167519070208073
1772538600631803600,9.6048037109375,0.019485468044877052,0.01159814652055502,0.00727351289242506
1772538600641819600,9.614819580078125,0.028660058975219727,0.011808536946773529,0.009940935298800468
1772538600651834600,9.624834716796874,0.0345652811229229,0.00689762644469738,0.014893116429448128
1772538600661849900,9.634849853515625,0.03883007541298866,0.002406303072348237,0.01955399475991726
1772538600671864800,9.64486474609375,0.04302535578608513,0.0014496955554932356,0.017763551324605942
1772538600681880800,9.654880859375,0.04293986037373543,0.0004240472335368395,0.013881407678127289
1772538600692521500,9.665521484375,0.042065542191267014,-0.0008753089932724833,0.0070376163348555565
1772538600702536700,9.67553662109375,0.037360530346632004,-0.0004828246310353279,-0.0019966778345406055
1772538600712552700,9.685552734375,0.03353836014866829,0.0023156250827014446,-0.009131286293268204
1772538600722567700,9.695567626953125,0.02762961946427822,-0.001126944785937667,-0.016405364498496056
1772538600732582700,9.705582763671876,0.022249501198530197,-0.0032348367385566235,-0.01823335886001587
1772538600742597600,9.71559765625,0.02064579725265503,-0.006608119234442711,-0.011004905216395855
1772538600752614000,9.72561376953125,0.01020673755556345,-0.023288829252123833,-0.006544910371303558
1772538600762628600,9.735628662109375,0.00663245702162385,-0.037793878465890884,-0.00671332236379385
1772538600772643600,9.7456435546875,0.008683091029524803,-0.04242352023720741,-0.003867202438414097
1772538600782659800,9.755659912109374,0.008033804595470428,-0.03909649699926376,-0.0049804565496742725
1772538600792674800,9.7656748046875,-0.0037589389830827713,-0.01934436336159706,-0.0036195809952914715
1772538600802689500,9.775689453125,-0.016884585842490196,0.005297398194670677,-0.0036666663363575935
1772538600812705800,9.785705810546874,-0.030227288603782654,0.02029738761484623,-0.008678202517330647
1772538600822720800,9.795720703125,-0.03913622722029686,0.026080990210175514,-0.010637875646352768
1772538600832735700,9.80573583984375,-0.041583139449357986,0.03161104395985603,-0.005541384685784578
1772538600842751700,9.815751708984376,-0.037865567952394485,0.029624570161104202,0.0009065736085176468
1772538600852766700,9.8257666015625,-0.028373531997203827,0.018872056156396866,0.004137787036597729
1772538600862781700,9.83578173828125,-0.018816057592630386,0.003249845467507839,0.0069250320084393024
1772538600872797700,9.845797607421876,-0.014726507477462292,-0.017618153244256973,0.0032477392815053463
1772538600882812700,9.855812744140625,-0.01419413834810257,-0.030768807977437973,-0.00865976046770811
1772538600892827600,9.86582763671875,-0.01709165796637535,-0.030729394406080246,-0.022023502737283707
1772538600902843600,9.87584375,-0.022736357524991035,-0.02398012764751911,-0.03528882935643196
1772538600912858600,9.885858642578125,-0.025848528370261192,-0.015812478959560394,-0.04413744807243347
1772538600922873900,9.895873779296876,-0.0238554235547781,-0.002925476059317589,-0.04670502990484238
1772538600932888800,9.905888916015625,-0.01988757960498333,0.004789701662957668,-0.04148656502366066
1772538600942904800,9.91590478515625,-0.016495920717716217,0.006958497688174248,-0.03302936255931854
1772538600952919800,9.925919921875,-0.013581356965005398,0.00628312025219202,-0.026428183540701866
1772538600962934800,9.935934814453125,-0.010900073684751987,0.005311431363224983,-0.020012814551591873
1772538600972950800,9.94595068359375,-0.00818045437335968,0.0022677043452858925,-0.019731320440769196
1772538600982965800,9.9559658203125,-0.0032205989118665457,-0.004696328192949295,-0.022269684821367264
1772538600992980700,9.965980712890625,0.002712391084060073,-0.01610131561756134,-0.024807941168546677
1772538601002996700,9.975996826171874,0.006316065788269043,-0.018949151039123535,-0.028444238007068634
1772538601013011700,9.98601171875,0.012423759326338768,-0.005499121733009815,-0.035439297556877136
1772538601023026700,9.996026611328125,0.01865175925195217,0.016777414828538895,-0.04138261079788208
1772538601033042700,10.006042724609374,0.01846587099134922,0.033563848584890366,-0.043818071484565735
1772538601043057700,10.0160576171875,0.017163245007395744,0.03738567605614662,-0.04750361666083336
1772538601053072600,10.02607275390625,0.015384784899652004,0.03757848963141441,-0.04340288043022156
1772538601063088600,10.036088623046876,0.014653341844677925,0.03965011611580849,-0.03555205091834068
1772538601073103600,10.046103515625,0.01847364567220211,0.042038969695568085,-0.02680862881243229
1772538601083118600,10.05611865234375,0.024277357384562492,0.041818875819444656,-0.020141154527664185
1772538601093134600,10.066134521484376,0.0363507978618145,0.032544415444135666,-0.012012653984129429
1772538601103149600,10.076149658203125,0.05291840434074402,0.02014324814081192,-0.004354181233793497
1772538601113164500,10.08616455078125,0.06609998643398285,0.01366563979536295,0.0016608340665698051
1772538601123179800,10.0961796875,0.07318150252103806,0.01135963760316372,0.004596577491611242
1772538601133195500,10.106195556640625,0.07444863766431808,0.004529161378741264,0.004942256025969982
1772538601143210800,10.116210693359376,0.07020804286003113,0.005193809978663921,0.004602388944476843
1772538601153225700,10.126225830078125,0.05588103085756302,0.009050865657627583,0.0009863486047834158
1772538601163241700,10.13624169921875,0.034873075783252716,0.01764640212059021,-0.009603910148143768
1772538601173256700,10.146256591796876,0.020833687856793404,0.0203537717461586,-0.02843805029988289
1772538601183271700,10.156271728515625,0.011848599649965763,0.014385242015123367,-0.04528389126062393
1772538601193287700,10.16628759765625,0.006231992971152067,0.00405217707157135,-0.058531519025564194
1772538601203302700,10.176302734375,0.0046282135881483555,-0.006502391770482063,-0.057367078959941864
1772538601213317600,10.186317626953125,0.00038952677277848125,-0.01676301844418049,-0.04794108867645264
1772538601223333600,10.196333740234374,-0.0004868601681664586,-0.011882834136486053,-0.033276502043008804
1772538601233348600,10.2063486328125,-0.007381517440080643,-0.0029982628766447306,-0.02104353718459606
1772538601243363600,10.216363525390625,-0.014814729802310467,0.005579803604632616,-0.013250511139631271
1772538601253379600,10.226379638671874,-0.025419704616069794,0.011922653764486313,-0.00981157086789608
1772538601263394600,10.23639453125,-0.035692982375621796,0.018738199025392532,-0.008019676432013512
1772538601273409500,10.246409423828124,-0.04208989441394806,0.01961970515549183,-0.004912299569696188
1772538601283424500,10.256424560546876,-0.038546692579984665,0.018008209764957428,-0.0011637797579169273
1772538601293440500,10.2664404296875,-0.028581945225596428,0.013065916486084461,0.0031830319203436375
1772538601303455500,10.27645556640625,-0.02080650068819523,0.0013582347892224789,0.00657218974083662
1772538601313470700,10.286470703125,-0.01600135862827301,0.001924955751746893,0.009105920791625977
1772538601323486500,10.296486572265625,-0.013506978750228882,0.014091849327087402,0.011271517723798752
1772538601333501700,10.306501708984374,-0.015613805502653122,0.031311046332120895,0.01492510735988617
1772538601343516700,10.3165166015625,-0.02039930410683155,0.03885101526975632,0.01647302322089672
1772538601353532700,10.32653271484375,-0.027262268587946892,0.03876206651329994,0.015938259661197662
1772538601363547600,10.336547607421876,-0.030272580683231354,0.014079040847718716,0.00947912409901619
1772538601373562600,10.346562744140625,-0.032502975314855576,0.0014977355021983385,-0.0035772896371781826
1772538601383579000,10.356578857421875,-0.025301789864897728,0.004590464755892754,-0.018064886331558228
1772538601393593600,10.366593505859376,-0.023000819608569145,0.010154074057936668,-0.02625091001391411
1772538601403608600,10.376608642578125,-0.024572819471359253,0.008573729544878006,-0.02046314999461174
1772538601413623600,10.38662353515625,-0.01931813545525074,0.008028846234083176,-0.00956655852496624
1772538601423639800,10.396639892578126,-0.015579773113131523,-0.00420211348682642,0.002897080034017563
1772538601433654800,10.40665478515625,-0.004926595836877823,-0.01663747802376747,0.010148068889975548
1772538601443669500,10.41666943359375,0.00012061907909810543,-0.015392515808343887,0.009783429093658924
1772538601453685800,10.426685791015625,0.0016668504104018211,-0.00903395190834999,0.0004312065429985523
1772538601463700700,10.43670068359375,-0.0022333450615406036,0.002077055163681507,-0.010728211142122746
1772538601473715700,10.4467158203125,-0.006398795638233423,0.007015620823949575,-0.016161859035491943
1772538601483731700,10.456731689453125,-0.013245055451989174,0.008933055214583874,-0.01380279753357172
1772538601493746700,10.46674658203125,-0.016874942928552628,0.0014809982385486364,-0.006113718263804913
1772538601503761700,10.47676171875,-0.015595220029354095,0.00164192751981318,-0.0052753621712327
1772538601513777700,10.486777587890625,-0.008615341037511826,0.0059221601113677025,-0.008490596897900105
1772538601523792600,10.496792724609374,-0.0030556099954992533,0.008604614064097404,-0.011099946685135365
1772538601533807900,10.506807861328125,-0.004648180678486824,0.005641847383230925,-0.005487867631018162
1772538601543823400,10.5168232421875,-0.00537048140540719,-0.004051136784255505,0.0035270978696644306
1772538601553838300,10.52683837890625,-0.007921523414552212,-0.011352458968758583,0.005244570318609476
1772538601563853300,10.536853271484375,-0.008633851073682308,-0.021322261542081833,0.0013863889034837484
1772538601573868300,10.546868408203125,-0.012009941041469574,-0.025290105491876602,-0.012621038593351841
1772538601583884300,10.55688427734375,-0.017940668389201164,-0.01953689381480217,-0.02805926278233528
1772538601593899300,10.566899169921875,-0.017043717205524445,0.00023388140834867954,-0.0300917886197567
1772538601603914200,10.576914306640624,-0.016646575182676315,0.01115468144416809,-0.020340178161859512
1772538601613930200,10.58693017578125,-0.010093068704009056,0.005224887281656265,-0.004759620875120163
1772538601623945200,10.5969453125,-0.0035553460475057364,-0.007697610650211573,0.012365870177745819
1772538601633960200,10.606960205078124,0.006852021440863609,-0.021334592252969742,0.02680313214659691
1772538601643976200,10.61697607421875,0.013551333919167519,-0.02655147574841976,0.035618048161268234
1772538601653991200,10.6269912109375,0.01813063956797123,-0.019244294613599777,0.038030076771974564
1772538601664006100,10.637006103515626,0.012111489661037922,-0.004113328643143177,0.02367386594414711
1772538601674022100,10.647022216796875,0.002340884180739522,0.010703434236347675,0.004850110504776239
1772538601684037000,10.657037109375,-0.010327033698558807,0.029108066111803055,0.006102175451815128
1772538601694052000,10.667052001953126,-0.02304602414369583,0.04911479726433754,0.016701823100447655
1772538601704068000,10.677068115234375,-0.0245650801807642,0.07529084384441376,0.020208751782774925
1772538601714083000,10.6870830078125,-0.026931563392281532,0.1164364144206047,0.018899541348218918
1772538601724098300,10.697098388671876,-0.03191569447517395,0.14405451714992523,0.038819294422864914
1772538601734113300,10.70711328125,-0.02421809360384941,0.15355056524276733,0.08002984523773193
1772538601744129300,10.71712939453125,-0.012245718389749527,0.1679481565952301,0.1436944603919983
1772538601754144300,10.727144287109375,-0.0682477280497551,0.19373634457588196,0.3513381779193878
1772538601764159200,10.7371591796875,-0.17001457512378693,-0.15155839920043945,0.4116585850715637
1772538601774175200,10.74717529296875,-0.12435413897037506,-0.38889452815055847,0.3159443140029907
1772538601784190200,10.757190185546875,0.0024165858048945665,-0.2750883400440216,0.15709231793880463
1772538601794205200,10.767205078125,0.05260172486305237,-0.1692516803741455,0.0026606651954352856
1772538601804221200,10.77722119140625,0.03763143718242645,-0.11924730986356735,-0.13426664471626282
1772538601814236200,10.787236083984375,0.018834581598639488,-0.07329047471284866,-0.24278859794139862
1772538601824251100,10.797251220703124,0.014622993767261505,-0.029816478490829468,-0.31556791067123413
1772538601834267100,10.80726708984375,0.009307856671512127,-0.0015875038225203753,-0.32731884717941284
1772538601844282000,10.8172822265625,-0.015843581408262253,0.01763216406106949,-0.24977566301822662
