time,seconds_elapsed,z,y,x
1772538591075275800,0.04827587890625,0.028250547125935555,-0.0821705013513565,-0.022713035345077515
1772538591085290800,0.058290771484375,0.02058730088174343,-0.03984728083014488,-0.007044593803584576
1772538591095306800,0.068306640625,0.0033603766933083534,-0.01840483956038952,0.005927930120378733
1772538591105321700,0.07832177734375,-0.02166215144097805,-0.013515808619558811,0.018341191112995148
1772538591115336700,0.088336669921875,-0.031675636768341064,0.007720770314335823,0.018519887700676918
1772538591125352700,0.098352783203125,-0.030714768916368484,0.017717478796839714,0.008923454210162163
1772538591135367700,0.10836767578125,-0.018147312104701996,0.022977488115429878,-0.0008548747282475233
1772538591145383700,0.1183837890625,0.006155364215373993,0.019652264192700386,-0.0027944548055529594
1772538591155398700,0.128398681640625,0.027160514146089554,0.0029257487040013075,-0.004373443312942982
1772538591165413600,0.13841357421875,0.043299801647663116,-0.028542961925268173,-0.007137537933886051
1772538591175430000,0.148429931640625,0.04653181508183479,-0.03807414695620537,0.00033182985498569906
1772538591185444600,0.158444580078125,0.03644669055938721,-0.021160412579774857,0.0011326423846185207
1772538591195459600,0.16845947265625,0.02732216753065586,0.010608701966702938,-0.0063210129737854
1772538591205475800,0.178475830078125,0.022540729492902756,0.037511687725782394,-0.012828180566430092
1772538591215490800,0.18849072265625,0.013343235477805138,0.0455499067902565,-0.008010788820683956
1772538591225506800,0.1985068359375,0.002228533150628209,0.03409485146403313,0.0004410194815136492
1772538591235521800,0.208521728515625,-0.0005363606614992023,0.014909973368048668,0.008156197145581245
1772538591245536800,0.218536865234375,0.0024016385432332754,0.0014642059104517102,0.010094712488353252
1772538591255552800,0.228552734375,0.01423273142427206,-0.005387042183429003,-0.0004620584368240088
1772538591265567700,0.238567626953125,0.024892300367355347,-0.009936519898474216,-0.015835154801607132
1772538591275583700,0.248583740234375,0.036623258143663406,-0.010056628845632076,-0.020057864487171173
1772538591285598700,0.2585986328125,0.04037804901599884,-0.009953298605978489,-0.010209494270384312
1772538591295613700,0.26861376953125,0.033009350299835205,-0.00714526092633605,0.009219330735504627
1772538591305629700,0.278629638671875,0.028210066258907318,0.006541789043694735,0.0236470066010952
1772538591315644700,0.288644775390625,0.030759243294596672,0.01912522502243519,0.0291147418320179
1772538591325660700,0.29866064453125,0.029087843373417854,0.01176051888614893,0.02474263124167919
1772538591335675600,0.308675537109375,0.02816159650683403,-0.006262423470616341,0.01780775934457779
1772538591345690600,0.318690673828125,0.02755812369287014,-0.020080234855413437,0.01197037659585476
1772538591355706600,0.32870654296875,0.027662254869937897,-0.025131186470389366,0.009936253540217876
1772538591365721600,0.3387216796875,0.025415077805519104,-0.02780207060277462,0.004747084807604551
1772538591375736800,0.34873681640625,0.01726740412414074,-0.02883084863424301,-0.003944674041122198
1772538591385752600,0.358752685546875,0.016756342723965645,-0.022698653861880302,-0.015548599883913994
1772538591395767800,0.368767822265625,0.018452776595950127,-0.019169699400663376,-0.024658208712935448
1772538591405783600,0.378783447265625,0.018135061487555504,-0.025058481842279434,-0.024143420159816742
1772538591415798800,0.388798828125,0.012210060842335224,-0.028003672137856483,-0.01835370622575283
1772538591425813800,0.398813720703125,0.0031502533238381147,-0.027235349640250206,-0.010726147331297398
1772538591435829800,0.408829833984375,0.00007323692989302799,-0.020805945619940758,-0.010265686549246311
1772538591445844700,0.4188447265625,-0.001989913871511817,-0.012084892019629478,-0.014578410424292088
1772538591455860700,0.42886083984375,-0.0032147017773240805,-0.006892793346196413,-0.02562839724123478
1772538591465875700,0.438875732421875,-0.003135872073471546,0.0002593918761704117,-0.029409287497401237
1772538591475890700,0.448890625,-0.004476507660001516,0.0060019660741090775,-0.024768462404608727
1772538591485906700,0.45890673828125,-0.003239202778786421,0.008897887542843819,-0.008989233523607254
1772538591495921700,0.468921630859375,-0.002029062481597066,0.00814847368746996,0.013320598751306534
1772538591505938000,0.47893798828125,0.0010426276130601764,0.004983573220670223,0.034023214131593704
1772538591515953000,0.488952880859375,0.0013941648649051785,0.0043801008723676205,0.045097436755895615
1772538591525967600,0.498967529296875,0.002986468840390444,0.015456720255315304,0.04063611105084419
1772538591535983900,0.50898388671875,0.01010696217417717,0.02895548567175865,0.027417242527008057
1772538591545998800,0.518998779296875,0.016817862167954445,0.04120389372110367,0.011313107796013355
1772538591556013800,0.529013916015625,0.02010500244796276,0.037815820425748825,0.003958788700401783
1772538591566029800,0.53902978515625,0.01648523285984993,0.02365872450172901,0.003945473115891218
1772538591576044800,0.549044921875,0.009423329494893551,0.006353769451379776,0.010793792083859444
1772538591586060800,0.559060791015625,0.005721268709748983,0.0008319715270772576,0.018725484609603882
1772538591596075800,0.56907568359375,0.006375873927026987,0.011667574755847454,0.02220064401626587
1772538591606090800,0.5790908203125,0.011782623827457428,0.03208789601922035,0.019629893824458122
1772538591616106800,0.589106689453125,0.019726566970348358,0.03674815967679024,0.014035657979547977
1772538591626121700,0.599121826171875,0.024283235892653465,0.029343774542212486,0.003311907174065709
1772538591636137700,0.6091376953125,0.03389405086636543,0.015928367152810097,-0.009954363107681274
1772538591646152700,0.619152587890625,0.03958282992243767,-0.0003880225704051554,-0.026922160759568214
1772538591656167700,0.629167724609375,0.039679769426584244,-0.016150740906596184,-0.03822515159845352
1772538591666183700,0.63918359375,0.041186317801475525,-0.01582503505051136,-0.04247502237558365
1772538591676198700,0.64919873046875,0.04800188168883324,0.002596848411485553,-0.03719450533390045
1772538591686214700,0.659214599609375,0.05204695463180542,0.03525253012776375,-0.02882285974919796
1772538591696229600,0.669229736328125,0.048825863748788834,0.06265565752983093,-0.014721155166625977
1772538591706244600,0.67924462890625,0.04904424026608467,0.07464014738798141,0.003519367426633835
1772538591716260900,0.6892607421875,0.045810896903276443,0.07197912037372589,0.022706111893057823
1772538591726275600,0.699275634765625,0.0450843870639801,0.06450948119163513,0.03881237655878067
1772538591736290800,0.709290771484375,0.04531767964363098,0.0640420988202095,0.0385894700884819
1772538591746306800,0.719306884765625,0.054767906665802,0.06675506383180618,0.023852601647377014
1772538591756321800,0.72932177734375,0.06217868626117706,0.05548536404967308,0.007836351171135902
1772538591766337800,0.739337890625,0.06412305682897568,0.03863847255706787,-0.004751878324896097
1772538591776352800,0.749352783203125,0.06439124047756195,0.01721307449042797,-0.015459117479622364
1772538591786368000,0.759367919921875,0.058642808347940445,-0.0022069616243243217,-0.023690149188041687
1772538591796383700,0.7693837890625,0.05150100588798523,-0.007798268459737301,-0.03451962769031525
1772538591806399000,0.77939892578125,0.04154398292303085,0.005144428461790085,-0.03995034471154213
1772538591816414700,0.789414794921875,0.03172836825251579,0.022220617160201073,-0.040771130472421646
1772538591826430000,0.799429931640625,0.019663183018565178,0.03253503888845444,-0.03454439342021942
1772538591836445000,0.80944482421875,0.005618737079203129,0.033671677112579346,-0.02155189774930477
1772538591846461000,0.8194609375,-0.0037824877072125673,0.032771527767181396,-0.01835929974913597
1772538591856476000,0.829475830078125,-0.0010428938549011946,0.02924603596329689,-0.020744159817695618
1772538591866491000,0.839490966796875,0.00469595193862915,0.023808393627405167,-0.025645708665251732
1772538591876507000,0.8495068359375,0.007473895326256752,0.024043550714850426,-0.024211330339312553
1772538591886521900,0.85952197265625,0.006310093682259321,0.03169454634189606,-0.01878141053020954
1772538591896537900,0.869537841796875,-0.0008013451588340104,0.03495319187641144,-0.01799125038087368
1772538591906552800,0.879552734375,-0.002266882685944438,0.029323000460863113,-0.018507637083530426
1772538591916567800,0.88956787109375,0.00390259618870914,0.016154468059539795,-0.023740749806165695
1772538591926583800,0.899583740234375,0.005723399575799704,0.01173335500061512,-0.028305673971772194
1772538591936598800,0.909598876953125,0.0010239854454994202,0.018509235233068466,-0.033366210758686066
1772538591946614800,0.91961474609375,0.00001704423084447626,0.03221173211932182,-0.03279523178935051
1772538591956629800,0.929629638671875,0.0023299995809793472,0.03857215866446495,-0.024213194847106934
1772538591966644700,0.939644775390625,0.003977164626121521,0.0303813423961401,-0.013584252446889877
1772538591976660700,0.94966064453125,0.007559915538877249,0.01212883461266756,-0.0038868836127221584
1772538591986675700,0.95967578125,0.008018244989216328,-0.00740358792245388,-0.008264853619039059
1772538591996691700,0.969691650390625,0.017731325700879097,-0.013954431749880314,-0.015526228584349155
1772538592006706700,0.979706787109375,0.021574001759290695,-0.009342901408672333,-0.018222413957118988
1772538592016721700,0.9897216796875,0.016100406646728516,-0.0013627394801005721,-0.022539664059877396
1772538592026737700,0.999737548828125,0.008814530447125435,0.021739117801189423,-0.028973327949643135
1772538592036752600,1.009752685546875,0.0033888723701238632,0.03958016633987427,-0.03633057698607445
1772538592046767600,1.019767578125,-0.003245860803872347,0.03681820258498192,-0.036494363099336624
1772538592056783600,1.02978369140625,-0.0036397422663867474,0.027678232640028,-0.03785150870680809
1772538592066798600,1.039798583984375,-0.004308994393795729,0.02075108513236046,-0.029317675158381462
1772538592076814800,1.04981494140625,0.00330338510684669,0.012413792312145233,-0.020679978653788567
1772538592086829800,1.059829833984375,0.009372196160256863,0.0035124430432915688,-0.009593771770596504
1772538592096844800,1.0698447265625,0.011437477543950081,-0.0019254654180258512,-0.006687730085104704
1772538592106860800,1.07986083984375,0.008869125507771969,-0.00018508969515096396,-0.006749781779944897
1772538592116875800,1.089875732421875,0.003774764481931925,0.007436610758304596,-0.01810683123767376
1772538592126891800,1.099891845703125,-0.0027917916886508465,0.0255796629935503,-0.02449469082057476
1772538592136906800,1.10990673828125,-0.004653075244277716,0.04307902604341507,-0.02510135807096958
1772538592146922000,1.119921875,-0.005502357147634029,0.04249872267246246,-0.01503993570804596
1772538592156937700,1.129937744140625,-0.007959921844303608,0.0269479937851429,-0.004634699318557978
1772538592166953000,1.139952880859375,-0.0004732437082566321,0.006835269276052713,0.0005912217311561108
1772538592176968000,1.149968017578125,0.006879211403429508,-0.003966512158513069,-0.0016668725293129683
1772538592186984000,1.15998388671875,0.010293650440871716,-0.0006000102148391306,-0.010212424211204052
1772538592196999000,1.1699990234375,0.009344499558210373,0.018013620749115944,-0.017229054123163223
1772538592207015000,1.180014892578125,0.005677592940628529,0.029895048588514328,-0.022002503275871277
1772538592217030000,1.19002978515625,0.0007129282457754016,0.026094717904925346,-0.02863963507115841
1772538592227044900,1.200044921875,-0.004519650712609291,0.010162622667849064,-0.031444743275642395
1772538592237060900,1.210060791015625,-0.006667756475508213,-0.00812077708542347,-0.032932914793491364
1772538592247075800,1.220075927734375,-0.008156463503837585,-0.018251974135637283,-0.03790637105703354
1772538592257091800,1.230091796875,-0.006717291194945574,-0.01942935772240162,-0.04183080419898033
1772538592267106800,1.24010693359375,0.0014136058744043112,-0.013458018191158772,-0.04234878718852997
1772538592277121800,1.250121826171875,0.003817375050857663,-0.0007653924985788763,-0.05174069106578827
1772538592287137800,1.2601376953125,0.005600095260888338,0.021647771820425987,-0.05239076912403107
1772538592297152800,1.27015283203125,0.009761550463736057,0.03869067132472992,-0.04818297550082207
1772538592307167700,1.280167724609375,0.008626777678728104,0.03603789582848549,-0.03832288831472397
1772538592317183700,1.290183837890625,0.008200138807296753,0.02810433879494667,-0.0284124668687582
1772538592327198700,1.30019873046875,0.010847588069736958,0.023661918938159943,-0.014974954538047314
1772538592337214700,1.310214599609375,0.015307850204408169,0.011857991106808186,-0.0030538467690348625
1772538592347229700,1.320229736328125,0.015151522122323513,0.004033357370644808,0.00242134602740407
1772538592357244700,1.33024462890625,0.010690194554626942,0.00669438811019063,-0.0020237360149621964
1772538592367260700,1.3402607421875,0.007060039788484573,0.02100435085594654,-0.012509133666753769
1772538592377275600,1.350275634765625,0.004664526786655188,0.028270253911614418,-0.033358488231897354
1772538592387290600,1.36029052734375,0.006340187508612871,0.02694905921816826,-0.04534564167261124
1772538592397306600,1.370306640625,0.007215568795800209,0.0217143502086401,-0.04823916777968407
1772538592407321600,1.380321533203125,0.007249657064676285,0.005013667047023773,-0.04105475917458534
1772538592417337900,1.390337890625,0.0040826257318258286,-0.0046181874349713326,-0.031748075038194656
1772538592427352800,1.400352783203125,0.00019414443522691727,-0.0009483516332693398,-0.01805596612393856
1772538592437367600,1.410367431640625,-0.010386328212916851,-0.0004037352045997977,-0.009252088144421577
1772538592447383800,1.4203837890625,-0.023192137479782104,0.0038978024385869503,-0.007961786352097988
1772538592457398800,1.430398681640625,-0.0251021571457386,0.008370847441256046,-0.016055399551987648
1772538592467414800,1.440414794921875,-0.027281422168016434,0.0034083134960383177,-0.02731977216899395
1772538592477429800,1.4504296875,-0.028130704537034035,0.00538544449955225,-0.04135063663125038
1772538592487445000,1.460445068359375,-0.024323448538780212,0.01727459393441677,-0.048231709748506546
1772538592497460700,1.470460693359375,-0.020607806742191315,0.02503877319395542,-0.0493563637137413
1772538592507476000,1.48047607421875,-0.01757846027612686,0.025653963908553123,-0.03735535964369774
1772538592517491000,1.490490966796875,-0.023204654455184937,0.018190454691648483,-0.021347099915146828
1772538592527507000,1.5005068359375,-0.025786589831113815,0.012926450930535793,-0.006163886282593012
1772538592537521200,1.510521240234375,-0.02028769440948963,0.014644456095993519,0.004682635888457298
1772538592547537200,1.520537109375,-0.012255600653588772,0.012766129337251186,0.005005944054573774
1772538592557552000,1.53055224609375,-0.00751970149576664,0.004237888380885124,-0.002243979601189494
1772538592567567000,1.540567138671875,-0.00341523764654994,0.0024687503464519978,-0.01588655449450016
1772538592577583000,1.5505830078125,0.0038272286765277386,0.0015190670965239406,-0.037098899483680725
1772538592587598000,1.56059814453125,0.009225456044077873,0.004736698232591152,-0.05703239142894745
1772538592597613000,1.570613037109375,0.01287665031850338,0.0022445120848715305,-0.06823018938302994
1772538592607629000,1.580629150390625,0.011292069219052792,-0.00358754419721663,-0.06226683780550957
1772538592617644000,1.59064404296875,0.0046448190696537495,-0.006119145080447197,-0.04519277811050415
1772538592627660000,1.600659912109375,-0.0016740630380809307,-0.008989766240119934,-0.021706361323595047
1772538592637675000,1.610675048828125,-0.0028154938481748104,-0.008960205130279064,0.0011651329696178436
1772538592647690000,1.62068994140625,-0.0008434231276623905,-0.007910387590527534,0.01480291411280632
1772538592657706000,1.6307060546875,-0.0008080030675046146,-0.0056829191744327545,0.018852517008781433
1772538592667721000,1.640720947265625,-0.005531651899218559,0.00717695290222764,0.015170963481068611
1772538592677737000,1.650737060546875,-0.007395331747829914,0.022012891247868538,0.0068030450493097305
1772538592687752000,1.660751953125,-0.011621235869824886,0.029411418363451958,0.0014506238512694836
1772538592697767000,1.670766845703125,-0.015339541248977184,0.025954902172088623,0.004462126176804304
1772538592707783000,1.680782958984375,-0.013397297821938992,0.022907180711627007,0.008047273382544518
1772538592717798000,1.6907978515625,-0.009310144931077957,0.021944446489214897,0.011541874147951603
1772538592727813000,1.700813232421875,-0.0073348782025277615,0.017191503196954727,0.007159109693020582
1772538592737828900,1.710828857421875,-0.0025363946333527565,0.015776565298438072,0.0013789847726002336
1772538592747844000,1.720843994140625,0.0015507587231695652,0.007592672016471624,-0.0056954361498355865
1772538592757859800,1.73085986328125,0.0046514770947396755,-0.009781524538993835,-0.007221161387860775
1772538592767875000,1.740875,0.0054243262857198715,-0.02153218910098076,-0.011699799448251724
1772538592777890000,1.75089013671875,-0.0010910971323028207,-0.024023044854402542,-0.02075428143143654
1772538592787906000,1.760906005859375,-0.0038874163292348385,-0.018223479390144348,-0.03550073504447937
1772538592797921000,1.770921142578125,-0.001961151836439967,-0.0032780850306153297,-0.04964211955666542
1772538592807936000,1.78093603515625,0.004313255660235882,0.012524580582976341,-0.05715223401784897
1772538592817952300,1.7909521484375,0.008172442205250263,0.015684153884649277,-0.047264449298381805
1772538592827967000,1.800967041015625,0.007790811359882355,0.004686364438384771,-0.034144654870033264
1772538592837983200,1.810983154296875,0.008216118440032005,-0.015901735052466393,-0.023539414629340172
1772538592847998200,1.820998291015625,0.007778827100992203,-0.028971463441848755,-0.015907593071460724
1772538592858013200,1.83101318359375,0.009852098301053047,-0.03906084969639778,-0.012414058670401573
1772538592868029200,1.841029296875,0.011728561483323574,-0.04020094871520996,-0.014158163219690323
1772538592878044200,1.851044189453125,0.014786669053137302,-0.02708061970770359,-0.024022512137889862
1772538592888060200,1.86106005859375,0.017105218023061752,-0.007999603636562824,-0.0295520331710577
1772538592898075100,1.8710751953125,0.014633270911872387,0.0016871124971657991,-0.030611438676714897
1772538592908090000,1.881090087890625,0.003632019041106105,0.008576976135373116,-0.024530643597245216
1772538592918106000,1.891106201171875,-0.0040826257318258286,0.005334844347089529,-0.01877688430249691
1772538592928121000,1.90112109375,-0.00612207455560565,0.0017829863354563713,-0.010430802591145039
1772538592938136000,1.911135986328125,-0.010573548264801502,-0.003238936420530081,-0.005015531089156866
1772538592948152000,1.921152099609375,-0.010406834073364735,-0.0020575581584125757,-0.000059388490626588464
1772538592958167000,1.9311669921875,-0.00615136930719018,0.005042162723839283,0.002412291243672371
1772538592968183000,1.94118310546875,0.001115864492021501,0.00893943291157484,-0.002680737990885973
1772538592978198000,1.951197998046875,0.0038448055274784565,0.00273693073540926,-0.006587595213204622
1772538592988213000,1.961212890625,0.006374808494001627,-0.007534082513302565,-0.010013218969106674
1772538592998229000,1.97122900390625,0.010783671401441097,-0.010113620199263096,-0.010382866486907005
1772538593008244000,1.981243896484375,0.015446334145963192,-0.0059846555814146996,-0.006972421891987324
1772538593018259000,1.991259033203125,0.01588389091193676,-0.0004902879591099918,0.0029862024821341038
1772538593028275000,2.00127490234375,0.007757788058370352,0.002600044244900346,0.016389358788728714
1772538593038290000,2.0112900390625,0.0017803232185542583,0.006487460341304541,0.02570536360144615
1772538593048306000,2.021305908203125,0.0004319647268857807,0.01260873582214117,0.024698687717318535
1772538593058321000,2.03132080078125,0.009820406325161457,0.011741344816982746,0.014158695936203003
1772538593068336000,2.041336181640625,0.021526597440242767,0.016656741499900818,0.0008855010382831097
1772538593078352000,2.051351806640625,0.030341127887368202,0.02045334316790104,-0.006732471287250519
1772538593088367000,2.0613671875,0.02845534309744835,0.02220623567700386,-0.002662362065166235
1772538593098382000,2.071382080078125,0.02629259042441845,0.020709006115794182,0.005690642632544041
1772538593108398000,2.081398193359375,0.021807027980685234,0.009149023331701756,0.010090717114508152
1772538593118413000,2.0914130859375,0.020361997187137604,-0.01281406544148922,0.011859855614602566
1772538593128429000,2.101428955078125,0.024640098214149475,-0.025356754660606384,0.009138104505836964
1772538593138444000,2.111444091796875,0.024154871702194214,-0.034267161041498184,0.0029640982393175364
1772538593148459000,2.121458984375,0.020924190059304237,-0.0291775930672884,-0.006111688446253538
1772538593158475300,2.131475341796875,0.017011474817991257,-0.008801480755209923,-0.005352421198040247
1772538593168490000,2.141489990234375,0.011305917985737324,-0.00199390877969563,0.003610979998484254
1772538593178506200,2.15150634765625,0.005389705300331116,-0.010342385619878769,0.017591776326298714
1772538593188521200,2.161521240234375,0.0031582426745444536,-0.015561383217573166,0.030235933139920235
1772538593198536200,2.1715361328125,0.00347409350797534,-0.014243650250136852,0.040774326771497726
1772538593208552200,2.18155224609375,0.005110606085509062,-0.012544820085167885,0.04163559526205063
1772538593218567200,2.191567138671875,0.0023129554465413094,-0.012263856828212738,0.0263019111007452
1772538593228582100,2.20158203125,-0.0006282397080212831,-0.01537815760821104,0.01092455256730318
1772538593238598100,2.21159814453125,-0.0007414240390062332,-0.024897094815969467,-0.006425941362977028
1772538593248613000,2.221613037109375,0.00033209618413820863,-0.03056563250720501,-0.017045563086867332
1772538593258629000,2.231629150390625,0.0022985744290053844,-0.024102406576275826,-0.022161494940519333
1772538593268644000,2.24164404296875,0.0005531385540962219,-0.014429539442062378,-0.01836222968995571
1772538593278659000,2.2516591796875,-0.007034739945083857,-0.007963917218148708,-0.00939270295202732
1772538593288675000,2.261675048828125,-0.01401888020336628,-0.0019835224375128746,0.0052112736739218235
1772538593298690000,2.27168994140625,-0.0173233300447464,0.002734267385676503,0.02010606788098812
1772538593308705000,2.281705078125,-0.01822773925960064,0.0022421153262257576,0.03268630802631378
1772538593318721000,2.291720947265625,-0.014176539145410061,0.0015518239233642817,0.04284999519586563
1772538593328736000,2.301736083984375,-0.006367351859807968,-0.0037356161046773195,0.045573875308036804
1772538593338752000,2.311751953125,-0.004188619554042816,-0.012661999091506004,0.038244858384132385
1772538593348767000,2.32176708984375,-0.0037832865491509438,-0.015003716573119164,0.02238919585943222
1772538593358782000,2.331781982421875,0.004713528789579868,-0.005032042972743511,0.009070460684597492
1772538593368798000,2.3417978515625,0.006293049547821283,0.0008498146780766547,-0.0019084211671724916
1772538593378813000,2.35181298828125,0.007366036996245384,-0.008851282298564911,-0.0056983656249940395
1772538593388828200,2.361828125,0.0047055394388735294,-0.014912636950612068,-0.003784351982176304
1772538593398844000,2.371843994140625,0.008160724304616451,-0.014596519060432911,0.004364654887467623
1772538593408859100,2.381859130859375,0.009252620860934258,-0.013848437927663326,0.015384282916784286
1772538593418875000,2.391875,0.009425459429621696,-0.009378321468830109,0.024327177554368973
1772538593428890000,2.40189013671875,0.008740228600800037,0.001469798618927598,0.03232278674840927
1772538593438905000,2.411905029296875,0.004471447318792343,0.006140983197838068,0.03518301993608475
1772538593448921000,2.421921142578125,0.00033156355493701994,0.003494866192340851,0.03329350799322128
1772538593458936000,2.43193603515625,-0.003712979145348072,0.002731071785092354,0.020425911992788315
1772538593468951000,2.441950927734375,-0.004391552414745092,0.009030246175825596,-0.0005624596378766
1772538593478967000,2.451967041015625,-0.0037436054553836584,0.013272928074002266,-0.018554508686065674
1772538593488982000,2.46198193359375,-0.007605455350130796,0.010610832832753658,-0.029763221740722656
1772538593498998000,2.471998046875,-0.005167331546545029,0.0030479878187179565,-0.030186930671334267
1772538593509013000,2.482012939453125,-0.0004588626616168767,0.00037470675306394696,-0.018249576911330223
1772538593519028000,2.492028076171875,0.00714552728459239,-0.00005912217602599412,-0.0018133464036509395
1772538593529044200,2.502044189453125,0.012122176587581635,0.000050866376113845035,0.01130751520395279
1772538593539059700,2.512059814453125,0.01363405305892229,0.0068094367161393166,0.021521270275115967
1772538593549074700,2.52207470703125,0.013618340715765953,0.017344102263450623,0.018252506852149963
1772538593559090700,2.532090576171875,0.012312326580286026,0.00794127956032753,0.002659166231751442
1772538593569105700,2.542105712890625,0.022121014073491096,-0.009662214666604996,-0.008164453320205212
1772538593579121700,2.55212158203125,0.02207334339618683,-0.010989001952111721,-0.010609767399728298
1772538593589136600,2.56213671875,0.009956227615475655,-0.009583118371665478,-0.01245427317917347
1772538593599151600,2.572151611328125,-0.00001304948909819359,-0.0034738273825496435,-0.00848722830414772
1772538593609167600,2.582167724609375,-0.004561728797852993,0.006807838566601276,-0.0002348908019484952
1772538593619182600,2.5921826171875,-0.003930026665329933,0.007749532349407673,0.006185191683471203
1772538593629197600,2.602197509765625,-0.0016429040115326643,0.0022442457266151905,0.008870989084243774
1772538593639213600,2.612213623046875,0.0011494202772155404,-0.0013161342358216643,0.012015916407108307
1772538593649228500,2.622228515625,0.003763579297810793,-0.003811516100540757,0.0163576677441597
1772538593659244500,2.63224462890625,0.002773149637505412,-0.0015630092239007354,0.01744077540934086
1772538593669259500,2.642259521484375,-0.0013222594279795885,0.008617988787591457,0.023189475759863853
1772538593679274500,2.6522744140625,-0.0033688987605273724,0.005763879511505365,0.029383454471826553
1772538593689290500,2.66229052734375,-0.00036272252327762544,-0.0051806471310555935,0.029773341491818428
1772538593699305500,2.672305419921875,0.003939614165574312,-0.017778197303414345,0.021149227395653725
1772538593709320400,2.682320556640625,0.005545500200241804,-0.02261955849826336,0.009793775156140327
1772538593719336400,2.69233642578125,0.005958556663244963,-0.024053404107689857,-0.0034410704392939806
1772538593729351400,2.702351318359375,0.008175372146070004,-0.020501546561717987,-0.0033723609521985054
1772538593739367400,2.712367431640625,0.00942013319581747,-0.013876134529709816,0.011187140829861164
1772538593749382400,2.72238232421875,0.0065345983020961285,-0.01751800812780857,0.030295321717858315
1772538593759397600,2.732397705078125,0.0009771138429641724,-0.021344969049096107,0.04484124109148979
1772538593769413400,2.742413330078125,-0.00043329631444066763,-0.019094333052635193,0.04282176494598389
1772538593779428600,2.7524287109375,0.0025715483352541924,-0.011969311162829399,0.027903269976377487
1772538593789443600,2.762443603515625,0.005648298189043999,-0.013078250922262669,0.004023769870400429
1772538593799459600,2.77245947265625,0.00418249424546957,-0.019217636436223984,-0.009256615303456783
1772538593809474600,2.782474609375,0.0062704128213226795,-0.02526647411286831,-0.010480071417987347
1772538593819490600,2.792490478515625,0.008189752697944641,-0.031621310859918594,-0.0009318400407209992
1772538593829505500,2.802505615234375,0.010784470476210117,-0.039626237004995346,0.01005263440310955
1772538593839520500,2.8125205078125,0.012530173175036907,-0.033133186399936676,0.014985607005655766
1772538593849536800,2.822536865234375,0.01185399666428566,-0.021677331998944283,0.005567071959376335
1772538593859551500,2.832551513671875,0.018014153465628624,0.0013611416798084974,-0.00373082235455513
1772538593869566500,2.84256640625,0.01816435717046261,0.01606392115354538,-0.00845766719430685
1772538593879582700,2.852582763671875,0.012092615477740765,0.011435081250965595,-0.006596383638679981
1772538593889597700,2.86259765625,0.008204666897654533,0.0013070794520899653,0.0006756439688615501
1772538593899613700,2.87261376953125,0.0036599822342395782,-0.014781609177589417,0.005028847139328718
1772538593909628700,2.882628662109375,0.0021792647894471884,-0.02762550301849842,-0.002323341788724065
1772538593919643600,2.8926435546875,0.004989698529243469,-0.035408589988946915,-0.018762502819299698
1772538593929659600,2.90265966796875,0.007643538527190685,-0.026148779317736626,-0.03296647220849991
1772538593939674600,2.912674560546875,0.008539159782230854,-0.011181548237800598,-0.027459854260087013
1772538593949689600,2.922689697265625,0.010459565557539463,-0.011289938353002071,-0.012659602798521519
1772538593959705600,2.93270556640625,0.00800173357129097,-0.009723467752337456,0.007426224648952484
1772538593969720600,2.942720458984375,0.007967645302414894,-0.005110872443765402,0.02490960992872715
1772538593979736600,2.952736572265625,0.009522132575511932,-0.0076027922332286835,0.025482190772891045
1772538593989751600,2.96275146484375,0.0123030049726367,-0.016407469287514687,0.013795707374811172
1772538593999766500,2.9727666015625,0.00899855513125658,-0.021032581105828285,-0.0041468082927167416
1772538594009782500,2.982782470703125,-0.0015763250412419438,-0.013820740394294262,-0.022843530401587486
1772538594019797500,2.992797607421875,-0.009295497089624405,-0.012684103101491928,-0.030673490837216377
1772538594029812500,3.0028125,-0.016108661890029907,-0.013003150001168251,-0.02401638589799404
1772538594039828500,3.012828369140625,-0.01660427637398243,-0.012710735201835632,-0.0096835196018219
1772538594049843500,3.022843505859375,-0.015162973664700985,-0.014539261348545551,0.011393003165721893
1772538594059859500,3.032859375,-0.012969860807061195,-0.03591672331094742,0.024468857795000076
1772538594069874400,3.04287451171875,-0.004473311826586723,-0.024521853774785995,0.02581162378191948
1772538594079889400,3.052889404296875,0.002743055811151862,0.001806155894882977,0.018438661471009254
1772538594089905400,3.062905517578125,0.0029430591966956854,0.013011406175792217,0.007306915242224932
1772538594099920400,3.07292041015625,-0.005691175349056721,0.026386333629488945,0.004637895151972771
1772538594109935600,3.082935546875,-0.013628460466861725,0.03212065249681473,0.006841128226369619
1772538594119951400,3.092951416015625,-0.015598134137690067,0.03826509788632393,0.00908404216170311
1772538594129966600,3.102966552734375,-0.012652145698666573,0.03963422775268555,0.009458483196794987
1772538594139982300,3.112982421875,-0.012531237676739693,0.025839319452643394,0.0041302964091300964
1772538594149997600,3.12299755859375,-0.005531918257474899,0.003468234557658434,-0.00253479671664536
1772538594160012500,3.133012451171875,-0.003875698195770383,-0.017947308719158173,-0.014357900246977806
1772538594170028500,3.143028564453125,-0.005110339727252722,-0.03568529337644577,-0.028483573347330093
1772538594180043500,3.15304345703125,-0.004177168011665344,-0.036022450774908066,-0.037995584309101105
1772538594190058500,3.16305859375,-0.000758734589908272,-0.028620991855859756,-0.04451527073979378
1772538594200074500,3.173074462890625,0.00039974047103896737,-0.016341688111424446,-0.04471847042441368
1772538594210089500,3.18308935546875,0.006429137196391821,0.0006641923682764173,-0.039861660450696945
1772538594220105700,3.193105712890625,0.013431918807327747,0.008677643723785877,-0.030465230345726013
1772538594230120700,3.20312060546875,0.019631491973996162,0.011271030642092228,-0.017302025109529495
1772538594240135400,3.213135498046875,0.02748701721429825,0.015369635075330734,0.0004673847579397261
1772538594250151700,3.223151611328125,0.026073679327964783,0.01661599427461624,0.012745888903737068
1772538594260166700,3.233166748046875,0.018674351274967194,0.016204535961151123,0.016167517751455307
1772538594270181600,3.243181640625,0.011654258705675602,0.02068929933011532,0.008790295571088791
1772538594280197600,3.25319775390625,0.01113227941095829,0.022759374231100082,-0.0034290861804038286
1772538594290212600,3.263212646484375,0.014977085404098034,0.023547669872641563,-0.022770825773477554
1772538594300228600,3.273228515625,0.017711086198687553,0.023789219558238983,-0.038712240755558014
1772538594310243600,3.28324365234375,0.013790912926197052,0.020304206758737564,-0.046408511698246
1772538594320258600,3.293258544921875,0.010905911214649677,0.023147396743297577,-0.04832279309630394
1772538594330274600,3.303274658203125,0.004071706905961037,0.02298387885093689,-0.0422595739364624
1772538594340289500,3.31328955078125,-0.003634948516264558,0.020501812919974327,-0.03412574529647827
1772538594350304500,3.323304443359375,-0.0013749900972470641,0.021874671801924706,-0.02208399772644043
1772538594360320500,3.333320556640625,0.006748716346919537,0.02437831088900566,-0.004719654098153114
1772538594370335500,3.34333544921875,0.00971787516027689,0.01751214824616909,0.011769041419029236
1772538594380350500,3.3533505859375,0.012915798462927341,0.002871153876185417,0.021352693438529968
1772538594390366500,3.363366455078125,0.0158306285738945,-0.005845638457685709,0.022175077348947525
1772538594400381400,3.37338134765625,0.01763199083507061,-0.007758054416626692,0.018491392955183983
1772538594410397400,3.3833974609375,0.008929579518735409,-0.008329834789037704,0.010387926362454891
1772538594420412400,3.393412353515625,-0.006074936594814062,-0.004621649626642466,-0.00923451129347086
1772538594430427600,3.403427734375,-0.01900671422481537,0.0021997711155563593,-0.037768151611089706
1772538594440443400,3.413443359375,-0.02297802083194256,0.011691543273627758,-0.06264606863260269
1772538594450458600,3.423458740234375,-0.023255787789821625,0.012530971318483353,-0.07898110151290894
1772538594460473600,3.4334736328125,-0.019947342574596405,0.008851815015077591,-0.07851558178663254
1772538594470489600,3.443489501953125,-0.023209981620311737,0.005173723213374615,-0.06619952619075775
1772538594480504600,3.453504638671875,-0.029465746134519577,0.007906392216682434,-0.049797914922237396
1772538594490520600,3.4635205078125,-0.030595192685723305,0.007411577273160219,-0.030461503192782402
1772538594500535600,3.47353564453125,-0.021640313789248466,0.009825732558965683,-0.013243366964161396
1772538594510550500,3.483550537109375,-0.011597533710300922,-0.0022860574536025524,-0.001967277145013213
1772538594520566500,3.49356640625,-0.0038456046022474766,-0.014658571220934391,0.0010586065473034978
1772538594530581500,3.50358154296875,0.0036218990571796894,-0.013340040110051632,-0.00523657351732254
1772538594540597000,3.513596923828125,0.005243231542408466,-0.005261873826384544,-0.006281065288931131
1772538594550613000,3.523613037109375,-0.003571032779291272,-0.009158611297607422,-0.0062184808775782585
1772538594560628000,3.5336279296875,-0.014991465955972672,-0.017185112461447716,-0.00036192359402775764
1772538594570644000,3.54364404296875,-0.022585736587643623,-0.018493790179491043,0.0025001754984259605
1772538594580659000,3.553658935546875,-0.030898794531822205,-0.0309243593364954,0.000075101139373146
1772538594590674000,3.563673828125,-0.03477715328335762,-0.0315195769071579,-0.009946906939148903
1772538594600690000,3.57368994140625,-0.031450334936380386,-0.008820655755698681,-0.02149011194705963
1772538594610705000,3.583704833984375,-0.024592427536845207,0.016932643949985504,-0.029268406331539154
1772538594620719900,3.593719970703125,-0.024626782163977623,0.020180102437734604,-0.03442082554101944
1772538594630736000,3.60373583984375,-0.028331506997346878,0.011300325393676758,-0.03346847742795944
1772538594640750800,3.613750732421875,-0.03144953399896622,-0.0011044129496440291,-0.033896978944540024
1772538594650765800,3.623765869140625,-0.028974926099181175,-0.019175026565790176,-0.026497388258576393
1772538594660781800,3.63378173828125,-0.017959559336304665,-0.02924497053027153,-0.018264224752783775
1772538594670796800,3.643796875,-0.006674414500594139,-0.03167217597365379,-0.007199056912213564
1772538594680812800,3.653812744140625,-0.0033097765408456326,-0.019051721319556236,0.0016881778137758374
1772538594690827800,3.663827880859375,-0.0017899106023833156,-0.0011787151452153921,0.00951174646615982
1772538594700842800,3.6738427734375,-0.0071069118566811085,0.010495251044631004,0.011579424142837524
1772538594710858800,3.683858642578125,-0.013071061111986637,0.012947756797075272,0.01236612256616354
1772538594720873700,3.693873779296875,-0.021985193714499474,0.010416155681014061,0.009832390584051609
1772538594730889000,3.703888916015625,-0.023064306005835533,0.005478122271597385,0.003805390791967511
1772538594740904700,3.71390478515625,-0.023809192702174187,0.00321843009442091,-0.0031526500824838877
1772538594750920000,3.723919921875,-0.019812054932117462,-0.002802444389089942,-0.016641294583678246
1772538594760936000,3.73393603515625,-0.01733398251235485,-0.007951932959258556,-0.02809182181954384
1772538594770951000,3.743950927734375,-0.016580307856202126,-0.01308384444564581,-0.03622777760028839
1772538594780966000,3.7539658203125,-0.014762167818844318,-0.013307283632457256,-0.040339432656764984
1772538594790982000,3.76398193359375,-0.020563865080475807,-0.008791893720626831,-0.037809696048498154
1772538594800997000,3.7739970703125,-0.02936667762696743,0.0032466596458107233,-0.025960760191082954
1772538594811012000,3.78401220703125,-0.035225898027420044,0.014238324016332626,-0.01973029598593712
1772538594821028000,3.794028076171875,-0.03377500921487808,0.02894882671535015,-0.012323778122663498
1772538594831043000,3.80404296875,-0.02683747373521328,0.038309838622808456,-0.010731207206845284
1772538594841058000,3.81405810546875,-0.011199657805263996,0.041194573044776917,-0.011809787712991238
1772538594851074000,3.824073974609375,-0.001041295938193798,0.040822796523571014,-0.01631079614162445
1772538594861089000,3.834089111328125,0.006445648614317179,0.0385894700884819,-0.021039238199591637
1772538594871105000,3.84410498046875,0.010293384082615376,0.034088995307683945,-0.01949194259941578
1772538594881120000,3.8541201171875,0.015360048040747643,0.024767132475972176,-0.0106505136936903
1772538594891135000,3.864135009765625,0.01654914952814579,0.011449728161096573,0.007442469708621502
1772538594901151000,3.87415087890625,0.01859605498611927,-0.0009462211164645851,0.024835575371980667
1772538594911166000,3.884166015625,0.01900804601609707,-0.0007126618875190616,0.0265373345464468
1772538594921181000,3.894180908203125,0.01877608522772789,0.005434712860733271,0.008567122742533684
1772538594931197000,3.904197021484375,0.02141820639371872,0.018801650032401085,-0.0218520350754261
1772538594941212000,3.9142119140625,0.016648218035697937,0.026734407991170883,-0.055093079805374146
1772538594951228000,3.924227783203125,0.006331132724881172,0.03254516050219536,-0.07973983883857727
1772538594961243000,3.934242919921875,0.004862665664404631,0.03737879544496536,-0.08577269315719604
1772538594971257900,3.9442578125,0.015571502968668938,0.036263998597860336,-0.07324172556400299
1772538594981273900,3.95427392578125,0.017193900421261787,0.02442704513669014,-0.04206676036119461
1772538594991288800,3.964288818359375,0.018372882157564163,0.012341621331870556,-0.006554571911692619
1772538595001303800,3.9743037109375,0.016651414334774017,0.001356614287942648,0.014122210443019867
1772538595011319800,3.98431982421875,0.017197629436850548,-0.0022274679504334927,0.015276957303285599
1772538595021334800,3.994334716796875,0.020710604265332222,0.005631520412862301,-0.0006122607155703008
1772538595031350000,4.00435009765625,0.02136041596531868,0.01769137941300869,-0.017192302271723747
1772538595041365800,4.01436572265625,0.017798172309994698,0.023625701665878296,-0.025583390146493912
1772538595051381000,4.024381103515625,0.011950668878853321,0.028052939102053642,-0.01985839381814003
1772538595061396700,4.034396728515625,0.008944226428866386,0.025782061740756035,-0.0044165863655507565
1772538595071412000,4.044411865234375,0.005441370885819197,0.013112340122461319,0.009652361273765564
1772538595081427000,4.054427001953125,0.0008878979133442044,-0.0023824640084058046,0.0164231825619936
1772538595091443000,4.06444287109375,-0.004731638357043266,-0.011208179406821728,0.011356251314282417
1772538595101458000,4.0744580078125,-0.006159625016152859,-0.01332699041813612,-0.0002564624010119587
1772538595111473000,4.084472900390625,-0.005815012380480766,-0.006335127633064985,-0.015988022089004517
1772538595121489000,4.094489013671875,-0.006917827297002077,0.004429901950061321,-0.03627145662903786
1772538595131503900,4.10450390625,-0.013745106756687164,0.0187222883105278,-0.04934518039226532
1772538595141518800,4.114518798828125,-0.018745191395282745,0.025715483352541924,-0.05024399608373642
1772538595151535000,4.12453515625,-0.02809448540210724,0.020958811044692993,-0.04409129545092583
1772538595161549800,4.1345498046875,-0.03633350506424904,0.01395895890891552,-0.029766418039798737
1772538595171566000,4.144566162109375,-0.04144011810421944,-0.002186455298215151,-0.018634671345353127
1772538595181581000,4.1545810546875,-0.04147447273135185,-0.024036627262830734,-0.014418886974453926
1772538595191596000,4.164595947265625,-0.03477981686592102,-0.03214701637625694,-0.015202920883893967
1772538595201612000,4.174612060546875,-0.022889869287610054,-0.026371952146291733,-0.02143045701086521
1772538595211627000,4.184626953125,-0.009928264655172825,-0.016949955374002457,-0.022955382242798805
1772538595221642000,4.19464208984375,0.00039015308720991015,-0.016869261860847473,-0.0200999416410923
1772538595231658000,4.204657958984375,-0.002144643571227789,-0.023129820823669434,-0.012526444159448147
1772538595241673000,4.2146728515625,-0.009107211604714394,-0.021827800199389458,-0.010183927603065968
1772538595251688000,4.22468798828125,-0.015117167495191097,-0.00643792562186718,-0.012282232753932476
1772538595261704000,4.234703857421875,-0.021855231374502182,0.009618006646633148,-0.023737553507089615
1772538595271719000,4.244718994140625,-0.029625004157423973,0.01985120214521885,-0.03833061084151268
1772538595281735000,4.25473486328125,-0.034881286323070526,0.024747423827648163,-0.04740879312157631
1772538595291750000,4.26475,-0.03572097793221474,0.027830298990011215,-0.05956665799021721
1772538595301764900,4.274764892578125,-0.0308681670576334,0.03544986993074417,-0.08222349733114243
1772538595311780900,4.28478076171875,-0.005003546830266714,0.03373932093381882,-0.08335108309984207
1772538595321795800,4.2947958984375,0.008318383246660233,0.03707413002848625,-0.056049421429634094
1772538595331811000,4.30481103515625,0.008083492517471313,0.03287086263298988,-0.02472611889243126
1772538595341826800,4.314826904296875,-0.0015310513554140925,0.014913702383637428,0.0013851100811734796
1772538595351842000,4.324842041015625,-0.009217200800776482,-0.0016706009628251195,0.011176488362252712
1772538595361857000,4.33485693359375,-0.013430587947368622,0.0017699368763715029,0.004253600724041462
1772538595371873000,4.344873046875,-0.012106996960937977,0.018667427822947502,-0.014490791596472263
1772538595381888000,4.354887939453125,-0.009796171449124813,0.025007082149386406,-0.03449539095163345
1772538595391904000,4.364904052734375,-0.008173507638275623,0.03062981367111206,-0.048960618674755096
1772538595401919000,4.3749189453125,-0.012255067937076092,0.038167890161275864,-0.05462729185819626
1772538595411934000,4.384933837890625,-0.015381086617708206,0.03885551914572716,-0.05103495344519615
1772538595421950000,4.394949951171875,-0.01588628813624382,0.03373772278428078,-0.040469929575920105
1772538595431965000,4.40496484375,-0.017307084053754807,0.03144900128245354,-0.027086744084954262
1772538595441980000,4.41497998046875,-0.015392271801829338,0.025241972878575325,-0.012258530594408512
1772538595451996000,4.424995849609375,-0.01492062583565712,0.020660536363720894,-0.005085572600364685
1772538595462011000,4.435010986328125,-0.015535017475485802,0.020602213218808174,-0.004345479886978865
1772538595472025900,4.44502587890625,-0.01378372311592102,0.02484383061528206,-0.013407950289547443
1772538595482041900,4.455041748046875,-0.01107715256512165,0.032101742923259735,-0.023063240572810173
1772538595492056800,4.465056884765625,-0.010879545472562313,0.03714337199926376,-0.029026858508586884
1772538595502072800,4.47507275390625,-0.012017248198390007,0.04264599829912186,-0.03169827535748482
1772538595512087800,4.485087890625,-0.011461446061730385,0.044795166701078415,-0.02797597460448742
1772538595522102800,4.495102783203125,-0.01233602873980999,0.04736005887389183,-0.021507954224944115
1772538595532119000,4.505119140625,-0.01104359608143568,0.055019311606884,-0.01721067912876606
1772538595542134300,4.51513427734375,-0.01273017656058073,0.06512094289064407,-0.018743593245744705
1772538595552149000,4.52514892578125,-0.009793242439627647,0.06755134463310242,-0.02959837205708027
1772538595562165200,4.535165283203125,-0.006446980405598879,0.06029423326253891,-0.04568919166922569
1772538595572180200,4.54518017578125,-0.00032730249222368,0.05036383867263794,-0.056891776621341705
1772538595582195200,4.5551953125,0.006036054342985153,0.03873967379331589,-0.062185611575841904
1772538595592211200,4.565211181640625,0.011787683703005314,0.021402493119239807,-0.06337258219718933
1772538595602226200,4.57522607421875,0.014103035442531109,0.009111473336815834,-0.05759032443165779
1772538595612242200,4.5852421875,0.019407786428928375,0.005328985396772623,-0.05127570405602455
1772538595622257200,4.595257080078125,0.019601130858063698,0.0034466630313545465,-0.037399038672447205
1772538595632272100,4.605272216796875,0.017479924485087395,0.0018905780743807554,-0.02659672312438488
1772538595642288000,4.6152880859375,0.013194365426898003,0.010151703841984272,-0.018317222595214844
1772538595652303000,4.62530322265625,0.013671603985130787,0.017139306291937828,-0.012518987990915775
1772538595662318300,4.635318359375,0.018036790192127228,0.021997177973389626,-0.0070555126294493675
1772538595672334000,4.645333984375,0.015202389098703861,0.015599199570715427,-0.005405151750892401
1772538595682349300,4.655349365234375,0.008128234185278416,0.012348012998700142,-0.005134041886776686
1772538595692364300,4.6653642578125,0.0002820287481881678,0.015594139695167542,-0.0034072482958436012
1772538595702380300,4.67538037109375,-0.004145476501435041,0.025352761149406433,-0.0017414409667253494
1772538595712395300,4.685395263671875,-0.008126103319227695,0.026545856148004532,-0.002532133599743247
1772538595722410200,4.69541015625,-0.012206865474581718,0.018146513029932976,-0.006164685357362032
1772538595732426200,4.70542626953125,-0.00908271037042141,0.00948218535631895,-0.011268100701272488
1772538595742441200,4.715441162109375,-0.005593969952315092,-0.0028101676143705845,-0.012831109575927258
1772538595752457200,4.725457275390625,-0.00549330236390233,-0.005055212415754795,-0.00977539923042059
1772538595762472200,4.73547216796875,-0.008265652693808079,-0.008645153604447842,-0.0034144388046115637
1772538595772487200,4.745487060546875,-0.016270581632852554,-0.005667473189532757,0.0010612696642056108
1772538595782503200,4.755503173828125,-0.01853932999074459,-0.0010554107138887048,0.003564641112461686
1772538595792518100,4.76551806640625,-0.01822507567703724,0.007780691608786583,0.00993279181420803
1772538595802533000,4.775533203125,-0.012281433679163456,0.008262190967798233,0.020838702097535133
1772538595812549000,4.785549072265625,-0.009818808175623417,0.006988134700804949,0.03166232258081436
1772538595822564000,4.795564208984375,-0.008056594990193844,0.010588995181024075,0.03563336282968521
1772538595832579000,4.8055791015625,-0.003328418591991067,0.008777512237429619,0.030958181247115135
1772538595842595000,4.815594970703125,-0.00008868326403899118,-0.003908987622708082,0.02153485268354416
1772538595852610000,4.825610107421875,0.0034946000669151545,-0.023377494886517525,0.007797203026711941
1772538595862626000,4.8356259765625,0.0021947110071778297,-0.02858930081129074,-0.005917810369282961
1772538595872641000,4.84564111328125,-0.004493285436183214,-0.022280272096395493,-0.013888118788599968
1772538595882656000,4.855656005859375,-0.014195980504155159,-0.011577027849853039,-0.017552096396684647
1772538595892672000,4.865672119140625,-0.01853853091597557,-0.0008945558220148087,-0.01781308464705944
1772538595902687000,4.87568701171875,-0.02286856435239315,0.002686596941202879,-0.014480938203632832
1772538595912702200,4.8857021484375,-0.025966353714466095,-0.000002663161012605997,-0.010341587476432323
1772538595922718200,4.89571826171875,-0.02184511162340641,0.001038632821291685,-0.007644870318472385
1772538595932733200,4.905733154296875,-0.023093601688742638,0.006709834095090628,-0.009565009735524654
1772538595942748200,4.915748046875,-0.020840300247073174,0.012562663294374943,-0.01047607697546482
1772538595952764200,4.92576416015625,-0.015564045868813992,0.018276741728186607,-0.011068630032241344
1772538595962779400,4.935779296875,-0.010091516189277172,0.022340193390846252,-0.006261890754103661
1772538595972794000,4.945794189453125,-0.012737366370856762,0.020134029909968376,-0.0041486723348498344
1772538595982810400,4.955810302734375,-0.018485000357031822,0.017848771065473557,-0.0007869640830904245
1772538595992825300,4.965825439453125,-0.021039504557847977,0.014991732314229012,0.0046967510133981705
1772538596002841300,4.97584130859375,-0.026163427159190178,0.006234726402908564,0.005254949443042278
1772538596012856300,4.985856201171875,-0.029163744300603867,0.00817989930510521,0.0007725830073468387
1772538596022871300,4.995871337890625,-0.024657143279910088,0.019162775948643684,-0.008891495876014233
1772538596032887300,5.00588720703125,-0.019183814525604248,0.022007564082741737,-0.011987687088549137
1772538596042902300,5.01590234375,-0.01278423797339201,0.020077038556337357,-0.008215053007006645
1772538596052917200,5.025917236328125,-0.010784204117953777,0.012212458066642284,-0.009220396168529987
1772538596062933200,5.035933349609375,-0.005363606382161379,0.00011078749957960099,-0.00868936162441969
1772538596072948200,5.0459482421875,0.0020391824655234814,-0.006342317909002304,-0.008890696801245213
1772538596082963200,5.055963134765625,0.006566822528839111,-0.0027060380671173334,-0.006727145053446293
1772538596092979200,5.065979248046875,0.010778877884149551,-0.0017062872648239136,-0.003485811408609152
1772538596102994200,5.075994140625,-0.009313873015344143,-0.02925056405365467,-0.00047643951256759465
1772538596113009200,5.086009033203125,0.003560912562534213,-0.019888220354914665,0.0070517840795218945
1772538596123025200,5.096025146484375,0.005048021674156189,-0.004032026045024395,-0.006523679476231337
1772538596133040000,5.1060400390625,-0.0006767092272639275,-0.0010665960144251585,-0.017167534679174423
1772538596143056100,5.11605615234375,-0.012619122862815857,0.019030416384339333,-0.02365286462008953
1772538596153071000,5.126071044921875,-0.01477415207773447,0.02153831534087658,-0.025139441713690758
1772538596163086000,5.136086181640625,-0.010845457203686237,0.02359400875866413,-0.018683671951293945
1772538596173102000,5.14610205078125,-0.0057556238025426865,0.018333999440073967,-0.010939733125269413
1772538596183117000,5.156116943359375,-0.0009928264189511538,0.00047883635852485895,0.003900199430063367
1772538596193132300,5.16613232421875,0.003949201665818691,-0.026381539180874825,0.01660960353910923
1772538596203148000,5.17614794921875,0.0026695525739341974,-0.043173037469387054,0.018034661188721657
1772538596213163300,5.186163330078125,-0.003593935864046216,-0.044560011476278305,0.004363855812698603
1772538596223178200,5.19617822265625,-0.004226170480251312,-0.020612334832549095,-0.013290771283209324
1772538596233194200,5.2061943359375,-0.004629106726497412,0.002695385366678238,-0.023875504732131958
1772538596243209200,5.216209228515625,-0.01007979828864336,0.010252904146909714,-0.026703782379627228
1772538596253224200,5.22622412109375,-0.019410716369748116,0.01176478061825037,-0.015334747731685638
1772538596263240200,5.236240234375,-0.024818796664476395,0.008616125211119652,-0.002567020943388343
1772538596273255200,5.246255126953125,-0.02040034718811512,0.0023094932548701763,0.009750365279614925
1772538596283271200,5.256271240234375,-0.01110245194286108,-0.00577826052904129,0.020446952432394028
1772538596293286100,5.2662861328125,-0.0001030643325066194,-0.00905794370919466,0.02371225319802761
1772538596303301000,5.276301025390625,0.00871945545077324,-0.01341514103114605,0.020718595013022423
1772538596313317000,5.286317138671875,0.011028682813048363,-0.0023664848413318396,0.016621854156255722
1772538596323332000,5.29633203125,0.004612594842910767,0.01438160240650177,0.007458448875695467
1772538596333347000,5.30634716796875,-0.007690410129725933,0.024946361780166626,-0.004216316621750593
1772538596343989200,5.3169892578125,-0.011523764580488205,0.02972407266497612,-0.012724850326776505
1772538596354004200,5.327004150390625,-0.007682953495532274,0.034213095903396606,-0.013540842570364475
1772538596364019200,5.337019287109375,-0.008499745279550552,0.040053144097328186,-0.007112504448741674
1772538596374035200,5.34703515625,-0.012569054961204529,0.04053410887718201,0.008863532915711403
1772538596384050200,5.35705029296875,-0.015861254185438156,0.04296770691871643,0.019871709868311882
1772538596394065200,5.367065185546875,-0.017076455056667328,0.040353816002607346,0.02851686254143715
1772538596404081200,5.3770810546875,-0.009484315291047096,0.02678820490837097,0.031074296683073044
1772538596414096100,5.38709619140625,-0.011062504723668098,0.007339139468967915,0.03599049150943756
1772538596424111000,5.397111083984375,-0.011089136824011803,0.012920591980218887,0.046785879880189896
1772538596434127000,5.407127197265625,-0.0035217641852796078,0.025255821645259857,0.0520341731607914
1772538596444142000,5.41714208984375,-0.006756706163287163,0.018728680908679962,0.04183719679713249
1772538596454158000,5.427157958984375,-0.007244330830872059,0.02262355387210846,0.021510085090994835
1772538596464173000,5.437173095703125,-0.004844556096941233,0.014138721860945225,-0.004766525700688362
1772538596474188000,5.44718798828125,0.016206666827201843,0.022226741537451744,-0.027588484808802605
1772538596484204000,5.4572041015625,0.020922059193253517,0.025051290169358253,-0.03947310522198677
1772538596494219000,5.467218994140625,0.010615626350045204,0.027887823060154915,-0.03688797727227211
1772538596504234000,5.47723388671875,0.005623797420412302,0.02165842428803444,-0.01918887533247471
1772538596514250200,5.487250244140625,0.004496481269598007,0.007303985767066479,0.0010183927370235324
1772538596524265000,5.497264892578125,0.009366070851683617,-0.00464615086093545,0.01925971545279026
1772538596534280000,5.507280029296875,0.013725665397942066,-0.01320954505354166,0.021806495264172554
1772538596544295200,5.517295166015625,0.016643691807985306,-0.014391722157597542,0.008142348378896713
1772538596554310100,5.52731005859375,0.018466891720891,-0.005107942968606949,-0.01184866949915886
1772538596564325000,5.5373251953125,0.018191253766417503,0.0160647202283144,-0.02552107162773609
1772538596574341000,5.547341064453125,0.0065196845680475235,0.023960193619132042,-0.030100643634796143
1772538596584356000,5.557356201171875,-0.006254167295992374,0.018325477838516235,-0.01992390677332878
1772538596594372000,5.5673720703125,-0.008558601140975952,0.005915413144975901,-0.009587912820279598
1772538596604387000,5.577386962890625,-0.012179967015981674,-0.008460329845547676,0.0016929714474827051
1772538596614402000,5.587402099609375,-0.016149675473570824,-0.011569304391741753,0.003959587775170803
1772538596624418000,5.59741796875,-0.02418682910501957,0.0013070794520899653,0.002660231664776802
1772538596634433000,5.60743310546875,-0.03062795102596283,0.01871243491768837,0.001255414099432528
1772538596644448000,5.617447998046875,-0.02713814377784729,0.032411202788352966,0.008218781091272831
1772538596654464000,5.627464111328125,-0.024348216131329536,0.031616516411304474,0.012990633025765419
1772538596664479000,5.63747900390625,-0.02268746867775917,0.02298121526837349,0.011071027256548405
1772538596674494000,5.647493896484375,-0.012478507123887539,0.013548832386732101,0.005578789860010147
1772538596684510000,5.657510009765625,-0.002073537092655897,0.009957825765013695,-0.0036554548423737288
1772538596695151000,5.668151123046875,0.00044900894863530993,0.005348159931600094,-0.008403871208429337
1772538596705166000,5.678166015625,-0.006874151527881622,0.007752461824566126,-0.005115399602800608
1772538596715182000,5.68818212890625,-0.013519004918634892,0.012279036454856396,0.0073173013515770435
1772538596725197000,5.698197021484375,-0.0200437493622303,0.01618802547454834,0.01997610554099083
1772538596735212000,5.7082119140625,-0.027160247787833214,0.015029283240437508,0.024098411202430725
1772538596745228000,5.71822802734375,-0.029109416529536247,0.015931827947497368,0.02040806971490383
1772538596755243000,5.728242919921875,-0.028305673971772194,0.012746954336762428,0.010484864935278893
1772538596765258000,5.738258056640625,-0.02364727295935154,0.0059684100560843945,-0.007698932196944952
1772538596775274000,5.74827392578125,-0.015847938135266304,0.01401808112859726,-0.013187174685299397
1772538596785289000,5.7582890625,-0.006824616342782974,0.019882095977663994,-0.005909554194658995
1772538596795304000,5.768303955078125,-0.002877012826502323,0.015868712216615677,0.011625230312347412
1772538596805320000,5.77831982421875,-0.005642172880470753,0.004806739278137684,0.030015423893928528
1772538596815335000,5.7883349609375,-0.007719172164797783,-0.0037952708080410957,0.03767680376768112
1772538596825350100,5.79835009765625,-0.004447745159268379,0.006706904619932175,0.0381455197930336
1772538596835366000,5.808365966796875,-0.0052229915745556355,0.01696300506591797,0.029616747051477432
1772538596845381000,5.818381103515625,-0.00698014535009861,0.021530326455831528,0.018690863624215126
1772538596855396000,5.82839599609375,-0.001820803270675242,0.01944187469780445,0.007862983271479607
1772538596865412000,5.838412109375,0.0013041499769315124,0.029587453231215477,0.006066947244107723
1772538596875427000,5.848427001953125,0.011364507488906384,0.03616918995976448,0.008433965034782887
1772538596885443000,5.858443115234375,0.011506187729537487,0.030967503786087036,0.020327376201748848
1772538596895458000,5.8684580078125,0.007656588219106197,0.022668294608592987,0.03254595771431923
1772538596905473000,5.87847314453125,0.006311691831797361,0.012583436444401741,0.037519942969083786
1772538596915489300,5.8884892578125,0.008191084489226341,-0.0012471582740545273,0.03152037411928177
1772538596925504000,5.89850390625,0.010102435015141964,-0.009806823916733265,0.019688749685883522
1772538596935519000,5.90851904296875,0.009255816228687763,-0.014162690378725529,0.0025473134592175484
1772538596945535200,5.91853515625,0.008265919052064419,-0.006588927004486322,-0.017133446410298347
1772538596955550200,5.92855029296875,0.016567790880799294,0.005239236634224653,-0.032289762049913406
1772538596965565000,5.93856494140625,0.02448936365544796,0.01429238636046648,-0.0351441390812397
1772538596975581200,5.948581298828125,0.02786811627447605,0.010421481914818287,-0.03286447376012802
1772538596985596200,5.95859619140625,0.024508273229002953,0.004139351192861795,-0.02659725584089756
1772538596995611100,5.968611083984375,0.016706807538866997,-0.01158368494361639,-0.021524999290704727
1772538597005627100,5.978627197265625,0.012153335846960545,-0.02316896803677082,-0.020749753341078758
1772538597015642000,5.98864208984375,0.009828662499785423,-0.026450250297784805,-0.02640364319086075
1772538597025657000,5.998656982421875,0.010949053801596165,-0.020048541948199272,-0.02786678448319435
1772538597035673000,6.008673095703125,0.01519839372485876,-0.00974610447883606,-0.02419162169098854
1772538597045688000,6.01868798828125,0.016521984711289406,-0.006217682268470526,-0.010237190872430801
1772538597055703000,6.028703125,0.008451808243989944,-0.008460063487291336,0.005086371209472418
1772538597065719000,6.038718994140625,-0.003073021536692977,-0.004622182343155146,0.01594008505344391
1772538597075734000,6.048734130859375,-0.007724765222519636,0.0038746329955756664,0.01458826381713152
1772538597085750000,6.05875,-0.012133628129959106,-0.0002801645314320922,0.003689276985824108
1772538597095765000,6.068764892578125,-0.014576279558241367,-0.00954157393425703,-0.008625978603959084
1772538597105780200,6.0787802734375,-0.01353658176958561,-0.01775156706571579,-0.019331086426973343
1772538597115796000,6.0887958984375,-0.012242551892995834,-0.02297802083194256,-0.01942642778158188
1772538597125811200,6.098811279296875,-0.012850018218159676,-0.019183015450835228,-0.008420116268098354
1772538597135826200,6.108826171875,-0.016516925767064095,-0.013607155531644821,0.009434248320758343
1772538597145842200,6.11884228515625,-0.022214757278561592,-0.005632585845887661,0.02431892231106758
1772538597155857200,6.128857177734375,-0.02719433605670929,0.005434446502476931,0.03261040896177292
1772538597165872000,6.1388720703125,-0.027520574629306793,0.01375283021479845,0.031243406236171722
1772538597175888100,6.14888818359375,-0.024995097890496254,0.01113520935177803,0.028873194009065628
1772538597185903000,6.158903076171875,-0.023261912167072296,0.008652877062559128,0.026616163551807404
1772538597195918000,6.16891796875,-0.024086959660053253,0.010181264951825142,0.025784725323319435
1772538597205934000,6.17893408203125,-0.02474129945039749,0.008418251760303974,0.026025475934147835
1772538597215949000,6.188948974609375,-0.024455808103084564,0.0015193333383649588,0.02443290501832962
1772538597225964000,6.198964111328125,-0.0207500196993351,-0.009907225146889687,0.014485465362668037
1772538597235980000,6.20897998046875,-0.01471609529107809,-0.020960142835974693,-0.0017923073610290885
1772538597245995000,6.2189951171875,-0.010311227291822433,-0.0250848475843668,-0.017946509644389153
1772538597256010000,6.229010009765625,-0.0014817827614024282,-0.02190503291785717,-0.02732456475496292
1772538597266026000,6.23902587890625,-0.0007845672662369907,-0.013837252743542194,-0.025318140164017677
1772538597276041000,6.249041015625,-0.0034075146540999413,-0.007530354429036379,-0.01600799523293972
1772538597286056000,6.259055908203125,-0.010148241184651852,-0.00333161442540586,-0.011460380628705025
1772538597296072000,6.269072021484375,-0.01287372037768364,0.0057319216430187225,-0.01142842322587967
1772538597306087000,6.2790869140625,-0.010635067708790302,0.01594061776995659,-0.014344584196805954
1772538597316103000,6.28910302734375,-0.012286759912967682,0.024210531264543533,-0.0180522371083498
1772538597326118000,6.299117919921875,-0.012517922557890415,0.022179070860147476,-0.022115688771009445
1772538597336133000,6.309133056640625,-0.010945325717329979,0.02105548419058323,-0.026335999369621277
1772538597346148900,6.31914892578125,-0.008643022738397121,0.033669013530015945,-0.030415963381528854
1772538597356164000,6.3291640625,-0.004971855320036411,0.04724474251270294,-0.03116138093173504
1772538597366179000,6.339178955078125,-0.0008876316132955253,0.052978795021772385,-0.03177071362733841
1772538597376195000,6.349195068359375,0.00009108010999625549,0.0533929169178009,-0.030699854716658592
1772538597386210300,6.359210205078125,0.00635030772536993,0.04641250520944595,-0.028392227366566658
1772538597396225000,6.36922509765625,0.01194001641124487,0.03352813422679901,-0.02610883302986622
1772538597406241300,6.3792412109375,0.018866898491978645,0.02479003556072712,-0.020736703649163246
1772538597416256300,6.38925634765625,0.025123462080955505,0.024813205003738403,-0.0190192312002182
1772538597426271200,6.399271240234375,0.036857884377241135,0.020609937608242035,-0.023019565269351006
1772538597436287200,6.409287353515625,0.04932041093707085,0.008446482010185719,-0.03247778117656708
1772538597446302200,6.41930224609375,0.05933309718966484,0.005727660376578569,-0.04303348809480667
1772538597456317200,6.429317138671875,0.06398510932922363,-0.0008807073463685811,-0.0507153756916523
1772538597466333200,6.439333251953125,0.06514944136142731,-0.0011976235546171665,-0.055443815886974335
1772538597476348200,6.44934814453125,0.06465009599924088,0.001939580193720758,-0.052813947200775146
1772538597486363100,6.459363037109375,0.06290732324123383,0.00043302998528815806,-0.047322776168584824
1772538597496379100,6.469379150390625,0.05458441376686096,0.005817142780870199,-0.035475436598062515
1772538597506394000,6.47939404296875,0.04375547170639038,0.01882455311715603,-0.022839801385998726
1772538597516409000,6.4894091796875,0.0352645143866539,0.03184980899095535,-0.008299209177494049
1772538597526425000,6.499425048828125,0.03007960505783558,0.02840154804289341,-0.0003091930120717734
1772538597536440800,6.50944091796875,0.026560503989458084,0.018552912399172783,-0.00012836436508223414
1772538597546456800,6.519456787109375,0.02400999516248703,0.016922257840633392,0.000180029688635841
1772538597556471800,6.529471923828125,0.016824519261717796,0.015679894015192986,-0.0013520868960767984
1772538597566486800,6.53948681640625,0.006272010505199432,0.01344337034970522,-0.0030133668333292007
1772538597576502800,6.549502685546875,-0.00797270517796278,0.01164680253714323,-0.0014777880860492587
1772538597586517800,6.559517822265625,-0.020962806418538094,0.0024399880785495043,0.005447496194392443
1772538597596532700,6.56953271484375,-0.033180322498083115,-0.00956527516245842,0.0020064255222678185
1772538597606548700,6.579548828125,-0.04192081838846207,-0.015192534774541855,-0.005591839086264372
1772538597616563700,6.589563720703125,-0.04801013693213463,-0.014597850851714611,-0.016746489331126213
1772538597626578700,6.59957861328125,-0.05139288306236267,-0.010939200408756733,-0.018510833382606506
1772538597636594700,6.6095947265625,-0.05163789540529251,-0.007828895002603531,-0.00993092730641365
1772538597646609700,6.619609619140625,-0.05205654352903366,-0.005888781975954771,-0.00034887410583905876
1772538597656625000,6.629625,-0.04926368594169617,-0.004226702731102705,0.008155664429068565
1772538597666640600,6.639640625,-0.04926661401987076,-0.00490181427448988,0.003919107839465141
1772538597676655900,6.64965576171875,-0.05056224390864372,-0.011544803157448769,-0.0036647759843617678
1772538597686670800,6.6596708984375,-0.04972175136208534,-0.008594552986323833,-0.00948271807283163
1772538597696686800,6.669686767578125,-0.05258757621049881,-0.006583866663277149,-0.00884781964123249
1772538597706701800,6.679701904296875,-0.05831710249185562,-0.005268797744065523,-0.0035172367934137583
1772538597716716800,6.689716796875,-0.06241996958851814,0.004757737275213003,-0.0019619506783783436
1772538597726732800,6.69973291015625,-0.06315366923809052,0.020607806742191315,0.0008958873804658651
1772538597736747800,6.709747802734375,-0.060930728912353516,0.02754827030003071,0.0011547466274350882
1772538597746762800,6.7197626953125,-0.05656927078962326,0.030163228511810303,0.00247567449696362
1772538597756778800,6.72977880859375,-0.046480149030685425,0.027840685099363327,0.010396980680525303
1772538597766793700,6.739793701171875,-0.03852768614888191,0.023122895509004593,0.021140972152352333
1772538597776808700,6.74980859375,-0.028775988146662712,0.021525798365473747,0.02479296363890171
1772538597786825000,6.759824951171875,-0.01677844673395157,0.01263723149895668,0.02388216368854046
1772538597796840000,6.76983984375,-0.012057994492352009,-0.005758286919444799,0.017522800713777542
1772538597806854700,6.779854736328125,-0.00567093538120389,-0.020655211061239243,0.010957842692732811
1772538597816871000,6.789870849609375,-0.010483533143997192,-0.016281502321362495,0.002234658459201455
1772538597826886000,6.799885986328125,-0.012367187067866325,0.002502306131646037,-0.0016024239594116807
1772538597836900900,6.80990087890625,-0.009797503240406513,0.027293939143419266,-0.001297225710004568
1772538597846916900,6.819916748046875,-0.007680822629481554,0.03199654817581177,0.008191350847482681
1772538597856931800,6.829931884765625,-0.0037233654875308275,0.025347700342535973,0.018253039568662643
1772538597866947800,6.83994775390625,0.00028868665685877204,0.014415157958865166,0.02936587855219841
1772538597876962800,6.849962890625,-0.0015787219163030386,0.011227887123823166,0.03518355265259743
1772538597886977800,6.859977783203125,-0.004018976353108883,0.023301860317587852,0.03389777988195419
1772538597896993800,6.869993896484375,-0.005568137392401695,0.03647651895880699,0.023149793967604637
1772538597907008800,6.8800087890625,-0.0031678301747888327,0.035116441547870636,0.009820672683417797
1772538597917024000,6.89002392578125,0.0054610781371593475,0.028990373015403748,-0.00014647385978605598
1772538597927039700,6.900039794921875,0.014914234168827534,0.013843909837305546,-0.012337625958025455
1772538597937055000,6.910054931640625,0.021687451750040054,0.003710316028445959,-0.019759589806199074
1772538597947070000,6.920070068359375,0.024282969534397125,0.005339105147868395,-0.026028404012322426
1772538597957086000,6.9300859375,0.022901587188243866,0.013368802145123482,-0.025945579633116722
1772538597967101000,6.940100830078125,0.0180509053170681,0.02731737494468689,-0.02311783656477928
1772538597977116000,6.950115966796875,0.017964353784918785,0.03508475050330162,-0.011740013025701046
1772538597987132000,6.9601318359375,0.015361645258963108,0.03359737619757652,0.0021904499735683203
1772538597997147000,6.97014697265625,0.013395966030657291,0.028434038162231445,0.012353339232504368
1772538598007161900,6.980161865234375,0.016505474224686623,0.02105841413140297,0.02051246538758278
1772538598017177900,6.990177734375,0.021096762269735336,0.006966030225157738,0.02153139002621174
1772538598027192800,7.00019287109375,0.023578830063343048,-0.0013752563390880823,0.01128141675144434
1772538598037207800,7.010207763671875,0.02497698925435543,-0.0033310819417238235,-0.00830639898777008
1772538598047223800,7.020223876953125,0.02628832869231701,0.0014389059506356716,-0.027062511071562767
1772538598057238800,7.03023876953125,0.03122449852526188,0.013860422186553478,-0.027872378006577492
1772538598067253800,7.040253662109375,0.03394757956266403,0.023560186848044395,-0.011580223217606544
1772538598077269800,7.050269775390625,0.03015603870153427,0.025906166061758995,0.007562312297523022
1772538598087284700,7.06028466796875,0.023909326642751694,0.02870647981762886,0.027775438502430916
1772538598097299700,7.0702998046875,0.026194052770733833,0.028240691870450974,0.038551654666662216
1772538598107315700,7.080315673828125,0.02713388204574585,0.018569689244031906,0.03461629897356033
1772538598117330700,7.09033056640625,0.02670884318649769,0.014333399012684822,0.02334420382976532
1772538598127346000,7.100345947265625,0.029887324199080467,0.014854313805699348,0.010242783464491367
1772538598137361700,7.110361572265625,0.03616226464509964,0.019042134284973145,0.006232862360775471
1772538598147377000,7.120376953125,0.04279939457774162,0.019154518842697144,0.015915051102638245
1772538598157392000,7.130391845703125,0.0425325483083725,0.009198824875056744,0.024044083431363106
1772538598167407900,7.140407958984375,0.044449757784605026,0.0022895196452736855,0.027544809505343437
1772538598177422800,7.1504228515625,0.04224412515759468,0.0005225121858529747,0.02045281045138836
1772538598187437800,7.160437744140625,0.0394909493625164,0.005106877535581589,0.010528807528316975
1772538598197453800,7.170453857421875,0.03117283247411251,0.008887501433491707,0.005381715949624777
1772538598207468800,7.18046875,0.03099599853157997,0.0014293185668066144,0.007485879585146904
1772538598217483800,7.19048388671875,0.03086923249065876,-0.00830613262951374,0.009705624543130398
1772538598227499800,7.200499755859375,0.03274036943912506,-0.015568573027849197,0.012474779039621353
1772538598237514800,7.2105146484375,0.04027072340250015,-0.02046852372586727,0.011512046679854393
1772538598247529700,7.22052978515625,0.04607641324400902,-0.022975623607635498,0.009726929478347301
1772538598257546000,7.2305458984375,0.0459592342376709,-0.016146745532751083,0.007435279432684183
1772538598267560700,7.240560791015625,0.03892263025045395,0.001939580193720758,0.011440940201282501
1772538598277575700,7.25057568359375,0.033730797469615936,0.01775609329342842,0.017589112743735313
1772538598287592000,7.260592041015625,0.03038373775780201,0.02527366578578949,0.02406565472483635
1772538598297607000,7.27060693359375,0.025651033967733383,0.02666436694562435,0.027780499309301376
1772538598307621600,7.28062158203125,0.029102224856615067,0.027031617239117622,0.02905615232884884
1772538598317638000,7.290637939453125,0.03681314364075661,0.025860626250505447,0.02581561729311943
1772538598327652900,7.30065283203125,0.04885169491171837,0.024289093911647797,0.02149197645485401
1772538598337667800,7.310667724609375,0.05830485001206398,0.015671370550990105,0.015418637543916702
1772538598347683800,7.320683837890625,0.06655798852443695,-0.004489024169743061,0.011875035241246223
1772538598357698800,7.33069873046875,0.07150321453809738,-0.023357786238193512,0.008570052683353424
1772538598367714000,7.340714111328125,0.07606680691242218,-0.026223348453640938,0.006834203843027353
1772538598377729800,7.350729736328125,0.08193375170230865,-0.012783706188201904,0.008171376772224903
1772538598387745000,7.3607451171875,0.08122667670249939,0.0011062771081924438,0.008443818427622318
1772538598397760800,7.3707607421875,0.07549528777599335,0.007331416010856628,0.008590025827288628
1772538598407776000,7.38077587890625,0.06917880475521088,0.0006135923322290182,0.0014945659786462784
1772538598417791000,7.390791015625,0.0675143301486969,0.002401372417807579,-0.007105313707143068
1772538598427807000,7.400806884765625,0.062182679772377014,0.0026290726382285357,-0.013501428067684174
1772538598437822000,7.410822021484375,0.05313858389854431,0.0031108383554965258,-0.02027943916618824
1772538598447837000,7.4208369140625,0.044616736471652985,0.006383330561220646,-0.024749021977186203
1772538598457853000,7.43085302734375,0.04029522463679314,0.008993228897452354,-0.01745302602648735
1772538598467868000,7.440867919921875,0.036737509071826935,0.004787032026797533,-0.007385478354990482
1772538598477883000,7.4508828125,0.029701702296733856,0.002439455594867468,0.0057281930930912495
1772538598487899000,7.46089892578125,0.02088743820786476,0.004485828336328268,0.011484349146485329
1772538598497913900,7.470913818359375,0.013994645327329636,0.0170343779027462,0.011759720742702484
1772538598507928800,7.4809287109375,0.006515423767268658,0.022831812500953674,0.00851385947316885
1772538598517944800,7.49094482421875,-0.0018407768802717328,0.011444401927292347,-0.0015182681381702423
1772538598527959800,7.500959716796875,-0.0062914518639445305,-0.006041381042450666,-0.019153455272316933
1772538598537974300,7.510974365234375,-0.0007038734620437026,-0.018692728132009506,-0.03477396070957184
1772538598547990300,7.520990234375,0.008386560715734959,-0.03045830689370632,-0.03905392438173294
1772538598558005200,7.531005126953125,0.01336054690182209,-0.03786242753267288,-0.03719450533390045
1772538598568020200,7.541020263671875,0.013637248426675797,-0.026444124057888985,-0.023077089339494705
1772538598578036200,7.5510361328125,0.016806943342089653,-0.009463276714086533,-0.007227286696434021
1772538598588051200,7.56105126953125,0.01774916984140873,0.007559915538877249,0.011238006874918938
1772538598598066400,7.57106640625,0.022043250501155853,0.02598579414188862,0.028963208198547363
1772538598608082400,7.58108251953125,0.024408936500549316,0.03172730281949043,0.037453897297382355
1772538598618097400,7.591097412109375,0.032418392598629,0.02369760535657406,0.040645696222782135
1772538598628112400,7.6011123046875,0.0401357002556324,0.012633769772946835,0.03783872351050377
1772538598638128600,7.611128662109375,0.041726406663656235,0.003879426745697856,0.03117576241493225
1772538598648143600,7.6211435546875,0.03929094597697258,0.003525758860632777,0.021821409463882446
1772538598658158300,7.631158447265625,0.03379551321268082,0.008186823688447475,0.009927199222147465
1772538598668174600,7.641174560546875,0.028804482892155647,0.003310841741040349,0.0015459649730473757
1772538598678189600,7.651189453125,0.023138076066970825,0.0030043120495975018,-0.005007275380194187
1772538598688204500,7.66120458984375,0.023551132529973984,0.004930576309561729,-0.003608583239838481
1772538598698220500,7.671220458984375,0.02437218464910984,0.002953711897134781,-0.00267780851572752
1772538598708235500,7.681235595703125,0.024337297305464745,0.003775563556700945,-0.00056219327962026
1772538598718250500,7.69125048828125,0.02034015953540802,0.00942306313663721,0.004485828336328268
1772538598728266500,7.7012666015625,0.018027735874056816,0.010630805976688862,0.012567190453410149
1772538598738281500,7.711281494140625,0.016864733770489693,0.012349343858659267,0.025830797851085663
1772538598748296400,7.72129638671875,0.01571451500058174,0.010688330978155136,0.03302053362131119
1772538598758312400,7.7313125,0.016404539346694946,0.0030541131272912025,0.02761777862906456
1772538598768327400,7.741327392578125,0.021702898666262627,0.0006647250265814364,0.013624199666082859
1772538598778342400,7.75134228515625,0.02840767242014408,0.006853911560028791,-0.0007371630053967237
1772538598788358400,7.7613583984375,0.030429277569055557,0.0033300165086984634,-0.014947790652513504
1772538598798373400,7.771373291015625,0.034017354249954224,0.003020557342097163,-0.022236863151192665
1772538598808388400,7.781388427734375,0.042223621159791946,0.007949802093207836,-0.01798406057059765
1772538598818404400,7.791404296875,0.044984783977270126,0.000708134553860873,-0.0046813045628368855
1772538598828419300,7.80141943359375,0.04321165382862091,0.0035052525345236063,0.013529391027987003
1772538598838434600,7.8114345703125,0.03754524514079094,-0.000007989483492565341,0.035584092140197754
1772538598848450300,7.8214501953125,0.029447903856635094,-0.010037720203399658,0.05265522003173828
1772538598858465500,7.831465576171875,0.023798806592822075,-0.01113227941095829,0.058277688920497894
1772538598868480500,7.84148046875,0.018397649750113487,-0.0008258462767116725,0.05553942546248436
1772538598878496500,7.85149658203125,0.019997144117951393,0.011602593585848808,0.052450425922870636
1772538598888511500,7.861511474609375,0.020500747486948967,0.026862772181630135,0.05259742960333824
1772538598898526500,7.8715263671875,0.016811471432447433,0.04231949523091316,0.05817009508609772
1772538598908542500,7.88154248046875,0.008235293440520763,0.04808150976896286,0.060556553304195404
1772538598918557400,7.891557373046875,-0.00404480891302228,0.036128975450992584,0.06311505287885666
1772538598928572400,7.901572509765625,-0.016024505719542503,0.010914699174463749,0.05662892386317253
1772538598938588400,7.91158837890625,-0.022109828889369965,-0.005878395400941372,0.039733562618494034
1772538598948603400,7.921603271484375,-0.021836057305336,-0.0114590497687459,0.021990785375237465
1772538598958618400,7.931618408203125,-0.015668975189328194,-0.01296480093151331,0.005846437532454729
1772538598968633300,7.94163330078125,-0.011028682813048363,-0.004681038204580545,-0.004582501482218504
1772538598978649300,7.9516494140625,-0.006105563137680292,0.00700944010168314,-0.005272526293992996
1772538598988664300,7.961664306640625,-0.003052781568840146,0.013031113892793655,-0.0004165183927398175
1772538598998680300,7.971680419921875,-0.00022423815971706063,0.00941986683756113,0.005689843557775021
1772538599008695300,7.9816953125,0.003198190126568079,0.0028573055751621723,0.008596151135861874
1772538599018710300,7.991710205078125,0.004375573713332415,-0.007158044259995222,0.008475776761770248
1772538599028725500,8.0017255859375,0.004597148858010769,-0.012271313928067684,0.008334362879395485
1772538599038741200,8.0117412109375,0.010047574527561665,-0.016016250476241112,0.004517253953963518
1772538599048756500,8.021756591796875,0.013544570654630661,-0.013858291320502758,-0.0017872473690658808
1772538599058772200,8.031772216796876,0.016507070511579514,-0.00854448601603508,-0.011333348229527473
1772538599068787500,8.041787353515625,0.01629694737493992,-0.0075633772648870945,-0.014996260404586792
1772538599078802400,8.051802490234374,0.012319250032305717,-0.009525061585009098,-0.014174141921103
1772538599088817400,8.0618173828125,0.010271013714373112,-0.008876316249370575,-0.014212758280336857
1772538599098833400,8.07183349609375,0.009160741232335567,-0.012912869453430176,-0.007108775898814201
1772538599108848400,8.081848388671874,0.0018975022248923779,-0.004195011220872402,-0.0021654162555933
1772538599118863400,8.09186328125,-0.0054943677969276905,0.013005280867218971,-0.0014660701854154468
1772538599128879400,8.10187939453125,-0.007905594073235989,0.032883647829294205,0.0006095975404605269
1772538599138894300,8.111894287109376,-0.014542457647621632,0.03738385811448097,0.006588394287973642
1772538599148909300,8.121909423828125,-0.018608571961522102,0.035764388740062714,0.009331982582807541
1772538599158925600,8.131925537109375,-0.020171048119664192,0.03256220370531082,0.00959829892963171
1772538599168940300,8.141940185546876,-0.020168118178844452,0.026742931455373764,0.008432633243501186
1772538599178955300,8.151955322265625,-0.018085259944200516,0.015046593733131886,0.006627010181546211
1772538599188971500,8.161971435546874,-0.013597833923995495,0.0020088222809135914,0.002755572786554694
1772538599198986500,8.171986572265626,-0.009382848627865314,-0.011098457500338554,-0.0024503744207322598
1772538599209001200,8.182001220703125,-0.005362540949136019,-0.019468773156404495,-0.011453723534941673
1772538599219017500,8.192017578125,-0.003058374160900712,-0.016771789640188217,-0.02099449746310711
1772538599229032400,8.202032470703125,-0.0021584921050816774,-0.012269183062016964,-0.029164543375372887
1772538599239047400,8.21204736328125,-0.003852795111015439,-0.007237140089273453,-0.03863820433616638
1772538599249063400,8.2220634765625,-0.005146292503923178,0.004367318004369736,-0.03368525952100754
1772538599259078400,8.232078369140625,-0.009893377311527729,0.014912903308868408,-0.021256020292639732
1772538599269093600,8.24209375,-0.015241270884871483,0.02063550427556038,-0.007452589925378561
1772538599279109400,8.252109375,-0.011738947592675686,0.020181966945528984,0.0062453788705170155
1772538599289124600,8.26212451171875,-0.006031793542206287,0.014346448704600334,0.008330900222063065
1772538599299139600,8.2721396484375,0.0025217472575604916,0.006570551078766584,0.007168430835008621
1772538599309155600,8.282155517578126,0.005447496194392443,0.004487426485866308,0.0018421085551381111
1772538599319170600,8.292170654296875,0.005542570725083351,0.0002436792419757694,-0.0035198999103158712
1772538599329185500,8.302185546875,-0.0024567660875618458,-0.006856308318674564,-0.014769358560442924
1772538599339201500,8.312201416015625,-0.013173858635127544,-0.0007725830073468387,-0.02882898412644863
1772538599349216500,8.322216552734375,-0.01624501682817936,0.021101024001836777,-0.03621312975883484
1772538599359231500,8.3322314453125,-0.014090784825384617,0.02767344005405903,-0.029624737799167633
1772538599369247500,8.34224755859375,-0.012463593855500221,0.01044465135782957,-0.018630675971508026
1772538599379262500,8.352262451171875,-0.013318735174834728,-0.007505586836487055,-0.015219433233141899
1772538599389277400,8.36227734375,-0.012973056174814701,-0.005511145573109388,-0.023417707532644272
1772538599399293400,8.37229345703125,-0.005751895252615213,0.026927221566438675,-0.02804814651608467
1772538599409308400,8.382308349609374,0.005036037415266037,0.054237671196460724,-0.015532353892922401
1772538599419323400,8.392323486328126,0.006690393202006817,0.04174664616584778,0.013126187957823277
1772538599429339400,8.40233935546875,0.009046492166817188,0.005209143273532391,0.04048723727464676
1772538599439354400,8.412354248046874,0.015914784744381905,-0.02731444500386715,0.05107143893837929
1772538599449369300,8.422369384765625,0.02076093852519989,-0.038177479058504105,0.030971763655543327
1772538599459385300,8.43238525390625,0.022346850484609604,-0.016522783786058426,-0.0018687400734052062
1772538599469400300,8.442400390625,0.02075720950961113,0.02214791253209114,-0.01738511584699154
1772538599479415300,8.452415283203125,0.012408732436597347,0.03453134372830391,-0.01492462120950222
1772538599489431300,8.462431396484375,0.0011318434262648225,0.022217420861124992,0.010732272639870644
1772538599499446300,8.4724462890625,-0.005420065484941006,0.00824780948460102,0.03369671106338501
1772538599509461500,8.48246142578125,-0.002673813607543707,0.003438939806073904,0.03431110084056854
1772538599519477200,8.492477294921875,0.010969560593366623,0.004982774145901203,0.020984644070267677
1772538599529492500,8.502492431640626,0.016389891505241394,-0.001264468883164227,0.0035340148024260998
1772538599539507500,8.512507568359375,0.0181137565523386,-0.01914386637508869,-0.013816213235259056
1772538599549523700,8.522523681640624,0.018031997606158257,-0.028317125514149666,-0.02538498491048813
1772538599559539000,8.5325390625,0.012857741676270962,-0.032768066972494125,-0.03683764114975929
1772538599569554000,8.542553955078125,-0.0021728731226176023,-0.020471986383199692,-0.045697715133428574
1772538599579570000,8.55256982421875,-0.006072007119655609,0.015737151727080345,-0.041674740612506866
1772538599589585000,8.5625849609375,-0.008362592197954655,0.035592347383499146,-0.021438445895910263
1772538599599599900,8.572599853515625,-0.008885636925697327,0.024021713063120842,-0.0009110674145631492
1772538599609614800,8.58261474609375,-0.0036999296862632036,0.0026136261876672506,0.015658056363463402
1772538599619630800,8.592630859375,0.0073383403941988945,-0.010249441489577293,0.0208850409835577
1772538599629645800,8.602645751953125,0.018460232764482498,-0.018911639228463173,0.016392022371292114
1772538599639660800,8.612660888671876,0.018267154693603516,-0.01997504010796547,0.011578625068068504
1772538599649676800,8.6226767578125,0.01852521486580372,-0.012646553106606007,-0.0030117689166218042
1772538599659691800,8.63269189453125,0.015629027038812637,-0.005283711478114128,-0.02117719128727913
1772538599669706800,8.642706787109375,0.014156565070152283,-0.010175938718020916,-0.03798919543623924
1772538599679722800,8.65272265625,0.00999164767563343,-0.018672753125429153,-0.049602705985307693
1772538599689737700,8.66273779296875,0.007715710438787937,-0.02359933592379093,-0.04890762269496918
1772538599699752700,8.672752685546875,0.01181910838931799,-0.014479872770607471,-0.034337468445301056
1772538599709768700,8.682768798828125,0.012737100012600422,-0.007397995330393314,-0.01607430726289749
1772538599719783700,8.69278369140625,0.00887977797538042,-0.005317001137882471,-0.006089051254093647
1772538599729799000,8.702798828125,0.007142864167690277,-0.0010080065112560987,-0.0035382758360356092
1772538599739814700,8.712814697265625,0.012092615477740765,0.0026288062799721956,-0.00566960358992219
1772538599749830000,8.722829833984376,0.011327222920954227,-0.0030562435276806355,-0.009681389667093754
1772538599759844900,8.732844970703125,0.011207113973796368,-0.012806875631213188,-0.010100836865603924
1772538599769860900,8.74286083984375,0.007902397774159908,-0.01666579581797123,-0.006639260333031416
1772538599779875800,8.752875732421876,-0.00025539714260958135,-0.018214423209428787,-0.007656588219106197
1772538599789890800,8.762890869140625,-0.0027893949300050735,-0.01925811730325222,-0.019348664209246635
1772538599799906800,8.77290673828125,-0.00044554684427566826,-0.020118052139878273,-0.03229748457670212
1772538599809921800,8.782921875,0.0011749867117032409,-0.02262621559202671,-0.03804432228207588
1772538599819936800,8.792936767578125,0.00210709311068058,-0.025830797851085663,-0.03383253142237663
1772538599829952800,8.802952880859374,0.0067726848646998405,-0.01732173189520836,-0.021827267482876778
1772538599839967700,8.8129677734375,0.006577741354703903,-0.012259063310921192,-0.005108209326863289
1772538599849982700,8.822982666015625,0.0019347865600138903,-0.010936270467936993,0.006564159411936998
1772538599859998700,8.832998779296876,-0.002419215627014637,-0.014606107026338577,0.008155131712555885
1772538599870013700,8.843013671875,-0.0028455876745283604,-0.01654036156833172,-0.001731587341055274
1772538599880028700,8.853028564453124,-0.000218645524000749,-0.009046225808560848,-0.01654036156833172
1772538599890044700,8.863044677734376,0.0033691651187837124,-0.0011443602852523327,-0.026317091658711433
1772538599900059600,8.8730595703125,0.007778560742735863,0.001023452845402062,-0.03326394781470299
1772538599910074600,8.88307470703125,0.009211874566972256,0.0020660804584622383,-0.03262558579444885
1772538599920089600,8.893089599609375,0.013194631785154343,-0.003974767867475748,-0.028175445273518562
1772538599930105600,8.903105712890625,0.018760904669761658,-0.012808739207684994,-0.020183565095067024
1772538599940120600,8.91312060546875,0.017669009044766426,-0.021691447123885155,-0.016623983159661293
1772538599950135800,8.9231357421875,0.01435417216271162,-0.01937902346253395,-0.019281553104519844
1772538599960151800,8.93315185546875,0.013463877141475677,-0.010932009667158127,-0.025053687393665314
1772538599970166800,8.943166748046876,0.01564340852200985,-0.002478337613865733,-0.030897462740540504
1772538599980181800,8.953181640625,0.018979283049702644,0.004743888974189758,-0.025715216994285583
1772538599990198000,8.963197998046875,0.02099742740392685,0.0018104169284924865,-0.013222861103713512
1772538600000213000,8.973212890625,0.020724719390273094,-0.0011347729014232755,-0.0006620618514716625
1772538600010227700,8.983227783203125,0.021750835701823235,-0.0035087147261947393,0.005397961009293795
1772538600020244000,8.993243896484374,0.02069728821516037,-0.003656520042568445,0.013107812032103539
1772538600030259000,9.003259033203125,0.015221829526126385,-0.0015986956423148513,0.012496883049607277
1772538600040274000,9.01327392578125,0.00839961040765047,0.0036581179592758417,0.005389438942074776
1772538600050290000,9.0232900390625,0.0037462685722857714,0.007392934989184141,-0.008792426437139511
1772538600060305000,9.033304931640625,0.001487109111621976,-0.0014895059866830707,-0.02382836677134037
1772538600070319900,9.04331982421875,0.0040884846821427345,-0.005782788153737783,-0.029231920838356018
1772538600080336000,9.0533359375,0.006658968050032854,-0.004644020460546017,-0.026222016662359238
1772538600090350800,9.063350830078125,0.0051809134893119335,-0.000013848437447450124,-0.018337728455662727
1772538600100365800,9.07336572265625,0.0022921827621757984,0.008586564101278782,-0.008667523972690105
1772538600110381800,9.0833818359375,0.00526693370193243,0.0157757680863142,0.002585130510851741
1772538600120396800,9.093396728515625,0.005146558862179518,0.013164537958800793,0.008889897726476192
1772538600130411800,9.103411865234374,0.006213953718543053,0.00010226538870483637,0.008809736929833889
1772538600140427800,9.113427734375,0.010576211847364902,-0.007229949813336134,0.004503937903791666
1772538600150442800,9.12344287109375,0.015332883223891258,-0.010664895176887512,-0.003602724289521575
1772538600160457700,9.133457763671874,0.014066018164157867,-0.008421181701123714,-0.006132194772362709
1772538600170473000,9.143472900390625,0.007809187285602093,0.0004266384057700634,-0.0036048549227416515
1772538600180488700,9.15348876953125,-0.003463707398623228,0.005870406050235033,-0.003923369105905294
1772538600190504000,9.16350390625,-0.00854208879172802,0.008442752994596958,-0.006163087207823992
1772538600200519000,9.173518798828125,-0.006502374075353146,0.011995675973594189,-0.009108277037739754
1772538600210535000,9.183534912109375,-0.0006407565670087934,0.01127768773585558,-0.02034788206219673
1772538600220550000,9.1935498046875,0.0027545075863599777,0.012017514556646347,-0.03092356026172638
1772538600230564900,9.20356494140625,0.0036107138730585575,0.006274939980357885,-0.034205906093120575
1772538600240580900,9.213580810546874,0.007151386234909296,0.006215285509824753,-0.02478018030524254
1772538600250595800,9.223595947265625,0.0046850331127643585,0.011486480012536049,-0.005228850524872541
1772538600260610800,9.23361083984375,-0.0008996158139780164,0.011187407188117504,0.012740829028189182
1772538600270626800,9.243626708984374,-0.008285893127322197,0.004171841777861118,0.017417339608073235
1772538600280641800,9.253641845703125,-0.013032711111009121,0.003855191869661212,0.006810235325247049
1772538600290656800,9.26365673828125,-0.009182845242321491,0.011947473511099815,-0.014289990067481995
1772538600300672800,9.2736728515625,-0.004985969979315996,0.018383001908659935,-0.028712604194879532
1772538600310687700,9.283687744140625,-0.005057875532656908,0.012410064227879047,-0.03175366669893265
1772538600320702700,9.29370263671875,-0.015471634455025196,0.0009606021922081709,-0.028054004535079002
1772538600330718700,9.30371875,-0.01926370896399021,0.008018511347472668,-0.01818246580660343
1772538600340733700,9.313733642578125,-0.017011208459734917,0.013997840695083141,-0.00558251840993762
1772538600351374800,9.324374755859376,-0.013847905211150646,0.0015164038632065058,0.0032895365729928017
1772538600361390800,9.334390869140625,-0.013491041027009487,-0.018996328115463257,0.004485029727220535
1772538600371405800,9.34440576171875,-0.012336826883256435,-0.029760025441646576,-0.006960171274840832
1772538600381420800,9.3544208984375,-0.00826964806765318,-0.015281484462320805,-0.021821143105626106
1772538600391436800,9.364436767578125,-0.005487443413585424,0.02455700747668743,-0.024323182180523872
1772538600401451800,9.37445166015625,-0.010602843016386032,0.05447815731167793,-0.003838680451735854
1772538600411466800,9.384466796875,-0.015899604186415672,0.04649799317121506,0.023905333131551743
1772538600421482800,9.394482666015625,-0.017589645460247993,0.017406687140464783,0.05055265501141548
1772538600431497700,9.404497802734374,-0.010207629762589931,-0.008952748961746693,0.06070861965417862
1772538600441512700,9.4145126953125,-0.0033848776947706938,-0.01806022599339485,0.055750347673892975
1772538600451528000,9.42452783203125,0.0016990967560559511,-0.013658287934958935,0.03981931880116463
1772538600461543700,9.434543701171876,0.004792091902345419,0.004517253953963518,0.026256637647747993
1772538600471559000,9.444558837890625,-0.0010120011866092682,0.016945160925388336,0.0164231825619936
1772538600481574000,9.454573974609374,-0.009372995235025883,0.011183944530785084,0.012712866067886353
1772538600491590000,9.46458984375,-0.017305754125118256,0.0034530546981841326,0.008608934469521046
1772538600501604900,9.47460498046875,-0.020252007991075516,0.0009933591354638338,-0.0013483584625646472
1772538600511619800,9.484619873046874,-0.016928384080529213,0.0034354778472334146,-0.008067513816058636
1772538600521635800,9.4946357421875,-0.010571683757007122,0.0116148442029953,-0.005963882897049189
1772538600531650800,9.50465087890625,-0.007812649011611938,0.011870774440467358,0.006960437633097172
1772538600541665800,9.514665771484376,-0.004745753016322851,0.00162399560213089,0.014566958881914616
1772538600551681800,9.524681884765625,-0.0016990967560559511,-0.007547132205218077,0.015726232901215553
1772538600561696800,9.53469677734375,0.005608350969851017,-0.01034584827721119,0.007107444107532501
1772538600571711700,9.544711669921876,0.017420802265405655,-0.010146111249923706,-0.0014077469240874052
1772538600581727700,9.554727783203125,0.022968431934714317,-0.002296177437528968,-0.0030450583435595036
1772538600591742700,9.56474267578125,0.018013354390859604,-0.0003193130251020193,0.0019888486713171005
1772538600601757700,9.5747578125,0.01323750801384449,0.013255883939564228,0.003747866488993168
1772538600611773700,9.584773681640625,0.011257448233664036,0.01782160811126232,0.003692472819238901
1772538600621788700,9.59478857421875,0.01278530340641737,0.01690175198018551,0.0023646207991987467
1772538600631803600,9.6048037109375,0.01877741515636444,0.014373079873621464,0.0024706146214157343
1772538600641819600,9.614819580078125,0.027952006086707115,0.014583470299839973,0.005138036794960499
1772538600651834600,9.624834716796874,0.0338575653731823,0.009672600775957108,0.010088587179780006
1772538600661849900,9.634849853515625,0.038121551275253296,0.0051811798475682735,0.014753379859030247
1772538600671864800,9.64486474609375,0.04231683164834976,0.004224572330713272,0.01296293642371893
1772538600681880800,9.654880859375,0.04223187640309334,0.0031989889685064554,0.009078183211386204
1772538600692521500,9.665521484375,0.041357558220624924,0.0018996327416971326,0.002234392100945115
1772538600702536700,9.67553662109375,0.03665308654308319,0.0022921827621757984,-0.0068025123327970505
1772538600712552700,9.685552734375,0.032830916345119476,0.005090632475912571,-0.013937121257185936
1772538600722567700,9.695567626953125,0.026921363547444344,0.0016479641199111938,-0.021207284182310104
1772538600732582700,9.705582763671876,0.02154124528169632,-0.0004599279200192541,-0.023035278543829918
1772538600742597600,9.71559765625,0.019938554614782333,-0.0038330876268446445,-0.015811719000339508
1772538600752614000,9.72561376953125,0.009499495849013329,-0.02051379717886448,-0.011351724155247211
1772538600762628600,9.735628662109375,0.00592420157045126,-0.03501896932721138,-0.011515242047607899
1772538600772643600,9.7456435546875,0.0079748360440135,-0.03964861109852791,-0.008669122122228146
1772538600782659800,9.755659912109374,0.0073260897770524025,-0.03632152080535889,-0.009784986265003681
1772538600792674800,9.7656748046875,-0.004466653801500797,-0.016569389030337334,-0.00842411071062088
1772538600802689500,9.775689453125,-0.017592841759324074,0.008072307333350182,-0.008468586020171642
1772538600812705800,9.785705810546874,-0.03093554452061653,0.023072296753525734,-0.013480122201144695
1772538600822720800,9.795720703125,-0.03984461724758148,0.028855882585048676,-0.015439143404364586
1772538600832735700,9.80573583984375,-0.04229152947664261,0.034385938197374344,-0.010342651978135109
1772538600842751700,9.815751708984376,-0.03857375681400299,0.032399486750364304,-0.0038956720381975174
1772538600852766700,9.8257666015625,-0.029081718996167183,0.021646972745656967,-0.0006644586683250964
1772538600862781700,9.83578173828125,-0.019523367285728455,0.006024869158864021,0.002118544653058052
1772538600872797700,9.845797607421876,-0.01543381717056036,-0.014843128621578217,-0.001558748190291226
1772538600882812700,9.855812744140625,-0.014901718124747276,-0.027993816882371902,-0.013464942574501038
1772538600892827600,9.86582763671875,-0.017799237743020058,-0.027954403311014175,-0.02682868391275406
1772538600902843600,9.87584375,-0.023444073274731636,-0.021205153316259384,-0.04009335860610008
1772538600912858600,9.885858642578125,-0.026556244120001793,-0.013037504628300667,-0.04894197732210159
1772538600922873900,9.895873779296876,-0.024562867358326912,-0.00015046859334688634,-0.05151086300611496
1772538600932888800,9.905888916015625,-0.020595023408532143,0.007564709056168795,-0.04629239812493324
1772538600942904800,9.91590478515625,-0.01720268838107586,0.009733587503433228,-0.03783845901489258
1772538600952919800,9.925919921875,-0.014288125559687614,0.009058210067451,-0.03123728185892105
1772538600962934800,9.935934814453125,-0.011607653461396694,0.008086422458291054,-0.024817997589707375
1772538600972950800,9.94595068359375,-0.008888034150004387,0.005042695440351963,-0.024536501616239548
1772538600982965800,9.9559658203125,-0.00392709719017148,-0.0019212043844163418,-0.02708008699119091
1772538600992980700,9.965980712890625,0.0020058928057551384,-0.0133261913433671,-0.029618345201015472
1772538601002996700,9.975996826171874,0.005608350969851017,-0.016174176707863808,-0.033248767256736755
1772538601013011700,9.98601171875,0.011716044507920742,-0.0027241474017500877,-0.04024382680654526
1772538601023026700,9.996026611328125,0.017944112420082092,0.01955239661037922,-0.046187467873096466
1772538601033042700,10.006042724609374,0.01775822415947914,0.03633883222937584,-0.04862292855978012
1772538601043057700,10.0160576171875,0.016456205397844315,0.040160734206438065,-0.05231140926480293
1772538601053072600,10.02607275390625,0.014677746221423149,0.040353547781705856,-0.04821067303419113
1772538601063088600,10.036088623046876,0.013946708291769028,0.04242522269487381,-0.04036180302500725
1772538601073103600,10.046103515625,0.017767012119293213,0.04481407627463341,-0.031618379056453705
1772538601083118600,10.05611865234375,0.023569507524371147,0.04459383338689804,-0.024945029988884926
1772538601093134600,10.066134521484376,0.035642948001623154,0.03531937301158905,-0.016816530376672745
1772538601103149600,10.076149658203125,0.052209675312042236,0.0229180995374918,-0.009153816848993301
1772538601113164500,10.08616455078125,0.06539125740528107,0.016440492123365402,-0.003138801548629999
1772538601123179800,10.0961796875,0.07247473299503326,0.014134727418422699,-0.00021252025908324867
1772538601133195500,10.106195556640625,0.0737418681383133,0.0073042516596615314,0.00013315805699676275
1772538601143210800,10.116210693359376,0.06949971616268158,0.007968710735440254,-0.00019920444174204022
1772538601153225700,10.126225830078125,0.05517270788550377,0.011825766414403915,-0.0038152446504682302
1772538601163241700,10.13624169921875,0.03416542708873749,0.020421385765075684,-0.01440876629203558
1772538601173256700,10.146256591796876,0.020126041024923325,0.023128755390644073,-0.033242907375097275
1772538601183271700,10.156271728515625,0.011139736510813236,0.01716007851064205,-0.05008287355303764
1772538601193287700,10.16628759765625,0.00552312983199954,0.0068270135670900345,-0.0633305013179779
1772538601203302700,10.176302734375,0.003920971881598234,-0.003727360162883997,-0.06217389181256294
1772538601213317600,10.186317626953125,-0.0003177151083946228,-0.01398798730224371,-0.052747901529073715
1772538601223333600,10.196333740234374,-0.0011936287628486753,-0.009107744321227074,-0.03808559849858284
1772538601233348600,10.2063486328125,-0.00808828603476286,-0.00022317290131468326,-0.025852635502815247
1772538601243363600,10.216363525390625,-0.01552170142531395,0.008354868739843369,-0.01805862970650196
1772538601253379600,10.226379638671874,-0.026126675307750702,0.014697719365358353,-0.01461968943476677
1772538601263394600,10.23639453125,-0.03639981895685196,0.021513281390070915,-0.012828446924686432
1772538601273409500,10.246409423828124,-0.04279673099517822,0.022394787520170212,-0.009721070528030396
1772538601283424500,10.256424560546876,-0.039253395050764084,0.020783308893442154,-0.005973204039037228
1772538601293440500,10.2664404296875,-0.029288645833730698,0.015841014683246613,-0.0016263924771919847
1772538601303455500,10.27645556640625,-0.021514080464839935,0.004133225884288549,0.0017670074012130499
1772538601313470700,10.286470703125,-0.016708938404917717,0.0046999468468129635,0.00430073868483305
1772538601323486500,10.296486572265625,-0.014214355498552322,0.016866864636540413,0.006465356331318617
1772538601333501700,10.306501708984374,-0.016321182250976562,0.034086063504219055,0.010118946433067322
1772538601343516700,10.3165166015625,-0.021106883883476257,0.04162600636482239,0.011667841114103794
1772538601353532700,10.32653271484375,-0.0279698483645916,0.04153705760836601,0.01113307848572731
1772538601363547600,10.336547607421876,-0.030979754403233528,0.01685408130288124,0.0046719834208488464
1772538601373562600,10.346562744140625,-0.0332101508975029,0.00427277572453022,-0.008384429849684238
1772538601383579000,10.356578857421875,-0.026008963584899902,0.0073655047453939915,-0.02287202700972557
1772538601393593600,10.366593505859376,-0.02370799332857132,0.012929114513099194,-0.03105805069208145
1772538601403608600,10.376608642578125,-0.02527979016304016,0.011348794214427471,-0.02527126856148243
1772538601413623600,10.38662353515625,-0.020025106146931648,0.010803911834955215,-0.014374678023159504
1772538601423639800,10.396639892578126,-0.016287893056869507,-0.0014271880500018597,-0.0019054916920140386
1772538601433654800,10.40665478515625,-0.005634716246277094,-0.013862552121281624,0.005345496814697981
1772538601443669500,10.41666943359375,-0.0005869606975466013,-0.012617524713277817,0.004978246986865997
1772538601453685800,10.426685791015625,0.0009592706337571144,-0.006258961278945208,-0.0043739755637943745
1772538601463700700,10.43670068359375,-0.0029411951545625925,0.004852013196796179,-0.015532087534666061
1772538601473715700,10.4467158203125,-0.0071066454984247684,0.009790578857064247,-0.020965736359357834
1772538601483731700,10.456731689453125,-0.013952567242085934,0.011708054691553116,-0.018608305603265762
1772538601493746700,10.46674658203125,-0.017582455649971962,0.004255997482687235,-0.010919226333498955
1772538601503761700,10.47676171875,-0.01630333997309208,0.0044168527238070965,-0.01007793378084898
1772538601513777700,10.486777587890625,-0.00932346098124981,0.008697085082530975,-0.013293168507516384
1772538601523792600,10.496792724609374,-0.003762513864785433,0.011379687115550041,-0.015908392146229744
1772538601533807900,10.506807861328125,-0.00535508431494236,0.008416920900344849,-0.010296313092112541
1772538601543823400,10.5168232421875,-0.006078398786485195,-0.001276186783798039,-0.001276453142054379
1772538601553838300,10.52683837890625,-0.008629441261291504,-0.008577508851885796,0.0004410194815136492
1772538601563853300,10.536853271484375,-0.009341835975646973,-0.018547318875789642,-0.0034168355632573366
1772538601573868300,10.546868408203125,-0.012717925943434238,-0.02251516282558441,-0.017424263060092926
1772538601583884300,10.55688427734375,-0.01864851824939251,-0.016761936247348785,-0.03286314010620117
1772538601593899300,10.566899169921875,-0.01775156706571579,0.0030088394414633512,-0.03489566594362259
1772538601603914200,10.576914306640624,-0.017354222014546394,0.01392966415733099,-0.02514503337442875
1772538601613930200,10.58693017578125,-0.01080071646720171,0.007999869994819164,-0.009564477019011974
1772538601623945200,10.5969453125,-0.004262655507773161,-0.0049225869588553905,0.007559382822364569
1772538601633960200,10.606960205078124,0.006144711747765541,-0.018559569492936134,0.021996645256876945
1772538601643976200,10.61697607421875,0.01284415926784277,-0.02377643622457981,0.03081090934574604
1772538601653991200,10.6269912109375,0.017423465847969055,-0.016469255089759827,0.03322293609380722
1772538601664006100,10.637006103515626,0.011404721066355705,-0.0013382384786382318,0.018864767625927925
1772538601674022100,10.647022216796875,0.0016341155860573053,0.013478524051606655,0.000041012681322172284
1772538601684037000,10.657037109375,-0.011034275405108929,0.03188309818506241,0.0012953615514561534
1772538601694052000,10.667052001953126,-0.023753266781568527,0.05188982933759689,0.011895009316504002
1772538601704068000,10.677068115234375,-0.02527313306927681,0.07806577533483505,0.01540585421025753
1772538601714083000,10.6870830078125,-0.027639616280794144,0.119211345911026,0.014096643775701523
1772538601724098300,10.697098388671876,-0.03262212499976158,0.14682964980602264,0.03400856629014015
1772538601734113300,10.70711328125,-0.024924524128437042,0.15632569789886475,0.07521911710500717
1772538601744129300,10.71712939453125,-0.012952283956110477,0.17072327435016632,0.13888438045978546
1772538601754144300,10.727144287109375,-0.06895429641008377,0.19651146233081818,0.3465281128883362
1772538601764159200,10.7371591796875,-0.17072167992591858,-0.1487833559513092,0.4068511128425598
1772538601774175200,10.74717529296875,-0.1250612437725067,-0.3861194849014282,0.3111368417739868
1772538601784190200,10.757190185546875,0.0017097494564950466,-0.27231326699256897,0.15228354930877686
1772538601794205200,10.767205078125,0.051894888281822205,-0.16647659242153168,-0.002148105762898922
1772538601804221200,10.77722119140625,0.03692419454455376,-0.1164722815155983,-0.1390734612941742
1772538601814236200,10.787236083984375,0.018127338960766792,-0.07051544636487961,-0.24759541451931
1772538601824251100,10.797251220703124,0.013915549032390118,-0.027041470631957054,-0.3203737437725067
1772538601834267100,10.80726708984375,0.00860041193664074,0.001187503570690751,-0.3321246802806854
1772538601844282000,10.8172822265625,-0.01655021496117115,0.02040727064013481,-0.2545854151248932
