time,seconds_elapsed,z,y,x
1772534777679712800,0.046712646484375,0.19151616096496582,-0.012957077473402023,0.7040244936943054
1772534777689729800,0.056729736328125,0.3253714442253113,-0.04384361952543259,0.672755241394043
1772534777699746600,0.06674658203125,0.40907299518585205,-0.0826466754078865,0.5872989296913147
1772534777709763800,0.076763916015625,0.45272088050842285,-0.12015996128320694,0.5054149627685547
1772534777719780600,0.086780517578125,0.4733486473560333,-0.15219512581825256,0.47332626581192017
1772534777729797600,0.096797607421875,0.48408225178718567,-0.1585148125886917,0.501428484916687
1772534777739814700,0.106814697265625,0.5109351873397827,-0.17384156584739685,0.5735524892807007
1772534777749830700,0.11683056640625,0.5439666509628296,-0.2212013602256775,0.6610551476478577
1772534777759847700,0.12684765625,0.5750963091850281,-0.285306841135025,0.73289954662323
1772534777769864400,0.136864501953125,0.6182834506034851,-0.29556694626808167,0.8056171536445618
1772534777779881700,0.1468818359375,0.6715704202651978,-0.29798829555511475,0.9035871028900146
1772534777789898800,0.156898681640625,0.7022446990013123,-0.325129896402359,1.0291439294815063
1772534777799915500,0.16691552734375,0.7011421322822571,-0.35909077525138855,1.1608912944793701
1772534777809932800,0.176932861328125,0.6771129369735718,-0.45315682888031006,1.2669384479522705
1772534777819949600,0.186949462890625,0.6364787220954895,-0.5934731960296631,1.3215914964675903
1772534777829967400,0.19696728515625,0.5925421714782715,-0.6981663107872009,1.3369007110595703
1772534777839984400,0.206984375,0.5483728051185608,-0.7322127223014832,1.3201560974121094
1772534777850000400,0.21700048828125,0.508145809173584,-0.7247201800346375,1.2710213661193848
1772534777860017400,0.227017333984375,0.47488024830818176,-0.6699780821800232,1.167069911956787
1772534777870034400,0.237034423828125,0.4730309247970581,-0.552980363368988,0.9900474548339844
1772534777880051500,0.247051513671875,0.5057318806648254,-0.31027424335479736,0.7978129982948303
1772534777890068200,0.257068115234375,0.5133229494094849,0.003186738584190607,0.6363431811332703
1772534777900085500,0.26708544921875,0.520781934261322,0.06377924233675003,0.522420346736908
1772534777910102300,0.277102294921875,0.592511773109436,-0.05151858553290367,0.4365304410457611
1772534777920119300,0.287119384765625,0.6700020432472229,-0.19066528975963593,0.37627482414245605
1772534777930136300,0.29713623046875,0.6958712339401245,-0.07601993530988693,0.3707810044288635
1772534777940152300,0.30715234375,0.6795103549957275,0.5571905374526978,0.2969549894332886
1772534777950169300,0.31716943359375,0.6169801354408264,0.905123233795166,0.056595902889966965
1772534777960186400,0.327186279296875,0.4242021441459656,0.6425291299819946,-0.27232232689857483
1772534777970203400,0.337203369140625,0.12024172395467758,0.37277358770370483,-0.5419953465461731
1772534777980220400,0.347220458984375,-0.16598257422447205,0.31462931632995605,-0.7410786151885986
1772534777990237400,0.357237548828125,-0.3726060688495636,0.4244428873062134,-0.8906012773513794
1772534778000254500,0.36725439453125,-0.4845168888568878,0.48449423909187317,-0.9924629330635071
1772534778010271200,0.377271240234375,-0.496237188577652,0.3837721645832062,-1.0533665418624878
1772534778020288500,0.38728857421875,-0.446358323097229,0.20957666635513306,-1.0596017837524414
1772534778030304500,0.397304443359375,-0.3885727822780609,0.12441196292638779,-0.9786880016326904
1772534778040321300,0.4073212890625,-0.34394991397857666,0.13827425241470337,-0.8285083174705505
1772534778050338300,0.41733837890625,-0.28848665952682495,0.18836244940757751,-0.641157865524292
1772534778060355300,0.427355224609375,-0.19765661656856537,0.18741196393966675,-0.4648371934890747
1772534778070372400,0.437372314453125,-0.08327917754650116,0.19629521667957306,-0.353222519159317
1772534778080389400,0.447389404296875,0.10437540709972382,0.13892513513565063,-0.33881455659866333
1772534778090406400,0.457406494140625,0.3228076100349426,0.1012113094329834,-0.3809971511363983
1772534778100423400,0.46742333984375,0.4834960997104645,0.058339204639196396,-0.45169687271118164
1772534778110440200,0.477440185546875,0.6039415597915649,0.07280283421278,-0.5259580612182617
1772534778120456400,0.48745654296875,0.649445116519928,0.17190705239772797,-0.5178527235984802
1772534778130473500,0.497473388671875,0.6521807312965393,0.3434921205043793,-0.41965505480766296
1772534778140490200,0.507490234375,0.6594005227088928,0.5058693289756775,-0.256203830242157
1772534778150507500,0.517507568359375,0.6460469365119934,0.6936141848564148,-0.060500629246234894
1772534778160524300,0.527524169921875,0.5847774147987366,0.9874082207679749,0.12287905067205429
1772534778170541300,0.537541259765625,0.5210581421852112,1.3197484016418457,0.24118812382221222
1772534778180558300,0.547558349609375,0.4408828616142273,1.535212755203247,0.25205355882644653
1772534778190575400,0.557575439453125,0.35711392760276794,1.5135005712509155,0.16583797335624695
1772534778200592400,0.56759228515625,0.3071916401386261,1.2858346700668335,0.046010635793209076
1772534778210608400,0.5776083984375,0.3617406189441681,0.8790596723556519,-0.042815905064344406
1772534778220625400,0.58762548828125,0.5422893762588501,0.24754215776920319,-0.0349007248878479
1772534778230642400,0.597642333984375,0.7813671827316284,-0.33364081382751465,0.15975557267665863
1772534778240659500,0.607659423828125,0.9886873364448547,-0.6944929957389832,0.5392858386039734
1772534778250676500,0.617676513671875,1.09931480884552,-0.8942356705665588,0.9715443253517151
1772534778260693200,0.627693359375,1.1200193166732788,-0.9959721565246582,1.329515814781189
1772534778270710500,0.63771044921875,1.0325064659118652,-0.9454962015151978,1.481032371520996
1772534778280727300,0.647727294921875,0.8163928389549255,-0.622920036315918,1.319123387336731
1772534778290744300,0.657744384765625,0.5615876913070679,-0.2457176148891449,0.8373846411705017
1772534778300760300,0.66776025390625,0.2892158329486847,0.1318531036376953,0.3124833405017853
1772534778310777300,0.67777734375,0.049487125128507614,0.39842620491981506,-0.043175168335437775
1772534778320794400,0.68779443359375,-0.11047405004501343,0.4477359652519226,-0.13179610669612885
1772534778330811100,0.69781103515625,-0.17653615772724152,0.27749231457710266,-0.008745288476347923
1772534778340828400,0.707828369140625,-0.16371622681617737,-0.0702696368098259,0.1598874032497406
1772534778350845400,0.717845458984375,-0.07451977580785751,-0.48520877957344055,0.21753844618797302
1772534778360862200,0.7278623046875,0.07979229837656021,-0.8650719523429871,0.1995362788438797
1772534778370879500,0.73787939453125,0.24360068142414093,-1.1780271530151367,0.2527899146080017
1772534778380896300,0.747896240234375,0.4331205487251282,-1.3626726865768433,0.28298935294151306
1772534778390912300,0.757912353515625,0.6158834099769592,-1.3589102029800415,0.24012631177902222
1772534778400929500,0.767929443359375,0.7538394331932068,-1.3305613994598389,0.14930373430252075
1772534778410946300,0.7779462890625,0.7851829528808594,-1.1625264883041382,0.0020423782989382744
1772534778420963300,0.78796337890625,0.6994036436080933,-0.8835854530334473,-0.1978427767753601
1772534778430980400,0.79798046875,0.5716872215270996,-0.5719354152679443,-0.43047842383384705
1772534778440997400,0.807997314453125,0.4429848790168762,-0.31566742062568665,-0.672010600566864
1772534778451014400,0.818014404296875,0.33612048625946045,-0.19830510020256042,-0.9154717326164246
1772534778461031400,0.828031494140625,0.22040054202079773,-0.2319115251302719,-1.1535104513168335
1772534778471048400,0.83804833984375,0.0934833437204361,-0.5097846984863281,-1.3023526668548584
1772534778481064200,0.848064208984375,-0.03665628284215927,-0.9582479596138,-1.2582740783691406
1772534778491081500,0.85808154296875,-0.05371515825390816,-1.3521060943603516,-0.958175003528595
1772534778501098500,0.868098388671875,0.035767316818237305,-1.4866976737976074,-0.5106083750724792
1772534778511115300,0.878115234375,0.2039930820465088,-1.4315556287765503,-0.12160605937242508
1772534778521132500,0.888132568359375,0.40157485008239746,-1.124586582183838,0.035180091857910156
1772534778531149300,0.8981494140625,0.46339401602745056,-0.5981329083442688,-0.09912551939487457
1772534778541166300,0.908166259765625,0.3548702001571655,0.010213755071163177,-0.4405430257320404
1772534778551183400,0.918183349609375,0.1368422657251358,0.6038984060287476,-0.8170285224914551
1772534778561200400,0.928200439453125,-0.09717501699924469,1.0376245975494385,-1.052456259727478
1772534778571216400,0.93821630859375,-0.29800906777381897,1.2686662673950195,-1.0846205949783325
1772534778581233200,0.948233154296875,-0.3934903144836426,1.2866002321243286,-0.9467148780822754
1772534778591250400,0.95825048828125,-0.3430396616458893,1.226107120513916,-0.6771531701087952
1772534778601267500,0.968267333984375,-0.18590302765369415,1.2219594717025757,-0.3455272912979126
1772534778611284200,0.9782841796875,-0.00395665830001235,1.2421952486038208,-0.07250988483428955
1772534778621301500,0.988301513671875,0.17453771829605103,1.290074348449707,0.04265798255801201
1772534778631318300,0.998318359375,0.31561920046806335,1.3102835416793823,0.028913939371705055
1772534778641335300,1.008335205078125,0.4455204904079437,1.254798173904419,-0.036141760647296906
1772534778651351600,1.0183515625,0.4505370855331421,1.2679551839828491,-0.12822668254375458
1772534778661368300,1.028368408203125,0.3386305272579193,1.2476179599761963,-0.23888660967350006
1772534778671385300,1.03838525390625,0.08795808255672455,1.2819347381591797,-0.3220251798629761
1772534778681402400,1.04840234375,-0.20532172918319702,1.31584894657135,-0.348183810710907
1772534778691419400,1.05841943359375,-0.448862224817276,1.2933233976364136,-0.3310985565185547
1772534778701436200,1.068436279296875,-0.6068989634513855,1.2765004634857178,-0.3089464008808136
1772534778711453400,1.078453369140625,-0.6779246926307678,1.3102481365203857,-0.2978958785533905
1772534778721470500,1.088470458984375,-0.6777086853981018,1.2614810466766357,-0.2916257381439209
1772534778731487200,1.0984873046875,-0.6577779054641724,1.1574050188064575,-0.2749234437942505
1772534778741503500,1.10850341796875,-0.6650049090385437,0.9865682721138,-0.17312172055244446
1772534778751520500,1.1185205078125,-0.7107681035995483,0.8935288786888123,0.06124311685562134
1772534778761537300,1.128537353515625,-0.7871190905570984,0.8643283843994141,0.34796038269996643
1772534778771554600,1.138554443359375,-0.8215758800506592,0.8810117840766907,0.5712482929229736
1772534778781571300,1.1485712890625,-0.8062949180603027,0.8310655355453491,0.6606879234313965
1772534778791588400,1.15858837890625,-0.7471692562103271,0.6294865608215332,0.6205689907073975
1772534778801605400,1.16860546875,-0.6353527307510376,0.27245789766311646,0.5194104313850403
1772534778811622400,1.178622314453125,-0.4556327760219574,-0.1155146136879921,0.44157153367996216
1772534778821638400,1.188638427734375,-0.23785942792892456,-0.4144887924194336,0.4475066661834717
1772534778831655000,1.198655029296875,-0.022758841514587402,-0.5967989563941956,0.6122410297393799
1772534778841671700,1.208671630859375,0.1658100038766861,-0.6109922528266907,0.9402199387550354
1772534778851689000,1.21868896484375,0.33680784702301025,-0.43155381083488464,1.3277496099472046
1772534778861705700,1.228705810546875,0.5097647309303284,-0.19922229647636414,1.6163898706436157
1772534778871722800,1.23872265625,0.5784175395965576,-0.18161852657794952,1.728366732597351
1772534778881739800,1.24873974609375,0.5063729286193848,-0.312510222196579,1.6623626947402954
1772534778891756800,1.2587568359375,0.27719032764434814,-0.37301725149154663,1.515329360961914
1772534778901773600,1.268773681640625,0.040638238191604614,-0.18910999596118927,1.266992211341858
1772534778911789800,1.278789794921875,-0.09043721854686737,-0.07977312803268433,0.8547207713127136
1772534778921806800,1.288806884765625,-0.058692339807748795,-0.2818279564380646,0.4026241600513458
1772534778931823600,1.29882373046875,0.13150902092456818,-0.8121882081031799,0.12196185439825058
1772534778941841000,1.3088408203125,0.4054524302482605,-1.4629817008972168,0.09780298918485641
1772534778951858000,1.31885791015625,0.5416936278343201,-1.8903790712356567,0.3494088649749756
1772534778961874700,1.328874755859375,0.5240408778190613,-1.8068066835403442,0.5791783928871155
1772534778971892000,1.33889208984375,0.41768965125083923,-1.310088872909546,0.559413731098175
1772534778981908700,1.34890869140625,0.2709484100341797,-0.5536815524101257,0.38107624650001526
1772534778991924700,1.3589248046875,0.12837128341197968,0.18001849949359894,0.060022324323654175
1772534779001941800,1.368941650390625,-0.07298952341079712,0.7476646304130554,-0.33104902505874634
1772534779011958800,1.378958740234375,-0.3293091952800751,0.9203429222106934,-0.6906343698501587
1772534779021975800,1.388975830078125,-0.5340974926948547,0.6053767204284668,-0.9619724154472351
1772534779031992600,1.39899267578125,-0.6615803241729736,-0.012296879664063454,-1.1437225341796875
1772534779042009900,1.409009765625,-0.6907952427864075,-0.7276778817176819,-1.158782958984375
1772534779052026600,1.419026611328125,-0.5609447956085205,-1.3596699237823486,-1.0257737636566162
1772534779062043600,1.429043701171875,-0.2684043049812317,-1.8757399320602417,-0.791333794593811
1772534779072061000,1.43906103515625,0.09095361083745956,-2.263638973236084,-0.5137158036231995
1772534779082076700,1.44907666015625,0.3462980389595032,-2.247955799102783,-0.22154676914215088
1772534779092093700,1.45909375,0.3042067587375641,-1.6902287006378174,-0.045338187366724014
1772534779102111000,1.469111083984375,-0.03111743927001953,-1.0360487699508667,-0.09635236859321594
1772534779112127700,1.479127685546875,-0.524597704410553,-0.3949478566646576,-0.40240710973739624
1772534779122144800,1.489144775390625,-1.1032549142837524,0.2475767731666565,-0.8692938685417175
1772534779132161800,1.499161865234375,-1.6868613958358765,0.7799016833305359,-1.2931010723114014
1772534779142178800,1.5091787109375,-2.1419715881347656,1.0664167404174805,-1.5360345840454102
1772534779152195600,1.519195556640625,-2.384774684906006,1.246808409690857,-1.558682918548584
1772534779162212900,1.529212890625,-2.432366132736206,1.4038997888565063,-1.378104567527771
1772534779172228900,1.539228759765625,-2.2847225666046143,1.5237404108047485,-1.1332213878631592
1772534779182245600,1.54924560546875,-1.9401240348815918,1.6524137258529663,-0.9128967523574829
1772534779192263000,1.559262939453125,-1.4780807495117188,1.7886828184127808,-0.712273359298706
1772534779202279700,1.56927978515625,-1.0326849222183228,1.8688157796859741,-0.5227135419845581
1772534779212296700,1.579296630859375,-0.5883578062057495,1.925920844078064,-0.40121665596961975
1772534779222314000,1.58931396484375,-0.1388670653104782,1.9104607105255127,-0.3404340147972107
1772534779232330800,1.599330810546875,0.18735603988170624,1.8676657676696777,-0.34388306736946106
1772534779242347800,1.60934765625,0.3480354845523834,1.7791534662246704,-0.4089510142803192
1772534779252363800,1.61936376953125,0.3463110625743866,1.6145203113555908,-0.4788385033607483
1772534779262380800,1.629380859375,0.23111364245414734,1.3715282678604126,-0.5098483562469482
1772534779272397800,1.639397705078125,0.027846278622746468,1.1249208450317383,-0.4782411456108093
1772534779282414600,1.64941455078125,-0.220452219247818,0.8461787104606628,-0.3923936188220978
1772534779292432000,1.659431884765625,-0.443973183631897,0.4680212736129761,-0.24184031784534454
1772534779302448600,1.66944873046875,-0.5943530797958374,0.11596415191888809,-0.04778936132788658
1772534779312465700,1.679465576171875,-0.6353639364242554,-0.10092075169086456,0.12192350625991821
1772534779322483000,1.68948291015625,-0.5942623019218445,-0.16230449080467224,0.23438294231891632
1772534779332498700,1.699498779296875,-0.4728703498840332,-0.007592672016471624,0.28592175245285034
1772534779342515700,1.709515625,-0.3015707731246948,0.240683451294899,0.2849521040916443
1772534779352532700,1.71953271484375,-0.09348547458648682,0.4643985629081726,0.23790204524993896
1772534779362549800,1.7295498046875,0.1158677488565445,0.5077607035636902,0.188325434923172
1772534779372566800,1.73956689453125,0.30010148882865906,0.3244505226612091,0.19149751961231232
1772534779382583800,1.749583740234375,0.49386218190193176,-0.012823919765651226,0.27473488450050354
1772534779392600800,1.759600830078125,0.6730758547782898,-0.43106937408447266,0.46656185388565063
1772534779402617600,1.76961767578125,0.8276649117469788,-0.7518870830535889,0.7640561461448669
1772534779412633900,1.7796337890625,0.9390862584114075,-0.8442074060440063,1.0953104496002197
1772534779422651000,1.78965087890625,1.0068562030792236,-0.7968015670776367,1.3555325269699097
1772534779432667600,1.799667724609375,1.064867377281189,-0.8839673399925232,1.453488826751709
1772534779442685000,1.809684814453125,1.200473427772522,-1.1336296796798706,1.3992384672164917
1772534779452701700,1.81970166015625,1.3930788040161133,-1.302862286567688,1.3350980281829834
1772534779462718700,1.82971875,1.5527230501174927,-1.361655592918396,1.3577988147735596
1772534779472736000,1.839736083984375,1.7225232124328613,-1.5393449068069458,1.5551270246505737
1772534779482752800,1.849752685546875,1.7473745346069336,-1.5820090770721436,1.9383578300476074
1772534779492769800,1.859769775390625,1.5686063766479492,-1.273940920829773,2.255288600921631
1772534779502785800,1.869785888671875,1.3460851907730103,-0.9640020132064819,2.179220676422119
1772534779512802800,1.879802734375,0.9949303269386292,-0.7064356803894043,1.6617920398712158
1772534779522819800,1.88981982421875,0.5343819260597229,-0.44947847723960876,0.8798418641090393
1772534779532836600,1.899836669921875,0.09311769157648087,-0.3180900812149048,0.17364822328090668
1772534779542854000,1.90985400390625,-0.16754132509231567,-0.3310021460056305,-0.2513597905635834
1772534779552870700,1.91987060546875,-0.20412702858448029,-0.3267227113246918,-0.36276593804359436
1772534779562887700,1.9298876953125,-0.05371702462434769,-0.2831456959247589,-0.2998216152191162
1772534779572904700,1.93990478515625,0.25802114605903625,-0.32239535450935364,-0.20084628462791443
1772534779582920700,1.949920654296875,0.7238005995750427,-0.35244354605674744,-0.12373419106006622
1772534779592937700,1.959937744140625,1.0738917589187622,-0.4190063178539276,-0.1403600424528122
1772534779602954800,1.969954833984375,1.1390116214752197,-0.4836801290512085,-0.24300944805145264
1772534779612971800,1.9799716796875,1.0050660371780396,-0.5079718828201294,-0.4217539131641388
1772534779622988800,1.98998876953125,0.7957581281661987,-0.638841986656189,-0.687694251537323
1772534779633005800,2.000005859375,0.5530413389205933,-0.8557002544403076,-1.0025845766067505
1772534779643022800,2.01002294921875,0.2580070495605469,-1.1081618070602417,-1.266762137413025
1772534779653039600,2.02003955078125,-0.13211596012115479,-1.1246747970581055,-1.4062608480453491
1772534779663056000,2.030055908203125,-0.5863244533538818,-0.9660800695419312,-1.4553924798965454
1772534779673073000,2.040072998046875,-0.9376758337020874,-0.7661562561988831,-1.453985571861267
1772534779683089700,2.050089599609375,-1.0874658823013306,-0.5992109775543213,-1.3889660835266113
1772534779693107000,2.06010693359375,-1.0563790798187256,-0.39438486099243164,-1.265643835067749
1772534779703123700,2.070123779296875,-0.9496691226959229,-0.1019655168056488,-1.1101511716842651
1772534779713140700,2.080140625,-0.8368962407112122,0.21610912680625916,-0.9472895860671997
1772534779723157800,2.09015771484375,-0.7708402276039124,0.4670071303844452,-0.8117155432701111
1772534779733174800,2.1001748046875,-0.7857601046562195,0.6143435835838318,-0.7111247181892395
1772534779743190800,2.110190673828125,-0.8841124773025513,0.7619703412055969,-0.6453060507774353
1772534779753207800,2.120207763671875,-1.02108895778656,0.9070993065834045,-0.6031926870346069
1772534779763224800,2.130224853515625,-1.1170202493667603,1.0309996604919434,-0.587506890296936
1772534779773241900,2.140241943359375,-1.07404625415802,1.1481801271438599,-0.611119270324707
1772534779783258600,2.150258544921875,-0.868516206741333,1.2705843448638916,-0.669238269329071
1772534779793276000,2.16027587890625,-0.5518447756767273,1.3700871467590332,-0.7372159957885742
1772534779803292700,2.170292724609375,-0.2191035896539688,1.4355354309082031,-0.7970225811004639
1772534779813309700,2.180309814453125,0.03910798951983452,1.4539700746536255,-0.8176567554473877
1772534779823326000,2.190325927734375,0.22285358607769012,1.4329497814178467,-0.815683901309967
1772534779833342500,2.200342529296875,0.3408185839653015,1.327297329902649,-0.7641317248344421
1772534779843359500,2.210359375,0.3911299407482147,1.2308051586151123,-0.6709626317024231
1772534779853376500,2.22037646484375,0.3415440022945404,1.1464769840240479,-0.5558198094367981
1772534779863393500,2.2303935546875,0.2496284693479538,1.1736303567886353,-0.4399680495262146
1772534779873410600,2.24041064453125,0.10636532306671143,1.106648564338684,-0.35199931263923645
1772534779883427600,2.250427490234375,-0.06253155320882797,1.0122283697128296,-0.31878623366355896
1772534779893444600,2.260444580078125,-0.25389671325683594,0.8296313881874084,-0.35173672437667847
1772534779903460600,2.270460693359375,-0.45427748560905457,0.467585027217865,-0.4184774160385132
1772534779913477400,2.280477294921875,-0.6247941255569458,0.040274184197187424,-0.474042683839798
1772534779923494700,2.29049462890625,-0.6999269127845764,-0.2972756326198578,-0.4675610661506653
1772534779933511400,2.300511474609375,-0.6540574431419373,-0.3979787826538086,-0.3695426285266876
1772534779943528400,2.310528564453125,-0.5103996396064758,-0.4053381681442261,-0.19327251613140106
1772534779953545500,2.32054541015625,-0.29903489351272583,-0.42452359199523926,0.024995364248752594
1772534779963562500,2.3305625,-0.07215754687786102,-0.37543246150016785,0.3023958206176758
1772534779973579500,2.34057958984375,0.13471867144107819,-0.2732326090335846,0.6030980944633484
1772534779983595500,2.350595458984375,0.3326333463191986,-0.24610458314418793,0.880092442035675
1772534779993612500,2.360612548828125,0.47859135270118713,-0.3074534237384796,1.092718482017517
1772534780003629600,2.370629638671875,0.5750957727432251,-0.34835851192474365,1.2394671440124512
1772534780013646600,2.380646484375,0.6148719787597656,-0.39868080615997314,1.3128334283828735
1772534780023663600,2.39066357421875,0.6089655756950378,-0.5448625087738037,1.3312891721725464
1772534780033680400,2.400680419921875,0.5870723128318787,-0.8290247321128845,1.317792534828186
1772534780043697700,2.41069775390625,0.6281850934028625,-1.0478100776672363,1.3160260915756226
1772534780053714400,2.42071435546875,0.6969130039215088,-0.9200094938278198,1.4224414825439453
1772534780063730400,2.43073046875,0.6761630177497864,-0.5106805562973022,1.6425343751907349
1772534780073747700,2.440747802734375,0.4543462097644806,-0.40128618478775024,1.885663390159607
1772534780083764500,2.450764404296875,0.19480517506599426,-0.5399394035339355,2.0154213905334473
1772534780093781500,2.460781494140625,0.12026569247245789,-0.6375972628593445,1.968961238861084
1772534780103798500,2.470798583984375,0.17422346770763397,-0.657959520816803,1.7619388103485107
1772534780113815600,2.480815673828125,0.24326325953006744,-0.6301209330558777,1.4033430814743042
1772534780123832600,2.49083251953125,0.22333161532878876,-0.4813903272151947,0.9455361366271973
1772534780133849600,2.500849609375,0.07341456413269043,-0.1173202320933342,0.450435072183609
1772534780143865600,2.510865478515625,-0.0995018258690834,0.378595232963562,-0.06671883910894394
1772534780153882600,2.520882568359375,-0.2080237716436386,0.7852010726928711,-0.5401918888092041
1772534780163899400,2.5308994140625,-0.1729467511177063,0.952417254447937,-0.8658908605575562
1772534780173916700,2.540916748046875,0.02280544675886631,0.8874770998954773,-0.9524624943733215
1772534780183933400,2.550933349609375,0.2829046845436096,0.5959120988845825,-0.8332905769348145
1772534780193950500,2.560950439453125,0.5051659941673279,0.30043333768844604,-0.6228516101837158
1772534780203967500,2.570967529296875,0.6450783014297485,0.08018352091312408,-0.4683871865272522
1772534780213984500,2.580984619140625,0.7234141230583191,-0.03279762715101242,-0.4342113733291626
1772534780224000500,2.59100048828125,0.7274834513664246,-0.10158281773328781,-0.5091415643692017
1772534780234017500,2.601017578125,0.6713477373123169,-0.16262859106063843,-0.6503926515579224
1772534780244034600,2.61103466796875,0.5575636625289917,-0.22332097589969635,-0.7949479818344116
1772534780254051300,2.62105126953125,0.2964628338813782,-0.18130241334438324,-0.9223362803459167
1772534780264068600,2.631068603515625,-0.07895979285240173,-0.14593777060508728,-1.0426946878433228
1772534780274085600,2.641085693359375,-0.5158417820930481,-0.10184860229492188,-1.1532707214355469
1772534780284102400,2.651102294921875,-0.9377980828285217,-0.01344843115657568,-1.1973971128463745
1772534780294119700,2.66111962890625,-1.2406983375549316,0.11202800273895264,-1.0758051872253418
1772534780304135700,2.6711357421875,-1.3493739366531372,0.397012859582901,-0.8317435383796692
1772534780314152400,2.68115234375,-1.268166184425354,0.7888892889022827,-0.5299381613731384
1772534780324169700,2.691169677734375,-1.0201520919799805,1.1640911102294922,-0.25155073404312134
1772534780334186500,2.7011865234375,-0.7100802063941956,1.4743778705596924,-0.05294470861554146
1772534780344203500,2.71120361328125,-0.4058348536491394,1.6951355934143066,0.04807165637612343
1772534780354220500,2.721220458984375,-0.14279629290103912,1.8262075185775757,0.07181054353713989
1772534780364237600,2.731237548828125,0.06569618731737137,1.8454337120056152,0.053171344101428986
1772534780374254600,2.741254638671875,0.1937292516231537,1.7615609169006348,0.02116973325610161
1772534780384270300,2.751270263671875,0.2652588188648224,1.5074735879898071,-0.022177474573254585
1772534780394287600,2.76128759765625,0.3633936643600464,1.2773932218551636,-0.06324554979801178
1772534780404304400,2.771304443359375,0.35397645831108093,1.0637842416763306,-0.08500251173973083
1772534780414321400,2.7813212890625,0.22522273659706116,0.5337600708007812,-0.181990846991539
1772534780424338700,2.791338623046875,-0.08697111904621124,-0.053098373115062714,-0.32125580310821533
1772534780434355500,2.80135546875,-0.47571513056755066,-0.32335516810417175,-0.36257579922676086
1772534780444372500,2.81137255859375,-0.7930704355239868,-0.21172156929969788,-0.23212191462516785
1772534780454389500,2.821389404296875,-0.9091176986694336,0.15985757112503052,-0.054782021790742874
1772534780464405500,2.831405517578125,-0.8410544991493225,0.5067561268806458,0.1583014875650406
1772534780474422500,2.841422607421875,-0.5844032764434814,0.6615105867385864,0.348261296749115
1772534780484439600,2.851439453125,-0.26060521602630615,0.6311121582984924,0.4250354468822479
1772534780494456600,2.86145654296875,0.009032909758388996,0.6104652285575867,0.34917956590652466
1772534780504473300,2.871473388671875,0.21028266847133636,0.5929070115089417,0.16126638650894165
1772534780514490600,2.88149072265625,0.31238505244255066,0.5537606477737427,-0.019712718203663826
1772534780524507600,2.891507568359375,0.2662753462791443,0.46256497502326965,-0.06802565604448318
1772534780534524400,2.9015244140625,0.1479572355747223,0.3264215290546417,0.026728816330432892
1772534780544540700,2.911540771484375,0.04782158508896828,0.16389146447181702,0.22114330530166626
1772534780554557400,2.921557373046875,0.04387211799621582,-0.08473486453294754,0.4634600579738617
1772534780564574500,2.931574462890625,0.13659405708312988,-0.40270698070526123,0.6962051391601562
1772534780574591700,2.941591796875,0.27590882778167725,-0.7311319708824158,0.8993617296218872
1772534780584608500,2.9516083984375,0.4624616503715515,-0.9926378726959229,1.0124422311782837
1772534780594625500,2.96162548828125,0.5537130236625671,-1.135198712348938,0.9961540699005127
1772534780604642600,2.971642578125,0.45626235008239746,-0.9442272186279297,0.9840209484100342
1772534780614659600,2.98165966796875,0.4128405749797821,-1.0121266841888428,1.0462042093276978
1772534780624675600,2.991675537109375,0.5954535007476807,-1.5773650407791138,1.1882526874542236
1772534780634692400,3.0016923828125,0.9947606921195984,-2.3205759525299072,1.519824743270874
1772534780644709600,3.011709716796875,1.4436002969741821,-2.2873973846435547,1.9193273782730103
1772534780654726400,3.021726318359375,1.6622029542922974,-1.5465525388717651,2.19454026222229
1772534780664743400,3.031743408203125,1.564955472946167,-0.8236051797866821,1.918234944343567
1772534780674760700,3.0417607421875,1.222901701927185,-0.6570814847946167,1.3520759344100952
1772534780684777500,3.051777587890625,0.7391073703765869,-0.7295178771018982,0.8081519603729248
1772534780694793500,3.06179345703125,0.3063519299030304,-0.6379032135009766,0.5139732956886292
1772534780704810500,3.071810546875,0.14594203233718872,-0.514719545841217,0.3410095274448395
1772534780714827500,3.08182763671875,0.23166997730731964,-0.24906495213508606,0.17420269548892975
1772534780724844500,3.091844482421875,0.39706987142562866,0.19866009056568146,-0.03561152517795563
1772534780734861600,3.101861572265625,0.6097853183746338,0.5676253437995911,-0.3224925696849823
1772534780744878600,3.111878662109375,0.7822511196136475,0.6683626174926758,-0.6534742116928101
1772534780754895400,3.121895263671875,0.7990884184837341,0.5456609129905701,-0.9029287695884705
1772534780764912600,3.13191259765625,0.7141319513320923,0.13226935267448425,-1.1065999269485474
1772534780774928600,3.1419287109375,0.6657873392105103,-0.43999576568603516,-1.2599055767059326
1772534780784945400,3.1519453125,0.7491072416305542,-1.0451897382736206,-1.376509428024292
1772534780794962700,3.161962646484375,0.8719088435173035,-1.570945143699646,-1.4988411664962769
1772534780804979500,3.1719794921875,0.8993234038352966,-2.028486728668213,-1.5516968965530396
1772534780814996500,3.18199658203125,0.7388096451759338,-2.2032430171966553,-1.506688117980957
1772534780825013800,3.192013671875,0.4486113488674164,-2.076887845993042,-1.3739309310913086
1772534780835030300,3.2020302734375,0.15154904127120972,-1.5672931671142578,-1.1808698177337646
1772534780845047300,3.21204736328125,-0.11239977926015854,-0.7999280691146851,-1.0012964010238647
1772534780855063300,3.222063232421875,-0.24183259904384613,-0.18148483335971832,-1.0323677062988281
1772534780865080300,3.232080322265625,-0.2698703706264496,0.3086491823196411,-1.341187596321106
1772534780875097300,3.242097412109375,-0.2710919678211212,0.6492863893508911,-1.6794458627700806
1772534780885114000,3.252114013671875,-0.22090815007686615,0.8212477564811707,-1.8368866443634033
1772534780895131400,3.26213134765625,-0.1642318218946457,0.7958744764328003,-1.7847917079925537
1772534780905148200,3.272148193359375,-0.15391100943088531,0.6933289766311646,-1.581480860710144
1772534780915165200,3.282165283203125,-0.12872283160686493,0.5778034329414368,-1.305845856666565
1772534780925182500,3.292182373046875,-0.028377046808600426,0.4555147886276245,-1.0555055141448975
1772534780935198200,3.3021982421875,0.15824583172798157,0.2850503921508789,-0.8681039810180664
1772534780945215200,3.31221533203125,0.4136919677257538,0.11182799935340881,-0.7255406975746155
1772534780955232300,3.322232177734375,0.6839019060134888,0.06829836219549179,-0.5695888996124268
1772534780965249300,3.332249267578125,0.9255076050758362,0.17103911936283112,-0.41090551018714905
1772534780975266300,3.342266357421875,1.0739465951919556,0.35438472032546997,-0.285603791475296
1772534780985283300,3.352283447265625,1.0951192378997803,0.5316753387451172,-0.22785979509353638
1772534780995300400,3.36230029296875,1.0062466859817505,0.6082950234413147,-0.23545539379119873
1772534781005316400,3.37231640625,0.864783525466919,0.58159339427948,-0.26129046082496643
1772534781015333000,3.3823330078125,0.7326654195785522,0.5027866959571838,-0.289637953042984
1772534781025350400,3.392350341796875,0.6181551218032837,0.3844507336616516,-0.2996189296245575
1772534781035367200,3.4023671875,0.5369731783866882,0.2443080097436905,-0.2315884828567505
1772534781045384200,3.41238427734375,0.4828510880470276,0.11095740646123886,-0.1027788445353508
1772534781055401200,3.422401123046875,0.4567941725254059,0.033845048397779465,0.040529850870370865
1772534781065418200,3.432418212890625,0.4169069528579712,0.10096416622400284,0.16737568378448486
1772534781075435500,3.442435546875,0.37143638730049133,0.23467455804347992,0.23237864673137665
1772534781085451300,3.452451171875,0.3237921893596649,0.44021785259246826,0.26127687096595764
1772534781095468300,3.46246826171875,0.24807052314281464,0.6952352523803711,0.27931952476501465
1772534781105485300,3.4724853515625,0.162811279296875,0.8560827374458313,0.29818403720855713
1772534781115502300,3.48250244140625,0.09792176634073257,0.8501462340354919,0.36473801732063293
1772534781125519400,3.492519287109375,0.07875233888626099,0.7520849704742432,0.4766070246696472
1772534781135536000,3.5025361328125,0.12632837891578674,0.5839553475379944,0.5980287790298462
1772534781145553400,3.512553466796875,0.21072927117347717,0.3192855715751648,0.7087723612785339
1772534781155569400,3.5225693359375,0.31143084168434143,-0.12207663804292679,0.8328040242195129
1772534781165586200,3.532586181640625,0.40770864486694336,-0.5481570959091187,1.011834979057312
1772534781175603500,3.542603515625,0.4820702373981476,-0.7534713745117188,1.2060718536376953
1772534781185620200,3.5526201171875,0.5756849050521851,-0.8253865838050842,1.3609956502914429
1772534781195637200,3.56263720703125,0.6786267161369324,-0.855371356010437,1.417017936706543
1772534781205654300,3.572654296875,0.8151158094406128,-0.8502439856529236,1.406333088874817
1772534781215671300,3.58267138671875,0.9911038875579834,-0.7611694931983948,1.3087053298950195
1772534781225688300,3.592688232421875,1.1134364604949951,-0.8097010850906372,1.27842116355896
1772534781235704000,3.6027041015625,1.0961613655090332,-1.518784523010254,1.4368952512741089
1772534781245721300,3.612721435546875,0.9764639735221863,-2.2532899379730225,1.592226505279541
1772534781255738400,3.62273828125,0.7994900345802307,-2.3678317070007324,1.5129092931747437
1772534781265755100,3.632755126953125,0.6286330223083496,-2.110609769821167,1.2603564262390137
1772534781275772400,3.6427724609375,0.46403875946998596,-1.8760161399841309,0.9777100682258606
1772534781285789200,3.6527890625,0.2634950280189514,-1.310768485069275,0.7562578320503235
1772534781295806200,3.66280615234375,0.016219716519117355,-0.41311967372894287,0.4373730719089508
1772534781305823200,3.6728232421875,-0.31436780095100403,0.6592647433280945,-0.0659923329949379
1772534781315839200,3.682839111328125,-0.6982366442680359,1.5402599573135376,-0.6601675152778625
1772534781325856300,3.692856201171875,-0.9855421781539917,2.0211312770843506,-1.2223395109176636
1772534781335873300,3.702873291015625,-1.080632209777832,1.861127495765686,-1.577576756477356
1772534781345890300,3.712890380859375,-1.0519092082977295,1.1429858207702637,-1.585739254951477
1772534781355907300,3.7229072265625,-0.8094579577445984,0.3040562868118286,-1.3248469829559326
1772534781365924400,3.73292431640625,-0.36669811606407166,-0.41194280982017517,-0.968266487121582
1772534781375941400,3.74294140625,0.13509203493595123,-0.8255701065063477,-0.7243382930755615
1772534781385957000,3.75295703125,0.4751929044723511,-0.8831292390823364,-0.6732910871505737
1772534781395974400,3.762974365234375,0.45846718549728394,-0.4832388460636139,-0.801482081413269
1772534781405991400,3.772991455078125,0.09326310455799103,0.14606505632400513,-1.0816998481750488
1772534781416008200,3.78300830078125,-0.5004668235778809,0.7368876338005066,-1.3456084728240967
1772534781426025500,3.793025390625,-1.0952657461166382,1.0811917781829834,-1.4263994693756104
1772534781436042200,3.803042236328125,-1.5061736106872559,1.1828738451004028,-1.330715298652649
1772534781446059300,3.813059326171875,-1.6242350339889526,1.2143104076385498,-1.1817337274551392
1772534781456075300,3.8230751953125,-1.4718263149261475,1.2873550653457642,-1.0150995254516602
1772534781466092300,3.83309228515625,-1.133554220199585,1.3382467031478882,-0.8629041314125061
1772534781476109300,3.843109375,-0.7474052309989929,1.309098720550537,-0.6905480623245239
1772534781486126000,3.8531259765625,-0.39189428091049194,1.1773356199264526,-0.49699753522872925
1772534781496143400,3.863143310546875,-0.06609433144330978,1.014312505722046,-0.30962124466896057
1772534781506160400,3.873160400390625,0.16844306886196136,0.8656373620033264,-0.14536625146865845
1772534781516177200,3.88317724609375,0.3244750201702118,0.7641522288322449,-0.05712267383933067
1772534781526194400,3.8931943359375,0.3841058611869812,0.7380306124687195,-0.038729552179574966
1772534781536210200,3.903210205078125,0.399180144071579,0.7826098203659058,-0.04808124154806137
1772534781546227200,3.913227294921875,0.40344706177711487,0.8182051181793213,-0.04855821654200554
1772534781556244500,3.923244384765625,0.4101355969905853,0.8460894823074341,-0.03347114101052284
1772534781566261200,3.93326123046875,0.4094775319099426,0.9073003530502319,-0.011955995112657547
1772534781576278300,3.9432783203125,0.4368540346622467,0.8866081237792969,0.009272594004869461
1772534781586295300,3.95329541015625,0.4965498447418213,0.7599801421165466,0.03784458339214325
1772534781596312300,3.963312255859375,0.5753458738327026,0.5595788955688477,0.0826735720038414
1772534781606328300,3.973328369140625,0.6430527567863464,0.34951433539390564,0.16663531959056854
1772534781616345000,3.983344970703125,0.6929513216018677,0.10907668620347977,0.261248379945755
1772534781626362400,3.9933623046875,0.7048692107200623,-0.07426810264587402,0.36253663897514343
1772534781636379100,4.003379150390625,0.6944046020507812,-0.13248534500598907,0.42238107323646545
1772534781646396400,4.013396484375,0.6932157874107361,-0.05621213838458061,0.40608546137809753
1772534781656413400,4.023413330078125,0.7019338607788086,0.022915169596672058,0.34779712557792664
1772534781666430200,4.03343017578125,0.7380900382995605,0.0021726067643612623,0.32666707038879395
1772534781676447500,4.043447509765625,0.8048528432846069,-0.08825688809156418,0.3844515383243561
1772534781686463200,4.053463134765625,0.8799446225166321,-0.25468528270721436,0.5108840465545654
1772534781696480300,4.063480224609375,0.9289992451667786,-0.41589227318763733,0.6781302690505981
1772534781706497300,4.073497314453125,0.9623436331748962,-0.4721105396747589,0.8607698678970337
1772534781716514300,4.083514404296875,0.9849658608436584,-0.3350970447063446,1.0200763940811157
1772534781726531300,4.09353125,0.994488000869751,-0.16760124266147614,1.0787781476974487
1772534781736548000,4.103548095703125,0.9747587442398071,-0.04850441962480545,1.0572112798690796
1772534781746565400,4.1135654296875,0.9953194260597229,-0.07886125892400742,0.9921116828918457
1772534781756581400,4.123581298828125,1.0484702587127686,-0.4210071563720703,0.9561643004417419
1772534781766598100,4.13359814453125,1.1430761814117432,-1.0007264614105225,1.0782465934753418
1772534781776615400,4.143615478515625,1.2524548768997192,-1.4192898273468018,1.349015235900879
1772534781786632200,4.153632080078125,1.3432934284210205,-1.3114323616027832,1.6799142360687256
1772534781796649200,4.163649169921875,1.3577444553375244,-0.7615810036659241,2.0948920249938965
1772534781806666500,4.17366650390625,1.2998902797698975,0.019752133637666702,2.2898201942443848
1772534781816683300,4.183683349609375,1.0828341245651245,0.4916134178638458,2.1219680309295654
1772534781826699300,4.19369921875,0.8207399249076843,0.685982882976532,1.7226241827011108
1772534781836716300,4.20371630859375,0.49023789167404175,0.7659544348716736,1.2509208917617798
1772534781846733600,4.213733642578125,0.11993066221475601,0.3431467115879059,0.6503795981407166
1772534781856750600,4.22375048828125,-0.23003080487251282,-0.5780375003814697,0.12772519886493683
1772534781866767400,4.233767333984375,-0.4833720028400421,-1.2138237953186035,-0.14619795978069305
1772534781876784600,4.24378466796875,-0.5123948454856873,-1.3377788066864014,-0.25178855657577515
1772534781886801400,4.253801513671875,-0.36903077363967896,-0.9227818250656128,-0.3309837877750397
1772534781896818400,4.263818359375,-0.19302618503570557,-0.3066699206829071,-0.553663969039917
1772534781906834700,4.273834716796875,-0.0477701835334301,0.12214987725019455,-0.8779467344284058
1772534781916851500,4.2838515625,0.026759441941976547,0.2109026461839676,-1.1038233041763306
1772534781926868500,4.293868408203125,0.1666310578584671,0.03032754547894001,-1.138984203338623
1772534781936885500,4.303885498046875,0.42407912015914917,-0.15438024699687958,-1.0687861442565918
1772534781946902500,4.313902587890625,0.7382223606109619,-0.39929014444351196,-1.0670143365859985
1772534781956919600,4.32391943359375,0.8888949751853943,-0.6295073628425598,-1.1370536088943481
1772534781966936600,4.3339365234375,0.8070195913314819,-0.8168988227844238,-1.159303069114685
1772534781976952600,4.34395263671875,0.5442278981208801,-0.9238561391830444,-1.0923261642456055
1772534781986969300,4.35396923828125,0.19973547756671906,-0.891753077507019,-0.9259270429611206
1772534781996986400,4.363986328125,-0.11480434983968735,-0.4961881935596466,-0.6878500580787659
1772534782007003600,4.374003662109375,-0.3053836226463318,0.20267002284526825,-0.512705385684967
1772534782017020400,4.3840205078125,-0.3817178010940552,0.9171753525733948,-0.4923740029335022
1772534782027037400,4.394037353515625,-0.364243745803833,1.4952949285507202,-0.5683611631393433
1772534782037054500,4.404054443359375,-0.33281123638153076,1.8457207679748535,-0.6808347105979919
1772534782047071500,4.414071533203125,-0.35955682396888733,2.049666166305542,-0.7930166721343994
1772534782057087500,4.42408740234375,-0.40331897139549255,2.1511974334716797,-0.869106113910675
1772534782067104500,4.4341044921875,-0.4105611741542816,2.1004574298858643,-0.8610106110572815
1772534782077121500,4.44412158203125,-0.3944607675075531,1.9280591011047363,-0.7559899091720581
1772534782087138300,4.45413818359375,-0.3651380240917206,1.6604570150375366,-0.5637656450271606
1772534782097155600,4.464155517578125,-0.34021803736686707,1.3799145221710205,-0.2966305911540985
1772534782107172600,4.474172607421875,-0.3251594603061676,1.166043758392334,-0.07019773125648499
1772534782117189400,4.484189453125,-0.2957459092140198,1.019913673400879,0.023621972650289536
1772534782127205400,4.494205322265625,-0.2777581214904785,0.9634669423103333,0.006097041070461273
1772534782137222700,4.50422265625,-0.2517395615577698,0.8816487789154053,-0.09310677647590637
1772534782147239400,4.514239501953125,-0.2217574268579483,0.7990737557411194,-0.2060607522726059
1772534782157256700,4.524256591796875,-0.16261102259159088,0.8144002556800842,-0.27668458223342896
1772534782167273500,4.5342734375,-0.07830625772476196,0.8460537791252136,-0.30784544348716736
1772534782177290500,4.54429052734375,0.050027213990688324,0.7901141047477722,-0.32183128595352173
1772534782187307500,4.5543076171875,0.2710418999195099,0.6028326153755188,-0.31984803080558777
1772534782197323500,4.564323486328125,0.4703403413295746,0.4366486966609955,-0.2950116693973541
1772534782207340500,4.574340576171875,0.5453823804855347,0.2936753034591675,-0.15177035331726074
1772534782217357300,4.584357421875,0.5441120266914368,0.20260636508464813,0.05275482311844826
1772534782227374600,4.59437451171875,0.5270483493804932,0.19907474517822266,0.1954299509525299
1772534782237391400,4.604391357421875,0.5217404365539551,0.23268863558769226,0.28869783878326416
1772534782247408400,4.614408447265625,0.5200484991073608,0.26636672019958496,0.353641152381897
1772534782257425700,4.62442578125,0.49520522356033325,0.2735609710216522,0.4051421582698822
1772534782267441400,4.63444140625,0.41436442732810974,0.21109147369861603,0.4662838280200958
1772534782277458400,4.64445849609375,0.33016911149024963,0.11415506899356842,0.550139844417572
1772534782287475700,4.654475830078125,0.23867781460285187,0.11849602311849594,0.6528672575950623
1772534782297492500,4.664492431640625,0.13321451842784882,0.20182819664478302,0.7571715712547302
1772534782307509500,4.674509521484375,0.028057733550667763,0.27813521027565,0.7715068459510803
1772534782317526500,4.684526611328125,-0.011901932768523693,0.15387052297592163,0.6980406045913696
1772534782327543600,4.69454345703125,0.04268248379230499,-0.19381821155548096,0.6575185060501099
1772534782337560300,4.704560302734375,0.1680622398853302,-0.5490250587463379,0.7387099862098694
1772534782347576300,4.714576416015625,0.3376571238040924,-1.0651243925094604,0.9406753778457642
1772534782357593600,4.724593505859375,0.4934150278568268,-1.6859676837921143,1.2519160509109497
1772534782367610400,4.7346103515625,0.6565901041030884,-2.0667009353637695,1.5855039358139038
1772534782377627400,4.74462744140625,0.8204978108406067,-1.9889775514602661,1.8979030847549438
1772534782387644400,4.75464453125,0.9677799344062805,-1.6361603736877441,1.9828370809555054
1772534782397661400,4.764661376953125,1.1005147695541382,-1.4721338748931885,1.7283399105072021
1772534782407678700,4.7746787109375,1.0746195316314697,-1.5332140922546387,1.3308939933776855
1772534782417694500,4.784694580078125,0.8076379299163818,-1.7283329963684082,0.9882002472877502
1772534782427711500,4.79471142578125,0.290237158536911,-2.1584460735321045,0.7913417816162109
1772534782437728500,4.804728515625,-0.3812544047832489,-2.4053263664245605,0.6799926161766052
1772534782447745500,4.81474560546875,-0.9800155758857727,-2.0182552337646484,0.4747593402862549
1772534782457762600,4.824762451171875,-1.245540738105774,-1.3026870489120483,0.18611714243888855
1772534782467779300,4.834779296875,-1.2193104028701782,-0.47254064679145813,-0.12204495072364807
1772534782477796600,4.844796630859375,-1.0400445461273193,0.13655145466327667,-0.46708330512046814
1772534782487812600,4.8548125,-0.7756893634796143,0.2671392858028412,-0.725883424282074
1772534782497829400,4.864829345703125,-0.5164538025856018,0.0546342171728611,-0.8130612373352051
1772534782507846700,4.8748466796875,-0.3266710638999939,-0.3122066259384155,-0.8630285263061523
1772534782517863400,4.884863525390625,-0.22973573207855225,-0.6724414825439453,-0.9609556198120117
1772534782527880400,4.89488037109375,-0.1886194497346878,-1.0094517469406128,-1.0880935192108154
1772534782537897500,4.9048974609375,-0.19031588733196259,-1.400192379951477,-1.1927506923675537
1772534782547914500,4.91491455078125,-0.34491318464279175,-1.7449945211410522,-1.2470089197158813
1772534782557930500,4.924930419921875,-0.7564264535903931,-1.8680710792541504,-1.2591907978057861
1772534782567947300,4.934947265625,-1.2950019836425781,-1.6566829681396484,-1.2243249416351318
1772534782577964500,4.944964599609375,-1.7808837890625,-1.1708574295043945,-1.1475310325622559
1772534782587981600,4.954981689453125,-2.026810884475708,-0.43094900250434875,-1.0579966306686401
1772534782597998300,4.964998291015625,-1.9823428392410278,0.3960040509700775,-0.9379149675369263
1772534782608015600,4.975015625,-1.740843415260315,1.1501013040542603,-0.8218967914581299
1772534782618032400,4.985032470703125,-1.4000288248062134,1.7787303924560547,-0.7893763780593872
1772534782628048400,4.99504833984375,-1.0728107690811157,2.214541435241699,-0.8109360337257385
1772534782638065700,5.005065673828125,-0.7955349683761597,2.4302239418029785,-0.8267402648925781
1772534782648082400,5.01508251953125,-0.6132157444953918,2.537303924560547,-0.8093266487121582
1772534782658099500,5.025099365234375,-0.4859163761138916,2.534543514251709,-0.7676535248756409
1772534782668116500,5.035116455078125,-0.38582971692085266,2.3786630630493164,-0.721998393535614
1772534782678133500,5.045133544921875,-0.27843695878982544,2.0802183151245117,-0.6443696618080139
1772534782688150500,5.055150634765625,-0.1789844036102295,1.6470372676849365,-0.4915210008621216
1772534782698167600,5.06516748046875,-0.01727752387523651,1.2080719470977783,-0.3105669319629669
1772534782708183600,5.07518359375,0.2353624552488327,0.836988627910614,-0.1342584788799286
1772534782718200300,5.085200439453125,0.4881132245063782,0.605805516242981,-0.0010932276491075754
1772534782728217600,5.095217529296875,0.7089588046073914,0.46583160758018494,0.026075541973114014
1772534782738234600,5.105234619140625,0.8354085683822632,0.4556697905063629,-0.04818350821733475
1772534782748251400,5.11525146484375,0.8287994265556335,0.5896150469779968,-0.18337196111679077
1772534782758268700,5.1252685546875,0.7265867590904236,0.7283598780632019,-0.31599605083465576
1772534782768285400,5.135285400390625,0.638762354850769,0.666624903678894,-0.4023860692977905
1772534782778301400,5.145301513671875,0.6117954850196838,0.4840444326400757,-0.3807987570762634
1772534782788318500,5.155318359375,0.6296522617340088,0.3121504485607147,-0.27484646439552307
1772534782798335500,5.16533544921875,0.6180267333984375,0.19239580631256104,-0.17001406848430634
1772534782808352500,5.1753525390625,0.5782625675201416,0.08211404085159302,-0.06856255233287811
1772534782818369300,5.185369384765625,0.5303996801376343,0.002627741079777479,0.05180487409234047
1772534782828386600,5.195386474609375,0.46922633051872253,-0.07402682304382324,0.20085321366786957
1772534782838403300,5.2054033203125,0.42252808809280396,-0.1372619867324829,0.35608914494514465
1772534782848419000,5.215419189453125,0.37452301383018494,-0.18768228590488434,0.4698870778083801
1772534782858436400,5.225436279296875,0.3114628195762634,-0.1698598712682724,0.5066235065460205
1772534782868453400,5.235453369140625,0.19078779220581055,-0.07378021627664566,0.5127010941505432
1772534782878470100,5.24547021484375,0.07509661465883255,0.032161664217710495,0.5686376094818115
1772534782888487400,5.2554873046875,0.030977357178926468,0.133726105093956,0.6987085342407227
1772534782898504200,5.265504150390625,0.0686698779463768,0.2936108410358429,0.8489726185798645
1772534782908521200,5.275521240234375,0.20108117163181305,0.32673418521881104,0.9442490339279175
1772534782918537500,5.285537353515625,0.41153427958488464,0.07900293916463852,0.9840414524078369
1772534782928554200,5.29555419921875,0.603111982345581,-0.42348921298980713,1.0362205505371094
1772534782938571300,5.3055712890625,0.7656979560852051,-1.1453219652175903,1.1809228658676147
1772534782952344000,5.319343994140625,1.0385675430297852,-2.1179397106170654,1.5780448913574219
1772534782962361300,5.329361328125,1.29352605342865,-2.228630542755127,1.9180715084075928
1772534782972378400,5.33937841796875,1.5126994848251343,-1.7087064981460571,2.066781997680664
1772534782982395100,5.34939501953125,1.6352800130844116,-1.3537065982818604,1.9119163751602173
1772534782992411400,5.359411376953125,1.5207840204238892,-1.4622730016708374,1.463410496711731
1772534783002428400,5.369428466796875,1.0825824737548828,-1.6102145910263062,0.9295675754547119
1772534783012445200,5.379445068359375,0.45082470774650574,-1.7314730882644653,0.5419844388961792
1772534783022462500,5.38946240234375,-0.20211182534694672,-1.9383351802825928,0.3308729827404022
1772534783032479200,5.399479248046875,-0.7759822607040405,-1.816678762435913,0.23146837949752808
1772534783042496300,5.409496337890625,-1.1178737878799438,-1.368816614151001,0.12680988013744354
1772534783052513300,5.41951318359375,-1.1290476322174072,-0.711834192276001,0.007134075742214918
1772534783062529300,5.429529296875,-0.9351831078529358,0.049009352922439575,-0.16042909026145935
1772534783072546300,5.43954638671875,-0.6482882499694824,0.5539300441741943,-0.44043678045272827
1772534783082563000,5.44956298828125,-0.26168328523635864,0.565155029296875,-0.7429018020629883
1772534783092580400,5.459580322265625,0.27268585562705994,0.07184302806854248,-0.904830276966095
1772534783102597000,5.46959716796875,0.9148848056793213,-0.7908200621604919,-0.8498511910438538
1772534783112614400,5.479614501953125,1.5628236532211304,-1.815469741821289,-0.6108369827270508
1772534783122631400,5.48963134765625,2.1014347076416016,-2.705096483230591,-0.28410574793815613
1772534783132647200,5.499647216796875,2.286886692047119,-3.028275489807129,-0.028683044016361237
1772534783142664200,5.509664306640625,1.9849604368209839,-2.6969823837280273,-0.05392634868621826
1772534783152681500,5.519681396484375,1.2793431282043457,-1.9300003051757812,-0.34301328659057617
1772534783162698200,5.5296982421875,0.41803425550460815,-0.916631281375885,-0.785872220993042
1772534783172715300,5.53971533203125,-0.3628072142601013,0.12023639678955078,-1.1950325965881348
1772534783182732300,5.549732177734375,-0.8988432288169861,0.9393805265426636,-1.4116026163101196
1772534783192749300,5.559749267578125,-1.1557040214538574,1.4539849758148193,-1.4408791065216064
1772534783202765300,5.569765380859375,-1.1478996276855469,1.6159135103225708,-1.3817998170852661
1772534783212782300,5.5797822265625,-0.9447656869888306,1.5008577108383179,-1.2365893125534058
1772534783222799400,5.58979931640625,-0.6733089089393616,1.2426426410675049,-1.0105907917022705
1772534783232816000,5.599816162109375,-0.39913007616996765,0.9004675149917603,-0.7278406023979187
1772534783242833400,5.60983349609375,-0.17968933284282684,0.5655725598335266,-0.4420812726020813
1772534783252850200,5.61985009765625,-0.046052977442741394,0.3971140682697296,-0.2031821459531784
1772534783262867200,5.6298671875,-0.023904001340270042,0.4055064916610718,-0.07487130910158157
1772534783272883200,5.63988330078125,-0.09059035032987595,0.5434774160385132,-0.10206831246614456
1772534783282900200,5.649900146484375,-0.2435828298330307,0.795078456401825,-0.27092549204826355
1772534783292917200,5.659917236328125,-0.4456341862678528,1.1291723251342773,-0.5089462995529175
1772534783302934300,5.669934326171875,-0.6664824485778809,1.4830025434494019,-0.7253816723823547
1772534783312951300,5.679951416015625,-0.8191087245941162,1.7522436380386353,-0.8670288324356079
1772534783322968300,5.68996826171875,-0.8964759707450867,1.881080985069275,-0.9190672636032104
1772534783332985000,5.699985107421875,-0.9015032052993774,1.8823111057281494,-0.8818871378898621
1772534783343001300,5.71000146484375,-0.8696759939193726,1.802243947982788,-0.764875054359436
1772534783353018400,5.720018310546875,-0.8395471572875977,1.6816480159759521,-0.6217634081840515
1772534783363035100,5.73003515625,-0.7963624000549316,1.4013500213623047,-0.4803008437156677
1772534783373052400,5.740052490234375,-0.7076575756072998,1.0247843265533447,-0.3622514307498932
1772534783383069200,5.750069091796875,-0.600125789642334,0.6047231554985046,-0.2723497748374939
1772534783393086200,5.760086181640625,-0.49224430322647095,0.20003482699394226,-0.1872716248035431
1772534783403103200,5.770103271484375,-0.39289215207099915,-0.07710277289152145,-0.11190816015005112
1772534783413119200,5.780119140625,-0.335628867149353,-0.02719353698194027,-0.07305850088596344
1772534783423136300,5.79013623046875,-0.3358384668827057,0.3774293065071106,-0.09361463785171509
1772534783433153300,5.8001533203125,-0.31938812136650085,0.7130454182624817,-0.1533333659172058
1772534783443170300,5.81017041015625,-0.2239721119403839,0.8864967823028564,-0.20421598851680756
1772534783453187300,5.820187255859375,-0.07540314644575119,0.9190648794174194,-0.18838748335838318
1772534783463204400,5.830204345703125,0.0694565698504448,0.8005028367042542,-0.08654367923736572
1772534783473221400,5.840221435546875,0.18448249995708466,0.5403074622154236,0.09209157526493073
1772534783483237400,5.8502373046875,0.2771221399307251,0.3205777406692505,0.30524033308029175
1772534783493254100,5.860254150390625,0.3609278202056885,0.04725246503949165,0.5390786528587341
1772534783503271400,5.870271484375,0.42740991711616516,-0.4071613848209381,0.7952971458435059
1772534783513288200,5.8802880859375,0.5435453057289124,-0.8762790560722351,1.093267560005188
1772534783523305200,5.89030517578125,0.6640802621841431,-1.2493211030960083,1.4336515665054321
1772534783533322200,5.900322265625,0.8212725520133972,-1.3048503398895264,1.7137720584869385
1772534783543339300,5.91033935546875,0.9275020360946655,-0.9450014233589172,1.785658597946167
1772534783553355300,5.920355224609375,0.9719153046607971,-0.4401068091392517,1.5459152460098267
1772534783563372300,5.930372314453125,0.8557388782501221,0.12250194698572159,1.122172236442566
1772534783573389300,5.940389404296875,0.4833357632160187,0.14663152396678925,0.8062536120414734
1772534783583406300,5.95040625,0.10827028006315231,-0.5393862724304199,0.7312707304954529
1772534783593423400,5.96042333984375,-0.007513576187193394,-1.2180299758911133,0.7714109420776367
1772534783603440400,5.9704404296875,0.15362098813056946,-1.956035852432251,0.7913125157356262
1772534783613457200,5.98045703125,0.24066027998924255,-2.456773042678833,0.7626563310623169
1772534783623473200,5.99047314453125,0.05693252384662628,-2.3360397815704346,0.5999729037284851
1772534783633490400,6.000490478515625,-0.32015642523765564,-1.7027239799499512,0.2814157009124756
1772534783643507200,6.010507080078125,-0.7048412561416626,-0.7386687397956848,-0.24301078915596008
1772534783653524500,6.0205244140625,-0.9717501997947693,0.12429318577051163,-0.8859466314315796
1772534783663541200,6.030541259765625,-1.0179944038391113,0.4758664071559906,-1.3910366296768188
1772534783673558300,6.040558349609375,-0.8437184691429138,0.38872936367988586,-1.5990185737609863
1772534783683575300,6.0505751953125,-0.47887951135635376,-0.022849123924970627,-1.6304903030395508
1772534783693591300,6.06059130859375,-0.014719025231897831,-0.6616213321685791,-1.5954755544662476
1772534783703608300,6.0706083984375,0.3866470456123352,-1.3998605012893677,-1.529982566833496
1772534783713625000,6.080625,0.6497181057929993,-2.1523478031158447,-1.3824269771575928
1772534783723642400,6.090642333984375,0.7738869190216064,-2.8795697689056396,-1.0635517835617065
1772534783733659400,6.100659423828125,0.7843382358551025,-3.353393793106079,-0.6077794432640076
1772534783743676200,6.11067626953125,0.6651886701583862,-3.436795473098755,-0.11284985393285751
1772534783753693400,6.120693359375,0.4284685254096985,-2.9715240001678467,0.278060644865036
1772534783763709200,6.130709228515625,0.0963883176445961,-2.0222089290618896,0.39124631881713867
1772534783773726200,6.140726318359375,-0.20977693796157837,-0.9631785154342651,0.21271227300167084
1772534783783743500,6.150743408203125,-0.3906417787075043,-0.05213430896401405,-0.12453021109104156
1772534783793760300,6.16076025390625,-0.5164732336997986,0.8278694748878479,-0.4777812063694
1772534783803777300,6.17077734375,-0.621196985244751,1.6050012111663818,-0.6930391788482666
1772534783813794300,6.180794189453125,-0.6415658593177795,2.0960326194763184,-0.7653115391731262
1772534783823811300,6.190811279296875,-0.6134530305862427,2.3563034534454346,-0.7125654816627502
1772534783833827600,6.20082763671875,-0.530494749546051,2.4379730224609375,-0.5585423707962036
1772534783843844600,6.2108447265625,-0.4159519374370575,2.3878142833709717,-0.3404183089733124
1772534783853861600,6.220861572265625,-0.3067724406719208,2.288799524307251,-0.12482316046953201
1772534783863878700,6.230878662109375,-0.19581717252731323,2.120192766189575,0.034861043095588684
1772534783873895700,6.240895751953125,-0.13702203333377838,1.9370150566101074,0.10029198229312897
1772534783883912400,6.250912353515625,-0.1634850651025772,1.780288577079773,0.051247742027044296
1772534783893929700,6.2609296875,-0.28813430666923523,1.632437825202942,-0.10630939155817032
1772534783903945700,6.27094580078125,-0.5373401641845703,1.5478603839874268,-0.30342113971710205
1772534783913962500,6.28096240234375,-0.838547945022583,1.5975158214569092,-0.4340960681438446
1772534783923979500,6.2909794921875,-1.0734184980392456,1.632207989692688,-0.43890413641929626
1772534783933996800,6.300996826171875,-1.1106852293014526,1.630177617073059,-0.37320154905319214
1772534783944013600,6.311013671875,-0.8842408657073975,1.6921755075454712,-0.2995204031467438
1772534783954030600,6.321030517578125,-0.514801025390625,1.814368486404419,-0.23760083317756653
1772534783964047600,6.331047607421875,-0.10339643061161041,1.9333335161209106,-0.1772110015153885
1772534783974063600,6.341063720703125,0.2559119462966919,1.94017493724823,-0.12279675900936127
1772534783984080600,6.35108056640625,0.42110756039619446,1.8951770067214966,-0.043589554727077484
1772534783994097700,6.36109765625,0.39467939734458923,1.7861526012420654,0.05408986657857895
1772534784004114700,6.37111474609375,0.22840814292430878,1.637118935585022,0.1443968564271927
1772534784014131500,6.38113134765625,-0.01828659512102604,1.311131477355957,0.25498753786087036
1772534784024148700,6.391148681640625,-0.22631701827049255,0.8990656137466431,0.3723466694355011
1772534784034165500,6.40116552734375,-0.37999022006988525,0.5255274176597595,0.46031779050827026
1772534784044181500,6.411181396484375,-0.44367918372154236,0.20197360217571259,0.5299565196037292
1772534784054198500,6.421198486328125,-0.4042593240737915,-0.09644797444343567,0.6057506203651428
1772534784064215600,6.431215576171875,-0.27079421281814575,-0.4169493019580841,0.696739137172699
1772534784074232600,6.441232666015625,-0.07950254529714584,-0.7683283686637878,0.8210709095001221
1772534784084249600,6.45124951171875,0.1834569126367569,-1.151699185371399,0.9735291600227356
1772534784094266600,6.4612666015625,0.5553774833679199,-1.564072608947754,1.2204062938690186
1772534784104283600,6.47128369140625,1.0202889442443848,-1.9224334955215454,1.6257929801940918
1772534784114299600,6.481299560546875,1.3306026458740234,-2.0028083324432373,2.113391399383545
1772534784124316700,6.491316650390625,1.3466393947601318,-1.5565153360366821,2.2980456352233887
1772534784134333700,6.501333740234375,1.1276551485061646,-0.9547104835510254,1.8566131591796875
1772534784144350500,6.5113505859375,0.63786780834198,-0.8457983732223511,1.097144365310669
1772534784154367700,6.52136767578125,0.08168048411607742,-1.3751882314682007,0.5935693383216858
1772534784164384500,6.531384521484375,-0.24178919196128845,-2.1397693157196045,0.5552312731742859
1772534784174401500,6.541401611328125,-0.2825198471546173,-2.6001429557800293,0.8855466246604919
1772534784184417800,6.551417724609375,-0.18566440045833588,-2.2557554244995117,1.2284778356552124
1772534784194434600,6.5614345703125,-0.20440693199634552,-1.3341768980026245,1.154693603515625
1772534784204451600,6.57145166015625,-0.33394256234169006,-0.2640729248523712,0.640026330947876
1772534784214468600,6.581468505859375,-0.4935828149318695,0.7980878353118896,0.018371284008026123
1772534784224485600,6.591485595703125,-0.6131358742713928,1.4813841581344604,-0.5154145956039429
1772534784234502700,6.601502685546875,-0.6964249014854431,1.4617736339569092,-0.9772733449935913
1772534784244519700,6.611519775390625,-0.6777142882347107,0.6991831064224243,-1.2805259227752686
1772534784254535700,6.62153564453125,-0.6211567521095276,-0.2964300811290741,-1.3747655153274536
1772534784264552700,6.631552734375,-0.5845696926116943,-1.336769461631775,-1.418951392173767
1772534784274569500,6.641569580078125,-0.5742574334144592,-2.5207364559173584,-1.4416649341583252
1772534784284586800,6.651586669921875,-0.5860624313354492,-3.622373342514038,-1.2488614320755005
1772534784294603500,6.661603515625,-0.6287656426429749,-3.8620779514312744,-0.7867249250411987
1772534784304620500,6.67162060546875,-0.6131811141967773,-3.1152544021606445,-0.12313871085643768
1772534784314637600,6.681637451171875,-0.4302363395690918,-1.8148497343063354,0.39869359135627747
1772534784324653600,6.691653564453125,-0.1864444464445114,-0.45622825622558594,0.4836753308773041
1772534784334670600,6.701670654296875,0.22857990860939026,0.6340083479881287,0.036256276071071625
1772534784344687600,6.7116875,0.5666996240615845,1.5081497430801392,-0.5910680890083313
1772534784354704600,6.72170458984375,0.7644523978233337,2.096803665161133,-1.0753759145736694
1772534784364721700,6.7317216796875,0.8329765796661377,2.430455207824707,-1.2953660488128662
1772534784374738700,6.74173876953125,0.7183879613876343,2.519315242767334,-1.2458264827728271
1772534784384755700,6.751755615234375,0.45675715804100037,2.3481621742248535,-1.0210314989089966
1772534784394771500,6.761771484375,0.12079432606697083,2.0958592891693115,-0.7024769186973572
1772534784404788700,6.771788818359375,-0.25029346346855164,1.866662621498108,-0.33567628264427185
1772534784414805800,6.7818056640625,-0.5391481518745422,1.8173424005508423,-0.02141714096069336
1772534784424822500,6.791822509765625,-0.6619848608970642,1.8889260292053223,0.10839810967445374
1772534784434839800,6.80183984375,-0.6169567108154297,1.9893672466278076,0.04152800142765045
1772534784444856600,6.811856689453125,-0.4555797874927521,2.0912399291992188,-0.1903502345085144
1772534784454873600,6.82187353515625,-0.2137138843536377,2.105039119720459,-0.47777241468429565
1772534784464889600,6.8318896484375,-0.01635580323636532,1.9635587930679321,-0.6586109399795532
1772534784474906600,6.84190673828125,0.15251870453357697,1.6120814085006714,-0.6887286305427551
1772534784484923600,6.851923583984375,0.3361814618110657,1.2263762950897217,-0.562481164932251
1772534784494940400,6.8619404296875,0.39105698466300964,1.0950827598571777,-0.3642818331718445
1772534784504957700,6.871957763671875,0.2926161587238312,1.329207181930542,-0.23774731159210205
1772534784514974700,6.881974609375,0.06845629215240479,1.6824637651443481,-0.23940247297286987
1772534784524991500,6.891991455078125,-0.2176327258348465,1.8038564920425415,-0.30008071660995483
1772534784535007700,6.9020078125,-0.45330730080604553,1.5995653867721558,-0.29745617508888245
1772534784545024500,6.9120244140625,-0.5887429118156433,1.102449893951416,-0.14194275438785553
1772534784555041500,6.92204150390625,-0.6120418310165405,0.5637957453727722,0.11011292040348053
1772534784565058800,6.932058837890625,-0.5889040231704712,0.08494312316179276,0.337758868932724
1772534784575075600,6.94207568359375,-0.5764904618263245,-0.2441767156124115,0.4642001688480377
1772534784585092600,6.952092529296875,-0.598490834236145,-0.371833473443985,0.4911348521709442
1772534784595109600,6.962109619140625,-0.6393203139305115,-0.24595969915390015,0.43614640831947327
1772534784605125600,6.972125732421875,-0.6804938316345215,-0.11968672275543213,0.3573552072048187
1772534784615142700,6.982142578125,-0.6879381537437439,-0.17773431539535522,0.28866827487945557
1772534784625159400,6.992159423828125,-0.604013979434967,-0.5151845216751099,0.28828132152557373
1772534784635176700,7.0021767578125,-0.46709713339805603,-1.028321623802185,0.41885876655578613
1772534784645193500,7.012193359375,-0.3233863115310669,-1.4446040391921997,0.6362451314926147
1772534784655210800,7.022210693359375,-0.23628629744052887,-1.6267871856689453,0.8399375677108765
1772534784665227800,7.032227783203125,-0.235581636428833,-1.651534080505371,0.9736588597297668
1772534784675243500,7.042243408203125,-0.272232323884964,-1.7159990072250366,1.02639901638031
1772534784685260500,7.052260498046875,-0.2356490045785904,-1.9506914615631104,1.0113497972488403
1772534784695277600,7.062277587890625,-0.12521037459373474,-2.4136650562286377,0.9655431509017944
1772534784705294600,7.072294677734375,0.015171762555837631,-2.591365337371826,0.9608339071273804
1772534784715311600,7.0823115234375,0.024434769526124,-2.3898701667785645,1.0306055545806885
1772534784725328600,7.09232861328125,-0.1004648208618164,-2.19747257232666,1.0562636852264404
1772534784735345700,7.102345703125,-0.2692112326622009,-1.9427789449691772,0.9922858476638794
1772534784745361700,7.112361572265625,-0.5704538822174072,-2.1019318103790283,0.9292245507240295
1772534784755378700,7.122378662109375,-1.0722559690475464,-2.3665030002593994,0.7919841408729553
1772534784765395700,7.132395751953125,-1.634979009628296,-2.2584619522094727,0.6169164776802063
1772534784775412500,7.14241259765625,-1.9001134634017944,-1.5368859767913818,0.3516483008861542
1772534784785429800,7.1524296875,-1.8953077793121338,-0.5754750370979309,0.07932757586240768
1772534784795446500,7.162446533203125,-1.8150912523269653,0.45105186104774475,-0.15668122470378876
1772534784805463600,7.172463623046875,-1.7652955055236816,1.1172573566436768,-0.43147018551826477
1772534784815479600,7.1824794921875,-1.646837830543518,1.140854835510254,-0.6700992584228516
1772534784825496600,7.19249658203125,-1.3795347213745117,0.8076453804969788,-0.7538167834281921
1772534784835513600,7.202513671875,-1.1346964836120605,0.39973488450050354,-0.7051874995231628
1772534784845530600,7.212530517578125,-1.0185976028442383,-0.19696871936321259,-0.6759952306747437
1772534784855547600,7.222547607421875,-1.0141527652740479,-0.9387035369873047,-0.6772029995918274
1772534784865564700,7.232564697265625,-1.0670047998428345,-1.696848750114441,-0.6859596967697144
1772534784875581400,7.24258154296875,-1.1416151523590088,-2.4938623905181885,-0.6076380014419556
1772534784885597700,7.25259765625,-1.1549978256225586,-2.9087073802948,-0.31213897466659546
1772534784895614700,7.26261474609375,-1.0992919206619263,-2.7007598876953125,0.0938495323061943
1772534784905631500,7.272631591796875,-0.8776242136955261,-2.0118086338043213,0.42445194721221924
1772534784915648800,7.282648681640625,-0.5016966462135315,-1.0783491134643555,0.49037715792655945
1772534784925665500,7.29266552734375,-0.13023097813129425,-0.06738249957561493,0.28339603543281555
1772534784935682600,7.3026826171875,0.0931515172123909,1.0013182163238525,-0.09133204072713852
1772534784945698600,7.312698486328125,0.13604411482810974,1.9057048559188843,-0.5129461288452148
1772534784955715600,7.322715576171875,-0.0029846045654267073,2.5469422340393066,-0.8885056376457214
1772534784965732600,7.332732666015625,-0.28017306327819824,3.0153305530548096,-1.1680006980895996
1772534784975749600,7.34274951171875,-0.6068784594535828,3.2774083614349365,-1.3391902446746826
1772534784985766700,7.3527666015625,-0.8980157971382141,3.283095359802246,-1.3554842472076416
1772534784995783700,7.36278369140625,-1.090571403503418,3.2118983268737793,-1.1971333026885986
1772534785005800700,7.37280078125,-1.1764628887176514,2.9569239616394043,-0.9241557717323303
1772534785015817700,7.382817626953125,-1.0855889320373535,2.576930522918701,-0.6462458372116089
1772534785025833700,7.392833740234375,-0.8539044857025146,2.1524837017059326,-0.41227197647094727
1772534785035850500,7.4028505859375,-0.5704541802406311,1.6923751831054688,-0.24270665645599365
1772534785045867800,7.41286767578125,-0.23907196521759033,1.2935274839401245,-0.14964355528354645
1772534785055884500,7.422884521484375,0.1050390675663948,0.9572828412055969,-0.12005317211151123
1772534785065901600,7.432901611328125,0.4163317084312439,0.6818030476570129,-0.1303585320711136
1772534785075918600,7.442918701171875,0.6560787558555603,0.4371775984764099,-0.1586676687002182
1772534785085935600,7.452935546875,0.7722439765930176,0.21645240485668182,-0.17105376720428467
1772534785095951600,7.46295166015625,0.771310031414032,0.03254888951778412,-0.16492930054664612
1772534785105968600,7.47296875,0.6554388403892517,-0.22386744618415833,-0.15683914721012115
1772534785115985700,7.482985595703125,0.45119941234588623,-0.5577841997146606,-0.1778312474489212
1772534785126002400,7.49300244140625,0.1804632544517517,-0.8868206739425659,-0.21155592799186707
1772534785136019700,7.503019775390625,-0.10982849448919296,-1.084816336631775,-0.18274131417274475
1772534785146036700,7.51303662109375,-0.3556728959083557,-1.1228965520858765,-0.051121775060892105
1772534785156052500,7.523052490234375,-0.5094975829124451,-0.9675072431564331,0.1751321405172348
1772534785166069500,7.533069580078125,-0.5485554933547974,-0.6389562487602234,0.4448421597480774
1772534785176086800,7.543086669921875,-0.4734213650226593,-0.23949354887008667,0.6643121838569641
1772534785186103600,7.553103515625,-0.3061862885951996,0.0869588702917099,0.755834698677063
1772534785196120600,7.56312060546875,-0.1247621700167656,0.2510697841644287,0.7132973074913025
1772534785206137600,7.5731376953125,-0.013607155531644821,0.16316895186901093,0.6150530576705933
1772534785216154600,7.583154541015625,0.06819556653499603,-0.09194563329219818,0.5965158343315125
1772534785226171600,7.593171630859375,0.16725610196590424,-0.3774210512638092,0.7255827784538269
1772534785236187600,7.603187744140625,0.2532559633255005,-0.6741043925285339,0.9450996518135071
1772534785246204700,7.61320458984375,0.3121054470539093,-0.9838489294052124,1.15177583694458
1772534785256221400,7.623221435546875,0.38514208793640137,-1.3119155168533325,1.2221884727478027
1772534785266238700,7.63323876953125,0.45022788643836975,-1.5434671640396118,1.1647909879684448
1772534785276255500,7.64325537109375,0.5182165503501892,-1.6495555639266968,1.1127238273620605
1772534785286272500,7.6532724609375,0.555304765701294,-1.3294566869735718,1.2061275243759155
1772534785296289800,7.663289794921875,0.49449893832206726,-0.8472676277160645,1.5019611120224
1772534785306305500,7.673305419921875,0.4462136924266815,-0.8789241313934326,1.8285815715789795
1772534785316322600,7.683322509765625,0.43570059537887573,-1.2562631368637085,1.8986420631408691
1772534785326339800,7.69333984375,0.37277835607528687,-1.645330786705017,1.6211894750595093
1772534785336356600,7.703356689453125,0.13371439278125763,-1.6678296327590942,1.1201977729797363
1772534785346373600,7.71337353515625,-0.25050705671310425,-1.4132945537567139,0.6027095913887024
1772534785356390700,7.723390625,-0.684483528137207,-0.9681112170219421,0.28451988101005554
1772534785366407700,7.73340771484375,-1.0116685628890991,-0.456745982170105,0.14775510132312775
1772534785376423700,7.743423583984375,-1.1574164628982544,0.16778260469436646,0.0975172370672226
1772534785386440400,7.7534404296875,-1.0609405040740967,0.6528156399726868,0.08935891091823578
1772534785396457700,7.763457763671875,-0.7568658590316772,0.9209573268890381,-0.024473385885357857
1772534785406474500,7.773474609375,-0.423829048871994,1.0010592937469482,-0.24630272388458252
1772534785416491500,7.783491455078125,-0.14312094449996948,0.8254667520523071,-0.5017738938331604
1772534785426508500,7.793508544921875,0.08064690977334976,0.43091118335723877,-0.6948309540748596
1772534785436525600,7.803525634765625,0.2067081779241562,-0.13943831622600555,-0.7572083473205566
1772534785446541600,7.81354150390625,0.21111837029457092,-0.7642766237258911,-0.6653668284416199
1772534785456558600,7.82355859375,0.10337512195110321,-1.1497728824615479,-0.47011318802833557
1772534785466575600,7.83357568359375,-0.10384064167737961,-1.0871564149856567,-0.24042192101478577
1772534785476592600,7.843592529296875,-0.38258785009384155,-0.7877736687660217,-0.13634373247623444
1772534785486609700,7.853609619140625,-0.6932836771011353,-0.4924360513687134,-0.24777305126190186
1772534785496626700,7.863626708984375,-0.9765737056732178,-0.2275276929140091,-0.5140140652656555
1772534785506643500,7.8736435546875,-1.2006750106811523,-0.09591773897409439,-0.7739377617835999
1772534785516659500,7.883659423828125,-1.3725391626358032,-0.04439223185181618,-0.9192531704902649
1772534785526676700,7.8936767578125,-1.5151269435882568,-0.03351135551929474,-0.9505799412727356
1772534785536693500,7.903693603515625,-1.5793471336364746,-0.03875458613038063,-0.90326327085495
1772534785546710800,7.913710693359375,-1.5211228132247925,-0.04219112917780876,-0.8248251676559448
1772534785556727600,7.9237275390625,-1.3538038730621338,0.008275773376226425,-0.807397186756134
1772534785566744600,7.93374462890625,-1.1704028844833374,0.11296756565570831,-0.8799030780792236
1772534785576760600,7.943760498046875,-1.1298679113388062,0.4041333496570587,-1.0069595575332642
1772534785586777600,7.953777587890625,-1.1964757442474365,0.8326719403266907,-1.0799919366836548
1772534785596794600,7.963794677734375,-1.2087798118591309,1.3198533058166504,-1.0626715421676636
1772534785606811600,7.973811767578125,-1.1377543210983276,1.7069472074508667,-1.0245490074157715
1772534785616828700,7.98382861328125,-1.010538101196289,2.0019538402557373,-0.9749510288238525
1772534785626845700,7.993845703125,-0.8432204723358154,2.1667604446411133,-0.9045586585998535
1772534785636862500,8.003862548828126,-0.6419723033905029,2.175294876098633,-0.8342117667198181
1772534785646879700,8.013879638671876,-0.4245230555534363,2.031346321105957,-0.7746936082839966
1772534785656895700,8.023895751953125,-0.20793189108371735,1.8009083271026611,-0.7283647060394287
1772534785666912500,8.03391259765625,-0.03473960608243942,1.5862263441085815,-0.6920660734176636
1772534785676929800,8.0439296875,0.08804304152727127,1.3456872701644897,-0.6586111783981323
1772534785686946600,8.053946533203124,0.19080750644207,0.9860753417015076,-0.5748428106307983
1772534785696963600,8.063963623046876,0.29818081855773926,0.5631842613220215,-0.43199267983436584
1772534785706980600,8.073980712890625,0.440573126077652,0.13245071470737457,-0.1946413815021515
1772534785716997600,8.08399755859375,0.5905117392539978,-0.23004065454006195,0.09145375341176987
1772534785727013600,8.094013671875,0.7281833291053772,-0.35843589901924133,0.08538094162940979
1772534785737030400,8.104030517578124,0.870823860168457,-0.2473653256893158,0.192565456032753
1772534785747047700,8.114047607421876,1.0273407697677612,0.04152347519993782,0.281688392162323
1772534785757064700,8.124064697265625,1.1244922876358032,0.387706458568573,0.34364578127861023
1772534785767081500,8.13408154296875,1.1455435752868652,0.5640106201171875,0.43259188532829285
1772534785777098800,8.1440986328125,1.0860631465911865,0.5893703103065491,0.4621759057044983
1772534785787114500,8.154114501953124,0.9685413241386414,0.6662203669548035,0.3410084545612335
1772534785797131500,8.164131591796876,0.8474348783493042,0.9886306524276733,0.08761400729417801
1772534785807148800,8.174148681640625,0.797681987285614,1.3656178712844849,-0.02184644341468811
1772534785817165600,8.18416552734375,0.7971898317337036,1.8865132331848145,-0.11350125819444656
1772534785827182600,8.1941826171875,0.8667923212051392,1.86062490940094,-0.1682976633310318
1772534785837199600,8.20419970703125,1.1030479669570923,1.144876480102539,-0.2877843677997589
1772534785847217000,8.214216796875,1.3829842805862427,0.16998663544654846,-0.5159722566604614
1772534785857233700,8.224233642578126,1.440323829650879,-0.43844205141067505,-0.758606493473053
1772534785867249700,8.234249755859375,1.357393503189087,-0.6597654223442078,-0.7627881765365601
1772534785877266700,8.2442666015625,1.2387536764144897,-0.009787649847567081,-0.5191941857337952
1772534785887283700,8.25428369140625,0.9774885177612305,0.20038555562496185,-0.02143205516040325
1772534785897300700,8.26430078125,0.5974836349487305,-0.2744603157043457,0.38548219203948975
1772534785907317800,8.27431787109375,0.2290124148130417,-1.4372584819793701,0.6958536505699158
1772534785917334800,8.284334716796875,0.05878635123372078,-2.624131441116333,0.9389166235923767
1772534785927351800,8.294351806640625,0.05734478309750557,-3.3477118015289307,1.1272486448287964
1772534785937367600,8.304367431640625,-0.02985483407974243,-3.3526222705841064,1.1760826110839844
1772534785947384800,8.314384765625,-0.21685081720352173,-2.8845109939575195,1.0519249439239502
1772534785957401900,8.32440185546875,-0.39626345038414,-2.2213895320892334,0.7162286639213562
1772534785967418600,8.334418701171876,-0.3873053789138794,-1.6027824878692627,0.2495802640914917
1772534785977436000,8.344435791015625,-0.16268132627010345,-1.2717856168746948,-0.12134426832199097
1772534785987452700,8.35445263671875,0.2140457183122635,-1.3882259130477905,-0.23446284234523773
1772534785997468700,8.36446875,0.6556957960128784,-1.9185692071914673,-0.04707217216491699
1772534786007485700,8.374485595703124,0.9485418200492859,-2.538539409637451,0.33994346857070923
1772534786017502700,8.384502685546876,0.9276333451271057,-2.8077149391174316,0.7396777868270874
1772534786027519700,8.394519775390625,0.7563270926475525,-2.7397172451019287,1.0342862606048584
1772534786037536500,8.40453662109375,0.5476217865943909,-2.4657974243164062,1.1282463073730469
1772534786047553800,8.4145537109375,0.3702446222305298,-2.234598159790039,1.0836905241012573
1772534786057570800,8.42457080078125,0.32237592339515686,-2.1065022945404053,1.0270957946777344
1772534786067587800,8.434587890625,0.36988404393196106,-2.0926997661590576,1.0138989686965942
1772534786077603800,8.444603759765625,0.49180570244789124,-2.2894623279571533,1.0220916271209717
1772534786087620600,8.45462060546875,0.6207719445228577,-2.583042860031128,1.018980860710144
1772534786097637600,8.4646376953125,0.5924454927444458,-2.64619779586792,0.9215922355651855
1772534786107655000,8.474655029296875,0.3309374451637268,-2.3997230529785156,0.7102104425430298
1772534786117671700,8.484671630859374,-0.025543443858623505,-1.9718869924545288,0.37591663002967834
1772534786127688700,8.494688720703126,-0.3496578633785248,-1.4352755546569824,-0.06650605797767639
1772534786137705700,8.504705810546875,-0.5255727171897888,-0.7610856294631958,-0.4935514032840729
1772534786147721700,8.5147216796875,-0.5456563830375671,0.04952866956591606,-0.8641718029975891
1772534786157738800,8.52473876953125,-0.3958519995212555,0.9536289572715759,-1.245303988456726
1772534786167755800,8.534755859375,-0.15357305109500885,1.855150818824768,-1.5828468799591064
1772534786177772800,8.544772705078126,0.13438470661640167,2.602855682373047,-1.8080264329910278
1772534786187789600,8.55478955078125,0.3985249996185303,3.0009171962738037,-1.9087018966674805
1772534786197806800,8.564806884765625,0.5330633521080017,3.107717275619507,-1.954659342765808
1772534786207822800,8.57482275390625,0.5377262830734253,2.8528409004211426,-1.9817159175872803
1772534786217839600,8.584839599609374,0.5311024785041809,2.185920476913452,-1.9848254919052124
1772534786227856600,8.594856689453126,0.5705710649490356,1.4128708839416504,-1.9463273286819458
1772534786237874000,8.6048740234375,0.6784365773200989,0.7398431897163391,-1.8273266553878784
1772534786247890700,8.614890625,0.8494551777839661,0.2376333326101303,-1.6025090217590332
1772534786257907700,8.62490771484375,1.0273399353027344,0.03068361058831215,-1.2728240489959717
1772534786267924700,8.6349248046875,1.147295594215393,0.018988072872161865,-0.785947859287262
1772534786277940700,8.644940673828126,1.1732615232467651,0.06625918298959732,-0.17296059429645538
1772534786287957800,8.654957763671876,1.1089868545532227,0.2317243069410324,0.45747727155685425
1772534786297974800,8.664974853515625,0.9743561148643494,0.43316927552223206,1.0332375764846802
1772534786307991800,8.67499169921875,0.8025451898574829,0.6010733246803284,1.5181653499603271
1772534786318008600,8.685008544921875,0.6237046122550964,0.7343517541885376,1.9179681539535522
1772534786328025900,8.69502587890625,0.44984012842178345,0.9253219962120056,2.2672367095947266
1772534786338042600,8.705042724609376,0.28164127469062805,1.2331442832946777,2.5673608779907227
1772534786348059600,8.7150595703125,0.01938275247812271,0.9669072031974792,2.474621534347534
1772534786358076000,8.725075927734375,-0.459287166595459,-0.14868561923503876,1.6616764068603516
1772534786368092700,8.7350927734375,-0.8306801319122314,-0.4447159469127655,0.774215817451477
1772534786378109700,8.745109619140624,-0.868816614151001,0.07998484373092651,0.37207716703414917
1772534786388127000,8.755126953125,-0.834968626499176,0.9305771589279175,0.152592733502388
1772534786398143700,8.765143798828126,-0.6917003989219666,1.5870623588562012,-0.06399522721767426
1772534786408160800,8.775160888671875,-0.44637829065322876,2.0078577995300293,-0.39365407824516296
1772534786418176800,8.7851767578125,-0.19822147488594055,2.3013105392456055,-0.6777721047401428
1772534786428193800,8.79519384765625,-0.11691702902317047,2.751448631286621,-0.6064678430557251
1772534786438210800,8.8052109375,-0.11721290647983551,2.8314645290374756,-0.2153024524450302
1772534786448227600,8.8152275390625,-0.10433892160654068,2.1140048503875732,0.37723809480667114
1772534786458244900,8.825244873046875,-0.16851843893527985,0.9058878421783447,0.9719539284706116
1772534786468261600,8.83526171875,-0.475275456905365,-0.2796249985694885,1.245402455329895
1772534786478278700,8.845278564453125,-0.8749517202377319,-1.0714837312698364,0.975212037563324
1772534786488295000,8.855294921875,-1.0103963613510132,-1.3789736032485962,0.4788382351398468
1772534786498311700,8.865311767578126,-0.9420263767242432,-1.2401978969573975,-0.027112044394016266
1772534786508328700,8.87532861328125,-0.8486918807029724,-0.915805459022522,-0.2577332854270935
1772534786518345700,8.885345703125,-0.7502902150154114,-0.5329573750495911,-0.15966396033763885
1772534786528362800,8.89536279296875,-0.5835198760032654,-0.09598671644926071,0.08863586187362671
1772534786538379800,8.9053798828125,-0.352110892534256,0.45586445927619934,0.2532961666584015
1772534786548396800,8.915396728515624,-0.09937452524900436,0.9602498412132263,0.26510968804359436
1772534786558412800,8.925412841796875,0.11483576893806458,1.1638671159744263,0.1771063357591629
1772534786568429800,8.935429931640625,0.2141066938638687,1.035888910293579,0.06511668860912323
1772534786578446600,8.945446533203125,0.2660529911518097,0.5536189675331116,-0.041782598942518234
1772534786588463900,8.9554638671875,0.3110518753528595,-0.09891166538000107,-0.1039479672908783
1772534786598480600,8.965480712890624,0.3488338887691498,-0.8113692998886108,-0.11168605089187622
1772534786608498000,8.975497802734376,0.34299543499946594,-1.4364951848983765,-0.05231060832738876
1772534786618514700,8.9855146484375,0.29008907079696655,-1.7661418914794922,0.04939524456858635
1772534786628530700,8.99553076171875,0.1579102724790573,-1.8381541967391968,0.0965166836977005
1772534786638547700,9.005547607421875,-0.06733749806880951,-1.6975380182266235,0.06346392631530762
1772534786648564700,9.015564697265624,-0.3043476343154907,-1.4405949115753174,-0.017288176342844963
1772534786658581800,9.025581787109376,-0.48343005776405334,-1.1657334566116333,-0.12736088037490845
1772534786668598500,9.0355986328125,-0.5548248887062073,-0.9508808851242065,-0.2547129690647125
1772534786678615800,9.04561572265625,-0.5244315266609192,-0.7543403506278992,-0.38184934854507446
1772534786688632800,9.0556328125,-0.4484685957431793,-0.5374495983123779,-0.4792685806751251
1772534786698648600,9.065648681640624,-0.31978839635849,-0.3927997350692749,-0.5279636979103088
1772534786708665900,9.075665771484376,-0.13727769255638123,-0.3925025463104248,-0.5288230776786804
1772534786718683000,9.085682861328126,0.043657466769218445,-0.5341267585754395,-0.4978971481323242
1772534786728699600,9.09569970703125,0.1741584837436676,-0.7005035281181335,-0.4416237473487854
1772534786738717000,9.105717041015625,0.24022112786769867,-0.7363626956939697,-0.36161068081855774
1772534786748733700,9.115733642578125,0.23062469065189362,-0.5652793645858765,-0.27643850445747375
1772534786758750700,9.125750732421874,0.17011740803718567,-0.25959935784339905,-0.21784977614879608
1772534786768766700,9.1357666015625,0.12250194698572159,0.013704094104468822,-0.15992894768714905
1772534786778783700,9.14578369140625,0.11970962584018707,0.1871373951435089,-0.09120927006006241
1772534786788800800,9.15580078125,0.1356435865163803,0.27892085909843445,-0.010324542410671711
1772534786798817500,9.165817626953125,0.15792012214660645,0.33073878288269043,0.06651084870100021
1772534786808834800,9.175834716796874,0.19496816396713257,0.37336719036102295,0.130944162607193
1772534786818851600,9.1858515625,0.2618720829486847,0.3726782202720642,0.18550142645835876
1772534786828868600,9.19586865234375,0.34085986018180847,0.36603498458862305,0.22191721200942993
1772534786838885000,9.205885009765625,0.4145588278770447,0.34595873951911926,0.2309967279434204
1772534786848902100,9.215902099609375,0.47681182622909546,0.2942662537097931,0.20317202806472778
1772534786858919200,9.225919189453125,0.5170695185661316,0.22013689577579498,0.13627155125141144
1772534786868936000,9.23593603515625,0.532292902469635,0.1890847086906433,0.01830257475376129
1772534786878953200,9.245953125,0.526157557964325,0.2460542470216751,-0.15441007912158966
1772534786888970200,9.25597021484375,0.48595231771469116,0.3611523509025574,-0.33859962224960327
1772534786898987000,9.265987060546875,0.43311813473701477,0.4108298718929291,-0.47600436210632324
1772534786909003300,9.276003173828125,0.3785582184791565,0.3870569169521332,-0.5603011250495911
1772534786919020300,9.286020263671874,0.32144060730934143,0.315794438123703,-0.5852522850036621
1772534786929037000,9.296037109375,0.21869425475597382,0.28654202818870544,-0.5522629022598267
1772534786939054300,9.306054443359375,0.013159211724996567,0.5929197669029236,-0.495413213968277
1772534786949071000,9.316071044921875,-0.22225970029830933,0.9373317360877991,-0.40902504324913025
1772534786959088000,9.326088134765625,-0.35983994603157043,0.9381962418556213,-0.31123778223991394
1772534786969105200,9.336105224609375,-0.38212713599205017,0.7860908508300781,-0.3123326003551483
1772534786979121200,9.34612109375,-0.26366254687309265,0.6230753064155579,-0.6042137145996094
1772534786989138200,9.35613818359375,-0.04343056306242943,0.5121093392372131,-1.1085554361343384
1772534786999155000,9.366155029296875,0.2178385853767395,0.8109202980995178,-1.609643578529358
1772534787009172200,9.376172119140625,0.3934932351112366,1.1458172798156738,-1.766249418258667
1772534787019189000,9.38618896484375,0.37860482931137085,1.1588069200515747,-1.5223504304885864
1772534787029206000,9.3962060546875,-0.008649680763483047,0.914463460445404,-0.9132059216499329
1772534787039223300,9.406223388671876,-0.5069106221199036,0.7605756521224976,-0.11155049502849579
1772534787049239000,9.416239013671875,-0.9373732805252075,0.6177745461463928,0.6069706082344055
1772534787059256000,9.426256103515625,-1.2550146579742432,0.0610622875392437,0.9984025955200195
1772534787069273300,9.4362734375,-1.452488899230957,-0.6239850521087646,1.033649206161499
1772534787079290000,9.4462900390625,-1.4383772611618042,-1.2445290088653564,0.8289600014686584
1772534787089307100,9.45630712890625,-1.179935336112976,-1.6477686166763306,0.5163270235061646
1772534787099324200,9.46632421875,-0.9076646566390991,-1.6869663000106812,0.2711057960987091
1772534787109341200,9.476341064453125,-0.84393310546875,-1.56676185131073,0.04553819075226784
1772534787119357200,9.486357177734375,-0.8326708674430847,-1.298511266708374,-0.34053894877433777
1772534787129374200,9.496374267578124,-0.7977853417396545,-0.7001258730888367,-0.7210886478424072
1772534787139391200,9.50639111328125,-0.8244739174842834,-0.16038860380649567,-1.0074474811553955
1772534787149408000,9.516407958984376,-0.8820189833641052,-0.24041473865509033,-1.1090281009674072
1772534787159425300,9.52642529296875,-0.9874793291091919,-0.8700195550918579,-0.868065595626831
1772534787169442300,9.5364423828125,-1.0791038274765015,-1.4162237644195557,-0.35788729786872864
1772534787179459000,9.546458984375,-1.0339035987854004,-1.635339617729187,0.28751006722450256
1772534787189475000,9.55647509765625,-0.7616238594055176,-1.7619907855987549,0.8049769401550293
1772534787199492000,9.5664921875,-0.30998051166534424,-1.7259502410888672,1.1712369918823242
1772534787209509000,9.576509033203125,0.3311294615268707,-1.4174877405166626,1.335638165473938
1772534787219526100,9.586526123046875,0.8956058621406555,-0.9034198522567749,1.2770015001296997
1772534787229543200,9.596543212890625,1.096635103225708,-0.2661992013454437,1.0682284832000732
1772534787239560200,9.606560302734374,1.0597500801086426,0.27749258279800415,0.8287299275398254
1772534787249577000,9.616576904296876,0.8588017821311951,0.6693053841590881,0.5625919699668884
1772534787259593200,9.62659326171875,0.5710336565971375,1.0052930116653442,0.32978910207748413
1772534787269610200,9.6366103515625,0.31230810284614563,1.3449362516403198,0.22500862181186676
1772534787279627000,9.646626953125,0.15362684428691864,1.5592893362045288,0.2294853925704956
1772534787289644300,9.656644287109375,0.07918856292963028,1.5505142211914062,0.2543606460094452
1772534787299661000,9.6666611328125,0.06791273504495621,1.3603287935256958,0.25056856870651245
1772534787309678000,9.676677978515626,0.11743981391191483,1.0652230978012085,0.2473682463169098
1772534787319695400,9.6866953125,0.20284658670425415,0.7710676789283752,0.258559912443161
1772534787329712000,9.696712158203125,0.3140316903591156,0.5588046908378601,0.3280090391635895
1772534787339729200,9.706729248046875,0.4047301709651947,0.45879048109054565,0.44349542260169983
1772534787349745200,9.7167451171875,0.5073716044425964,0.3713842034339905,0.5816146731376648
1772534787359762200,9.72676220703125,0.6152011156082153,0.21696080267429352,0.7340865135192871
1772534787369779200,9.736779296875,0.6663588285446167,0.052132442593574524,0.839294970035553
1772534787379796200,9.746796142578125,0.6610956192016602,-0.037589188665151596,0.816067099571228
1772534787389813200,9.756813232421875,0.7009794116020203,-0.022953519597649574,0.7386162877082825
1772534787399830000,9.766830078125,0.7750059962272644,0.09296242892742157,0.6613560914993286
1772534787409847300,9.776847412109374,0.8386000990867615,0.2691901922225952,0.5705643892288208
1772534787419863300,9.78686328125,0.8825313448905945,0.4799080193042755,0.47646427154541016
1772534787429880000,9.796880126953125,0.9029311537742615,0.7241121530532837,0.4066636264324188
1772534787439897000,9.80689697265625,0.8904423117637634,0.905730664730072,0.34779098629951477
1772534787449914000,9.8169140625,0.8157922625541687,0.9442732930183411,0.2658971846103668
1772534787459931100,9.82693115234375,0.7209163904190063,0.8426811695098877,0.19552475214004517
1772534787469948200,9.8369482421875,0.5977894067764282,0.5877468585968018,0.14150945842266083
1772534787479965200,9.846965087890625,0.5104107856750488,0.32508087158203125,0.20271502435207367
1772534787489981200,9.856981201171875,0.43267977237701416,0.1317947804927826,0.28500908613204956
1772534787499998200,9.866998291015625,0.45408761501312256,0.11787071079015732,0.42124176025390625
1772534787510015200,9.87701513671875,0.478119432926178,0.1508110761642456,0.5657488703727722
1772534787520032300,9.8870322265625,0.42650577425956726,0.23505325615406036,0.643025279045105
1772534787530049000,9.897049072265625,0.30508506298065186,0.328120619058609,0.6099520325660706
1772534787540066300,9.90706640625,0.18820585310459137,0.3499324321746826,0.5036932229995728
1772534787550083000,9.9170830078125,0.13644972443580627,0.25953197479248047,0.39383676648139954
1772534787560099000,9.92709912109375,0.17094218730926514,0.3033851683139801,0.33095288276672363
1772534787570116000,9.9371162109375,0.29368966817855835,0.45881417393684387,0.4128434956073761
1772534787580133000,9.947133056640626,0.44300565123558044,0.6093323230743408,0.6749927997589111
1772534787590150100,9.957150146484375,0.48072534799575806,0.7256253957748413,0.9602759480476379
1772534787600167200,9.967167236328125,0.1936299204826355,0.6801984906196594,1.0433508157730103
1772534787610184200,9.97718408203125,-0.3181803822517395,0.2369164079427719,0.9489274024963379
1772534787620201200,9.987201171875,-0.7419747710227966,-0.6998140215873718,0.742911696434021
1772534787630217000,9.997217041015626,-0.8416875004768372,-1.7562612295150757,0.43367820978164673
1772534787640234200,10.007234130859375,-0.6944519877433777,-2.3176114559173584,0.1444099098443985
1772534787650251300,10.017251220703125,-0.5216802358627319,-2.1637258529663086,-0.02461107075214386
1772534787660268000,10.02726806640625,-0.47224849462509155,-1.4515961408615112,-0.0858512595295906
1772534787670285300,10.037285400390624,-0.6039372682571411,-0.6908413171768188,-0.09756597131490707
1772534787680302000,10.047302001953126,-0.8081769943237305,-0.20268413424491882,-0.09713294357061386
1772534787690319000,10.057319091796876,-1.0112278461456299,0.08894212543964386,-0.08527681231498718
1772534787700335400,10.06733544921875,-1.1439259052276611,0.375564843416214,-0.09025559574365616
1772534787710352100,10.07735205078125,-1.2411209344863892,0.5001656413078308,-0.21617357432842255
1772534787720369200,10.087369140625,-1.264162302017212,0.3143816292285919,-0.48171791434288025
1772534787730386200,10.09738623046875,-1.133323073387146,-0.09263566136360168,-0.7884069681167603
1772534787740403200,10.1074033203125,-0.8598782420158386,-0.5749985575675964,-1.0554362535476685
1772534787750420000,10.117419921875,-0.47523948550224304,-1.0549811124801636,-1.2092833518981934
1772534787760437200,10.127437255859375,-0.02594265155494213,-1.6010825634002686,-1.2557792663574219
1772534787770453200,10.137453369140625,0.4194433391094208,-2.1514296531677246,-1.2183810472488403
1772534787780470000,10.147469970703124,0.7450528740882874,-2.53092360496521,-1.118445873260498
1772534787790487000,10.157487060546876,0.8292332291603088,-2.6302051544189453,-1.0011423826217651
1772534787800504300,10.16750439453125,0.627252459526062,-2.45469069480896,-0.9762807488441467
1772534787810521000,10.17752099609375,0.2552882134914398,-2.1464431285858154,-1.0736432075500488
1772534787820538000,10.1875380859375,-0.12617790699005127,-1.7645524740219116,-1.2363415956497192
1772534787830555000,10.197554931640624,-0.423797607421875,-1.3489432334899902,-1.383079171180725
1772534787840572000,10.207572021484374,-0.5984975099563599,-0.9944722652435303,-1.463711142539978
1772534787850588000,10.217587890625,-0.6100202202796936,-0.6844488978385925,-1.4470006227493286
1772534787860604700,10.227604736328125,-0.433401495218277,-0.4170536994934082,-1.3306156396865845
1772534787870622000,10.2376220703125,-0.22451460361480713,-0.13088823854923248,-1.1511508226394653
1772534787880638700,10.247638671875,-0.100448839366436,0.08593408018350601,-0.9722095727920532
1772534787890655700,10.25765576171875,0.14867815375328064,0.14338432252407074,-0.7580709457397461
1772534787900673000,10.267673095703126,0.45341676473617554,0.1635524481534958,-0.4948611259460449
1772534787910689800,10.277689697265625,0.6278809905052185,0.18000997602939606,-0.23180873692035675
1772534787920705800,10.287705810546875,0.6157020926475525,0.1022009402513504,-0.0762561559677124
1772534787930723000,10.29772314453125,0.5392709374427795,-0.07881758362054825,-0.01623755879700184
1772534787940739800,10.30773974609375,0.4961378574371338,-0.21032634377479553,-0.02846626192331314
1772534787950756900,10.3177568359375,0.5196943283081055,-0.2650638818740845,-0.10581271350383759
1772534787960774000,10.32777392578125,0.5627331137657166,-0.26259008049964905,-0.21147975325584412
1772534787970791000,10.337791015625,0.5844644904136658,-0.18310031294822693,-0.30981218814849854
1772534787980807700,10.3478076171875,0.5602236390113831,-0.03187431022524834,-0.3788868486881256
1772534787990823700,10.35782373046875,0.4857965409755707,0.15276238322257996,-0.39535239338874817
1772534788000841000,10.367841064453126,0.38233938813209534,0.33305972814559937,-0.37509745359420776
1772534788010857700,10.377857666015625,0.25037655234336853,0.4794858992099762,-0.33968114852905273
1772534788020875000,10.387875,0.09819634258747101,0.594447135925293,-0.2935538589954376
1772534788030891800,10.397891845703125,-0.04537706822156906,0.6981140971183777,-0.24108931422233582
1772534788040908800,10.40790869140625,-0.1397283375263214,0.7503411173820496,-0.18852463364601135
1772534788050926000,10.417926025390624,-0.14602378010749817,0.7045531272888184,-0.13609792292118073
1772534788060941800,10.42794189453125,-0.12129607051610947,0.6052515506744385,-0.04147873446345329
1772534788070958800,10.437958740234375,-0.1366145759820938,0.5078730583190918,0.12281087040901184
1772534788080976000,10.447975830078125,-0.21626998484134674,0.42930927872657776,0.3211796283721924
1772534788090993000,10.457992919921875,-0.3370041251182556,0.37712037563323975,0.5598047375679016
1772534788101010000,10.468010009765624,-0.42460349202156067,0.38294070959091187,0.8316828608512878
1772534788111026700,10.478026611328126,-0.39504265785217285,0.4365062117576599,1.09848952293396
1772534788121044000,10.4880439453125,-0.26655444502830505,0.48670998215675354,1.2973769903182983
1772534788131060000,10.49806005859375,-0.09670364111661911,0.42481866478919983,1.3816325664520264
1772534788141076700,10.50807666015625,0.008787366561591625,0.2644931674003601,1.3016479015350342
1772534788151094000,10.518093994140624,-0.08563261479139328,0.1152951642870903,1.0179728269577026
1772534788161110800,10.52811083984375,-0.3329784870147705,0.10219960659742355,0.6062132120132446
1772534788171127800,10.5381279296875,-0.5561692118644714,0.22714340686798096,0.26036500930786133
1772534788181144800,10.548144775390625,-0.600124180316925,0.45152512192726135,0.19097554683685303
1772534788191161900,10.558161865234375,-0.46053484082221985,0.6810355186462402,0.4599686563014984
1772534788201179000,10.568178955078125,-0.2635336220264435,0.740456223487854,0.916255533695221
1772534788211195000,10.57819482421875,-0.1263379603624344,0.505011796951294,1.3268203735351562
1772534788221212000,10.5882119140625,-0.026200978085398674,0.12880831956863403,1.5127828121185303
1772534788231229000,10.59822900390625,0.06121835112571716,-0.2032412737607956,1.4069775342941284
1772534788241245700,10.60824560546875,0.0771389901638031,-0.5407713651657104,1.0295058488845825
1772534788251263000,10.618262939453125,-0.03623417019844055,-0.938827633857727,0.48965147137641907
1772534788261279700,10.62827978515625,-0.2352607250213623,-1.2902735471725464,-0.03616093471646309
1772534788271297000,10.638297119140624,-0.4271630346775055,-1.4482499361038208,-0.457759290933609
1772534788281313000,10.64831298828125,-0.5127953886985779,-1.396835446357727,-0.7130472660064697
1772534788291329800,10.658329833984375,-0.45674675703048706,-1.2176291942596436,-0.7412906289100647
1772534788301346800,10.668346923828125,-0.22150975465774536,-1.0372560024261475,-0.6070217490196228
1772534788311363800,10.67836376953125,0.15525536239147186,-0.9224483966827393,-0.4454006254673004
1772534788321380900,10.688380859375,0.5759367942810059,-0.899145781993866,-0.3221468925476074
1772534788331398000,10.69839794921875,0.8927533626556396,-0.9268495440483093,-0.24469657242298126
1772534788341415000,10.708414794921875,1.0226948261260986,-0.8323742151260376,-0.18046166002750397
1772534788351431000,10.718430908203125,0.9864305853843689,-0.6414335370063782,-0.11415240168571472
1772534788361448000,10.728447998046875,0.8659409284591675,-0.4585345387458801,-0.044383708387613297
1772534788371465000,10.73846484375,0.7116150259971619,-0.3209977149963379,0.05058328062295914
1772534788381482000,10.74848193359375,0.5478383302688599,-0.19312818348407745,0.1535291075706482
1772534788391498800,10.758498779296875,0.39612844586372375,-0.03279043734073639,0.22976422309875488
1772534788401516000,10.76851611328125,0.26136314868927,0.15936994552612305,0.22951361536979675
1772534788411532800,10.77853271484375,0.1571667194366455,0.35551443696022034,0.14688052237033844
1772534788421548800,10.788548828125,0.07896032929420471,0.5362967252731323,0.010871290229260921
1772534788431565800,10.79856591796875,0.027408720925450325,0.683060348033905,-0.1542782485485077
1772534788441582800,10.808582763671875,0.01792493835091591,0.7766976356506348,-0.30820709466934204
1772534788451600000,10.818599853515625,0.05512503907084465,0.8073434233665466,-0.43663084506988525
1772534788461616600,10.82861669921875,0.14104127883911133,0.7629514336585999,-0.5255106687545776
1772534788471634000,10.838634033203125,0.23990394175052643,0.6788951754570007,-0.5582275986671448
1772534788481651000,10.84865087890625,0.3354054391384125,0.6361298561096191,-0.5401681661605835
1772534788491667700,10.858667724609376,0.4405938982963562,0.661919891834259,-0.4697304666042328
1772534788501684000,10.86868408203125,0.5657504796981812,0.7775202393531799,-0.35342463850975037
1772534788511701000,10.878700927734375,0.6879397630691528,0.958479642868042,-0.18848921358585358
1772534788521717800,10.8887177734375,0.8091127872467041,1.1061549186706543,0.018607506528496742
1772534788531735000,10.898735107421874,0.8955718278884888,1.215128779411316,0.24869583547115326
1772534788541751800,10.908751708984376,0.9343527555465698,1.2770932912826538,0.46101635694503784
1772534788551768800,10.918768798828125,0.9769002199172974,1.2898578643798828,0.6822595000267029
1772534788561785900,10.928785888671875,0.9770522713661194,1.3293921947479248,0.8666152358055115
1772534788571801900,10.9388017578125,0.9066734313964844,1.3889751434326172,0.9650142788887024
1772534788581819000,10.94881884765625,0.7791247963905334,1.517730712890625,0.9794898629188538
1772534788591836000,10.9588359375,0.5959560871124268,1.7268471717834473,0.919238269329071
1772534788601853000,10.96885302734375,0.40100014209747314,1.8948273658752441,0.824203372001648
1772534788611869700,10.97886962890625,0.2166481465101242,2.0019609928131104,0.6903557777404785
1772534788621887000,10.988886962890625,0.006660565733909607,2.446113348007202,0.8480958938598633
1772534788631904000,10.998904052734375,-0.2861523926258087,3.179990291595459,1.2536364793777466
1772534788641919700,11.008919677734376,-0.5710448622703552,3.005357265472412,1.5337780714035034
1772534788651936800,11.018936767578126,-0.44895410537719727,1.541278600692749,1.5944044589996338
1772534788661954000,11.0289541015625,-0.21548780798912048,0.44914132356643677,1.517445683479309
1772534788671970800,11.038970703125,-0.062117431312799454,-0.1731608659029007,1.2446216344833374
1772534788681987800,11.04898779296875,0.13552160561084747,-0.7529621720314026,0.808150053024292
1772534788692004900,11.0590048828125,0.39383092522621155,-1.0769802331924438,0.14893116056919098
1772534788702022000,11.06902197265625,0.6233855485916138,-1.008677363395691,-0.668052077293396
1772534788712038000,11.079037841796875,0.7585644125938416,-0.7689321041107178,-1.4245249032974243
