time,seconds_elapsed,z,y,x
1772534488896628500,0.05062841796875,-1.048797607421875,-0.098724365234375,-0.0503692626953125
1772534488906645200,0.060645263671875,-1.06097412109375,-0.0903778076171875,-0.0692291259765625
1772534488916661500,0.07066162109375,-1.07073974609375,-0.09100341796875,-0.08935546875
1772534488926678500,0.080678466796875,-1.0985870361328125,-0.1056671142578125,-0.1087646484375
1772534488936694300,0.0906943359375,-1.1359100341796875,-0.1264801025390625,-0.11407470703125
1772534488946711300,0.100711181640625,-1.13299560546875,-0.123809814453125,-0.1248931884765625
1772534488956727600,0.1107275390625,-1.1099090576171875,-0.1144256591796875,-0.155059814453125
1772534488966744300,0.120744384765625,-1.0977630615234375,-0.1155853271484375,-0.17578125
1772534488976760300,0.13076025390625,-1.0989532470703125,-0.1231689453125,-0.17626953125
1772534488986777300,0.14077734375,-1.1177978515625,-0.12518310546875,-0.1681976318359375
1772534488996793600,0.150793701171875,-1.1520843505859375,-0.1155242919921875,-0.1622314453125
1772534489006809600,0.1608095703125,-1.1696319580078125,-0.0949554443359375,-0.1598358154296875
1772534489016826400,0.170826416015625,-1.1690216064453125,-0.0781707763671875,-0.1589202880859375
1772534489026842400,0.18084228515625,-1.1440887451171875,-0.0695648193359375,-0.15618896484375
1772534489036859400,0.190859375,-1.1319122314453125,-0.07476806640625,-0.1510162353515625
1772534489046875400,0.20087548828125,-1.14019775390625,-0.0865936279296875,-0.1484832763671875
1772534489056892400,0.210892333984375,-1.158782958984375,-0.0877685546875,-0.137939453125
1772534489066908400,0.220908447265625,-1.181732177734375,-0.0846710205078125,-0.128448486328125
1772534489076925400,0.230925537109375,-1.189208984375,-0.08685302734375,-0.1352691650390625
1772534489086941400,0.24094140625,-1.15655517578125,-0.07623291015625,-0.1555328369140625
1772534489096957400,0.25095751953125,-1.113067626953125,-0.0569305419921875,-0.175262451171875
1772534489106974500,0.260974365234375,-1.0831298828125,-0.0417938232421875,-0.193695068359375
1772534489116990200,0.270990234375,-1.0457000732421875,-0.04034423828125,-0.211181640625
1772534489127007500,0.281007568359375,-1.00103759765625,-0.0482940673828125,-0.2236175537109375
1772534489137023500,0.2910234375,-0.977203369140625,-0.056732177734375,-0.21990966796875
1772534489147040300,0.301040283203125,-0.97955322265625,-0.0591888427734375,-0.1956024169921875
1772534489157056300,0.31105615234375,-1.005340576171875,-0.059295654296875,-0.157745361328125
1772534489167073500,0.321073486328125,-1.03851318359375,-0.05853271484375,-0.135162353515625
1772534489177089500,0.331089599609375,-1.058563232421875,-0.0532379150390625,-0.1271514892578125
1772534489187106300,0.341106201171875,-1.056488037109375,-0.0419921875,-0.1302642822265625
1772534489197122300,0.351122314453125,-1.029144287109375,-0.03167724609375,-0.14569091796875
1772534489207138300,0.36113818359375,-0.987579345703125,-0.035125732421875,-0.1659088134765625
1772534489217155600,0.371155517578125,-0.9250640869140625,-0.0545806884765625,-0.1840667724609375
1772534489227171300,0.38117138671875,-0.8560791015625,-0.0766143798828125,-0.2039794921875
1772534489237188400,0.391188232421875,-0.814056396484375,-0.0925750732421875,-0.214111328125
1772534489247204400,0.401204345703125,-0.8046417236328125,-0.104522705078125,-0.2122650146484375
1772534489257221400,0.411221435546875,-0.8021240234375,-0.112762451171875,-0.1991729736328125
1772534489267237400,0.4212373046875,-0.8021240234375,-0.1214752197265625,-0.1832427978515625
1772534489277254400,0.43125439453125,-0.8032073974609375,-0.127960205078125,-0.1754913330078125
1772534489287270400,0.4412705078125,-0.8016510009765625,-0.1319122314453125,-0.1752166748046875
1772534489297286400,0.451286376953125,-0.8030548095703125,-0.12396240234375,-0.1761322021484375
1772534489307303400,0.461303466796875,-0.7874908447265625,-0.131317138671875,-0.16717529296875
1772534489317319400,0.4713193359375,-0.7823486328125,-0.146636962890625,-0.160186767578125
1772534489327336200,0.481336181640625,-0.81072998046875,-0.1580657958984375,-0.1501007080078125
1772534489337352400,0.4913525390625,-0.8486785888671875,-0.1694793701171875,-0.140289306640625
1772534489347369500,0.501369384765625,-0.8665924072265625,-0.1779022216796875,-0.1278228759765625
1772534489357385500,0.511385498046875,-0.8747406005859375,-0.1858062744140625,-0.1259918212890625
1772534489367402200,0.52140234375,-0.883148193359375,-0.1882476806640625,-0.1417083740234375
1772534489377418500,0.53141845703125,-0.8876190185546875,-0.1936492919921875,-0.15887451171875
1772534489387435500,0.541435546875,-0.8882598876953125,-0.1995391845703125,-0.164825439453125
1772534489397451500,0.551451416015625,-0.8834075927734375,-0.1988983154296875,-0.1700439453125
1772534489407467300,0.56146728515625,-0.875,-0.1917266845703125,-0.1711883544921875
1772534489417484500,0.571484619140625,-0.8806915283203125,-0.18609619140625,-0.1646575927734375
1772534489427500500,0.58150048828125,-0.8868560791015625,-0.185821533203125,-0.152130126953125
1772534489437517300,0.591517333984375,-0.892181396484375,-0.189453125,-0.1443328857421875
1772534489447533300,0.601533203125,-0.87646484375,-0.2015838623046875,-0.14251708984375
1772534489457550600,0.611550537109375,-0.867340087890625,-0.217559814453125,-0.12432861328125
1772534489467566600,0.621566650390625,-0.875396728515625,-0.2361907958984375,-0.100006103515625
1772534489477583400,0.631583251953125,-0.8807373046875,-0.2575225830078125,-0.0853729248046875
1772534489487599400,0.641599365234375,-0.8856353759765625,-0.2726898193359375,-0.0741729736328125
1772534489497615400,0.651615478515625,-0.9057159423828125,-0.2822113037109375,-0.0685882568359375
1772534489507632400,0.66163232421875,-0.9297332763671875,-0.2845001220703125,-0.0755615234375
1772534489517648400,0.6716484375,-0.9383544921875,-0.2840118408203125,-0.080108642578125
1772534489527665400,0.68166552734375,-0.956451416015625,-0.2801055908203125,-0.08203125
1772534489537681400,0.691681396484375,-0.9659423828125,-0.2707061767578125,-0.0751495361328125
1772534489547698200,0.7016982421875,-0.963623046875,-0.25732421875,-0.0609283447265625
1772534489557714200,0.711714111328125,-0.974456787109375,-0.2505645751953125,-0.045074462890625
1772534489567731200,0.721731201171875,-0.9925689697265625,-0.2555389404296875,-0.030975341796875
1772534489577747500,0.73174755859375,-1.00482177734375,-0.265594482421875,-0.0231781005859375
1772534489587764200,0.74176416015625,-1.0211029052734375,-0.259674072265625,-0.023834228515625
1772534489597780200,0.7517802734375,-1.0328216552734375,-0.2464599609375,-0.0460357666015625
1772534489607796200,0.761796142578125,-1.0374298095703125,-0.2402191162109375,-0.0656890869140625
1772534489617813200,0.771813232421875,-1.0513458251953125,-0.239776611328125,-0.0765228271484375
1772534489627829200,0.781829345703125,-1.066925048828125,-0.2340545654296875,-0.079986572265625
1772534489637846300,0.79184619140625,-1.0850677490234375,-0.2168426513671875,-0.081817626953125
1772534489647862300,0.8018623046875,-1.1176605224609375,-0.201629638671875,-0.0849456787109375
1772534489657879300,0.81187939453125,-1.1402435302734375,-0.1900787353515625,-0.1034698486328125
1772534489667895300,0.821895263671875,-1.1268768310546875,-0.165740966796875,-0.13800048828125
1772534489677912300,0.831912353515625,-1.115875244140625,-0.1369781494140625,-0.1573028564453125
1772534489687928300,0.84192822265625,-1.114013671875,-0.1292724609375,-0.163177490234375
1772534489697945300,0.8519453125,-1.1017303466796875,-0.1351470947265625,-0.163177490234375
1772534489707961300,0.86196142578125,-1.0970916748046875,-0.152191162109375,-0.1559600830078125
1772534489717977300,0.871977294921875,-1.1126556396484375,-0.173614501953125,-0.136505126953125
1772534489727994000,0.881994140625,-1.1317291259765625,-0.191802978515625,-0.1181488037109375
1772534489738010000,0.892010009765625,-1.1337890625,-0.2079315185546875,-0.099395751953125
1772534489748027400,0.90202734375,-1.1391143798828125,-0.220794677734375,-0.0795135498046875
1772534489758043400,0.91204345703125,-1.1348724365234375,-0.21337890625,-0.0671539306640625
1772534489768060200,0.92206005859375,-1.1298675537109375,-0.1881103515625,-0.0628509521484375
1772534489778076200,0.932076171875,-1.1304931640625,-0.1556243896484375,-0.0591888427734375
1772534489788093400,0.942093505859375,-1.1192474365234375,-0.1328887939453125,-0.0477294921875
1772534489798109200,0.952109130859375,-1.101806640625,-0.1189727783203125,-0.0392913818359375
1772534489808125200,0.962125244140625,-1.1008148193359375,-0.109649658203125,-0.0155181884765625
1772534489818142200,0.97214208984375,-1.0895233154296875,-0.10009765625,0.0170745849609375
1772534489828158200,0.982158203125,-1.049163818359375,-0.0888214111328125,0.0340423583984375
1772534489838175200,0.99217529296875,-1.0029449462890625,-0.07073974609375,0.0366363525390625
1772534489848191200,1.002191162109375,-0.9786529541015625,-0.0564117431640625,0.0431671142578125
1772534489858208300,1.012208251953125,-0.9616851806640625,-0.04736328125,0.043212890625
1772534489868224300,1.022224365234375,-0.9310760498046875,-0.0482025146484375,0.0334625244140625
1772534489878241300,1.0322412109375,-0.9105072021484375,-0.0571441650390625,0.02642822265625
1772534489888257300,1.04225732421875,-0.8895263671875,-0.06646728515625,0.01165771484375
1772534489898274300,1.0522744140625,-0.87860107421875,-0.0751495361328125,-0.013458251953125
1772534489908290000,1.0622900390625,-0.881195068359375,-0.0836029052734375,-0.04644775390625
1772534489918306300,1.072306396484375,-0.870635986328125,-0.0895843505859375,-0.0829925537109375
1772534489928323300,1.0823232421875,-0.8646087646484375,-0.089599609375,-0.1115570068359375
1772534489938339300,1.09233935546875,-0.8821258544921875,-0.0898590087890625,-0.134368896484375
1772534489948356000,1.102356201171875,-0.8872222900390625,-0.1091156005859375,-0.1399993896484375
1772534489958372400,1.112372314453125,-0.8875579833984375,-0.118499755859375,-0.1429595947265625
1772534489968389400,1.122389404296875,-0.913360595703125,-0.117767333984375,-0.1574859619140625
1772534489978405000,1.132405029296875,-0.9211883544921875,-0.116180419921875,-0.171661376953125
1772534489988422100,1.142422119140625,-0.92218017578125,-0.116241455078125,-0.1782684326171875
1772534489998438400,1.1524384765625,-0.9267730712890625,-0.117767333984375,-0.174896240234375
1772534490008454400,1.162454345703125,-0.9308929443359375,-0.1210479736328125,-0.161956787109375
1772534490018471200,1.17247119140625,-0.92938232421875,-0.1140289306640625,-0.14251708984375
1772534490028487200,1.182487060546875,-0.9281463623046875,-0.092987060546875,-0.1255950927734375
1772534490038504400,1.19250439453125,-0.9309844970703125,-0.0706329345703125,-0.1103363037109375
1772534490048520400,1.2025205078125,-0.9237518310546875,-0.0560760498046875,-0.08642578125
1772534490058537200,1.212537109375,-0.9276885986328125,-0.05230712890625,-0.0587921142578125
1772534490068553200,1.22255322265625,-0.9375152587890625,-0.054473876953125,-0.0342864990234375
1772534490078570200,1.2325703125,-0.944122314453125,-0.0623626708984375,-0.0257415771484375
1772534490088586200,1.242586181640625,-0.9493865966796875,-0.0695343017578125,-0.032012939453125
1772534490098603300,1.252603271484375,-0.9517364501953125,-0.0807952880859375,-0.046295166015625
1772534490108619300,1.262619384765625,-0.9553680419921875,-0.095367431640625,-0.0619659423828125
1772534490118635300,1.27263525390625,-0.930206298828125,-0.1125030517578125,-0.1003570556640625
1772534490128652300,1.28265234375,-0.9279632568359375,-0.1371307373046875,-0.123382568359375
1772534490138668300,1.292668212890625,-0.941192626953125,-0.156219482421875,-0.1012115478515625
1772534490148685300,1.302685302734375,-0.9184417724609375,-0.163177490234375,-0.1045379638671875
1772534490158701000,1.312701171875,-0.91888427734375,-0.1710662841796875,-0.0891876220703125
1772534490168718300,1.32271826171875,-0.942535400390625,-0.167205810546875,-0.0772247314453125
1772534490178734300,1.332734375,-0.973663330078125,-0.1611785888671875,-0.077850341796875
1772534490188751000,1.342751220703125,-1.001861572265625,-0.1685943603515625,-0.06884765625
1772534490198767000,1.35276708984375,-1.012176513671875,-0.1748809814453125,-0.0547637939453125
1772534490208784400,1.362784423828125,-1.011322021484375,-0.1583099365234375,-0.0331878662109375
1772534490218800400,1.37280029296875,-0.9833526611328125,-0.1442108154296875,-0.0073089599609375
1772534490228816400,1.38281640625,-0.9485626220703125,-0.135833740234375,0.010162353515625
1772534490238833200,1.392833251953125,-0.921478271484375,-0.130462646484375,0.008575439453125
1772534490248849200,1.40284912109375,-0.8912200927734375,-0.135162353515625,-0.00897216796875
1772534490258866400,1.412866455078125,-0.8832855224609375,-0.1424560546875,-0.02301025390625
1772534490268882200,1.422882080078125,-0.89227294921875,-0.155426025390625,-0.026092529296875
1772534490278899200,1.432899169921875,-0.891326904296875,-0.1631317138671875,-0.0264434814453125
1772534490288915200,1.442915283203125,-0.899261474609375,-0.165130615234375,-0.02197265625
1772534490298932200,1.45293212890625,-0.91143798828125,-0.1647491455078125,-0.0206146240234375
1772534490308948200,1.4629482421875,-0.9324951171875,-0.1583251953125,-0.0330963134765625
1772534490318964200,1.472964111328125,-0.9583892822265625,-0.1570587158203125,-0.04473876953125
1772534490328981200,1.482981201171875,-0.994110107421875,-0.1677093505859375,-0.06243896484375
1772534490338997200,1.492997314453125,-1.0380706787109375,-0.174835205078125,-0.0879058837890625
1772534490349014300,1.50301416015625,-1.0633392333984375,-0.1800079345703125,-0.103729248046875
1772534490359030300,1.5130302734375,-1.091827392578125,-0.1800537109375,-0.1185760498046875
1772534490369047000,1.523047119140625,-1.1172637939453125,-0.1804046630859375,-0.1350555419921875
1772534490379063000,1.53306298828125,-1.1451263427734375,-0.183349609375,-0.146392822265625
1772534490389080300,1.543080322265625,-1.166046142578125,-0.178863525390625,-0.1488189697265625
1772534490399096300,1.553096435546875,-1.1739044189453125,-0.1690673828125,-0.1467742919921875
1772534490409113000,1.563113037109375,-1.1859283447265625,-0.157745361328125,-0.1465606689453125
1772534490419129000,1.573129150390625,-1.1826934814453125,-0.1404876708984375,-0.1519012451171875
1772534490429145300,1.583145263671875,-1.169921875,-0.1162567138671875,-0.16461181640625
1772534490439162400,1.593162353515625,-1.153106689453125,-0.0986480712890625,-0.177490234375
1772534490449178000,1.60317822265625,-1.12457275390625,-0.100921630859375,-0.18267822265625
1772534490459195100,1.613195068359375,-1.0789642333984375,-0.110443115234375,-0.1862335205078125
1772534490469211400,1.62321142578125,-1.0346221923828125,-0.107086181640625,-0.18487548828125
1772534490479228200,1.633228271484375,-0.9954681396484375,-0.1016998291015625,-0.180816650390625
1772534490489244200,1.643244140625,-0.9796600341796875,-0.100341796875,-0.17047119140625
1772534490499261200,1.65326123046875,-0.9807281494140625,-0.0968780517578125,-0.159332275390625
1772534490509277400,1.66327734375,-1.0012054443359375,-0.077545166015625,-0.1548614501953125
1772534490519294200,1.673294189453125,-1.0262298583984375,-0.06085205078125,-0.1509857177734375
1772534490529310200,1.683310302734375,-1.0450286865234375,-0.043975830078125,-0.1424560546875
1772534490539326200,1.693326171875,-1.0753021240234375,-0.02862548828125,-0.1339263916015625
1772534490549343200,1.70334326171875,-1.105499267578125,-0.0162506103515625,-0.1313934326171875
1772534490559359200,1.713359130859375,-1.1298828125,-0.01776123046875,-0.13006591796875
1772534490569376500,1.72337646484375,-1.14813232421875,-0.0252532958984375,-0.12066650390625
1772534490579392500,1.733392578125,-1.152801513671875,-0.0346221923828125,-0.11614990234375
1772534490589409300,1.7434091796875,-1.141937255859375,-0.0370025634765625,-0.1165008544921875
1772534490599425300,1.75342529296875,-1.105194091796875,-0.0346527099609375,-0.1242218017578125
1772534490609442600,1.763442626953125,-1.05682373046875,-0.0321197509765625,-0.1273345947265625
1772534490619458600,1.77345849609375,-1.0150299072265625,-0.0287933349609375,-0.1248779296875
1772534490629475300,1.783475341796875,-0.9715576171875,-0.0172576904296875,-0.1261749267578125
1772534490639491300,1.7934912109375,-0.9309539794921875,-0.0081329345703125,-0.13287353515625
1772534490649507300,1.80350732421875,-0.898651123046875,-0.0004425048828125,-0.1333160400390625
1772534490659524400,1.8135244140625,-0.8866119384765625,0.01025390625,-0.1194000244140625
1772534490669540400,1.823540283203125,-0.8897247314453125,0.0185089111328125,-0.115081787109375
1772534490679557400,1.833557373046875,-0.883636474609375,0.0126800537109375,-0.11859130859375
1772534490689573400,1.843573486328125,-0.8851776123046875,-0.0016937255859375,-0.1258697509765625
1772534490699590400,1.85359033203125,-0.88812255859375,-0.00982666015625,-0.144927978515625
1772534490709606400,1.8636064453125,-0.8874359130859375,-0.02978515625,-0.1618194580078125
1772534490719623400,1.87362353515625,-0.8935394287109375,-0.0485382080078125,-0.1765594482421875
1772534490729639200,1.88363916015625,-0.911468505859375,-0.06427001953125,-0.1915740966796875
1772534490739655200,1.8936552734375,-0.92596435546875,-0.07843017578125,-0.2030029296875
1772534490749672400,1.90367236328125,-0.9405059814453125,-0.08734130859375,-0.209075927734375
1772534490759688400,1.9136884765625,-0.9511260986328125,-0.09381103515625,-0.2108917236328125
1772534490769705200,1.923705322265625,-0.9635009765625,-0.0968780517578125,-0.2085418701171875
1772534490779721200,1.93372119140625,-0.976531982421875,-0.10028076171875,-0.19915771484375
1772534490789738500,1.943738525390625,-0.99072265625,-0.10357666015625,-0.18603515625
1772534490799754500,1.95375439453125,-0.9983367919921875,-0.1009063720703125,-0.1691131591796875
1772534490809771300,1.963771240234375,-0.996124267578125,-0.099609375,-0.15277099609375
1772534490819787300,1.973787353515625,-0.987396240234375,-0.1104736328125,-0.1380462646484375
1772534490829804500,1.983804443359375,-0.9736328125,-0.1226959228515625,-0.1152191162109375
1772534490839820300,1.9938203125,-0.9531097412109375,-0.129180908203125,-0.0953216552734375
1772534490849837300,2.00383740234375,-0.9345855712890625,-0.1374664306640625,-0.0808563232421875
1772534490859853300,2.013853271484375,-0.90924072265625,-0.146881103515625,-0.0657196044921875
1772534490869869600,2.02386962890625,-0.8870391845703125,-0.151641845703125,-0.0516510009765625
1772534490879886300,2.03388623046875,-0.8790283203125,-0.1545257568359375,-0.03363037109375
1772534490889902300,2.04390234375,-0.863739013671875,-0.163543701171875,-0.018310546875
1772534490899919400,2.05391943359375,-0.859619140625,-0.173248291015625,-0.01043701171875
1772534490909935400,2.063935302734375,-0.8664398193359375,-0.1829376220703125,0.00323486328125
1772534490919952400,2.073952392578125,-0.8703765869140625,-0.182891845703125,0.004302978515625
1772534490929968400,2.083968505859375,-0.884918212890625,-0.1847076416015625,-0.0032196044921875
1772534490939985200,2.093985107421875,-0.8984832763671875,-0.1977386474609375,-0.0097198486328125
1772534490950001400,2.10400146484375,-0.8923187255859375,-0.209320068359375,-0.0142822265625
1772534490960018400,2.114018310546875,-0.876922607421875,-0.2123260498046875,-0.0140533447265625
1772534490970034400,2.124034423828125,-0.8643646240234375,-0.2113037109375,-0.0110015869140625
1772534490980050400,2.134050537109375,-0.8564910888671875,-0.2209930419921875,-0.0088653564453125
1772534490990067500,2.1440673828125,-0.853302001953125,-0.236358642578125,-0.0121307373046875
1772534491000083500,2.15408349609375,-0.8656463623046875,-0.2493438720703125,-0.0243377685546875
1772534491010100500,2.1641005859375,-0.876953125,-0.26751708984375,-0.038909912109375
1772534491020116200,2.1741162109375,-0.874725341796875,-0.2845611572265625,-0.0513916015625
1772534491030133500,2.184133544921875,-0.878753662109375,-0.2851104736328125,-0.05853271484375
1772534491040149500,2.1941494140625,-0.8890533447265625,-0.286346435546875,-0.060882568359375
1772534491050166300,2.204166259765625,-0.9067840576171875,-0.288116455078125,-0.0599517822265625
1772534491060182300,2.214182373046875,-0.9208984375,-0.2831268310546875,-0.053466796875
1772534491070199300,2.22419921875,-0.9194183349609375,-0.2826385498046875,-0.0544281005859375
1772534491080215600,2.234215576171875,-0.9211578369140625,-0.2818756103515625,-0.0616912841796875
1772534491090231300,2.244231201171875,-0.9279327392578125,-0.2798919677734375,-0.066314697265625
1772534491100248300,2.254248291015625,-0.9294891357421875,-0.2784271240234375,-0.077911376953125
1772534491110264300,2.264264404296875,-0.9315948486328125,-0.274383544921875,-0.097259521484375
1772534491120281300,2.27428125,-0.9588623046875,-0.270660400390625,-0.112945556640625
1772534491130297300,2.28429736328125,-0.980194091796875,-0.2656097412109375,-0.1235504150390625
1772534491140314400,2.294314453125,-0.9992218017578125,-0.2538604736328125,-0.1269683837890625
1772534491150330400,2.304330322265625,-1.0174407958984375,-0.2390289306640625,-0.1184234619140625
1772534491160347400,2.314347412109375,-1.0285186767578125,-0.2166900634765625,-0.1117706298828125
1772534491170363400,2.32436328125,-1.060333251953125,-0.1893463134765625,-0.1200103759765625
1772534491180380400,2.33438037109375,-1.124603271484375,-0.1768341064453125,-0.1282806396484375
1772534491190396400,2.344396484375,-1.172149658203125,-0.18743896484375,-0.12860107421875
1772534491200412200,2.354412109375,-1.186920166015625,-0.193206787109375,-0.1365966796875
1772534491210429400,2.364429443359375,-1.1980743408203125,-0.1844635009765625,-0.135589599609375
1772534491220445400,2.374445556640625,-1.195159912109375,-0.180511474609375,-0.1194000244140625
1772534491230462200,2.384462158203125,-1.178314208984375,-0.1776885986328125,-0.102783203125
1772534491240478200,2.394478271484375,-1.1649169921875,-0.164520263671875,-0.091522216796875
1772534491250495500,2.40449560546875,-1.152008056640625,-0.14495849609375,-0.08648681640625
1772534491260511500,2.414511474609375,-1.144378662109375,-0.1318511962890625,-0.086212158203125
1772534491270528300,2.4245283203125,-1.1230621337890625,-0.12493896484375,-0.09075927734375
1772534491280544300,2.434544189453125,-1.083038330078125,-0.105377197265625,-0.090301513671875
1772534491290561500,2.4445615234375,-1.04571533203125,-0.0836029052734375,-0.08648681640625
1772534491300577300,2.454577392578125,-1.021759033203125,-0.076751708984375,-0.06976318359375
1772534491310593300,2.46459326171875,-0.985137939453125,-0.07135009765625,-0.0639495849609375
1772534491320610300,2.4746103515625,-0.972259521484375,-0.0615081787109375,-0.0621337890625
1772534491330626600,2.48462646484375,-0.9653472900390625,-0.053009033203125,-0.052642822265625
1772534491340643300,2.494643310546875,-0.9475250244140625,-0.0471038818359375,-0.037017822265625
1772534491350659300,2.504659423828125,-0.92095947265625,-0.032318115234375,-0.052490234375
1772534491360676400,2.51467626953125,-0.907958984375,-0.0173492431640625,-0.03857421875
1772534491370692400,2.5246923828125,-0.9145965576171875,-0.0173492431640625,-0.023681640625
1772534491380709400,2.53470947265625,-0.934051513671875,-0.0215911865234375,-0.0351409912109375
1772534491390725400,2.544725341796875,-0.9638214111328125,-0.034820556640625,-0.024139404296875
1772534491400742400,2.554742431640625,-0.9872589111328125,-0.0501251220703125,-0.001708984375
1772534491410758100,2.564758056640625,-1.001129150390625,-0.0401611328125,-0.0587615966796875
1772534491420774400,2.5747744140625,-1.014984130859375,-0.03118896484375,-0.077667236328125
1772534491430791400,2.58479150390625,-1.0453338623046875,-0.0412750244140625,-0.05889892578125
1772534491440807400,2.594807373046875,-1.0572052001953125,-0.06195068359375,-0.044952392578125
1772534491450824200,2.60482421875,-1.0546112060546875,-0.0746612548828125,-0.0308074951171875
1772534491460840400,2.61484033203125,-1.0242919921875,-0.066619873046875,-0.040069580078125
1772534491470857500,2.624857421875,-0.9979705810546875,-0.0543365478515625,-0.0307159423828125
1772534491480873500,2.63487353515625,-0.9619903564453125,-0.05474853515625,-0.0086822509765625
1772534491490890200,2.64489013671875,-0.935943603515625,-0.058807373046875,-0.00567626953125
1772534491500906500,2.654906494140625,-0.9304351806640625,-0.062408447265625,-0.0046844482421875
1772534491510923300,2.66492333984375,-0.938079833984375,-0.068603515625,0.0044097900390625
1772534491520939300,2.674939208984375,-0.925994873046875,-0.0769195556640625,0.012664794921875
1772534491530956300,2.684956298828125,-0.9134674072265625,-0.0800933837890625,0.02093505859375
1772534491540972500,2.69497265625,-0.901885986328125,-0.0788421630859375,0.02655029296875
1772534491550988300,2.70498828125,-0.8812255859375,-0.086517333984375,0.0267333984375
1772534491561005300,2.71500537109375,-0.864471435546875,-0.096832275390625,0.02191162109375
1772534491571021300,2.725021240234375,-0.8678436279296875,-0.1040496826171875,0.0072174072265625
1772534491581038300,2.735038330078125,-0.8857879638671875,-0.119415283203125,-0.01531982421875
1772534491591054000,2.74505419921875,-0.8939056396484375,-0.13946533203125,-0.0399932861328125
1772534491601071400,2.7550712890625,-0.911895751953125,-0.14739990234375,-0.0607147216796875
1772534491611087400,2.76508740234375,-0.9145660400390625,-0.1613616943359375,-0.072662353515625
1772534491621104000,2.775104248046875,-0.9112396240234375,-0.1759796142578125,-0.0759124755859375
1772534491631120100,2.7851201171875,-0.9137725830078125,-0.186981201171875,-0.0811004638671875
1772534491641137400,2.795137451171875,-0.9167938232421875,-0.19830322265625,-0.0720367431640625
1772534491651153400,2.8051533203125,-0.922027587890625,-0.196380615234375,-0.05517578125
1772534491661169400,2.81516943359375,-0.9424285888671875,-0.182891845703125,-0.03729248046875
1772534491671186200,2.825186279296875,-0.9579620361328125,-0.173736572265625,-0.0375518798828125
1772534491681202200,2.8352021484375,-0.96978759765625,-0.1697845458984375,-0.0401458740234375
1772534491691219500,2.845219482421875,-0.975250244140625,-0.1715087890625,-0.0350494384765625
1772534491701235200,2.855235107421875,-0.9765472412109375,-0.17138671875,-0.0330657958984375
1772534491711252200,2.865252197265625,-0.981048583984375,-0.172698974609375,-0.03546142578125
1772534491721268200,2.875268310546875,-0.9970703125,-0.171783447265625,-0.0501861572265625
1772534491731285200,2.88528515625,-1.0010833740234375,-0.1759490966796875,-0.081878662109375
1772534491741301200,2.89530126953125,-1.018280029296875,-0.1812591552734375,-0.1115875244140625
1772534491751318300,2.905318359375,-1.030181884765625,-0.1847076416015625,-0.12017822265625
1772534491761334300,2.915334228515625,-1.0418853759765625,-0.186279296875,-0.11566162109375
1772534491771350300,2.925350341796875,-1.0547332763671875,-0.1884002685546875,-0.1099395751953125
1772534491781367300,2.9353671875,-1.0647735595703125,-0.1940460205078125,-0.101898193359375
1772534491791383300,2.94538330078125,-1.0767669677734375,-0.1995391845703125,-0.1060028076171875
1772534491801400000,2.955400146484375,-1.089935302734375,-0.202728271484375,-0.11883544921875
1772534491811416000,2.965416015625,-1.090606689453125,-0.1992034912109375,-0.1256103515625
1772534491821433300,2.975433349609375,-1.074310302734375,-0.189422607421875,-0.1295318603515625
1772534491831449300,2.985449462890625,-1.043853759765625,-0.173370361328125,-0.13262939453125
1772534491841466000,2.995466064453125,-1.0182952880859375,-0.1544342041015625,-0.1269683837890625
1772534491851482000,3.005482177734375,-0.999755859375,-0.139617919921875,-0.113372802734375
1772534491861499400,3.01549951171875,-0.9821929931640625,-0.130462646484375,-0.1126708984375
1772534491871515400,3.025515380859375,-0.95880126953125,-0.1256866455078125,-0.122283935546875
1772534491881532200,3.0355322265625,-0.94696044921875,-0.1152801513671875,-0.129241943359375
1772534491891548200,3.045548095703125,-0.9487152099609375,-0.100921630859375,-0.123504638671875
1772534491901565400,3.0555654296875,-0.952606201171875,-0.0885467529296875,-0.11602783203125
1772534491911581200,3.065581298828125,-0.9740447998046875,-0.0823211669921875,-0.1095123291015625
1772534491921597200,3.07559716796875,-1.0026702880859375,-0.0814971923828125,-0.1118927001953125
1772534491931614200,3.0856142578125,-1.0350494384765625,-0.0891876220703125,-0.1126251220703125
1772534491941630200,3.095630126953125,-1.078857421875,-0.10894775390625,-0.111480712890625
1772534491951647200,3.105647216796875,-1.113983154296875,-0.1207275390625,-0.1048583984375
1772534491961663200,3.115663330078125,-1.1393890380859375,-0.116546630859375,-0.10723876953125
1772534491971680300,3.12568017578125,-1.147369384765625,-0.1057281494140625,-0.115631103515625
1772534491981696300,3.1356962890625,-1.121612548828125,-0.095611572265625,-0.12359619140625
1772534491991713300,3.14571337890625,-1.082427978515625,-0.0760650634765625,-0.1345062255859375
1772534492001729300,3.155729248046875,-1.032958984375,-0.0552215576171875,-0.141357421875
1772534492011746000,3.16574609375,-0.992919921875,-0.0388031005859375,-0.1345977783203125
1772534492021762000,3.175761962890625,-0.970611572265625,-0.028900146484375,-0.116241455078125
1772534492031778300,3.1857783203125,-0.9614410400390625,-0.0275115966796875,-0.0957183837890625
1772534492041795300,3.19579541015625,-0.9639434814453125,-0.0314483642578125,-0.0804290771484375
1772534492051811300,3.205811279296875,-0.98175048828125,-0.0401763916015625,-0.066650390625
1772534492061828000,3.215828125,-1.0169830322265625,-0.0538482666015625,-0.0612945556640625
1772534492071844400,3.22584423828125,-1.0465087890625,-0.0887298583984375,-0.0782470703125
1772534492081861400,3.235861328125,-1.0602264404296875,-0.1223602294921875,-0.1005706787109375
1772534492091877000,3.245877197265625,-1.061859130859375,-0.14349365234375,-0.1204071044921875
1772534492101894100,3.25589404296875,-1.048309326171875,-0.1660919189453125,-0.1280975341796875
1772534492111910400,3.265910400390625,-1.0378570556640625,-0.1793670654296875,-0.1313323974609375
1772534492121927200,3.27592724609375,-1.02984619140625,-0.1851654052734375,-0.1395416259765625
1772534492131943200,3.285943115234375,-1.026641845703125,-0.198699951171875,-0.134796142578125
1772534492141960200,3.295960205078125,-1.01959228515625,-0.2182769775390625,-0.1305694580078125
1772534492151976400,3.3059765625,-0.994659423828125,-0.228057861328125,-0.1341705322265625
1772534492161992200,3.3159921875,-0.9672088623046875,-0.2289581298828125,-0.1341552734375
1772534492172009200,3.32600927734375,-0.927337646484375,-0.2343902587890625,-0.115081787109375
1772534492182025200,3.336025146484375,-0.87396240234375,-0.2336578369140625,-0.0947265625
1772534492192042200,3.346042236328125,-0.8261566162109375,-0.2190399169921875,-0.077789306640625
1772534492202058200,3.356058349609375,-0.7986297607421875,-0.205230712890625,-0.052947998046875
1772534492212075300,3.3660751953125,-0.779327392578125,-0.20513916015625,-0.02203369140625
1772534492222091300,3.37609130859375,-0.776458740234375,-0.201904296875,-0.0081329345703125
1772534492232108300,3.3861083984375,-0.770843505859375,-0.1970977783203125,-0.015869140625
1772534492242124300,3.396124267578125,-0.7654876708984375,-0.206268310546875,-0.0145721435546875
1772534492252141300,3.406141357421875,-0.7700653076171875,-0.21710205078125,-0.0222930908203125
1772534492262157300,3.4161572265625,-0.77978515625,-0.2303314208984375,-0.03179931640625
1772534492272174300,3.42617431640625,-0.7818756103515625,-0.2431182861328125,-0.0391387939453125
1772534492282190300,3.4361904296875,-0.7856597900390625,-0.2531280517578125,-0.051544189453125
1772534492292206300,3.446206298828125,-0.78790283203125,-0.2640838623046875,-0.068878173828125
1772534492302223000,3.45622314453125,-0.79339599609375,-0.27142333984375,-0.0839996337890625
1772534492312239000,3.466239013671875,-0.7929229736328125,-0.277191162109375,-0.0914459228515625
1772534492322256400,3.47625634765625,-0.7938385009765625,-0.284698486328125,-0.093994140625
1772534492332272400,3.4862724609375,-0.800628662109375,-0.2859039306640625,-0.095062255859375
1772534492342289200,3.4962890625,-0.811279296875,-0.2895050048828125,-0.0966796875
1772534492352305200,3.50630517578125,-0.8162689208984375,-0.2974700927734375,-0.0914154052734375
1772534492362322400,3.516322509765625,-0.84625244140625,-0.3014678955078125,-0.0818023681640625
1772534492372338200,3.526338134765625,-0.8868560791015625,-0.3040313720703125,-0.0615386962890625
1772534492382355200,3.536355224609375,-0.92840576171875,-0.299652099609375,-0.0521240234375
1772534492392371200,3.54637109375,-0.966583251953125,-0.2918548583984375,-0.0552825927734375
1772534492402388200,3.55638818359375,-1.0075225830078125,-0.290740966796875,-0.059906005859375
1772534492412404200,3.566404296875,-1.046783447265625,-0.2912750244140625,-0.0585479736328125
1772534492422420200,3.576420166015625,-1.0793914794921875,-0.2815399169921875,-0.0643157958984375
1772534492432437200,3.586437255859375,-1.119903564453125,-0.2691497802734375,-0.0796356201171875
1772534492442453200,3.596453369140625,-1.1566162109375,-0.2633514404296875,-0.0888214111328125
1772534492452470300,3.60647021484375,-1.1763153076171875,-0.2548675537109375,-0.0878448486328125
1772534492462486300,3.616486328125,-1.1689605712890625,-0.237213134765625,-0.0946044921875
1772534492472503300,3.62650341796875,-1.15313720703125,-0.2176361083984375,-0.0902252197265625
1772534492482519000,3.63651904296875,-1.129425048828125,-0.208465576171875,-0.074310302734375
1772534492492536300,3.646536376953125,-1.0963897705078125,-0.2059783935546875,-0.0735015869140625
1772534492502552300,3.65655224609375,-1.079071044921875,-0.19512939453125,-0.0684356689453125
1772534492512569000,3.666569091796875,-1.09869384765625,-0.1762237548828125,-0.047271728515625
1772534492522585000,3.676585205078125,-1.140045166015625,-0.1659698486328125,-0.0244903564453125
1772534492532602400,3.686602294921875,-1.186492919921875,-0.15911865234375,-0.0205841064453125
1772534492542618400,3.696618408203125,-1.2242584228515625,-0.15386962890625,-0.03338623046875
1772534492552635000,3.706634765625,-1.2440643310546875,-0.154571533203125,-0.05279541015625
1772534492562651000,3.71665087890625,-1.253082275390625,-0.156524658203125,-0.0778961181640625
1772534492572667000,3.7266669921875,-1.2468109130859375,-0.1669769287109375,-0.10467529296875
1772534492582684000,3.736683837890625,-1.21783447265625,-0.171966552734375,-0.1294708251953125
1772534492592699600,3.74669970703125,-1.178497314453125,-0.1673431396484375,-0.144287109375
1772534492602717000,3.756717041015625,-1.1393890380859375,-0.1550445556640625,-0.140045166015625
1772534492612733000,3.76673291015625,-1.1053314208984375,-0.1429443359375,-0.125701904296875
1772534492622749700,3.776749755859375,-1.077423095703125,-0.1304931640625,-0.102813720703125
1772534492632765700,3.786765625,-1.0669708251953125,-0.11395263671875,-0.076690673828125
1772534492642783000,3.796782958984375,-1.070648193359375,-0.095184326171875,-0.0485687255859375
1772534492652799000,3.806799072265625,-1.0663604736328125,-0.07745361328125,-0.0313720703125
1772534492662815700,3.816815673828125,-1.051971435546875,-0.064422607421875,-0.0205535888671875
1772534492672831700,3.826831787109375,-1.0394287109375,-0.0561370849609375,-0.0171051025390625
1772534492682849000,3.83684912109375,-1.0146331787109375,-0.04962158203125,-0.024261474609375
1772534492692864800,3.84686474609375,-0.9858856201171875,-0.0490875244140625,-0.0486297607421875
1772534492702880800,3.856880859375,-0.9627532958984375,-0.061920166015625,-0.0717926025390625
1772534492712897800,3.866897705078125,-0.95135498046875,-0.076385498046875,-0.0925140380859375
1772534492722914000,3.8769140625,-0.9522247314453125,-0.0955810546875,-0.10980224609375
1772534492732930800,3.886930908203125,-0.9650115966796875,-0.1101226806640625,-0.1181488037109375
1772534492742946800,3.89694677734375,-0.978546142578125,-0.108673095703125,-0.1152496337890625
1772534492752963800,3.9069638671875,-0.987396240234375,-0.103363037109375,-0.1183929443359375
1772534492762980000,3.91697998046875,-0.9962005615234375,-0.1008758544921875,-0.1078033447265625
1772534492772996900,3.926996826171875,-0.9888153076171875,-0.093902587890625,-0.083740234375
1772534492783012900,3.937012939453125,-0.9554901123046875,-0.0849609375,-0.056396484375
1772534492793030000,3.94702978515625,-0.9112701416015625,-0.0737762451171875,-0.024169921875
1772534492803045600,3.957045654296875,-0.8648223876953125,-0.0655670166015625,0.00921630859375
1772534492813063000,3.96706298828125,-0.8267974853515625,-0.060546875,0.0313568115234375
1772534492823079000,3.977078857421875,-0.7959136962890625,-0.05816650390625,0.0428619384765625
1772534492833095000,3.987094970703125,-0.782440185546875,-0.0695343017578125,0.0515899658203125
1772534492843111700,3.997111572265625,-0.7751617431640625,-0.088531494140625,0.058197021484375
1772534492853128000,4.0071279296875,-0.77337646484375,-0.1020355224609375,0.0526275634765625
1772534492863145000,4.01714501953125,-0.7801055908203125,-0.114776611328125,0.0434112548828125
1772534492873161000,4.027160888671875,-0.7930145263671875,-0.1297454833984375,0.040740966796875
1772534492883177700,4.037177734375,-0.819976806640625,-0.140838623046875,0.0424041748046875
1772534492893194000,4.047194091796875,-0.848663330078125,-0.1535797119140625,0.03826904296875
1772534492903210800,4.057210693359375,-0.8692169189453125,-0.168365478515625,0.015350341796875
1772534492913226800,4.067226806640625,-0.8914031982421875,-0.1807708740234375,-0.01080322265625
1772534492923243800,4.077243896484375,-0.9008636474609375,-0.1981048583984375,-0.0237579345703125
1772534492933260000,4.087260009765625,-0.9040985107421875,-0.213348388671875,-0.02923583984375
1772534492943276800,4.09727685546875,-0.90521240234375,-0.22216796875,-0.0307769775390625
1772534492953292800,4.107292724609375,-0.9065704345703125,-0.225433349609375,-0.031951904296875
1772534492963309800,4.117309814453125,-0.9182586669921875,-0.2292022705078125,-0.0267333984375
1772534492973326000,4.127326171875,-0.926055908203125,-0.2340240478515625,-0.0200347900390625
1772534492983341800,4.137341796875,-0.92633056640625,-0.2348785400390625,-0.02691650390625
1772534492993358800,4.14735888671875,-0.9286346435546875,-0.2358245849609375,-0.031585693359375
1772534493003374800,4.157374755859375,-0.9290618896484375,-0.2433929443359375,-0.0295867919921875
1772534493013392000,4.167391845703125,-0.9291229248046875,-0.2388458251953125,-0.027557373046875
1772534493023407900,4.177407958984375,-0.9203338623046875,-0.234222412109375,-0.0232086181640625
1772534493033425000,4.1874248046875,-0.9162139892578125,-0.240325927734375,-0.0215911865234375
1772534493043441000,4.19744091796875,-0.92510986328125,-0.2470855712890625,-0.0218505859375
1772534493053458000,4.2074580078125,-0.9403533935546875,-0.2552947998046875,-0.0251922607421875
1772534493063474000,4.217473876953125,-0.9614715576171875,-0.2701416015625,-0.0293121337890625
1772534493073491000,4.227490966796875,-0.988037109375,-0.285491943359375,-0.0222930908203125
1772534493083507000,4.2375068359375,-1.017242431640625,-0.294921875,-0.0123138427734375
1772534493093524000,4.24752392578125,-1.033905029296875,-0.3007965087890625,-0.019866943359375
1772534493103540000,4.2575400390625,-1.0514373779296875,-0.29559326171875,-0.0278167724609375
1772534493113556700,4.267556640625,-1.0554351806640625,-0.28509521484375,-0.023895263671875
1772534493123572700,4.27757275390625,-1.054962158203125,-0.275482177734375,-0.0220184326171875
1772534493133588700,4.287588623046875,-1.0448760986328125,-0.263580322265625,-0.0337066650390625
1772534493143606000,4.29760595703125,-1.0240936279296875,-0.249542236328125,-0.046722412109375
1772534493153622000,4.3076220703125,-1.0169830322265625,-0.23370361328125,-0.0582733154296875
1772534493163638800,4.317638671875,-1.036651611328125,-0.2225341796875,-0.067291259765625
1772534493173654800,4.32765478515625,-1.0602264404296875,-0.224822998046875,-0.0595703125
1772534493183672000,4.337672119140625,-1.0771331787109375,-0.223785400390625,-0.0586700439453125
1772534493193687800,4.347687744140625,-1.0874786376953125,-0.217681884765625,-0.062713623046875
1772534493203704800,4.357704833984375,-1.0939483642578125,-0.21295166015625,-0.0697784423828125
1772534493213720800,4.367720947265625,-1.1097869873046875,-0.20751953125,-0.078948974609375
1772534493223737900,4.37773779296875,-1.1388092041015625,-0.19964599609375,-0.0921630859375
1772534493233753900,4.38775390625,-1.172760009765625,-0.1922454833984375,-0.109130859375
1772534493243771000,4.39777099609375,-1.20513916015625,-0.183258056640625,-0.12823486328125
1772534493253787000,4.407786865234375,-1.227691650390625,-0.17431640625,-0.1481475830078125
1772534493263804000,4.417803955078125,-1.224029541015625,-0.1663055419921875,-0.1715545654296875
1772534493273820000,4.42781982421875,-1.194793701171875,-0.156036376953125,-0.1908416748046875
1772534493283836000,4.4378359375,-1.1549224853515625,-0.142425537109375,-0.1925506591796875
1772534493293853000,4.44785302734375,-1.1031036376953125,-0.1252593994140625,-0.1818084716796875
1772534493303868700,4.45786865234375,-1.0462646484375,-0.1045684814453125,-0.1719818115234375
1772534493313886000,4.467885986328125,-1.003814697265625,-0.0890350341796875,-0.1533660888671875
1772534493323902000,4.47790185546875,-0.9795989990234375,-0.0805816650390625,-0.1329803466796875
1772534493333918700,4.487918701171875,-0.958038330078125,-0.07379150390625,-0.1189117431640625
1772534493343934700,4.497934814453125,-0.951202392578125,-0.0734100341796875,-0.1076507568359375
1772534493353952000,4.507951904296875,-0.953033447265625,-0.0819091796875,-0.0927886962890625
1772534493363968000,4.517968017578125,-0.9510345458984375,-0.10272216796875,-0.078155517578125
1772534493373984800,4.52798486328125,-0.9566497802734375,-0.1182403564453125,-0.07025146484375
1772534493384000800,4.538000732421875,-0.964111328125,-0.129364013671875,-0.0687713623046875
1772534493394018000,4.54801806640625,-0.9899139404296875,-0.14697265625,-0.057098388671875
1772534493404033800,4.55803369140625,-1.030364990234375,-0.165924072265625,-0.0398406982421875
1772534493414050800,4.56805078125,-1.058502197265625,-0.178009033203125,-0.0346221923828125
1772534493424066800,4.57806689453125,-1.0738677978515625,-0.1844940185546875,-0.0399322509765625
1772534493434083000,4.5880830078125,-1.081787109375,-0.191925048828125,-0.047943115234375
1772534493444099800,4.598099853515625,-1.0566558837890625,-0.2042236328125,-0.0516510009765625
1772534493454115800,4.60811572265625,-1.0070343017578125,-0.2131500244140625,-0.0574188232421875
1772534493464132900,4.6181328125,-0.9557952880859375,-0.21209716796875,-0.0570831298828125
1772534493474148900,4.62814892578125,-0.8976593017578125,-0.209503173828125,-0.0432891845703125
1772534493484166000,4.638165771484375,-0.8427734375,-0.21075439453125,-0.0327606201171875
1772534493494182000,4.648181884765625,-0.7969207763671875,-0.21356201171875,-0.0260009765625
1772534493504199000,4.658198974609375,-0.76373291015625,-0.2106475830078125,-0.0153656005859375
1772534493514214700,4.668214599609375,-0.7396697998046875,-0.20635986328125,-0.000457763671875
1772534493524232000,4.67823193359375,-0.7139739990234375,-0.1980133056640625,0.0016326904296875
1772534493534248000,4.688248046875,-0.7019195556640625,-0.195526123046875,-0.0018310546875
1772534493544264700,4.6982646484375,-0.68743896484375,-0.2046661376953125,-0.0095062255859375
1772534493554281200,4.70828125,-0.6881256103515625,-0.212432861328125,-0.0153045654296875
1772534493564298200,4.71829833984375,-0.708709716796875,-0.2220458984375,-0.021453857421875
1772534493574314200,4.728314208984375,-0.7161865234375,-0.2368011474609375,-0.0310821533203125
1772534493584331300,4.738331298828125,-0.716400146484375,-0.254486083984375,-0.0454864501953125
1772534493594347300,4.74834716796875,-0.7080230712890625,-0.2694091796875,-0.051971435546875
1772534493604363300,4.75836328125,-0.7047882080078125,-0.2778167724609375,-0.0540618896484375
1772534493614380300,4.76838037109375,-0.7022857666015625,-0.278564453125,-0.06182861328125
1772534493624396300,4.778396240234375,-0.7092437744140625,-0.2878265380859375,-0.0696258544921875
1772534493634413300,4.788413330078125,-0.732025146484375,-0.3015594482421875,-0.068023681640625
1772534493644429300,4.79842919921875,-0.7833404541015625,-0.306549072265625,-0.0616912841796875
1772534493654446000,4.808446044921875,-0.8519439697265625,-0.3041534423828125,-0.0467681884765625
1772534493664462300,4.81846240234375,-0.917144775390625,-0.3059234619140625,-0.03399658203125
1772534493674479400,4.828479248046875,-0.9794921875,-0.3132171630859375,-0.0224761962890625
1772534493684495000,4.8384951171875,-1.02520751953125,-0.31201171875,-0.006805419921875
1772534493694512000,4.84851220703125,-1.051483154296875,-0.303253173828125,0.0017547607421875
1772534493704528400,4.8585283203125,-1.0729217529296875,-0.2934112548828125,-0.000518798828125
1772534493714545200,4.868545166015625,-1.1030120849609375,-0.287933349609375,-0.0043487548828125
1772534493724561200,4.87856103515625,-1.1298980712890625,-0.28900146484375,-0.0070037841796875
1772534493734578200,4.888578125,-1.1508941650390625,-0.2879638671875,-0.01458740234375
1772534493744594400,4.898594482421875,-1.1573638916015625,-0.2776336669921875,-0.021820068359375
1772534493754611200,4.908611083984375,-1.1665802001953125,-0.263824462890625,-0.01898193359375
1772534493764627200,4.918627197265625,-1.178558349609375,-0.2500457763671875,-0.0137786865234375
1772534493774643200,4.928643310546875,-1.1558074951171875,-0.24725341796875,-0.0260162353515625
1772534493784660200,4.93866015625,-1.1172332763671875,-0.24169921875,-0.04718017578125
1772534493794676200,4.94867626953125,-1.082244873046875,-0.2275238037109375,-0.05303955078125
1772534493804693200,4.958693359375,-1.06463623046875,-0.2113189697265625,-0.043060302734375
1772534493814709200,4.968709228515625,-1.0592041015625,-0.18768310546875,-0.031036376953125
1772534493824726300,4.978726318359375,-1.065643310546875,-0.1671142578125,-0.0207672119140625
1772534493834742300,4.9887421875,-1.0901641845703125,-0.166748046875,-0.015594482421875
1772534493844759300,4.99875927734375,-1.1147003173828125,-0.1825103759765625,-0.009674072265625
1772534493854775300,5.008775390625,-1.133148193359375,-0.19482421875,-0.0164642333984375
1772534493864792300,5.018792236328125,-1.1194000244140625,-0.21075439453125,-0.0316162109375
1772534493874808300,5.028808349609375,-1.0983734130859375,-0.222259521484375,-0.0367279052734375
1772534493884825300,5.038825439453125,-1.0827484130859375,-0.208526611328125,-0.0408477783203125
1772534493894841000,5.048841064453125,-1.0691070556640625,-0.1883544921875,-0.052764892578125
1772534493904858400,5.0588583984375,-1.069854736328125,-0.174774169921875,-0.0597076416015625
1772534493914874400,5.068874267578125,-1.0802154541015625,-0.1668548583984375,-0.0683135986328125
1772534493924891100,5.07889111328125,-1.0857391357421875,-0.1652069091796875,-0.074005126953125
1772534493934907100,5.0889072265625,-1.0890350341796875,-0.169036865234375,-0.07818603515625
1772534493944923100,5.098923095703125,-1.0880584716796875,-0.1744384765625,-0.0774993896484375
1772534493954940400,5.1089404296875,-1.1038665771484375,-0.1766815185546875,-0.0779876708984375
1772534493964956200,5.1189560546875,-1.1254119873046875,-0.17559814453125,-0.0777435302734375
1772534493974973200,5.12897314453125,-1.1538543701171875,-0.1716156005859375,-0.0781707763671875
1772534493984989200,5.1389892578125,-1.1843109130859375,-0.1583099365234375,-0.0738677978515625
1772534493995006200,5.149006103515625,-1.216796875,-0.1437835693359375,-0.06890869140625
1772534494005022200,5.159022216796875,-1.229522705078125,-0.1334991455078125,-0.0654754638671875
1772534494015039200,5.169039306640625,-1.21575927734375,-0.1220245361328125,-0.06207275390625
1772534494025055200,5.17905517578125,-1.1807098388671875,-0.1111602783203125,-0.0545501708984375
1772534494035072300,5.189072265625,-1.11785888671875,-0.1015625,-0.0543060302734375
1772534494045088300,5.199088134765625,-1.045440673828125,-0.095062255859375,-0.0516815185546875
1772534494055105300,5.209105224609375,-0.9723968505859375,-0.0877685546875,-0.0441741943359375
1772534494065121300,5.219121337890625,-0.9202728271484375,-0.0864410400390625,-0.034698486328125
1772534494075138300,5.22913818359375,-0.9064483642578125,-0.090118408203125,-0.02978515625
1772534494085154300,5.239154296875,-0.905670166015625,-0.10528564453125,-0.0180206298828125
1772534494095171300,5.24917138671875,-0.8804168701171875,-0.115386962890625,-0.005767822265625
1772534494105187000,5.25918701171875,-0.8539886474609375,-0.107666015625,0.005462646484375
1772534494115203000,5.269203125,-0.8335113525390625,-0.1020050048828125,0.021331787109375
1772534494125220400,5.279220458984375,-0.8192596435546875,-0.09893798828125,0.03533935546875
1772534494135236400,5.289236328125,-0.7988433837890625,-0.1018218994140625,0.040435791015625
1772534494145253000,5.299253173828125,-0.783447265625,-0.1037139892578125,0.0379486083984375
1772534494155269000,5.30926904296875,-0.7801666259765625,-0.1067962646484375,0.0337677001953125
1772534494165912000,5.319912109375,-0.7893829345703125,-0.1225738525390625,0.017730712890625
1772534494175928300,5.32992822265625,-0.81439208984375,-0.1461639404296875,-0.0047607421875
1772534494185945300,5.3399453125,-0.8295135498046875,-0.1673583984375,-0.0233154296875
1772534494195961300,5.34996142578125,-0.842742919921875,-0.1833648681640625,-0.041290283203125
1772534494205978000,5.35997802734375,-0.8403472900390625,-0.2019195556640625,-0.0524139404296875
1772534494215994400,5.369994384765625,-0.8331298828125,-0.21881103515625,-0.05401611328125
1772534494226011400,5.380011474609375,-0.826507568359375,-0.223846435546875,-0.052734375
1772534494236027100,5.390027099609375,-0.8164520263671875,-0.22802734375,-0.0458526611328125
1772534494246044200,5.400044189453125,-0.8182373046875,-0.2374114990234375,-0.0366058349609375
1772534494256060400,5.410060302734375,-0.8172607421875,-0.2471923828125,-0.0315399169921875
1772534494266076400,5.420076416015625,-0.8143463134765625,-0.251617431640625,-0.0261993408203125
1772534494276093200,5.43009326171875,-0.8140411376953125,-0.2512664794921875,-0.021575927734375
1772534494286109200,5.440109130859375,-0.8104248046875,-0.255828857421875,-0.021697998046875
1772534494296126200,5.450126220703125,-0.813690185546875,-0.2547607421875,-0.0245513916015625
1772534494306142200,5.46014208984375,-0.82489013671875,-0.2432403564453125,-0.0217132568359375
1772534494316159200,5.4701591796875,-0.8245849609375,-0.237823486328125,-0.02685546875
1772534494326175200,5.48017529296875,-0.826019287109375,-0.2354736328125,-0.029510498046875
1772534494336192300,5.490192138671875,-0.843109130859375,-0.227752685546875,-0.0255126953125
1772534494346208300,5.500208251953125,-0.848907470703125,-0.22308349609375,-0.029052734375
1772534494356225300,5.510225341796875,-0.866363525390625,-0.2160797119140625,-0.0384979248046875
1772534494366241300,5.5202412109375,-0.8925933837890625,-0.21624755859375,-0.04345703125
1772534494376258000,5.530258056640625,-0.924072265625,-0.2247314453125,-0.041290283203125
1772534494386274300,5.5402744140625,-0.9752349853515625,-0.2269134521484375,-0.0374755859375
1772534494396291300,5.550291259765625,-1.03643798828125,-0.2180938720703125,-0.036407470703125
1772534494406307300,5.560307373046875,-1.11822509765625,-0.228851318359375,-0.0357818603515625
1772534494416324000,5.570323974609375,-1.2129058837890625,-0.2536163330078125,-0.034637451171875
1772534494426340400,5.58034033203125,-1.290435791015625,-0.2621917724609375,-0.055084228515625
1772534494436357400,5.590357421875,-1.3436126708984375,-0.25372314453125,-0.09674072265625
1772534494446373000,5.600373046875,-1.3801422119140625,-0.2354583740234375,-0.128173828125
1772534494456389000,5.61038916015625,-1.389373779296875,-0.209014892578125,-0.1522369384765625
1772534494466406400,5.620406494140625,-1.3707122802734375,-0.1791839599609375,-0.179046630859375
1772534494476422400,5.63042236328125,-1.3431549072265625,-0.1551513671875,-0.191375732421875
1772534494486439200,5.640439208984375,-1.3307647705078125,-0.142669677734375,-0.1778411865234375
1772534494496455200,5.650455078125,-1.3145904541015625,-0.1427001953125,-0.1383819580078125
1772534494506472400,5.660472412109375,-1.292938232421875,-0.1479644775390625,-0.1007080078125
1772534494516489200,5.6704892578125,-1.26971435546875,-0.1394195556640625,-0.070587158203125
1772534494526505200,5.680505126953125,-1.229766845703125,-0.123809814453125,-0.0548858642578125
1772534494536521200,5.690521240234375,-1.1754608154296875,-0.0973052978515625,-0.050445556640625
1772534494546538200,5.700538330078125,-1.150970458984375,-0.0636749267578125,-0.021820068359375
1772534494556554000,5.710553955078125,-1.1182403564453125,-0.0335235595703125,0.0250244140625
1772534494566571000,5.720571044921875,-1.0552215576171875,-0.0089263916015625,0.0486907958984375
1772534494576587000,5.7305869140625,-0.9873809814453125,0.00726318359375,0.053314208984375
1772534494586604000,5.74060400390625,-0.9431610107421875,0.02618408203125,0.0452423095703125
1772534494596620000,5.7506201171875,-0.92340087890625,0.0191192626953125,0.0118865966796875
1772534494606637000,5.760636962890625,-0.90496826171875,-0.0037841796875,-0.0355224609375
1772534494616653000,5.770653076171875,-0.9038848876953125,-0.0257415771484375,-0.0928802490234375
1772534494626670000,5.780670166015625,-0.913299560546875,-0.059051513671875,-0.145111083984375
1772534494636686000,5.79068603515625,-0.9217987060546875,-0.10137939453125,-0.17767333984375
1772534494646703000,5.800703125,-0.928619384765625,-0.145477294921875,-0.191619873046875
1772534494656718800,5.81071875,-0.95361328125,-0.18389892578125,-0.1894378662109375
1772534494666736000,5.820736083984375,-0.9806365966796875,-0.210693359375,-0.1894073486328125
1772534494676752100,5.830752197265625,-0.99993896484375,-0.22357177734375,-0.196502685546875
1772534494686769000,5.840768798828125,-1.0101318359375,-0.2280426025390625,-0.198822021484375
1772534494696785000,5.850784912109375,-1.0018310546875,-0.2141571044921875,-0.19024658203125
1772534494706802200,5.86080224609375,-0.9735870361328125,-0.1887054443359375,-0.1733551025390625
1772534494716818200,5.870818115234375,-0.9403533935546875,-0.167266845703125,-0.1393890380859375
1772534494726834200,5.880834228515625,-0.9149017333984375,-0.1546783447265625,-0.10357666015625
1772534494736851000,5.890850830078125,-0.8878326416015625,-0.1494598388671875,-0.0824737548828125
1772534494746867000,5.900866943359375,-0.871551513671875,-0.1488494873046875,-0.06939697265625
1772534494756884200,5.91088427734375,-0.8636932373046875,-0.15826416015625,-0.0604248046875
1772534494766900000,5.92089990234375,-0.8327484130859375,-0.1785430908203125,-0.06292724609375
1772534494776917000,5.9309169921875,-0.8031005859375,-0.1846923828125,-0.069061279296875
1772534494786933000,5.94093310546875,-0.7874755859375,-0.194671630859375,-0.0740509033203125
1772534494796950000,5.950949951171875,-0.7722625732421875,-0.2126007080078125,-0.082244873046875
1772534494806966000,5.960966064453125,-0.77142333984375,-0.222259521484375,-0.0967864990234375
1772534494816983000,5.970983154296875,-0.7809600830078125,-0.2323455810546875,-0.10986328125
1772534494826999000,5.9809990234375,-0.78302001953125,-0.2520599365234375,-0.128173828125
1772534494837016000,5.99101611328125,-0.8004608154296875,-0.2728271484375,-0.1365966796875
1772534494847032000,6.001031982421875,-0.81463623046875,-0.2882537841796875,-0.13433837890625
1772534494857049000,6.011049072265625,-0.8351287841796875,-0.3025665283203125,-0.1272430419921875
1772534494867064800,6.02106494140625,-0.8441009521484375,-0.31451416015625,-0.1140594482421875
1772534494877082000,6.03108203125,-0.8419647216796875,-0.320648193359375,-0.0975189208984375
1772534494887098000,6.04109814453125,-0.83636474609375,-0.3153076171875,-0.0754547119140625
1772534494897115000,6.051114990234375,-0.8254241943359375,-0.308837890625,-0.0614776611328125
1772534494907131000,6.061130859375,-0.80511474609375,-0.3216705322265625,-0.0665435791015625
1772534494917148200,6.071148193359375,-0.798614501953125,-0.3341217041015625,-0.05804443359375
1772534494927164200,6.0811640625,-0.7960968017578125,-0.332275390625,-0.03900146484375
1772534494937181000,6.091180908203125,-0.8157196044921875,-0.3251953125,-0.01470947265625
1772534494947197000,6.101197021484375,-0.8642120361328125,-0.3154754638671875,0.0234375
1772534494957213000,6.111212890625,-0.933624267578125,-0.2980499267578125,0.0523529052734375
1772534494967230200,6.121230224609375,-1.0085601806640625,-0.2740936279296875,0.0590972900390625
1772534494977246000,6.131245849609375,-1.1030731201171875,-0.260833740234375,0.05999755859375
1772534494987263000,6.141262939453125,-1.1681060791015625,-0.2581329345703125,0.051239013671875
1772534494997279000,6.151279052734375,-1.1828155517578125,-0.2425689697265625,0.024749755859375
1772534495007296000,6.1612958984375,-1.1603546142578125,-0.2193450927734375,-0.0025787353515625
1772534495017312000,6.17131201171875,-1.127777099609375,-0.1925506591796875,-0.013427734375
1772534495027329000,6.1813291015625,-1.104644775390625,-0.17333984375,-0.0170135498046875
1772534495037345000,6.191344970703125,-1.0845947265625,-0.1587066650390625,-0.0341339111328125
1772534495047362000,6.201362060546875,-1.0732574462890625,-0.13720703125,-0.0577239990234375
1772534495057378000,6.2113779296875,-1.0824432373046875,-0.1211090087890625,-0.0684814453125
1772534495067395000,6.22139501953125,-1.109771728515625,-0.1120452880859375,-0.063323974609375
1772534495077410800,6.231410888671875,-1.1386871337890625,-0.12005615234375,-0.0573883056640625
1772534495087428000,6.241427978515625,-1.1563873291015625,-0.127532958984375,-0.064605712890625
1772534495097444000,6.251444091796875,-1.18829345703125,-0.1269683837890625,-0.0637054443359375
1772534495107460900,6.2614609375,-1.20172119140625,-0.1275634765625,-0.052886962890625
1772534495117476900,6.271476806640625,-1.1987457275390625,-0.124847412109375,-0.0589752197265625
1772534495127494100,6.281494140625,-1.17169189453125,-0.1240081787109375,-0.0698394775390625
1772534495137510100,6.29151025390625,-1.142120361328125,-0.123565673828125,-0.0723419189453125
1772534495147527000,6.30152685546875,-1.11590576171875,-0.121673583984375,-0.073272705078125
1772534495157543000,6.31154296875,-1.0877838134765625,-0.1237945556640625,-0.0758209228515625
1772534495167560200,6.321560302734375,-1.097137451171875,-0.1216278076171875,-0.077301025390625
1772534495177576200,6.331576171875,-1.1493682861328125,-0.122283935546875,-0.0710296630859375
1772534495187593000,6.341593017578125,-1.189666748046875,-0.1364593505859375,-0.0680084228515625
1772534495197609000,6.35160888671875,-1.2141265869140625,-0.14990234375,-0.0742034912109375
1772534495207625200,6.361625244140625,-1.2226715087890625,-0.1534271240234375,-0.07757568359375
1772534495217642000,6.37164208984375,-1.2089080810546875,-0.1536865234375,-0.0742950439453125
1772534495227658000,6.381657958984375,-1.17364501953125,-0.1612396240234375,-0.070709228515625
1772534495237675000,6.391675048828125,-1.1338043212890625,-0.1692657470703125,-0.0566558837890625
1772534495247691000,6.40169091796875,-1.1073455810546875,-0.1713104248046875,-0.0390777587890625
1772534495257708000,6.4117080078125,-1.0909881591796875,-0.1709442138671875,-0.0231475830078125
1772534495267724000,6.42172412109375,-1.0836639404296875,-0.1714019775390625,-0.00799560546875
1772534495277741000,6.431740966796875,-1.056640625,-0.1687469482421875,0.00079345703125
1772534495287756800,6.4417568359375,-1.0142974853515625,-0.160430908203125,0.0023040771484375
1772534495297774000,6.451774169921875,-0.9694976806640625,-0.1564483642578125,0.0104217529296875
1772534495307790000,6.4617900390625,-0.9302215576171875,-0.1458282470703125,0.0315704345703125
1772534495317806800,6.471806884765625,-0.8948211669921875,-0.1366424560546875,0.052581787109375
1772534495327822800,6.48182275390625,-0.8623199462890625,-0.126556396484375,0.0764007568359375
1772534495337840000,6.491840087890625,-0.8246307373046875,-0.1194000244140625,0.088958740234375
1772534495347856100,6.501856201171875,-0.7896575927734375,-0.1135711669921875,0.096527099609375
1772534495357873000,6.511872802734375,-0.7700347900390625,-0.115692138671875,0.1049652099609375
1772534495367889000,6.521888916015625,-0.76116943359375,-0.122711181640625,0.10504150390625
1772534495377906200,6.53190625,-0.754119873046875,-0.134033203125,0.085662841796875
1772534495387922200,6.541922119140625,-0.7482147216796875,-0.149658203125,0.0644683837890625
1772534495397939000,6.55193896484375,-0.7604217529296875,-0.1623687744140625,0.048492431640625
1772534495407955000,6.561954833984375,-0.7856903076171875,-0.1668853759765625,0.041778564453125
1772534495417972000,6.571971923828125,-0.833526611328125,-0.1717681884765625,0.0294342041015625
1772534495427988000,6.581988037109375,-0.874603271484375,-0.1894989013671875,0.0105133056640625
1772534495438005000,6.5920048828125,-0.8802337646484375,-0.212677001953125,0.00189208984375
1772534495448021000,6.60202099609375,-0.87542724609375,-0.2150421142578125,0.0096435546875
1772534495458037200,6.612037353515625,-0.8488616943359375,-0.2158966064453125,0.0244293212890625
1772534495468054000,6.622053955078125,-0.8230743408203125,-0.223052978515625,0.0404052734375
1772534495478070000,6.632070068359375,-0.8201904296875,-0.2273406982421875,0.0469512939453125
1772534495488087000,6.642087158203125,-0.8265380859375,-0.22998046875,0.0477142333984375
1772534495498103000,6.65210302734375,-0.87628173828125,-0.2231597900390625,0.0487060546875
1772534495508120000,6.6621201171875,-0.9207763671875,-0.2287750244140625,0.0524749755859375
1772534495518136000,6.672135986328125,-0.9646453857421875,-0.2333831787109375,0.056793212890625
1772534495528152800,6.68215283203125,-1.0058441162109375,-0.226593017578125,0.06671142578125
1772534495538169000,6.692169189453125,-1.0578155517578125,-0.2246246337890625,0.0776824951171875
1772534495548186000,6.70218603515625,-1.103515625,-0.226348876953125,0.08734130859375
1772534495558202000,6.7122021484375,-1.130859375,-0.2236328125,0.0934906005859375
1772534495568219100,6.72221923828125,-1.146209716796875,-0.2193450927734375,0.0856170654296875
1772534495578235100,6.732235107421875,-1.1307373046875,-0.22052001953125,0.072723388671875
1772534495588252200,6.742252197265625,-1.09954833984375,-0.2220458984375,0.063934326171875
1772534495598268200,6.75226806640625,-1.0628204345703125,-0.2115020751953125,0.0571441650390625
1772534495608285200,6.76228515625,-1.01617431640625,-0.1986846923828125,0.048736572265625
1772534495618301200,6.77230126953125,-0.979248046875,-0.19281005859375,0.036865234375
1772534495628318000,6.78231787109375,-0.9473724365234375,-0.189300537109375,0.0272979736328125
1772534495638334000,6.792333984375,-0.9359588623046875,-0.1871337890625,0.0318603515625
1772534495648351200,6.802351318359375,-0.923187255859375,-0.1969451904296875,0.0366668701171875
1772534495658367200,6.8123671875,-0.9064483642578125,-0.2094268798828125,0.0281982421875
1772534495668384000,6.822384033203125,-0.891387939453125,-0.214874267578125,0.0153961181640625
1772534495678400000,6.83239990234375,-0.87579345703125,-0.216522216796875,0.00244140625
1772534495688417300,6.842417236328125,-0.8706207275390625,-0.2215423583984375,-0.0014801025390625
1772534495698433300,6.852433349609375,-0.8835906982421875,-0.2342529296875,-0.00408935546875
1772534495708450000,6.862449951171875,-0.9122467041015625,-0.243255615234375,-0.00958251953125
1772534495718466000,6.872466064453125,-0.967071533203125,-0.24365234375,-0.0108642578125
1772534495728482000,6.88248193359375,-1.0166168212890625,-0.2420196533203125,-0.01171875
1772534495738499000,6.8924990234375,-1.0485992431640625,-0.2357025146484375,-0.01666259765625
1772534495748515000,6.90251513671875,-1.08746337890625,-0.2310943603515625,-0.021240234375
1772534495758532000,6.912531982421875,-1.10382080078125,-0.2360076904296875,-0.0161590576171875
1772534495768548000,6.922548095703125,-1.1068878173828125,-0.22882080078125,-0.0141448974609375
1772534495778565000,6.932565185546875,-1.0862579345703125,-0.2086944580078125,-0.0200042724609375
1772534495788581000,6.9425810546875,-1.072418212890625,-0.18133544921875,-0.018402099609375
1772534495798598100,6.95259814453125,-1.0513153076171875,-0.160736083984375,-0.010833740234375
1772534495808614000,6.96261376953125,-1.03692626953125,-0.1347198486328125,-0.00689697265625
1772534495818631200,6.972631103515625,-1.04473876953125,-0.1082916259765625,-0.005126953125
1772534495828647200,6.982647216796875,-1.0421905517578125,-0.0984344482421875,-0.0033416748046875
1772534495838664000,6.992663818359375,-1.043304443359375,-0.08709716796875,-0.00494384765625
1772534495848680000,7.002679931640625,-1.0634613037109375,-0.0771026611328125,0.000946044921875
1772534495858697200,7.012697265625,-1.08660888671875,-0.085479736328125,0.0017242431640625
1772534495868713200,7.022713134765625,-1.1083831787109375,-0.0969085693359375,-0.0186920166015625
1772534495878730000,7.03272998046875,-1.12701416015625,-0.10986328125,-0.04473876953125
1772534495888746000,7.04274609375,-1.1301116943359375,-0.128875732421875,-0.058929443359375
1772534495898763300,7.05276318359375,-1.1251220703125,-0.14190673828125,-0.067596435546875
1772534495908779300,7.062779296875,-1.1175384521484375,-0.15667724609375,-0.07666015625
1772534495918796000,7.072796142578125,-1.0873260498046875,-0.170684814453125,-0.0898895263671875
1772534495928812000,7.08281201171875,-1.057525634765625,-0.1772613525390625,-0.1056976318359375
1772534495938829000,7.0928291015625,-1.0273590087890625,-0.1858367919921875,-0.1063690185546875
1772534495948845000,7.102844970703125,-0.992889404296875,-0.191986083984375,-0.0969696044921875
1772534495958862000,7.112862060546875,-0.9608154296875,-0.1903228759765625,-0.0818023681640625
1772534495968878000,7.122878173828125,-0.929779052734375,-0.1862945556640625,-0.0641021728515625
1772534495978895000,7.13289501953125,-0.896270751953125,-0.1804351806640625,-0.051025390625
1772534495988911000,7.1429111328125,-0.866241455078125,-0.1740875244140625,-0.0443878173828125
1772534495998928100,7.15292822265625,-0.8331451416015625,-0.1735687255859375,-0.04376220703125
1772534496008944000,7.162944091796875,-0.824920654296875,-0.17218017578125,-0.0514984130859375
1772534496018961200,7.172961181640625,-0.869293212890625,-0.180267333984375,-0.06378173828125
1772534496028977200,7.18297705078125,-0.886138916015625,-0.21820068359375,-0.080169677734375
1772534496038993200,7.1929931640625,-0.893157958984375,-0.2343902587890625,-0.0958251953125
1772534496049010000,7.203010009765625,-0.88885498046875,-0.2283935546875,-0.1017303466796875
1772534496059026000,7.21302587890625,-0.8743896484375,-0.2324676513671875,-0.0971527099609375
1772534496069043200,7.223043212890625,-0.8471832275390625,-0.2301177978515625,-0.0893402099609375
1772534496079059200,7.23305908203125,-0.8288116455078125,-0.2297210693359375,-0.085174560546875
1772534496089076000,7.243075927734375,-0.83343505859375,-0.2302703857421875,-0.076690673828125
1772534496099092000,7.253092041015625,-0.8717041015625,-0.2387237548828125,-0.0631256103515625
1772534496109109200,7.263109130859375,-0.8858795166015625,-0.2530975341796875,-0.0596771240234375
1772534496119125200,7.273125244140625,-0.8795166015625,-0.2532806396484375,-0.05938720703125
1772534496129142000,7.28314208984375,-0.8704833984375,-0.242584228515625,-0.04791259765625
1772534496139158000,7.293157958984375,-0.8547821044921875,-0.2436981201171875,-0.0287017822265625
1772534496149175000,7.303175048828125,-0.84759521484375,-0.251129150390625,-0.0155792236328125
1772534496159191000,7.31319091796875,-0.8781890869140625,-0.2533111572265625,-0.015869140625
1772534496169208000,7.3232080078125,-0.9300384521484375,-0.2661895751953125,-0.0251007080078125
1772534496179224000,7.33322412109375,-0.97625732421875,-0.2805938720703125,-0.020263671875
1772534496189241000,7.343240966796875,-1.00439453125,-0.283416748046875,-0.0212554931640625
1772534496199257000,7.353257080078125,-1.0196990966796875,-0.277801513671875,-0.018157958984375
1772534496209274000,7.363274169921875,-1.0295562744140625,-0.2770233154296875,-0.0163421630859375
1772534496219290000,7.3732900390625,-1.0461578369140625,-0.2825469970703125,-0.0272369384765625
1772534496229307100,7.38330712890625,-1.055572509765625,-0.2932586669921875,-0.052032470703125
1772534496239323100,7.3933232421875,-1.0641326904296875,-0.298065185546875,-0.073211669921875
1772534496249340200,7.403340087890625,-1.0789031982421875,-0.290618896484375,-0.0723114013671875
1772534496259356000,7.41335595703125,-1.0919189453125,-0.2807464599609375,-0.0617828369140625
1772534496269373200,7.423373291015625,-1.1115875244140625,-0.2681884765625,-0.05780029296875
1772534496279389200,7.43338916015625,-1.156402587890625,-0.248077392578125,-0.06195068359375
1772534496289406000,7.443406005859375,-1.19268798828125,-0.23699951171875,-0.0557708740234375
1772534496299422000,7.453421875,-1.209503173828125,-0.2196044921875,-0.048248291015625
1772534496309439200,7.463439208984375,-1.2334136962890625,-0.1882476806640625,-0.0471038818359375
1772534496319455200,7.473455322265625,-1.198211669921875,-0.191009521484375,-0.0610504150390625
1772534496329472000,7.483471923828125,-1.1483306884765625,-0.1954803466796875,-0.1082000732421875
1772534496339488000,7.493488037109375,-1.0877685546875,-0.186492919921875,-0.140167236328125
1772534496349504300,7.503504150390625,-1.0215606689453125,-0.1798248291015625,-0.1212615966796875
1772534496359521000,7.51352099609375,-0.9682769775390625,-0.163543701171875,-0.0830230712890625
1772534496369537000,7.523537109375,-0.9537200927734375,-0.1370849609375,-0.038055419921875
1772534496379554000,7.533553955078125,-0.97613525390625,-0.1070404052734375,0.0020294189453125
1772534496389570300,7.5435703125,-1.01446533203125,-0.0731658935546875,0.0289764404296875
1772534496399587000,7.553587158203125,-1.072998046875,-0.048187255859375,0.0554656982421875
1772534496409603000,7.56360302734375,-1.125640869140625,-0.038848876953125,0.07513427734375
1772534496419620000,7.5736201171875,-1.154632568359375,-0.03741455078125,0.0815277099609375
1772534496429636000,7.583635986328125,-1.154571533203125,-0.039398193359375,0.073883056640625
1772534496439653000,7.593653076171875,-1.13037109375,-0.0426177978515625,0.0630645751953125
1772534496449669000,7.603669189453125,-1.0864410400390625,-0.04522705078125,0.052215576171875
1772534496459686100,7.61368603515625,-1.03643798828125,-0.04022216796875,0.043365478515625
1772534496469702000,7.623701904296875,-0.9971923828125,-0.03759765625,0.0413665771484375
1772534496479719200,7.63371923828125,-0.9632415771484375,-0.0366973876953125,0.0382080078125
1772534496489735200,7.643735107421875,-0.946624755859375,-0.0318603515625,0.04058837890625
1772534496499752000,7.653751953125,-0.941986083984375,-0.024505615234375,0.0452423095703125
1772534496509768000,7.663767822265625,-0.939453125,-0.0237579345703125,0.0544891357421875
1772534496519785200,7.67378515625,-0.94219970703125,-0.0242919921875,0.0596771240234375
1772534496529801200,7.68380126953125,-0.934539794921875,-0.0305633544921875,0.05133056640625
1772534496539818000,7.69381787109375,-0.9316558837890625,-0.0462493896484375,0.0356292724609375
1772534496549834000,7.703833984375,-0.921173095703125,-0.0659332275390625,0.023345947265625
1772534496559851000,7.71385107421875,-0.9170684814453125,-0.0821380615234375,0.0260009765625
1772534496569867000,7.723866943359375,-0.9212188720703125,-0.0859832763671875,0.0218963623046875
1772534496579883800,7.7338837890625,-0.9123077392578125,-0.0973663330078125,0.0059051513671875
1772534496589900000,7.743900146484375,-0.907501220703125,-0.1069488525390625,-0.0140380859375
1772534496599917000,7.7539169921875,-0.9030914306640625,-0.120635986328125,-0.022369384765625
1772534496609932800,7.763932861328125,-0.9000244140625,-0.13580322265625,-0.018341064453125
1772534496619949800,7.77394970703125,-0.903289794921875,-0.139129638671875,-0.0050811767578125
1772534496629966000,7.783966064453125,-0.906585693359375,-0.1374053955078125,0.0005340576171875
1772534496639982800,7.79398291015625,-0.916534423828125,-0.1392974853515625,0.004791259765625
1772534496649998800,7.803998779296875,-0.92095947265625,-0.1406097412109375,0.0100250244140625
1772534496660015900,7.814015869140625,-0.9288177490234375,-0.1431884765625,0.017242431640625
1772534496670032100,7.8240322265625,-0.9450836181640625,-0.1468658447265625,0.029449462890625
1772534496680049000,7.834048828125,-0.9551849365234375,-0.152618408203125,0.038360595703125
1772534496690065000,7.84406494140625,-0.96453857421875,-0.150238037109375,0.0392303466796875
1772534496700081000,7.854080810546875,-0.9837188720703125,-0.141998291015625,0.0396881103515625
1772534496710098000,7.864097900390625,-0.999298095703125,-0.140838623046875,0.046630859375
1772534496720114000,7.874114013671875,-1.0002899169921875,-0.137298583984375,0.0478668212890625
1772534496730131000,7.884130859375,-1.001068115234375,-0.1345672607421875,0.0438232421875
1772534496740147000,7.89414697265625,-1.00299072265625,-0.135589599609375,0.0373077392578125
1772534496750163700,7.904163818359375,-1.0048370361328125,-0.142425537109375,0.024505615234375
1772534496760180000,7.914179931640625,-1.004302978515625,-0.15301513671875,0.004150390625
1772534496770197000,7.924197021484375,-1.0150299072265625,-0.1581268310546875,-0.0065460205078125
1772534496780213000,7.934212890625,-1.031005859375,-0.1619110107421875,-0.0080413818359375
1772534496790229800,7.944229736328125,-1.0316009521484375,-0.164276123046875,-0.0130462646484375
1772534496800246000,7.95424609375,-1.0230712890625,-0.1608123779296875,-0.014434814453125
1772534496810263000,7.964262939453125,-1.0143585205078125,-0.1589202880859375,-0.0107269287109375
1772534496820278800,7.97427880859375,-0.99713134765625,-0.1533660888671875,-0.023651123046875
1772534496830295800,7.9842958984375,-0.978118896484375,-0.15216064453125,-0.0430755615234375
1772534496840312000,7.99431201171875,-0.962646484375,-0.16143798828125,-0.0405120849609375
1772534496850328800,8.004328857421875,-0.9576568603515625,-0.15875244140625,-0.02880859375
1772534496860344800,8.0143447265625,-0.9633636474609375,-0.144866943359375,-0.0213623046875
1772534496870361900,8.02436181640625,-0.98870849609375,-0.138458251953125,-0.01239013671875
1772534496880378000,8.034378173828125,-1.02923583984375,-0.130157470703125,-0.014617919921875
1772534496890395000,8.044394775390625,-1.0586700439453125,-0.1288604736328125,-0.0340118408203125
1772534496900411000,8.054410888671875,-1.07598876953125,-0.1295318603515625,-0.0621337890625
1772534496910428000,8.064427978515624,-1.0812835693359375,-0.132080078125,-0.0793914794921875
1772534496920444000,8.07444384765625,-1.070098876953125,-0.1343841552734375,-0.0904083251953125
1772534496930461000,8.0844609375,-1.066131591796875,-0.140411376953125,-0.1070709228515625
1772534496940477000,8.094476806640625,-1.056671142578125,-0.147430419921875,-0.1217498779296875
1772534496950493700,8.10449365234375,-1.063690185546875,-0.1422576904296875,-0.1440887451171875
1772534496960510000,8.114510009765626,-1.078460693359375,-0.13433837890625,-0.1703338623046875
1772534496970527000,8.12452685546875,-1.1058197021484375,-0.13421630859375,-0.201507568359375
1772534496980543000,8.13454296875,-1.1146697998046875,-0.15057373046875,-0.2199859619140625
1772534496990559700,8.144559814453125,-1.1094818115234375,-0.16552734375,-0.220245361328125
1772534497000576000,8.154575927734374,-1.1073760986328125,-0.1701812744140625,-0.203643798828125
1772534497010593000,8.164593017578126,-1.0999298095703125,-0.1757049560546875,-0.1919097900390625
1772534497020609000,8.174609130859375,-1.105072021484375,-0.179779052734375,-0.1783599853515625
1772534497030625800,8.184625732421875,-1.1104583740234375,-0.1714019775390625,-0.1631622314453125
1772534497040642000,8.19464208984375,-1.0979766845703125,-0.1546783447265625,-0.16363525390625
1772534497050658000,8.204657958984376,-1.0763702392578125,-0.1381378173828125,-0.1675262451171875
1772534497060674800,8.2146748046875,-1.0459442138671875,-0.1251983642578125,-0.1633148193359375
1772534497070690800,8.22469091796875,-1.03070068359375,-0.123687744140625,-0.1564178466796875
1772534497080708000,8.2347080078125,-1.040130615234375,-0.12451171875,-0.1486968994140625
1772534497090724000,8.24472412109375,-1.0589752197265625,-0.13037109375,-0.14337158203125
1772534497100740900,8.254740966796875,-1.091064453125,-0.1370086669921875,-0.1295928955078125
1772534497110756900,8.2647568359375,-1.12432861328125,-0.1352386474609375,-0.1159515380859375
1772534497120774000,8.27477392578125,-1.147705078125,-0.12841796875,-0.11328125
1772534497130790000,8.284789794921876,-1.16375732421875,-0.118133544921875,-0.112945556640625
1772534497140807000,8.294806884765626,-1.1469879150390625,-0.108795166015625,-0.126129150390625
1772534497150823000,8.304822998046875,-1.1138763427734375,-0.11041259765625,-0.1429901123046875
1772534497160839700,8.314839599609375,-1.060760498046875,-0.11737060546875,-0.1458892822265625
1772534497170856000,8.32485595703125,-0.99432373046875,-0.1138458251953125,-0.1442718505859375
1772534497180873000,8.334873046875,-0.9298095703125,-0.102386474609375,-0.139678955078125
1772534497190889000,8.344888916015625,-0.867767333984375,-0.097320556640625,-0.1361236572265625
1772534497200905700,8.35490576171875,-0.8370361328125,-0.094757080078125,-0.123291015625
1772534497210922000,8.364921875,-0.828948974609375,-0.0857391357421875,-0.10357666015625
1772534497220939000,8.37493896484375,-0.8382568359375,-0.0817718505859375,-0.0884552001953125
1772534497230955000,8.384955078125,-0.8573760986328125,-0.074249267578125,-0.0801544189453125
1772534497240971800,8.3949716796875,-0.8720550537109375,-0.0736846923828125,-0.083740234375
1772534497250988000,8.404988037109375,-0.878326416015625,-0.07952880859375,-0.092498779296875
1772534497261004800,8.4150048828125,-0.8793487548828125,-0.0866851806640625,-0.0967864990234375
1772534497271020800,8.425020751953125,-0.87237548828125,-0.09149169921875,-0.10186767578125
1772534497281037800,8.435037841796875,-0.8639678955078125,-0.0968170166015625,-0.1014556884765625
1772534497291054000,8.44505419921875,-0.8613128662109375,-0.099151611328125,-0.0933837890625
1772534497301070800,8.45507080078125,-0.865020751953125,-0.1066131591796875,-0.08868408203125
1772534497311086800,8.4650869140625,-0.8819580078125,-0.1118011474609375,-0.0890960693359375
1772534497321104000,8.475103759765625,-0.9017486572265625,-0.1168060302734375,-0.08782958984375
1772534497331120000,8.4851201171875,-0.9142913818359375,-0.128326416015625,-0.0836944580078125
1772534497341137000,8.495136962890625,-0.9156341552734375,-0.1293487548828125,-0.08477783203125
1772534497351153000,8.50515283203125,-0.9129486083984375,-0.1315155029296875,-0.089569091796875
1772534497361170000,8.515169921875,-0.902496337890625,-0.1483001708984375,-0.088897705078125
1772534497371186000,8.52518603515625,-0.8961639404296875,-0.1626739501953125,-0.0853729248046875
1772534497381203000,8.535202880859375,-0.8904876708984375,-0.1762237548828125,-0.08416748046875
1772534497391219000,8.545218994140624,-0.883941650390625,-0.1875457763671875,-0.0768585205078125
1772534497401235700,8.555235595703126,-0.88671875,-0.1917266845703125,-0.0634002685546875
1772534497411252000,8.565251953125,-0.8879852294921875,-0.191925048828125,-0.0553741455078125
1772534497421269000,8.57526904296875,-0.8851776123046875,-0.194061279296875,-0.054412841796875
1772534497431285000,8.585284912109374,-0.8775482177734375,-0.203857421875,-0.055633544921875
1772534497441301000,8.595301025390626,-0.8689727783203125,-0.2179107666015625,-0.0584869384765625
1772534497451318000,8.605318115234375,-0.8606109619140625,-0.233428955078125,-0.0642547607421875
1772534497461334000,8.615333984375,-0.8504638671875,-0.2497406005859375,-0.0631866455078125
1772534497471350800,8.625350830078125,-0.837432861328125,-0.25579833984375,-0.0662994384765625
1772534497481366800,8.63536669921875,-0.8362274169921875,-0.26171875,-0.0734405517578125
1772534497491384000,8.645384033203126,-0.833526611328125,-0.2645263671875,-0.0746002197265625
1772534497501400000,8.655400146484375,-0.8262939453125,-0.2637481689453125,-0.071380615234375
1772534497511416800,8.665416748046875,-0.8180084228515625,-0.2620391845703125,-0.0656280517578125
1772534497521432800,8.675432861328124,-0.8228607177734375,-0.259429931640625,-0.0487518310546875
1772534497531449900,8.685449951171876,-0.837432861328125,-0.250152587890625,-0.0288848876953125
1772534497541466000,8.695466064453125,-0.9122161865234375,-0.2368927001953125,-0.0106353759765625
1772534497551483000,8.70548291015625,-0.996429443359375,-0.238372802734375,0.001220703125
1772534497561499000,8.715498779296874,-1.02960205078125,-0.258941650390625,-0.00299072265625
1772534497571516000,8.725515869140626,-1.0543975830078125,-0.2610321044921875,-0.0107421875
1772534497581531600,8.73553173828125,-1.0408172607421875,-0.26007080078125,-0.0172271728515625
1772534497591548700,8.745548583984375,-1.013946533203125,-0.2657470703125,-0.0165863037109375
1772534497601565000,8.75556494140625,-0.9874420166015625,-0.275787353515625,-0.0128173828125
1772534497611581700,8.765581787109374,-0.96240234375,-0.284423828125,-0.01397705078125
1772534497621597700,8.77559765625,-0.9552459716796875,-0.29107666015625,-0.010284423828125
1772534497631614700,8.78561474609375,-0.950531005859375,-0.2958526611328125,-0.009918212890625
1772534497641631000,8.795630859375,-0.9608917236328125,-0.299224853515625,-0.01434326171875
1772534497651647700,8.805647705078124,-0.98333740234375,-0.304290771484375,-0.015167236328125
1772534497661663700,8.815663818359376,-1.029754638671875,-0.302337646484375,-0.027740478515625
1772534497671680800,8.8256806640625,-1.0817108154296875,-0.3092498779296875,-0.04400634765625
1772534497681696800,8.83569677734375,-1.11627197265625,-0.3162384033203125,-0.0541839599609375
1772534497691713800,8.8457138671875,-1.128509521484375,-0.30767822265625,-0.062713623046875
1772534497701729800,8.855729736328126,-1.1180267333984375,-0.3032684326171875,-0.0585784912109375
1772534497711746800,8.865746826171875,-1.1038055419921875,-0.300872802734375,-0.0478668212890625
1772534497721762800,8.8757626953125,-1.08197021484375,-0.2875823974609375,-0.0419464111328125
1772534497731779800,8.88577978515625,-1.0579681396484375,-0.2612762451171875,-0.038238525390625
1772534497741795800,8.8957958984375,-1.054901123046875,-0.241302490234375,-0.023529052734375
1772534497751812600,8.9058125,-1.052581787109375,-0.227752685546875,-0.0069580078125
1772534497761828900,8.915828857421875,-1.0511322021484375,-0.2096710205078125,0.000457763671875
1772534497771846000,8.925845947265625,-1.0529937744140625,-0.1885986328125,0.0070037841796875
1772534497781862000,8.93586181640625,-1.06805419921875,-0.17510986328125,0.022064208984375
1772534497791878700,8.945878662109376,-1.081207275390625,-0.1580657958984375,0.0177154541015625
1772534497801895000,8.95589501953125,-1.090484619140625,-0.1444091796875,0.0128173828125
1772534497811912000,8.965911865234375,-1.103515625,-0.1429290771484375,0.00994873046875
1772534497821927700,8.975927734375,-1.1015167236328125,-0.14013671875,-0.001556396484375
1772534497831944700,8.98594482421875,-1.0899505615234375,-0.1331329345703125,-0.0162811279296875
1772534497841960700,8.995960693359375,-1.0834197998046875,-0.128448486328125,-0.0217437744140625
1772534497851977700,9.005977783203125,-1.0843353271484375,-0.1236724853515625,-0.0144500732421875
1772534497861993700,9.01599365234375,-1.0742645263671875,-0.118804931640625,-0.009521484375
1772534497872010800,9.0260107421875,-1.063446044921875,-0.1081390380859375,-0.004669189453125
1772534497882026800,9.03602685546875,-1.0489654541015625,-0.09228515625,0.002197265625
1772534497892043800,9.046043701171875,-1.0322113037109375,-0.0814056396484375,0.0081634521484375
1772534497902059800,9.056059814453125,-0.9975738525390625,-0.0796661376953125,0.01678466796875
1772534497912075800,9.06607568359375,-0.9553070068359375,-0.0721893310546875,0.028411865234375
1772534497922092800,9.0760927734375,-0.920074462890625,-0.0626068115234375,0.03082275390625
1772534497932108800,9.08610888671875,-0.8949127197265625,-0.058441162109375,0.0223388671875
1772534497942125800,9.096125732421875,-0.8658447265625,-0.0666351318359375,0.004486083984375
1772534497952141800,9.106141845703124,-0.8504180908203125,-0.0664215087890625,-0.0079193115234375
1772534497962158600,9.11615869140625,-0.8427734375,-0.0656280517578125,-0.012298583984375
1772534497972174800,9.1261748046875,-0.8322601318359375,-0.069183349609375,-0.0169219970703125
1772534497982191900,9.13619189453125,-0.8395843505859375,-0.0694427490234375,-0.0227813720703125
1772534497992208000,9.146207763671875,-0.8638763427734375,-0.068939208984375,-0.0325164794921875
1772534498002224600,9.156224609375,-0.8876190185546875,-0.078094482421875,-0.0500640869140625
1772534498012241000,9.166240966796876,-0.916229248046875,-0.0954437255859375,-0.07110595703125
1772534498022258000,9.1762578125,-0.9351959228515625,-0.11474609375,-0.085968017578125
1772534498032273700,9.186273681640625,-0.947601318359375,-0.132568359375,-0.0953216552734375
1772534498042290700,9.196290771484374,-0.9565887451171875,-0.1453704833984375,-0.088714599609375
1772534498052307000,9.206306884765626,-0.9605712890625,-0.1500244140625,-0.0791015625
1772534498062323700,9.21632373046875,-0.957855224609375,-0.14501953125,-0.07379150390625
1772534498072339700,9.226339599609375,-0.94964599609375,-0.1398468017578125,-0.0654296875
1772534498082356700,9.236356689453125,-0.9468231201171875,-0.1319427490234375,-0.062408447265625
1772534498092373000,9.246373046875,-0.9441680908203125,-0.12457275390625,-0.060333251953125
1772534498102389800,9.2563896484375,-0.948577880859375,-0.12103271484375,-0.0509033203125
1772534498112405800,9.26640576171875,-0.9521331787109375,-0.122833251953125,-0.0371856689453125
1772534498122422800,9.2764228515625,-0.9539642333984375,-0.12493896484375,-0.019927978515625
1772534498132438800,9.286438720703124,-0.9542694091796875,-0.1259002685546875,-0.0089569091796875
1772534498142455800,9.296455810546876,-0.949920654296875,-0.1279449462890625,-0.00396728515625
1772534498152471800,9.306471923828125,-0.9463043212890625,-0.130645751953125,-0.010284423828125
1772534498162700800,9.31670068359375,-0.9532928466796875,-0.140716552734375,-0.0254669189453125
1772534498172504800,9.3265048828125,-0.9646759033203125,-0.1547393798828125,-0.03900146484375
1772534498182521900,9.33652197265625,-0.9658966064453125,-0.1648101806640625,-0.049957275390625
1772534498192537900,9.346537841796875,-0.9666290283203125,-0.1721954345703125,-0.05120849609375
1772534498202554600,9.3565546875,-0.969573974609375,-0.175750732421875,-0.0446014404296875
1772534498212570600,9.366570556640625,-0.9750213623046875,-0.17510986328125,-0.0437164306640625
1772534498222588000,9.376587890625,-0.9793243408203125,-0.1750335693359375,-0.05548095703125
1772534498232604000,9.38660400390625,-0.9819183349609375,-0.174468994140625,-0.0744781494140625
1772534498242619600,9.39661962890625,-0.9875030517578125,-0.1800689697265625,-0.0901031494140625
1772534498252636700,9.40663671875,-0.9980010986328125,-0.1820220947265625,-0.0909881591796875
1772534498262653000,9.41665283203125,-0.998443603515625,-0.1854705810546875,-0.0770416259765625
1772534498272669700,9.426669677734376,-0.99627685546875,-0.178619384765625,-0.0700531005859375
1772534498282685700,9.436685791015625,-0.9919891357421875,-0.1757049560546875,-0.0665740966796875
1772534498292702700,9.44670263671875,-0.987701416015625,-0.1787872314453125,-0.06158447265625
1772534498302719000,9.456718994140624,-0.9947967529296875,-0.170257568359375,-0.055511474609375
1772534498312735700,9.46673583984375,-1.0166473388671875,-0.16021728515625,-0.0511474609375
1772534498322751700,9.476751708984375,-1.03839111328125,-0.157958984375,-0.05877685546875
1772534498332768800,9.486768798828125,-1.0548248291015625,-0.1579437255859375,-0.0696563720703125
1772534498342784800,9.49678466796875,-1.0794830322265625,-0.1612548828125,-0.0780029296875
1772534498352801800,9.5068017578125,-1.0839996337890625,-0.167144775390625,-0.0853118896484375
1772534498362817800,9.51681787109375,-1.0809783935546875,-0.170623779296875,-0.09295654296875
1772534498372834600,9.52683447265625,-1.0673828125,-0.166351318359375,-0.096221923828125
1772534498382850800,9.536850830078125,-1.0402069091796875,-0.118255615234375,-0.1328887939453125
1772534498392867800,9.546867919921874,-1.008819580078125,-0.0941619873046875,-0.1620025634765625
1772534498402883800,9.5568837890625,-1.0484619140625,-0.2055816650390625,-0.057769775390625
1772534498412900600,9.566900634765625,-1.0799560546875,-0.23663330078125,-0.0173797607421875
1772534498422916900,9.576916748046875,-1.0498199462890625,-0.193511962890625,-0.0437774658203125
1772534498432934000,9.586933837890625,-1.03741455078125,-0.132171630859375,-0.0704498291015625
1772534498442950000,9.596949951171876,-1.052734375,-0.1063995361328125,-0.0749969482421875
1772534498452966700,9.606966552734375,-1.0880126953125,-0.1157684326171875,-0.062286376953125
1772534498462983000,9.61698291015625,-1.10272216796875,-0.12347412109375,-0.0491790771484375
1772534498473000000,9.627,-1.1100006103515625,-0.1107635498046875,-0.04547119140625
1772534498483015700,9.637015625,-1.1144256591796875,-0.09051513671875,-0.04852294921875
1772534498493032700,9.64703271484375,-1.0957489013671875,-0.0723876953125,-0.047332763671875
1772534498503049000,9.657049072265625,-1.069000244140625,-0.06695556640625,-0.0458221435546875
1772534498513065700,9.667065673828125,-1.044158935546875,-0.0757293701171875,-0.04339599609375
1772534498523081700,9.677081787109374,-1.02227783203125,-0.082611083984375,-0.0384063720703125
1772534498533098800,9.6870986328125,-1.00732421875,-0.0886993408203125,-0.03973388671875
1772534498543115000,9.697114990234375,-1.01458740234375,-0.107452392578125,-0.0441131591796875
1772534498553131800,9.7071318359375,-1.0494842529296875,-0.1355133056640625,-0.031524658203125
1772534498563147500,9.7171474609375,-1.076202392578125,-0.1478118896484375,-0.010986328125
1772534498573164500,9.72716455078125,-1.0924530029296875,-0.1331634521484375,-0.003753662109375
1772534498583180500,9.7371806640625,-1.109344482421875,-0.1020660400390625,-0.0066986083984375
1772534498593197600,9.747197509765625,-1.1094818115234375,-0.0738525390625,-0.0242767333984375
1772534498603213600,9.757213623046875,-1.0995025634765625,-0.0491943359375,-0.057342529296875
1772534498613230600,9.767230712890624,-1.0776519775390625,-0.0325775146484375,-0.0828704833984375
1772534498623246300,9.777246337890626,-1.040557861328125,-0.02484130859375,-0.100067138671875
1772534498633263600,9.787263671875,-0.9984893798828125,-0.0282745361328125,-0.1087646484375
1772534498643279600,9.797279541015625,-0.9654693603515625,-0.038726806640625,-0.10333251953125
1772534498653296400,9.80729638671875,-0.939117431640625,-0.048309326171875,-0.089996337890625
1772534498663312400,9.8173125,-0.910919189453125,-0.059906005859375,-0.077545166015625
1772534498673329700,9.82732958984375,-0.8943939208984375,-0.0728607177734375,-0.068084716796875
1772534498683345700,9.837345703125,-0.8916168212890625,-0.08551025390625,-0.059783935546875
1772534498693362400,9.847362548828125,-0.9019775390625,-0.0973052978515625,-0.060089111328125
1772534498703378400,9.85737841796875,-0.9088287353515625,-0.1053466796875,-0.069366455078125
1772534498713395700,9.867395751953126,-0.9348297119140625,-0.10986328125,-0.0789794921875
1772534498723411500,9.877411376953125,-0.965667724609375,-0.1092681884765625,-0.084075927734375
1772534498733428500,9.887428466796875,-0.9816741943359375,-0.1035003662109375,-0.079833984375
1772534498743444500,9.897444580078124,-1.0020599365234375,-0.09295654296875,-0.0772247314453125
1772534498753461500,9.90746142578125,-1.0140838623046875,-0.0821685791015625,-0.0789031982421875
1772534498763477500,9.9174775390625,-1.0152435302734375,-0.0745849609375,-0.083221435546875
1772534498773494500,9.92749462890625,-1.018798828125,-0.067626953125,-0.0940399169921875
1772534498783510500,9.937510498046874,-0.99664306640625,-0.079071044921875,-0.0924530029296875
1772534498793527600,9.947527587890624,-0.961761474609375,-0.097259521484375,-0.08135986328125
1772534498803543600,9.95754345703125,-0.939453125,-0.11163330078125,-0.0679473876953125
1772534498813560600,9.967560546875,-0.90625,-0.125732421875,-0.0568084716796875
1772534498823576600,9.97757666015625,-0.8685302734375,-0.1352081298828125,-0.045440673828125
1772534498833593600,9.987593505859374,-0.8439483642578125,-0.151031494140625,-0.03814697265625
1772534498843609600,9.997609619140626,-0.836822509765625,-0.1650390625,-0.0334625244140625
1772534498853626400,10.00762646484375,-0.851715087890625,-0.1720428466796875,-0.0338134765625
1772534498863642400,10.017642333984375,-0.8445281982421875,-0.1728363037109375,-0.0377197265625
1772534498873659600,10.02765966796875,-0.84130859375,-0.1722412109375,-0.0443878173828125
1772534498883675600,10.037675537109376,-0.842071533203125,-0.1767730712890625,-0.0453643798828125
1772534498893692400,10.0476923828125,-0.831512451171875,-0.18487548828125,-0.03790283203125
1772534498903708400,10.05770849609375,-0.828948974609375,-0.197540283203125,-0.034698486328125
1772534498913725700,10.0677255859375,-0.82916259765625,-0.217498779296875,-0.0337677001953125
1772534498923741700,10.07774169921875,-0.842437744140625,-0.2364654541015625,-0.033111572265625
1772534498933758500,10.087758544921876,-0.8560943603515625,-0.25408935546875,-0.034271240234375
1772534498943774500,10.0977744140625,-0.8563232421875,-0.2583160400390625,-0.0326080322265625
1772534498953791700,10.107791748046875,-0.865814208984375,-0.2591705322265625,-0.037078857421875
1772534498963807500,10.117807373046874,-0.892486572265625,-0.2682647705078125,-0.0494232177734375
1772534498973824500,10.127824462890626,-0.9153594970703125,-0.2745208740234375,-0.06182861328125
1772534498983840500,10.137840576171875,-0.9340667724609375,-0.2705535888671875,-0.0759124755859375
1772534498993857500,10.147857421875,-0.9628448486328125,-0.2654571533203125,-0.0934295654296875
1772534499003873500,10.15787353515625,-0.9862213134765625,-0.2630157470703125,-0.10345458984375
1772534499013890600,10.167890625,-0.996002197265625,-0.2595672607421875,-0.10321044921875
1772534499023906600,10.177906494140625,-1.0079803466796875,-0.2611236572265625,-0.095367431640625
1772534499033923600,10.187923583984375,-1.0099639892578125,-0.26605224609375,-0.0817718505859375
1772534499043939600,10.197939697265625,-1.00897216796875,-0.2695159912109375,-0.0735321044921875
1772534499053955600,10.20795556640625,-1.0196685791015625,-0.2672576904296875,-0.0765380859375
1772534499063972400,10.217972412109376,-1.0336151123046875,-0.260986328125,-0.0865020751953125
1772534499073989600,10.22798974609375,-1.0599517822265625,-0.2551116943359375,-0.1012115478515625
1772534499084005600,10.238005615234375,-1.0870819091796875,-0.24627685546875,-0.1098785400390625
1772534499094021600,10.248021728515624,-1.1164093017578125,-0.2349090576171875,-0.1132354736328125
1772534499104038400,10.258038330078126,-1.1276397705078125,-0.221466064453125,-0.11138916015625
1772534499114055700,10.2680556640625,-1.124847412109375,-0.198211669921875,-0.112579345703125
1772534499124071700,10.27807177734375,-1.12860107421875,-0.17620849609375,-0.11279296875
1772534499134087700,10.288087646484374,-1.14862060546875,-0.1616058349609375,-0.10601806640625
1772534499144104400,10.2981044921875,-1.1677398681640625,-0.1597900390625,-0.1060333251953125
1772534499154120400,10.308120361328125,-1.165740966796875,-0.1597900390625,-0.105621337890625
1772534499164137700,10.3181376953125,-1.1553955078125,-0.1421966552734375,-0.106689453125
1772534499174153500,10.328153564453125,-1.13525390625,-0.11822509765625,-0.11419677734375
1772534499184170500,10.33817041015625,-1.103790283203125,-0.1039581298828125,-0.1220245361328125
1772534499194186500,10.3481865234375,-1.0846099853515625,-0.10174560546875,-0.117889404296875
1772534499204203500,10.35820361328125,-1.0721588134765625,-0.102264404296875,-0.1064300537109375
1772534499214219500,10.368219482421875,-1.05987548828125,-0.104644775390625,-0.0998077392578125
1772534499224236500,10.378236572265624,-1.045928955078125,-0.1041259765625,-0.0971221923828125
1772534499234252500,10.38825244140625,-1.0462799072265625,-0.1038055419921875,-0.090606689453125
1772534499244269600,10.39826953125,-1.0635528564453125,-0.10479736328125,-0.078399658203125
1772534499254285600,10.40828564453125,-1.07720947265625,-0.1066741943359375,-0.0688018798828125
1772534499264302600,10.418302490234375,-1.0840606689453125,-0.1049346923828125,-0.05975341796875
1772534499274318300,10.428318359375,-1.088104248046875,-0.09918212890625,-0.04986572265625
1772534499284335600,10.438335693359376,-1.0833892822265625,-0.0859527587890625,-0.04583740234375
1772534499294351600,10.4483515625,-1.075408935546875,-0.0741424560546875,-0.0523834228515625
1772534499304368400,10.458368408203125,-1.0582122802734375,-0.065460205078125,-0.0580902099609375
1772534499314384400,10.46838427734375,-1.0338134765625,-0.059112548828125,-0.057891845703125
1772534499324401700,10.478401611328126,-1.006805419921875,-0.0485076904296875,-0.0479583740234375
1772534499334417700,10.488417724609375,-0.98004150390625,-0.032745361328125,-0.03173828125
1772534499344434400,10.498434326171875,-0.9513397216796875,-0.02093505859375,-0.0132904052734375
1772534499354450400,10.508450439453124,-0.9244232177734375,-0.0161590576171875,0.0117645263671875
1772534499364467700,10.5184677734375,-0.9056854248046875,-0.0204620361328125,0.0341644287109375
1772534499374483700,10.528483642578125,-0.912628173828125,-0.028594970703125,0.0489654541015625
1772534499384500500,10.53850048828125,-0.91156005859375,-0.0361328125,0.051513671875
1772534499394516500,10.5485166015625,-0.895477294921875,-0.0442962646484375,0.0399627685546875
1772534499404533500,10.558533447265624,-0.89752197265625,-0.0545501708984375,0.0121002197265625
1772534499414549500,10.568549560546876,-0.888397216796875,-0.0743255615234375,-0.00592041015625
1772534499424566500,10.57856640625,-0.8824462890625,-0.09222412109375,-0.0152130126953125
1772534499434582500,10.58858251953125,-0.9041748046875,-0.0944671630859375,-0.023468017578125
1772534499444599600,10.598599609375,-0.9337310791015625,-0.089111328125,-0.0200347900390625
1772534499454615600,10.608615478515626,-0.950958251953125,-0.0760955810546875,-0.01702880859375
1772534499464632600,10.618632568359375,-0.971405029296875,-0.0602569580078125,-0.016082763671875
1772534499474648600,10.628648681640625,-1.0033721923828125,-0.04437255859375,-0.0104827880859375
1772534499484665600,10.63866552734375,-1.01202392578125,-0.0294647216796875,-0.0113525390625
1772534499494681600,10.648681640625,-1.0031585693359375,-0.013885498046875,-0.0153656005859375
1772534499504698600,10.65869873046875,-0.986724853515625,-0.00592041015625,-0.0138397216796875
1772534499514714400,10.66871435546875,-0.9709014892578125,-0.007049560546875,-0.0114288330078125
1772534499524731600,10.678731689453125,-0.960418701171875,-0.011749267578125,-0.0119476318359375
1772534499534747600,10.68874755859375,-0.9485931396484375,-0.019256591796875,-0.009185791015625
1772534499544764400,10.698764404296876,-0.93365478515625,-0.026641845703125,-0.004730224609375
1772534499554780400,10.708780517578125,-0.92169189453125,-0.0329132080078125,0.00506591796875
1772534499564798000,10.7187978515625,-0.918426513671875,-0.035186767578125,0.0164337158203125
1772534499574814000,10.72881396484375,-0.898895263671875,-0.0389251708984375,0.021728515625
1772534499584830700,10.738830810546874,-0.87689208984375,-0.04620361328125,0.0256500244140625
1772534499594847000,10.748846923828125,-0.8642120361328125,-0.060821533203125,0.02593994140625
1772534499604864000,10.758864013671875,-0.8601531982421875,-0.0714111328125,0.019195556640625
1772534499614879700,10.768879638671875,-0.8640594482421875,-0.076019287109375,0.0125885009765625
1772534499624896800,10.778896728515624,-0.8884735107421875,-0.086456298828125,0.006011962890625
1772534499634913000,10.7889130859375,-0.8883056640625,-0.09967041015625,-0.0165557861328125
1772534499644929800,10.7989296875,-0.874481201171875,-0.1100921630859375,-0.0462799072265625
1772534499654945800,10.80894580078125,-0.8897247314453125,-0.1259765625,-0.05828857421875
1772534499664962800,10.818962890625,-0.9025115966796875,-0.13909912109375,-0.0513916015625
1772534499674979000,10.82897900390625,-0.92010498046875,-0.1405792236328125,-0.0532989501953125
1772534499684995800,10.838995849609375,-0.926361083984375,-0.1315155029296875,-0.06976318359375
1772534499695011800,10.84901171875,-0.9335479736328125,-0.1239013671875,-0.083221435546875
1772534499705028900,10.85902880859375,-0.944610595703125,-0.1236419677734375,-0.089874267578125
1772534499715044900,10.869044921875,-0.94732666015625,-0.1240386962890625,-0.084808349609375
1772534499725062000,10.879061767578126,-0.9471588134765625,-0.1164703369140625,-0.0709381103515625
1772534499735078000,10.889077880859375,-0.966461181640625,-0.1114044189453125,-0.060211181640625
1772534499745094700,10.8990947265625,-0.998443603515625,-0.1048431396484375,-0.0460052490234375
1772534499755111000,10.90911083984375,-1.038787841796875,-0.0957794189453125,-0.03314208984375
1772534499765128000,10.9191279296875,-1.07965087890625,-0.088165283203125,-0.03955078125
1772534499775144000,10.92914404296875,-1.107635498046875,-0.0866851806640625,-0.0574188232421875
1772534499785160700,10.93916064453125,-1.12872314453125,-0.085906982421875,-0.0753021240234375
1772534499795177000,10.949177001953124,-1.1511383056640625,-0.085723876953125,-0.0882568359375
1772534499805194000,10.959194091796874,-1.1516265869140625,-0.0724029541015625,-0.1080780029296875
1772534499815210000,10.9692099609375,-1.13555908203125,-0.0524749755859375,-0.1239013671875
1772534499825226800,10.979226806640625,-1.1262054443359375,-0.0414276123046875,-0.1210784912109375
1772534499835243000,10.989242919921875,-1.11822509765625,-0.0423126220703125,-0.1174163818359375
1772534499845260000,10.999260009765624,-1.106048583984375,-0.0458526611328125,-0.11541748046875
1772534499855275800,11.00927587890625,-1.0770721435546875,-0.0409698486328125,-0.11572265625
1772534499865292800,11.019292724609375,-1.054534912109375,-0.032958984375,-0.1179351806640625
1772534499875308800,11.029308837890625,-1.0394134521484375,-0.016143798828125,-0.12274169921875
1772534499885325800,11.039325927734374,-1.0355682373046875,0.0057373046875,-0.1199493408203125
1772534499895341800,11.049341796875,-1.0367889404296875,0.02069091796875,-0.09991455078125
1772534499905358800,11.05935888671875,-1.0335235595703125,0.022735595703125,-0.081390380859375
1772534499915374800,11.069374755859375,-1.050323486328125,0.0002288818359375,-0.0727691650390625
1772534499925392000,11.079391845703125,-1.0594024658203125,-0.0269012451171875,-0.059661865234375
1772534499935407900,11.089407958984374,-1.059234619140625,-0.0427703857421875,-0.052490234375
1772534499945425000,11.0994248046875,-1.086029052734375,-0.057769775390625,-0.0607757568359375
1772534499955440600,11.109440673828125,-1.1338348388671875,-0.0727386474609375,-0.08001708984375
1772534499965458000,11.1194580078125,-1.1441650390625,-0.0621337890625,-0.118316650390625
1772534499975474000,11.129473876953124,-1.19317626953125,-0.04486083984375,-0.147064208984375
1772534499985490700,11.13949072265625,-1.2874755859375,-0.06207275390625,-0.138031005859375
1772534499995506700,11.149506591796875,-1.2451324462890625,-0.07196044921875,-0.131927490234375
1772534500005524000,11.15952392578125,-1.161163330078125,-0.071014404296875,-0.1236724853515625
1772534500015540000,11.1695400390625,-1.0955963134765625,-0.0583343505859375,-0.1204681396484375
1772534500025556700,11.179556640625,-1.0282440185546875,-0.042327880859375,-0.12890625
1772534500035572700,11.18957275390625,-0.96954345703125,-0.0364837646484375,-0.13458251953125
1772534500045590000,11.199590087890625,-0.937774658203125,-0.0425262451171875,-0.1392059326171875
1772534500055606000,11.20960595703125,-0.911895751953125,-0.04388427734375,-0.1476287841796875
1772534500065622800,11.219622802734374,-0.8634185791015625,-0.0235443115234375,-0.162322998046875
