time,seconds_elapsed,z,y,x
1772534488905393400,0.059393310546875,-0.03629598394036293,-0.43100327253341675,0.2941741347312927
1772534488915409400,0.069409423828125,-0.02273845300078392,-0.46401268243789673,0.42031529545783997
1772534488925426400,0.079426513671875,-0.050262756645679474,-0.5255476832389832,0.5307040810585022
1772534488935442400,0.0894423828125,-0.11464890837669373,-0.6019408702850342,0.5724278092384338
1772534488945459500,0.09945947265625,-0.18358777463436127,-0.5752463936805725,0.547684371471405
1772534488955475500,0.109475341796875,-0.22649389505386353,-0.45294371247291565,0.4674623906612396
1772534488965492500,0.119492431640625,-0.25425201654434204,-0.2817155122756958,0.3412932753562927
1772534488975508500,0.129508544921875,-0.2659029960632324,-0.11295244842767715,0.2058662623167038
1772534488985525200,0.139525146484375,-0.24957408010959625,0.01950252801179886,0.1329374462366104
1772534488995541200,0.149541259765625,-0.2342657595872879,0.07916215062141418,0.13975326716899872
1772534489005557200,0.15955712890625,-0.2541657090187073,0.04646999016404152,0.15444006025791168
1772534489015574500,0.169574462890625,-0.3090805411338806,-0.049853865057229996,0.1362098753452301
1772534489025590500,0.179590576171875,-0.36693185567855835,-0.11403258144855499,0.08817736059427261
1772534489035607300,0.189607177734375,-0.4090379476547241,-0.16847263276576996,0.02871236950159073
1772534489045623300,0.199623291015625,-0.44610968232154846,-0.23026755452156067,-0.024794530123472214
1772534489055640600,0.209640625,-0.467296838760376,-0.3339215815067291,-0.03065972775220871
1772534489065656300,0.21965625,-0.48768386244773865,-0.45422056317329407,0.028778832405805588
1772534489075673300,0.22967333984375,-0.5150591135025024,-0.5481141805648804,0.13118620216846466
1772534489085689300,0.239689453125,-0.5491552948951721,-0.556126594543457,0.2382013350725174
1772534489095705600,0.24970556640625,-0.5856994986534119,-0.5220939517021179,0.3209250569343567
1772534489105722400,0.259722412109375,-0.6181533336639404,-0.48017099499702454,0.3462173640727997
1772534489115738400,0.26973828125,-0.6379998326301575,-0.4333876967430115,0.31132209300994873
1772534489125755400,0.27975537109375,-0.6516586542129517,-0.3570692241191864,0.23018251359462738
1772534489135771400,0.289771484375,-0.671690046787262,-0.28805622458457947,0.1272720843553543
1772534489145788400,0.299788330078125,-0.6940736174583435,-0.2599470913410187,0.03513683006167412
1772534489155804400,0.309804443359375,-0.7033556699752808,-0.28084006905555725,-0.02388012409210205
1772534489165821400,0.319821533203125,-0.6868987083435059,-0.33438825607299805,-0.03260224312543869
1772534489175837400,0.32983740234375,-0.6320503950119019,-0.3637787699699402,0.0217595174908638
1772534489185854500,0.3398544921875,-0.5556302070617676,-0.3275558054447174,0.13696306943893433
1772534489195870500,0.349870361328125,-0.49438798427581787,-0.23367682099342346,0.25998812913894653
1772534489205886500,0.359886474609375,-0.49123212695121765,-0.13963846862316132,0.2907862365245819
1772534489215903500,0.369903564453125,-0.513127863407135,-0.004401593469083309,0.2269410490989685
1772534489225919500,0.37991943359375,-0.5349634289741516,0.17466455698013306,0.11203362792730331
1772534489235936500,0.3899365234375,-0.553386390209198,0.35751035809516907,-0.003707543481141329
1772534489245952300,0.3999521484375,-0.5752812623977661,0.48295801877975464,-0.09898053109645844
1772534489255969500,0.409969482421875,-0.5977005958557129,0.5235215425491333,-0.16385167837142944
1772534489265985500,0.419985595703125,-0.6100145578384399,0.4916030764579773,-0.2019798904657364
1772534489276002300,0.430002197265625,-0.6205664277076721,0.4313611090183258,-0.20513641834259033
1772534489286018300,0.440018310546875,-0.6364244818687439,0.3616057336330414,-0.18480771780014038
1772534489296034300,0.450034423828125,-0.6595504879951477,0.27357110381126404,-0.15800802409648895
1772534489306051600,0.460051513671875,-0.6946834325790405,0.22214117646217346,-0.12566205859184265
1772534489316067600,0.470067626953125,-0.7289962768554688,0.18764859437942505,-0.09571869671344757
1772534489326084400,0.48008447265625,-0.7511274218559265,0.10710901767015457,-0.0649394765496254
1772534489336100400,0.490100341796875,-0.7673314213752747,-0.007134423591196537,-0.023637928068637848
1772534489346117400,0.500117431640625,-0.7851857542991638,-0.08914300799369812,0.025110170245170593
1772534489356133400,0.51013330078125,-0.8106153011322021,-0.11216988414525986,0.0816880390048027
1772534489366150400,0.520150390625,-0.8574696183204651,-0.1172432079911232,0.12116194516420364
1772534489376166400,0.53016650390625,-0.9286091923713684,-0.1064903736114502,0.12735143303871155
1772534489386183400,0.540183349609375,-1.0093586444854736,-0.06616399437189102,0.10999107360839844
1772534489396199400,0.550199462890625,-1.06206476688385,0.02444681152701378,0.09622544050216675
1772534489406215400,0.56021533203125,-1.074832797050476,0.15163005888462067,0.09574500471353531
1772534489416232400,0.570232421875,-1.0547809600830078,0.24726825952529907,0.10796257108449936
1772534489426248200,0.580248291015625,-1.012616753578186,0.2945476174354553,0.12380598485469818
1772534489436265500,0.590265380859375,-0.9537647366523743,0.28235360980033875,0.12787026166915894
1772534489446281500,0.600281494140625,-0.9014003276824951,0.28931936621665955,0.1023089811205864
1772534489456298200,0.61029833984375,-0.8784162998199463,0.28175902366638184,0.05825918912887573
1772534489466314200,0.620314208984375,-0.8814299702644348,0.22060807049274445,0.00860481895506382
1772534489476331500,0.63033154296875,-0.8918301463127136,0.13461007177829742,-0.05043559893965721
1772534489486347500,0.640347412109375,-0.9061925411224365,0.04726771265268326,-0.10748796164989471
1772534489496363500,0.650363525390625,-0.9109510183334351,-0.034713324159383774,-0.15338371694087982
1772534489506380300,0.66038037109375,-0.8989441394805908,-0.08528968691825867,-0.16444754600524902
1772534489516396500,0.670396484375,-0.890450119972229,-0.09421784430742264,-0.14445914328098297
1772534489526413600,0.68041357421875,-0.8886295557022095,-0.08424963057041168,-0.09970951825380325
1772534489536429300,0.69042919921875,-0.8852686285972595,-0.055814798921346664,-0.035573143512010574
1772534489546446300,0.7004462890625,-0.876554012298584,-0.041790593415498734,0.033932164311409
1772534489556462300,0.71046240234375,-0.851155161857605,-0.08771573752164841,0.0917709618806839
1772534489566479000,0.72047900390625,-0.8160951733589172,-0.16933628916740417,0.1267707645893097
1772534489576495000,0.7304951171875,-0.7896260023117065,-0.228560209274292,0.13512110710144043
1772534489586512400,0.740512451171875,-0.7677610516548157,-0.2736765146255493,0.12780234217643738
1772534489596528400,0.7505283203125,-0.729709804058075,-0.3022735118865967,0.1122608631849289
1772534489606544400,0.76054443359375,-0.6833145618438721,-0.2936563193798065,0.09796635061502457
1772534489616561200,0.77056103515625,-0.6403595805168152,-0.2677416205406189,0.0949220210313797
1772534489626577200,0.7805771484375,-0.6094053983688354,-0.24808189272880554,0.09348364919424057
1772534489636594200,0.79059423828125,-0.5594121217727661,-0.24498672783374786,0.09465716779232025
1772534489646610200,0.800610107421875,-0.48866257071495056,-0.27789968252182007,0.11097569018602371
1772534489656627200,0.810627197265625,-0.4237781763076782,-0.27932125329971313,0.15840168297290802
1772534489666643200,0.820643310546875,-0.40552645921707153,-0.18585947155952454,0.2312612533569336
1772534489676660200,0.83066015625,-0.42521941661834717,-0.06857486069202423,0.28781890869140625
1772534489686676200,0.84067626953125,-0.46063917875289917,0.0002460100222378969,0.31203851103782654
1772534489696693200,0.850693359375,-0.4965849220752716,0.02464664727449417,0.29837098717689514
1772534489706709200,0.860709228515625,-0.520865261554718,-0.022503819316625595,0.2519156038761139
1772534489716725200,0.870725341796875,-0.5555025339126587,-0.18056358397006989,0.16531582176685333
1772534489726742300,0.8807421875,-0.5946515798568726,-0.372814804315567,0.03052418865263462
1772534489736758300,0.89075830078125,-0.6400043368339539,-0.5086835622787476,-0.12416160851716995
1772534489746775000,0.900775146484375,-0.683625340461731,-0.5379801988601685,-0.28931301832199097
1772534489756791300,0.910791259765625,-0.7208288908004761,-0.4378640055656433,-0.4320923686027527
1772534489766808300,0.920808349609375,-0.7507124543190002,-0.27611851692199707,-0.5406116247177124
1772534489776824300,0.93082421875,-0.7765644192695618,-0.08553905785083771,-0.5828514099121094
1772534489786841000,0.940841064453125,-0.7931753396987915,0.13731426000595093,-0.5607432126998901
1772534489796857300,0.950857421875,-0.7878203392028809,0.33611947298049927,-0.49577322602272034
1772534489806873300,0.960873291015625,-0.750156819820404,0.42748135328292847,-0.41329139471054077
1772534489816890000,0.97089013671875,-0.6766825318336487,0.4508110284805298,-0.3206580877304077
1772534489826906000,0.980906005859375,-0.5673501491546631,0.44902297854423523,-0.21341870725154877
1772534489836923400,0.99092333984375,-0.42917001247406006,0.4306197166442871,-0.1064370721578598
1772534489846939400,1.000939453125,-0.2869170010089874,0.3637309670448303,0.0019224227871745825
1772534489856956200,1.0109560546875,-0.1532258838415146,0.26935523748397827,0.10784561932086945
1772534489866972200,1.02097216796875,-0.029582781717181206,0.16121947765350342,0.210318461060524
1772534489876989200,1.0309892578125,0.07654038816690445,0.02985987439751625,0.30137136578559875
1772534489887005400,1.04100537109375,0.15238001942634583,-0.10095273703336716,0.36727821826934814
1772534489897022200,1.051022216796875,0.19943660497665405,-0.23405569791793823,0.397839218378067
1772534489907038200,1.0610380859375,0.2137463092803955,-0.36031830310821533,0.386709064245224
1772534489917054200,1.07105419921875,0.21486040949821472,-0.42877843976020813,0.34163835644721985
1772534489927071200,1.0810712890625,0.19124482572078705,-0.4512334167957306,0.2782423496246338
1772534489937087200,1.091087158203125,0.14035621285438538,-0.48617246747016907,0.21195463836193085
1772534489947104300,1.101104248046875,0.09272930771112442,-0.4620724618434906,0.14664781093597412
1772534489957120300,1.111120361328125,0.04717431589961052,-0.41504278779029846,0.08754754066467285
1772534489967137300,1.12113720703125,-0.0318794921040535,-0.39676952362060547,0.02309531345963478
1772534489977153300,1.1311533203125,-0.15318284928798676,-0.33161377906799316,-0.0524129644036293
1772534489987170300,1.14117041015625,-0.3022918999195099,-0.22648867964744568,-0.12434974312782288
1772534489997186300,1.151186279296875,-0.4510234296321869,-0.11255781352519989,-0.19295236468315125
1772534490007202000,1.1612021484375,-0.5861194729804993,-0.0063512129709124565,-0.2501930296421051
1772534490017219300,1.17121923828125,-0.6917359828948975,0.07384254783391953,-0.29472172260284424
1772534490027235300,1.1812353515625,-0.7611265182495117,0.10516878217458725,-0.3196515738964081
1772534490037252000,1.191252197265625,-0.7859756946563721,0.11867211759090424,-0.3224189579486847
1772534490047268000,1.20126806640625,-0.7688971161842346,0.10762825608253479,-0.31045523285865784
1772534490057285400,1.211285400390625,-0.7102601528167725,0.04739721491932869,-0.2916567921638489
1772534490067301400,1.22130126953125,-0.6292686462402344,-0.058524955064058304,-0.259077787399292
1772534490077318100,1.231318115234375,-0.5408270955085754,-0.16839417815208435,-0.2199581414461136
1772534490087334100,1.241334228515625,-0.45999616384506226,-0.24401196837425232,-0.181988924741745
1772534490097351400,1.251351318359375,-0.3977714478969574,-0.2800731956958771,-0.15110266208648682
1772534490107367200,1.2613671875,-0.3573742210865021,-0.3035503029823303,-0.1335923820734024
1772534490117383200,1.271383056640625,-0.36246711015701294,-0.23193012177944183,-0.15126365423202515
1772534490127400200,1.281400146484375,-0.40607184171676636,-0.2028936743736267,-0.206081360578537
1772534490137416200,1.291416259765625,-0.49027305841445923,-0.18966259062290192,-0.2992141842842102
1772534490147433200,1.30143310546875,-0.5923594832420349,-0.1397126168012619,-0.4163706302642822
1772534490157449200,1.31144921875,-0.6817434430122375,-0.12076056748628616,-0.5313776135444641
1772534490167466200,1.32146630859375,-0.7668682336807251,-0.09863609075546265,-0.6268274784088135
1772534490177482200,1.331482177734375,-0.8508638739585876,-0.05263771116733551,-0.6612017154693604
1772534490187499300,1.341499267578125,-0.9169992208480835,0.04585637152194977,-0.615946888923645
1772534490197515300,1.351515380859375,-0.94601970911026,0.1450718641281128,-0.5197203159332275
1772534490207532300,1.3615322265625,-0.9391186833381653,0.19038794934749603,-0.4097312390804291
1772534490217548000,1.371548095703125,-0.8921814560890198,0.22613926231861115,-0.3189901113510132
1772534490227564300,1.381564208984375,-0.8123170137405396,0.22434508800506592,-0.2683945894241333
1772534490237581300,1.391581298828125,-0.723533570766449,0.1976965218782425,-0.25322043895721436
1772534490247597300,1.401597412109375,-0.6675499081611633,0.20119325816631317,-0.27958014607429504
1772534490257614000,1.411614013671875,-0.6347068548202515,0.18225349485874176,-0.3146449327468872
1772534490267630300,1.42163037109375,-0.6028828620910645,0.13918617367744446,-0.3230096399784088
1772534490277647400,1.4316474609375,-0.5680115222930908,0.07559125870466232,-0.29846954345703125
1772534490287663000,1.4416630859375,-0.5234440565109253,-0.019944580271840096,-0.2516290545463562
1772534490297680100,1.45168017578125,-0.4832567274570465,-0.12632790207862854,-0.198661208152771
1772534490307696400,1.4616962890625,-0.4544282853603363,-0.24463669955730438,-0.14555111527442932
1772534490317712400,1.47171240234375,-0.434563547372818,-0.3687221109867096,-0.09589853882789612
1772534490327729200,1.481729248046875,-0.42347201704978943,-0.5069910883903503,-0.03620165213942528
1772534490337745200,1.4917451171875,-0.43997448682785034,-0.6183393597602844,0.043970443308353424
1772534490347762400,1.501762451171875,-0.48284897208213806,-0.6720083951950073,0.1293782889842987
1772534490357778400,1.5117783203125,-0.5538832545280457,-0.7049558162689209,0.1876080185174942
1772534490367795200,1.521795166015625,-0.655617356300354,-0.6864481568336487,0.19421665370464325
1772534490377811200,1.531811279296875,-0.7630262970924377,-0.6360403299331665,0.15367263555526733
1772534490387828200,1.541828125,-0.8485358357429504,-0.5455682277679443,0.10633814334869385
1772534490397844200,1.55184423828125,-0.9012840986251831,-0.4159306287765503,0.06986859440803528
1772534490407861200,1.561861328125,-0.9221984148025513,-0.25926539301872253,0.05604305863380432
1772534490417877200,1.571877197265625,-0.9190109372138977,-0.08917593210935593,0.06191868335008621
1772534490427893200,1.581893310546875,-0.917194664478302,0.058243345469236374,0.08670525997877121
1772534490437910300,1.59191015625,-0.9422022700309753,0.17758773267269135,0.11544355005025864
1772534490447926300,1.60192626953125,-0.99610435962677,0.26995813846588135,0.11741136014461517
1772534490457943300,1.611943359375,-1.0796369314193726,0.3485812544822693,0.08268926292657852
1772534490467959000,1.621958984375,-1.1801278591156006,0.39336708188056946,0.0032093478366732597
1772534490477976300,1.631976318359375,-1.2901798486709595,0.3819922208786011,-0.11433903127908707
1772534490487992300,1.641992431640625,-1.4039462804794312,0.2827460765838623,-0.25460904836654663
1772534490498009000,1.652009033203125,-1.5094910860061646,0.13058939576148987,-0.3837645947933197
1772534490508025000,1.662025146484375,-1.6199326515197754,-0.01781020127236843,-0.469445139169693
1772534490518042400,1.67204248046875,-1.7042781114578247,-0.13869397342205048,-0.49522146582603455
1772534490528058400,1.682058349609375,-1.7310799360275269,-0.2571830451488495,-0.4836662709712982
1772534490538074400,1.692074462890625,-1.7153325080871582,-0.38769257068634033,-0.4421951174736023
1772534490548091400,1.70209130859375,-1.6813141107559204,-0.47195231914520264,-0.36512938141822815
1772534490558107400,1.712107421875,-1.6378238201141357,-0.521767258644104,-0.2682842016220093
1772534490568124400,1.72212451171875,-1.5811508893966675,-0.5422136783599854,-0.17083992063999176
1772534490578140200,1.73214013671875,-1.5344449281692505,-0.5046368837356567,-0.08457094430923462
1772534490588157400,1.742157470703125,-1.51497220993042,-0.40465059876441956,-0.030212629586458206
1772534490598173400,1.75217333984375,-1.5238368511199951,-0.24010667204856873,-0.021369602531194687
1772534490608190200,1.762190185546875,-1.5526206493377686,-0.060820743441581726,-0.05668482184410095
1772534490618206200,1.772206298828125,-1.5874325037002563,0.09111638367176056,-0.12290802597999573
1772534490628223500,1.782223388671875,-1.6114747524261475,0.22647421061992645,-0.18034334480762482
1772534490638239500,1.792239501953125,-1.6114546060562134,0.32644888758659363,-0.2068856656551361
1772534490648255200,1.802255126953125,-1.5755748748779297,0.36029180884361267,-0.19809271395206451
1772534490658272300,1.812272216796875,-1.5151535272598267,0.30049824714660645,-0.14764820039272308
1772534490668288500,1.82228857421875,-1.4351388216018677,0.18959838151931763,-0.04910990595817566
1772534490678305300,1.83230517578125,-1.333983063697815,0.08351007103919983,0.08875972777605057
1772534490688321300,1.8423212890625,-1.2374786138534546,-0.03370949625968933,0.23792392015457153
1772534490698338300,1.85233837890625,-1.1634447574615479,-0.1325904130935669,0.37778955698013306
1772534490708354600,1.8623544921875,-1.111709475517273,-0.2054438441991806,0.4749731123447418
1772534490718371300,1.872371337890625,-1.09464430809021,-0.2754794955253601,0.5055087208747864
1772534490728387300,1.88238720703125,-1.1254645586013794,-0.33517399430274963,0.4792773723602295
1772534490738403300,1.8924033203125,-1.1946516036987305,-0.36181068420410156,0.4166499376296997
1772534490748420400,1.90242041015625,-1.2873778343200684,-0.3634248375892639,0.3299432694911957
1772534490758436400,1.912436279296875,-1.3760844469070435,-0.32295525074005127,0.23310355842113495
1772534490768453400,1.922453369140625,-1.4447013139724731,-0.27208569645881653,0.13568033277988434
1772534490778469400,1.932469482421875,-1.4931753873825073,-0.20528237521648407,0.04687612131237984
1772534490788486400,1.942486328125,-1.5204908847808838,-0.12503866851329803,-0.009027091786265373
1772534490798502400,1.95250244140625,-1.5413322448730469,-0.04446987807750702,-0.02037864737212658
1772534490808519400,1.96251953125,-1.5616422891616821,0.04291056841611862,0.0003458058927208185
1772534490818535400,1.972535400390625,-1.5731817483901978,0.09958887845277786,0.021810540929436684
1772534490828552400,1.982552490234375,-1.5586845874786377,0.1089315190911293,0.03473645821213722
1772534490838568400,1.992568359375,-1.526012659072876,0.09018237143754959,0.03992820531129837
1772534490848585500,2.00258544921875,-1.4792728424072266,0.0712323859333992,0.044102177023887634
1772534490858601200,2.012601318359375,-1.4254777431488037,0.08009365946054459,0.045809876173734665
1772534490868617200,2.0226171875,-1.3672916889190674,0.07277423143386841,0.04011311009526253
1772534490878634500,2.032634521484375,-1.304337739944458,0.013899464160203934,0.02514427900314331
1772534490888650500,2.042650390625,-1.242155909538269,-0.06383901089429855,-0.0003712000325322151
1772534490898667300,2.052667236328125,-1.185207486152649,-0.15859314799308777,-0.03511126711964607
1772534490908683300,2.062683349609375,-1.1133599281311035,-0.24338527023792267,-0.05338587984442711
1772534490918700500,2.072700439453125,-1.0348635911941528,-0.32251667976379395,-0.03705797716975212
1772534490928716500,2.082716552734375,-0.9660791754722595,-0.36049866676330566,0.01601189747452736
1772534490938733300,2.0927333984375,-0.9092010855674744,-0.3123228847980499,0.09458095580339432
1772534490948749300,2.102749267578125,-0.8487034440040588,-0.21797242760658264,0.16615554690361023
1772534490958766300,2.112766357421875,-0.7831723093986511,-0.14695489406585693,0.18636681139469147
1772534490968782300,2.1227822265625,-0.7297242879867554,-0.12287645787000656,0.1502988189458847
1772534490978798300,2.13279833984375,-0.6931154131889343,-0.11975149065256119,0.08178616315126419
1772534490988815400,2.1428154296875,-0.6630483269691467,-0.12979507446289062,0.015308607369661331
1772534490998831400,2.152831298828125,-0.6607184410095215,-0.13374891877174377,-0.02480342425405979
1772534491008848400,2.162848388671875,-0.6810674071311951,-0.08692334592342377,-0.03923988714814186
1772534491018864400,2.172864501953125,-0.7065051198005676,-0.02441592700779438,-0.04554013907909393
1772534491028881400,2.18288134765625,-0.7180283665657043,0.007604856975376606,-0.04304981976747513
1772534491038897200,2.192897216796875,-0.7210860252380371,0.006124465726315975,-0.05202673003077507
1772534491048914400,2.20291455078125,-0.7120879888534546,-0.0383433997631073,-0.053691472858190536
1772534491058930400,2.212930419921875,-0.6939479112625122,-0.08766232430934906,-0.030799569562077522
1772534491068947200,2.222947265625,-0.662729799747467,-0.1271013468503952,0.008372066542506218
1772534491078963200,2.232963134765625,-0.6307312846183777,-0.17883078753948212,0.03308451920747757
1772534491088979500,2.2429794921875,-0.5977233052253723,-0.23545598983764648,0.032749224454164505
1772534491098996500,2.25299658203125,-0.5759046077728271,-0.2638392150402069,0.001650247722864151
1772534491109012500,2.263012451171875,-0.5831897258758545,-0.2675356864929199,-0.06099315732717514
1772534491119029200,2.273029296875,-0.624877393245697,-0.2734431326389313,-0.1276954710483551
1772534491129045500,2.28304541015625,-0.6762953400611877,-0.25064995884895325,-0.18602482974529266
1772534491139062500,2.2930625,-0.7063620686531067,-0.2439248263835907,-0.24295075237751007
1772534491149078300,2.303078369140625,-0.7022615671157837,-0.2416193187236786,-0.2901371717453003
1772534491159095300,2.31309521484375,-0.6721766591072083,-0.2545209527015686,-0.3119872510433197
1772534491169111300,2.323111328125,-0.6398986577987671,-0.305185467004776,-0.30054792761802673
1772534491179128300,2.33312841796875,-0.6242543458938599,-0.37979936599731445,-0.2480955868959427
1772534491189144300,2.343144287109375,-0.6193469166755676,-0.3710615336894989,-0.15893828868865967
1772534491199160300,2.353160400390625,-0.6217775940895081,-0.29275190830230713,-0.07909546792507172
1772534491209177300,2.36317724609375,-0.6233632564544678,-0.2095811367034912,-0.04115687683224678
1772534491219193300,2.373193359375,-0.6150992512702942,-0.12306232750415802,-0.051068130880594254
1772534491229210400,2.38321044921875,-0.5945814251899719,-0.037677913904190063,-0.09328749030828476
1772534491239226400,2.393226318359375,-0.5741084814071655,0.031008344143629074,-0.13275040686130524
1772534491249243100,2.4032431640625,-0.5617538094520569,0.1073627769947052,-0.14205309748649597
1772534491259259400,2.41325927734375,-0.5612464547157288,0.20309720933437347,-0.10874226689338684
1772534491269276400,2.4232763671875,-0.5615353584289551,0.3189859688282013,-0.05904741585254669
1772534491279292400,2.43329248046875,-0.5597739219665527,0.4231948256492615,-0.015361601486802101
1772534491289309200,2.44330908203125,-0.5560518503189087,0.4694257080554962,0.014558214694261551
1772534491299325400,2.453325439453125,-0.5510703921318054,0.4697301983833313,0.0448138602077961
1772534491309341400,2.463341552734375,-0.546623170375824,0.46512025594711304,0.0708254873752594
1772534491319358500,2.4733583984375,-0.5425443649291992,0.4076673686504364,0.09166326373815536
1772534491329374200,2.483374267578125,-0.5287089943885803,0.3463403582572937,0.121849924325943
1772534491339391500,2.4933916015625,-0.5007238984107971,0.27658340334892273,0.14426684379577637
1772534491349407500,2.503407470703125,-0.4786985218524933,0.19257555902004242,0.149156391620636
1772534491359424300,2.51342431640625,-0.4436873495578766,0.040072739124298096,0.11748827248811722
1772534491369440300,2.523440185546875,-0.3920119106769562,-0.15352095663547516,0.05372660979628563
1772534491379457500,2.53345751953125,-0.346700519323349,-0.3475770056247711,-0.0191248320043087
1772534491389473500,2.5434736328125,-0.29687702655792236,-0.4961651563644409,-0.08466070145368576
1772534491399490300,2.553490234375,-0.23351244628429413,-0.6190062761306763,-0.13815847039222717
1772534491409506300,2.56350634765625,-0.22452214360237122,-0.632468044757843,-0.15940436720848083
1772534491419522300,2.573522216796875,-0.26016080379486084,-0.5856523513793945,-0.16756409406661987
1772534491429539300,2.583539306640625,-0.30371811985969543,-0.5399541258811951,-0.1701020896434784
1772534491439555300,2.593555419921875,-0.3356435000896454,-0.4658370018005371,-0.16504108905792236
1772534491449572400,2.603572265625,-0.3628716766834259,-0.3383306860923767,-0.15754534304141998
1772534491459588400,2.61358837890625,-0.3983263373374939,-0.16462498903274536,-0.1717158406972885
1772534491469605400,2.62360546875,-0.41009217500686646,-0.01916099712252617,-0.21657493710517883
1772534491479621400,2.633621337890625,-0.3707343637943268,0.07520747929811478,-0.2765413224697113
1772534491489638400,2.643638427734375,-0.32002004981040955,0.11198493838310242,-0.32269445061683655
1772534491499654400,2.653654296875,-0.2930830419063568,0.11392529308795929,-0.34014075994491577
1772534491509671400,2.66367138671875,-0.2766079306602478,0.09033181518316269,-0.3051590621471405
1772534491519687400,2.6736875,-0.2437058538198471,0.0737876296043396,-0.2336549460887909
1772534491529704400,2.683704345703125,-0.19357557594776154,0.012101629748940468,-0.15763047337532043
1772534491539720200,2.69372021484375,-0.13488106429576874,-0.08364741504192352,-0.10623164474964142
1772534491549736200,2.703736083984375,-0.06692199409008026,-0.16923634707927704,-0.08682704716920853
1772534491559753200,2.713753173828125,-0.0005946620367467403,-0.2451895773410797,-0.09133490175008774
1772534491569769200,2.723769287109375,0.04193735122680664,-0.33631041646003723,-0.10237050801515579
1772534491579786200,2.7337861328125,0.04115883633494377,-0.3763329088687897,-0.09591981768608093
1772534491589802200,2.74380224609375,0.009449378587305546,-0.35245129466056824,-0.06556510925292969
1772534491599819300,2.7538193359375,-0.053953852504491806,-0.325837641954422,-0.024139298126101494
1772534491609835300,2.763835205078125,-0.12945713102817535,-0.2934629023075104,0.010223736986517906
1772534491619852300,2.773852294921875,-0.22072340548038483,-0.25755637884140015,0.011385224759578705
1772534491629868300,2.783868408203125,-0.3164699077606201,-0.22541360557079315,-0.025907021015882492
1772534491639885300,2.79388525390625,-0.40316128730773926,-0.20311307907104492,-0.08928046375513077
1772534491649901000,2.803901123046875,-0.47850823402404785,-0.1922529637813568,-0.1465030163526535
1772534491659917300,2.813917236328125,-0.5399828553199768,-0.18581943213939667,-0.1752079874277115
1772534491669934300,2.823934326171875,-0.5880619883537292,-0.10835979133844376,-0.18416285514831543
1772534491679950300,2.833950439453125,-0.609503984451294,0.006036602891981602,-0.1684674769639969
1772534491689967000,2.843967041015625,-0.5941609740257263,0.10077855736017227,-0.14448784291744232
1772534491699983400,2.8539833984375,-0.5695076584815979,0.13650666177272797,-0.1144370287656784
1772534491710000400,2.86400048828125,-0.560172975063324,0.10539615154266357,-0.07948783040046692
1772534491720016100,2.87401611328125,-0.5687297582626343,0.0286431722342968,-0.05152551829814911
1772534491730033200,2.884033203125,-0.5875750780105591,0.026229016482830048,-0.04594273120164871
1772534491740049400,2.89404931640625,-0.6252597570419312,0.044603679329156876,-0.0344666913151741
1772534491750066200,2.904066162109375,-0.6736443042755127,0.06959052383899689,-0.008929373696446419
1772534491760082200,2.914082275390625,-0.7268907427787781,0.060319218784570694,0.02009180188179016
1772534491770098200,2.92409814453125,-0.7824741005897522,0.011057399213314056,0.0499812550842762
1772534491780115200,2.934115234375,-0.8420015573501587,-0.05787748470902443,0.0884367823600769
1772534491790131500,2.94413134765625,-0.9135255217552185,-0.11335885524749756,0.13443623483181
1772534491800148200,2.954148193359375,-0.9967657327651978,-0.08166883140802383,0.18433086574077606
1772534491810164200,2.964164306640625,-1.0727009773254395,0.018621554598212242,0.2321774810552597
1772534491820181200,2.97418115234375,-1.1212480068206787,0.13536283373832703,0.26367735862731934
1772534491830197200,2.984197265625,-1.1485393047332764,0.24284376204013824,0.26016145944595337
1772534491840214300,2.99421435546875,-1.1505807638168335,0.3195453882217407,0.23562531173229218
1772534491850230300,3.004230224609375,-1.1293293237686157,0.35615721344947815,0.21719835698604584
1772534491860247000,3.0142470703125,-1.0943251848220825,0.3841761648654938,0.2205524891614914
1772534491870263300,3.02426318359375,-1.076062798500061,0.41528642177581787,0.24578966200351715
1772534491880280300,3.0342802734375,-1.078502893447876,0.37599724531173706,0.26581138372421265
1772534491890296300,3.04429638671875,-1.0788549184799194,0.241045281291008,0.2655887305736542
1772534491900313000,3.05431298828125,-1.0664258003234863,0.06589175760746002,0.24268175661563873
1772534491910329300,3.064329345703125,-1.0451627969741821,-0.16935111582279205,0.2245943695306778
1772534491920345300,3.074345458984375,-1.0272853374481201,-0.37627968192100525,0.2109544426202774
1772534491930362000,3.084362060546875,-1.0369502305984497,-0.5096388459205627,0.2163209766149521
1772534491940378000,3.094378173828125,-1.0613616704940796,-0.580441415309906,0.22838960587978363
1772534491950395400,3.1043955078125,-1.0942621231079102,-0.5866782665252686,0.25312691926956177
1772534491960411400,3.114411376953125,-1.1394965648651123,-0.5275958776473999,0.28702637553215027
1772534491970428200,3.12442822265625,-1.187505841255188,-0.3713519871234894,0.32073959708213806
1772534491980444200,3.134444091796875,-1.2074044942855835,-0.12658700346946716,0.3219057321548462
1772534491990461400,3.14446142578125,-1.1962612867355347,0.1345553696155548,0.2660643458366394
1772534492000477400,3.1544775390625,-1.165647029876709,0.354152113199234,0.14819909632205963
1772534492010494200,3.164494140625,-1.1098854541778564,0.4696081280708313,-0.0018322104588150978
1772534492020510200,3.17451025390625,-1.029715657234192,0.4727620482444763,-0.12210255116224289
1772534492030526200,3.184526123046875,-0.9206360578536987,0.38320234417915344,-0.17684969305992126
1772534492040543200,3.194543212890625,-0.8003901243209839,0.2144697606563568,-0.15541169047355652
1772534492050559200,3.204559326171875,-0.685387909412384,-0.008251462131738663,-0.07011251896619797
1772534492060576300,3.214576171875,-0.604968249797821,-0.24438565969467163,0.06606436520814896
1772534492070592300,3.22459228515625,-0.5687031745910645,-0.3950374722480774,0.21649621427059174
1772534492080609300,3.234609375,-0.5630356073379517,-0.45504745841026306,0.3350752592086792
1772534492090625300,3.244625244140625,-0.5859212279319763,-0.4568624198436737,0.381903737783432
1772534492100642300,3.254642333984375,-0.6361789107322693,-0.4268312454223633,0.3359575569629669
1772534492110658000,3.264657958984375,-0.709642231464386,-0.42292359471321106,0.2116137593984604
1772534492120675300,3.27467529296875,-0.798121988773346,-0.38395199179649353,0.04655032604932785
1772534492130691300,3.28469140625,-0.8644365668296814,-0.2828842103481293,-0.10824165493249893
1772534492140708000,3.2947080078125,-0.9006909132003784,-0.12111324071884155,-0.21584941446781158
1772534492150724000,3.30472412109375,-0.9284562468528748,0.06893499940633774,-0.27807337045669556
1772534492160740000,3.314739990234375,-0.9671546220779419,0.2360101193189621,-0.32067903876304626
1772534492170757400,3.32475732421875,-0.9966189861297607,0.3687085211277008,-0.34589946269989014
1772534492180773400,3.3347734375,-1.0024558305740356,0.4576186239719391,-0.3617742657661438
1772534492190790100,3.3447900390625,-0.9914321899414062,0.48432427644729614,-0.3652387857437134
1772534492200806100,3.35480615234375,-0.9551709890365601,0.43008899688720703,-0.3557494282722473
1772534492210823400,3.364823486328125,-0.8674978613853455,0.32672372460365295,-0.3168691396713257
1772534492220839200,3.374839111328125,-0.7511144280433655,0.18806789815425873,-0.23858371376991272
1772534492230856200,3.384856201171875,-0.6329542398452759,0.07407953590154648,-0.1259642243385315
1772534492240872200,3.3948720703125,-0.5154126286506653,-0.011737270280718803,-0.003851159941405058
1772534492250889200,3.40488916015625,-0.4063870310783386,-0.10574233531951904,0.10097884386777878
1772534492260905200,3.4149052734375,-0.32174041867256165,-0.2061130702495575,0.1756349354982376
1772534492270922200,3.424922119140625,-0.26265445351600647,-0.283744215965271,0.2197406142950058
1772534492280938200,3.434938232421875,-0.22773969173431396,-0.332754909992218,0.23986245691776276
1772534492290954200,3.444954345703125,-0.22733142971992493,-0.35614198446273804,0.22710378468036652
1772534492300971300,3.45497119140625,-0.24630314111709595,-0.35392844676971436,0.19033320248126984
1772534492310987300,3.4649873046875,-0.27681416273117065,-0.30505090951919556,0.14141440391540527
1772534492321004000,3.475004150390625,-0.30985692143440247,-0.2364044487476349,0.08864959329366684
1772534492331020300,3.485020263671875,-0.3478069603443146,-0.18232551217079163,0.03893715888261795
1772534492341037300,3.495037353515625,-0.39698317646980286,-0.13000112771987915,-0.011651771143078804
1772534492351053300,3.50505322265625,-0.43884140253067017,-0.09339491277933121,-0.06687561422586441
1772534492361070000,3.515070068359375,-0.4518309235572815,-0.13525095582008362,-0.11323899775743484
1772534492371086300,3.52508642578125,-0.44464412331581116,-0.2032608985900879,-0.1302025318145752
1772534492381103400,3.535103271484375,-0.4147990345954895,-0.26454994082450867,-0.1093040481209755
1772534492391119400,3.545119384765625,-0.36610502004623413,-0.28982043266296387,-0.06259726732969284
1772534492401136000,3.55513623046875,-0.3105374872684479,-0.2883344888687134,-0.01641988940536976
1772534492411152100,3.565152099609375,-0.25782686471939087,-0.2958368957042694,0.01311829499900341
1772534492421168400,3.57516845703125,-0.21212227642536163,-0.31499582529067993,0.02411714196205139
1772534492431185200,3.58518505859375,-0.17137804627418518,-0.3358566164970398,0.025990940630435944
1772534492441201200,3.595201171875,-0.12977904081344604,-0.28907883167266846,0.0551765002310276
1772534492451218200,3.60521826171875,-0.09119356423616409,-0.16166305541992188,0.12082128971815109
1772534492461234400,3.615234375,-0.05174344405531883,0.014242999255657196,0.1931094527244568
1772534492471251200,3.625251220703125,-0.01905820332467556,0.16252753138542175,0.22354698181152344
1772534492481267200,3.63526708984375,-0.0038891597650945187,0.2956494987010956,0.20265066623687744
1772534492491284200,3.6452841796875,0.00042356306221336126,0.4238189160823822,0.15295128524303436
1772534492501300200,3.65530029296875,0.007572334259748459,0.44030195474624634,0.09496381878852844
1772534492511317200,3.665317138671875,0.021917184814810753,0.28645914793014526,0.057250525802373886
1772534492521333200,3.675333251953125,0.05445263907313347,0.030937671661376953,0.07651304453611374
1772534492531350000,3.68535009765625,0.11143042892217636,-0.23325057327747345,0.17813313007354736
1772534492541366300,3.6953662109375,0.17950758337974548,-0.4455517828464508,0.3409472107887268
1772534492551382800,3.7053828125,0.23390132188796997,-0.5677908658981323,0.5004351735115051
1772534492561399000,3.71539892578125,0.26081737875938416,-0.5915275812149048,0.6248654127120972
1772534492571415000,3.7254150390625,0.24012592434883118,-0.4954971671104431,0.6772407293319702
1772534492581431800,3.735431884765625,0.16734641790390015,-0.28221845626831055,0.6270555853843689
1772534492591447800,3.74544775390625,0.05373728647828102,-0.02819657325744629,0.485470175743103
1772534492601465000,3.755465087890625,-0.07187356054782867,0.19700895249843597,0.2859962582588196
1772534492611480800,3.765480712890625,-0.17913611233234406,0.37769615650177,0.09094207733869553
1772534492621497900,3.775497802734375,-0.24765953421592712,0.5095405578613281,-0.06009654700756073
1772534492631513900,3.785513916015625,-0.28326305747032166,0.5476953983306885,-0.12880343198776245
1772534492641531000,3.79553076171875,-0.2868913412094116,0.5016282200813293,-0.10189546644687653
1772534492651547000,3.805546875,-0.2663450241088867,0.42817234992980957,0.006585468538105488
1772534492661564000,3.81556396484375,-0.23557129502296448,0.32176220417022705,0.15352186560630798
1772534492671580000,3.825579833984375,-0.20010970532894135,0.1723993569612503,0.2873670160770416
1772534492681596700,3.8355966796875,-0.17578238248825073,0.007739960215985775,0.3722347319126129
1772534492691613000,3.845613037109375,-0.1710219830274582,-0.14361867308616638,0.37609580159187317
1772534492701629000,3.85562890625,-0.1805265098810196,-0.2730962336063385,0.2922990918159485
1772534492711646000,3.86564599609375,-0.2261086404323578,-0.37988021969795227,0.15434785187244415
1772534492721661700,3.87566162109375,-0.3162941634654999,-0.4510723054409027,-0.00766946142539382
1772534492731679000,3.885678955078125,-0.4364812970161438,-0.4931420087814331,-0.16685804724693298
1772534492741695000,3.895695068359375,-0.5689546465873718,-0.4799029231071472,-0.2740705609321594
1772534492751711700,3.905711669921875,-0.6976180672645569,-0.38484644889831543,-0.3175642490386963
1772534492761727700,3.915727783203125,-0.8106298446655273,-0.21057775616645813,-0.31465280055999756
1772534492771745000,3.9257451171875,-0.8896671533584595,0.0006066618952900171,-0.29741576313972473
1772534492781761000,3.935760986328125,-0.9062357544898987,0.19405749440193176,-0.3012740910053253
1772534492791777800,3.94577783203125,-0.8616703748703003,0.3184707760810852,-0.3313100039958954
1772534492801793800,3.955793701171875,-0.782102644443512,0.3736415505409241,-0.3770045340061188
1772534492811811000,3.96581103515625,-0.6825869679450989,0.37130624055862427,-0.4274013936519623
1772534492821826800,3.975826904296875,-0.5736669898033142,0.3226654529571533,-0.46447476744651794
1772534492831842800,3.9858427734375,-0.4676963686943054,0.2230626940727234,-0.47496843338012695
1772534492841859800,3.99585986328125,-0.3711911737918854,0.1105450838804245,-0.4541305899620056
1772534492851875800,4.005875732421875,-0.3077400326728821,-0.00934323575347662,-0.40849173069000244
1772534492861892900,4.015892822265625,-0.27896228432655334,-0.14865809679031372,-0.35519999265670776
1772534492871908900,4.025908935546875,-0.265131413936615,-0.3113287687301636,-0.3139721155166626
1772534492881926000,4.03592578125,-0.25231605768203735,-0.4988214075565338,-0.27103114128112793
1772534492891942000,4.04594189453125,-0.23542416095733643,-0.6120068430900574,-0.21967528760433197
1772534492901959000,4.055958984375,-0.23159700632095337,-0.6154143214225769,-0.1591024249792099
1772534492911975000,4.065974853515625,-0.24872221052646637,-0.5396455526351929,-0.11236820369958878
1772534492921992000,4.075991943359375,-0.2857806384563446,-0.41763392090797424,-0.11071350425481796
1772534492932007700,4.086007568359375,-0.32742422819137573,-0.30532389879226685,-0.1635865718126297
1772534492942025000,4.09602490234375,-0.37359413504600525,-0.21857593953609467,-0.25198259949684143
1772534492952041000,4.106041015625,-0.42369139194488525,-0.15010179579257965,-0.3325466811656952
1772534492962057700,4.1160576171875,-0.470380574464798,-0.08613673597574234,-0.36978375911712646
1772534492972073700,4.12607373046875,-0.500591516494751,-0.005089553073048592,-0.3433060944080353
1772534492982089700,4.13608984375,-0.5238521099090576,0.083123117685318,-0.2762192189693451
1772534492992107000,4.14610693359375,-0.5565112233161926,0.15907512605190277,-0.2022310197353363
1772534493002122800,4.156122802734375,-0.5896281599998474,0.2004968523979187,-0.15774358808994293
1772534493012139800,4.166139892578125,-0.6039354205131531,0.17527912557125092,-0.1436043381690979
1772534493022155800,4.17615576171875,-0.5933286547660828,0.11776186525821686,-0.1506500095129013
1772534493032172800,4.1861728515625,-0.5719938278198242,0.05067204311490059,-0.1644984483718872
1772534493042188800,4.196188720703125,-0.5540291666984558,-0.028092605993151665,-0.15815381705760956
1772534493052205800,4.206205810546875,-0.5539178252220154,-0.11296728253364563,-0.11779041588306427
1772534493062221800,4.216221923828125,-0.5722201466560364,-0.19471575319766998,-0.06340041011571884
1772534493072238800,4.22623876953125,-0.6079304814338684,-0.287308007478714,-0.001692304853349924
1772534493082254800,4.2362548828125,-0.656027615070343,-0.3390386998653412,0.06441330909729004
1772534493092271900,4.24627197265625,-0.7180867195129395,-0.3059137761592865,0.13424459099769592
1772534493102288000,4.256287841796875,-0.7861877083778381,-0.22091083228588104,0.19918128848075867
1772534493112305000,4.266304931640625,-0.8322010040283203,-0.09814203530550003,0.2429727017879486
1772534493122321000,4.27632080078125,-0.8442851901054382,0.0264871995896101,0.26268795132637024
1772534493132337000,4.2863369140625,-0.839446485042572,0.15120995044708252,0.26570558547973633
1772534493142353700,4.296353759765625,-0.8169993758201599,0.2763785719871521,0.24267549812793732
1772534493152370000,4.306369873046875,-0.7924959063529968,0.3544462025165558,0.19652371108531952
1772534493162387000,4.316386962890625,-0.7734055519104004,0.3599991500377655,0.16470293700695038
1772534493172403000,4.32640283203125,-0.7360492944717407,0.3076402544975281,0.17083774507045746
1772534493182419700,4.336419677734375,-0.6910018920898438,0.20919428765773773,0.227372407913208
1772534493192436000,4.34643603515625,-0.6388087272644043,0.06687070429325104,0.3166780471801758
1772534493202453000,4.356452880859375,-0.5983760356903076,-0.12452394515275955,0.3999257981777191
1772534493212468700,4.36646875,-0.5899209976196289,-0.3627820312976837,0.4491735100746155
1772534493222485800,4.37648583984375,-0.6302807927131653,-0.5886358022689819,0.4672706425189972
1772534493232502000,4.386501953125,-0.6968065500259399,-0.7466036081314087,0.47882798314094543
1772534493242518800,4.396518798828125,-0.7586323618888855,-0.7976699471473694,0.5065890550613403
1772534493252534800,4.40653466796875,-0.8115267753601074,-0.7209213972091675,0.5561981201171875
1772534493262551800,4.4165517578125,-0.8719557523727417,-0.5223703384399414,0.5905938148498535
1772534493272568000,4.426568115234375,-0.9342808723449707,-0.25365176796913147,0.5833410024642944
1772534493282584000,4.436583984375,-0.9807077646255493,-0.009339501149952412,0.5198970437049866
1772534493292600800,4.446600830078125,-1.0145506858825684,0.18349546194076538,0.39826589822769165
1772534493302616800,4.456616943359375,-1.0378906726837158,0.32673922181129456,0.24630634486675262
1772534493312633900,4.4666337890625,-1.0390467643737793,0.38288795948028564,0.10810773074626923
1772534493322649900,4.47664990234375,-1.002880334854126,0.36190834641456604,0.018359053879976273
1772534493332667000,4.4866669921875,-0.931259036064148,0.2791737914085388,-0.005235753953456879
1772534493342683000,4.496682861328125,-0.8415398597717285,0.13280975818634033,0.031158993020653725
1772534493352699600,4.50669970703125,-0.7602207660675049,-0.04331199824810028,0.10885432362556458
1772534493362716000,4.5167158203125,-0.7046660780906677,-0.205422043800354,0.1862739473581314
1772534493372733000,4.52673291015625,-0.6914512515068054,-0.3831323981285095,0.22164127230644226
1772534493382749000,4.5367490234375,-0.7170712947845459,-0.5698865056037903,0.1841723769903183
1772534493392765700,4.546765625,-0.7520465850830078,-0.7580726146697998,0.09554105997085571
1772534493402782000,4.556781982421875,-0.7786803841590881,-0.894233226776123,-0.014557693153619766
1772534493412799000,4.566799072265625,-0.7917943596839905,-0.8957008719444275,-0.10620559006929398
1772534493422814700,4.576814697265625,-0.7876982688903809,-0.7746619582176208,-0.1636892408132553
1772534493432830700,4.586830810546875,-0.7794864177703857,-0.556995153427124,-0.18591199815273285
1772534493442848000,4.596847900390625,-0.7621707320213318,-0.2723305821418762,-0.21021321415901184
1772534493452864000,4.606864013671875,-0.7443571090698242,-0.0005978859262540936,-0.25853654742240906
1772534493462880800,4.616880859375,-0.7376286387443542,0.1766621470451355,-0.333046555519104
1772534493472896800,4.626896728515625,-0.7281931042671204,0.2813890874385834,-0.4144687056541443
1772534493482914000,4.6369140625,-0.7038459777832031,0.3363744914531708,-0.46566349267959595
1772534493492930000,4.646929931640625,-0.6726015210151672,0.3592505156993866,-0.46983399987220764
1772534493502946800,4.65694677734375,-0.6289395689964294,0.3341720700263977,-0.42021337151527405
1772534493512962800,4.666962890625,-0.5725871324539185,0.27256062626838684,-0.32555878162384033
1772534493522980000,4.67697998046875,-0.5016091465950012,0.20364753901958466,-0.21138200163841248
1772534493532995800,4.686995849609375,-0.4086979031562805,0.11161135882139206,-0.10655704885721207
1772534493543012900,4.697012939453125,-0.30031198263168335,0.0324496291577816,-0.023810314014554024
1772534493553029400,4.707029296875,-0.19514507055282593,-0.0805530846118927,0.04855549708008766
1772534493563046100,4.717046142578125,-0.11637161672115326,-0.18659326434135437,0.13330583274364471
1772534493573062100,4.727062255859375,-0.07724525034427643,-0.2203645408153534,0.22248710691928864
1772534493583079400,4.737079345703125,-0.06954135745763779,-0.20310470461845398,0.2872656285762787
1772534493593095400,4.747095458984375,-0.0693482756614685,-0.16994701325893402,0.2952790856361389
1772534493603111200,4.757111083984375,-0.08248933404684067,-0.1804226189851761,0.23737949132919312
1772534493613128200,4.767128173828125,-0.11317373812198639,-0.18806828558444977,0.12872996926307678
1772534493623144200,4.777144287109375,-0.15976440906524658,-0.17860956490039825,-0.0032788529060781
1772534493633161200,4.7871611328125,-0.205367311835289,-0.19252298772335052,-0.13380995392799377
1772534493643177200,4.79717724609375,-0.251900315284729,-0.27369046211242676,-0.2240402102470398
1772534493653194200,4.8071943359375,-0.28620314598083496,-0.3853224515914917,-0.248610258102417
1772534493663210200,4.817210205078125,-0.3044130802154541,-0.45901060104370117,-0.20467770099639893
1772534493673227300,4.827227294921875,-0.2960297167301178,-0.4733392000198364,-0.1102108433842659
1772534493683243300,4.8372431640625,-0.25005796551704407,-0.4573557674884796,-0.0022464809007942677
1772534493693260300,4.84726025390625,-0.1812988817691803,-0.429046094417572,0.0714903250336647
1772534493703276000,4.857276123046875,-0.1195891797542572,-0.4319196045398712,0.08932090550661087
1772534493713293300,4.867293212890625,-0.05249296501278877,-0.4734598398208618,0.05800266191363335
1772534493723309300,4.877309326171875,0.014216533862054348,-0.47695082426071167,0.006567778065800667
1772534493733326000,4.887326171875,0.08046958595514297,-0.36957696080207825,-0.028344132006168365
1772534493743342000,4.897342041015625,0.14585424959659576,-0.19628170132637024,-0.030126657336950302
1772534493753359400,4.907359375,0.20781853795051575,-0.06747764348983765,-0.00610148161649704
1772534493763375400,4.917375244140625,0.25210756063461304,0.006770941894501448,0.03162426874041557
1772534493773391400,4.927391357421875,0.2766275703907013,0.1492529958486557,0.056123219430446625
1772534493783408000,4.937408203125,0.28822675347328186,0.3241960108280182,0.05278452858328819
1772534493793424100,4.947424072265625,0.29989752173423767,0.4662040174007416,0.007606133818626404
1772534493803441400,4.95744140625,0.31321707367897034,0.4878879189491272,-0.06292181462049484
1772534493813457200,4.96745703125,0.33794960379600525,0.41032281517982483,-0.12696285545825958
1772534493823474200,4.97747412109375,0.37813881039619446,0.2749731242656708,-0.15271499752998352
1772534493833490200,4.987490234375,0.4344087243080139,0.15352605283260345,-0.11339636892080307
1772534493843507200,4.997507080078125,0.4882339835166931,0.09976907819509506,-0.027513369917869568
1772534493853523200,5.007523193359375,0.5186310410499573,0.10957403481006622,0.08920899033546448
1772534493863540200,5.017540283203125,0.5275020599365234,0.17241498827934265,0.16522538661956787
1772534493873556200,5.02755615234375,0.5137463212013245,0.1977669596672058,0.1607917696237564
1772534493883573200,5.0375732421875,0.48024410009384155,0.1399136781692505,0.08122130483388901
1772534493893589200,5.04758935546875,0.45395416021347046,0.042683519423007965,-0.02610541507601738
1772534493903606300,5.057606201171875,0.44705671072006226,-0.04969623684883118,-0.10357753932476044
1772534493913622000,5.0676220703125,0.446549654006958,-0.11978105455636978,-0.13037613034248352
1772534493923639300,5.077639404296875,0.4330316185951233,-0.1711038500070572,-0.12089669704437256
1772534493933655300,5.0876552734375,0.39384347200393677,-0.23669111728668213,-0.11639302968978882
1772534493943671300,5.09767138671875,0.30985885858535767,-0.33007657527923584,-0.13441205024719238
1772534493953688000,5.10768798828125,0.17845316231250763,-0.45934775471687317,-0.1731024533510208
1772534493963704300,5.117704345703125,0.028976473957300186,-0.548166036605835,-0.2102574110031128
1772534493973721300,5.127721435546875,-0.10801652818918228,-0.596737802028656,-0.24028214812278748
1772534493983737300,5.1377373046875,-0.20370568335056305,-0.6241106986999512,-0.25532692670822144
1772534493993754000,5.147754150390625,-0.26001182198524475,-0.6138461232185364,-0.23939938843250275
1772534494003770400,5.157770263671875,-0.3021368086338043,-0.5152660012245178,-0.19515343010425568
1772534494013787400,5.167787353515625,-0.31734558939933777,-0.3571658432483673,-0.14081960916519165
1772534494023803100,5.17780322265625,-0.3042003810405731,-0.16790615022182465,-0.10030686110258102
1772534494033820200,5.187820068359375,-0.2781762480735779,0.046965669840574265,-0.12523803114891052
1772534494043836400,5.19783642578125,-0.2381564974784851,0.2427230328321457,-0.21608594059944153
1772534494053853200,5.207853271484375,-0.20113243162631989,0.37931761145591736,-0.33423495292663574
1772534494063869200,5.217869140625,-0.18074268102645874,0.43503761291503906,-0.43755537271499634
1772534494073886200,5.22788623046875,-0.1867891252040863,0.37801453471183777,-0.47636428475379944
1772534494083902500,5.23790234375,-0.20359432697296143,0.3312685489654541,-0.43343302607536316
1772534494093919200,5.247919189453125,-0.20087097585201263,0.31933093070983887,-0.3296360671520233
1772534494103935200,5.257935302734375,-0.17762646079063416,0.2750535011291504,-0.21325381100177765
1772534494113951200,5.267951171875,-0.12987570464611053,0.1767873913049698,-0.11751369386911392
1772534494123968000,5.277968017578125,-0.062294140458106995,0.055334340780973434,-0.048655249178409576
1772534494133984300,5.287984375,0.02197280153632164,-0.026609525084495544,-0.013994207605719566
1772534494144001300,5.298001220703125,0.12083201110363007,-0.09366902709007263,-0.007467253599315882
1772534494154017300,5.308017333984375,0.2137174755334854,-0.1435774564743042,-0.01207052730023861
1772534494164660200,5.31866015625,0.2821548283100128,-0.16577249765396118,-0.019252540543675423
1772534494174676200,5.32867626953125,0.30919426679611206,-0.15301565825939178,-0.014534895308315754
1772534494184693200,5.338693359375,0.3057534694671631,-0.1105843037366867,-0.0023232358507812023
1772534494194709200,5.348709228515625,0.27460458874702454,-0.09658938646316528,0.003872075816616416
1772534494204726300,5.358726318359375,0.2347719818353653,-0.0586315356194973,0.0005588415078818798
1772534494214742300,5.3687421875,0.19151344895362854,-0.02001490257680416,-0.010033348575234413
1772534494224759300,5.37875927734375,0.14258253574371338,0.013658597134053707,-0.02780422568321228
1772534494234775300,5.388775390625,0.08643776178359985,0.041841499507427216,-0.04748738184571266
1772534494244791300,5.398791259765625,0.02984081767499447,0.05354195088148117,-0.05408863350749016
1772534494254808000,5.40880810546875,-0.030342893674969673,0.10363174974918365,-0.04159041866660118
1772534494264824000,5.418823974609375,-0.08893974870443344,0.15563133358955383,-0.008553504943847656
1772534494274841300,5.42884130859375,-0.1434410810470581,0.20170561969280243,0.03931654989719391
1772534494284857300,5.438857421875,-0.20183397829532623,0.2484477460384369,0.08090158551931381
1772534494294874000,5.4488740234375,-0.25566765666007996,0.24793589115142822,0.12374412268400192
1772534494304890000,5.45889013671875,-0.3042716085910797,0.21323587000370026,0.16082864999771118
1772534494314907400,5.468907470703125,-0.33848604559898376,0.20576995611190796,0.189570814371109
1772534494324923400,5.47892333984375,-0.3519451916217804,0.19745546579360962,0.19768624007701874
1772534494334940200,5.488940185546875,-0.35134705901145935,0.1709490269422531,0.18894201517105103
1772534494344956200,5.4989560546875,-0.35130375623703003,0.18690025806427002,0.17555846273899078
1772534494354973400,5.508973388671875,-0.37166041135787964,0.22075755894184113,0.15090371668338776
1772534494364989200,5.5189892578125,-0.40067002177238464,0.24430213868618011,0.10784783959388733
1772534494375006200,5.529006103515625,-0.42648857831954956,0.22610102593898773,0.055890634655952454
1772534494385022200,5.539022216796875,-0.44977298378944397,0.12351793050765991,0.015644364058971405
1772534494395039200,5.549039306640625,-0.47898465394973755,-0.047512397170066833,-0.003131454810500145
1772534494405055200,5.55905517578125,-0.49490344524383545,-0.26849228143692017,0.012329069897532463
1772534494415072300,5.569072265625,-0.5183925032615662,-0.4870033264160156,0.06745277345180511
1772534494425088300,5.579088134765625,-0.5934123992919922,-0.6048734188079834,0.1554163098335266
1772534494435104300,5.589104248046875,-0.7309414744377136,-0.6206989884376526,0.24216611683368683
1772534494445121300,5.599121337890625,-0.8735641837120056,-0.6064048409461975,0.26914408802986145
1772534494455137300,5.60913720703125,-0.988151490688324,-0.5790283679962158,0.21649765968322754
1772534494465154000,5.619154052734375,-1.0691871643066406,-0.46963536739349365,0.09214481711387634
1772534494475170000,5.629170166015625,-1.1141290664672852,-0.3049612045288086,-0.07937260717153549
1772534494485187300,5.639187255859375,-1.120963215827942,-0.13728618621826172,-0.2650252878665924
1772534494495203300,5.649203369140625,-1.092227578163147,0.06250719726085663,-0.4230825901031494
1772534494505220000,5.65922021484375,-1.0453789234161377,0.29081863164901733,-0.5340670943260193
1772534494515236000,5.669236083984375,-0.9874008893966675,0.5180081725120544,-0.5920339822769165
1772534494525253400,5.67925341796875,-0.9037349820137024,0.7442143559455872,-0.6051487326622009
1772534494535269400,5.689269287109375,-0.7905024290084839,0.9301648139953613,-0.5823019742965698
1772534494545286100,5.6992861328125,-0.6332741975784302,0.9917855262756348,-0.5057308077812195
1772534494555302100,5.70930224609375,-0.4015931785106659,1.0113109350204468,-0.36082959175109863
1772534494565319200,5.719319091796875,-0.08011741936206818,1.0145703554153442,-0.1757793128490448
1772534494575335000,5.7293349609375,0.2854958474636078,0.9477681517601013,0.01281070988625288
1772534494585352000,5.73935205078125,0.6004724502563477,0.7411169409751892,0.1762441098690033
1772534494595368200,5.7493681640625,0.9112145900726318,0.4001224935054779,0.30915120244026184
1772534494605385000,5.759385009765625,1.156729817390442,0.06183391809463501,0.43385744094848633
1772534494615401000,5.76940087890625,1.3155168294906616,-0.2321714162826538,0.5239516496658325
1772534494625417000,5.7794169921875,1.4035236835479736,-0.5071007013320923,0.5786183476448059
1772534494635434200,5.789434326171875,1.4182488918304443,-0.7563610672950745,0.5879387855529785
1772534494645450200,5.7994501953125,1.3436774015426636,-0.9623701572418213,0.5320331454277039
1772534494655467000,5.809467041015625,1.160843014717102,-1.110181212425232,0.42855575680732727
1772534494665483000,5.81948291015625,0.8861961960792542,-1.1301597356796265,0.2977021634578705
1772534494675500000,5.8295,0.5745320916175842,-0.9893448948860168,0.15816016495227814
1772534494685516000,5.83951611328125,0.292818158864975,-0.7103755474090576,0.023885982111096382
1772534494695533000,5.849532958984375,0.08760810643434525,-0.3490418493747711,-0.11913871765136719
1772534494705549000,5.859549072265625,-0.011298497207462788,0.00810431782156229,-0.2703886926174164
1772534494715565800,5.86956591796875,0.0007217166130430996,0.262464702129364,-0.4160348176956177
1772534494725582000,5.87958203125,0.08154839277267456,0.38286781311035156,-0.5144082307815552
1772534494735599000,5.88959912109375,0.1770671010017395,0.40317025780677795,-0.5326224565505981
1772534494745615000,5.899614990234375,0.24796603620052338,0.3258640170097351,-0.45075926184654236
1772534494755631900,5.9096318359375,0.28473323583602905,0.2367994636297226,-0.2777365744113922
1772534494765648100,5.919648193359375,0.2949845492839813,0.19906751811504364,-0.06754205375909805
1772534494775665200,5.9296650390625,0.28178244829177856,0.15983732044696808,0.12650643289089203
1772534494785681000,5.939680908203125,0.2648721933364868,0.08790774643421173,0.2577797770500183
1772534494795698000,5.949697998046875,0.27115747332572937,0.005518058314919472,0.30516746640205383
1772534494805714200,5.959714111328125,0.30423232913017273,-0.07905488461256027,0.2871463894844055
1772534494815731000,5.96973095703125,0.3535168170928955,-0.0887737050652504,0.24878430366516113
1772534494825747000,5.979746826171875,0.3884356617927551,-0.0017147029284387827,0.21448464691638947
1772534494835763000,5.989762939453125,0.39777886867523193,0.08651496469974518,0.1909821778535843
1772534494845780200,5.9997802734375,0.374981164932251,0.13121531903743744,0.1619555801153183
1772534494855796200,6.009796142578125,0.33529192209243774,0.11466719210147858,0.1432078629732132
1772534494865813000,6.01981298828125,0.28954625129699707,0.10239321738481522,0.1624867469072342
1772534494875829000,6.0298291015625,0.26086127758026123,0.10634837299585342,0.21987462043762207
1772534494885846000,6.039845947265625,0.25706493854522705,0.09945397824048996,0.2927089035511017
1772534494895862000,6.049862060546875,0.2518094480037689,0.08987682312726974,0.34366345405578613
1772534494905879000,6.059879150390625,0.22749397158622742,0.14009711146354675,0.33020517230033875
1772534494915895000,6.06989501953125,0.1949419230222702,0.16642065346240997,0.24746748805046082
1772534494925912000,6.079912109375,0.1715705543756485,0.13705210387706757,0.12547527253627777
1772534494935928000,6.089927978515625,0.17168357968330383,0.013780998066067696,0.001493270741775632
1772534494945945000,6.099945068359375,0.20573103427886963,-0.18391290307044983,-0.07864737510681152
1772534494955961000,6.109961181640625,0.28340965509414673,-0.40252992510795593,-0.07810122519731522
1772534494965978000,6.11997802734375,0.4157772958278656,-0.5830727815628052,0.016579478979110718
1772534494975994000,6.129994140625,0.5832387804985046,-0.6822603940963745,0.19866399466991425
1772534494986011100,6.14001123046875,0.7501643896102905,-0.6212838888168335,0.4355071783065796
1772534494996027000,6.15002685546875,0.8869690895080566,-0.44333648681640625,0.6524863839149475
1772534495006044200,6.160044189453125,0.9950816631317139,-0.2806500792503357,0.752853512763977
1772534495016060200,6.17006005859375,1.0797199010849,-0.21380123496055603,0.6964484453201294
1772534495026077000,6.180076904296875,1.1555508375167847,-0.1976371854543686,0.5344725847244263
1772534495036093000,6.190093017578125,1.2187355756759644,-0.13837186992168427,0.36494365334510803
1772534495046110200,6.200110107421875,1.2559682130813599,-0.05193565785884857,0.25119271874427795
1772534495056126200,6.210126220703125,1.2798449993133545,-0.002932160161435604,0.1935105174779892
1772534495066143000,6.22014306640625,1.3029013872146606,-0.04450863227248192,0.18008258938789368
1772534495076159000,6.230158935546875,1.322758436203003,-0.06960159540176392,0.18781280517578125
1772534495086175000,6.240175048828125,1.3447144031524658,-0.07024688273668289,0.2211497277021408
1772534495096192000,6.25019189453125,1.3705207109451294,-0.06488768756389618,0.2912221848964691
1772534495106208000,6.2602080078125,1.3754475116729736,0.01436266116797924,0.37838906049728394
1772534495116225000,6.27022509765625,1.347286581993103,0.139259472489357,0.4400314688682556
1772534495126241000,6.280240966796875,1.306861400604248,0.29328790307044983,0.4255627989768982
1772534495136258000,6.290258056640625,1.255277395248413,0.406281441450119,0.31740477681159973
1772534495146274000,6.300274169921875,1.1821284294128418,0.4719022810459137,0.14323696494102478
1772534495156291000,6.310291015625,1.0856362581253052,0.4891246259212494,-0.041802335530519485
1772534495166307000,6.32030712890625,0.9620459675788879,0.38626721501350403,-0.18338637053966522
1772534495176324000,6.330323974609375,0.8137617111206055,0.1884758621454239,-0.2371862232685089
1772534495186340000,6.340340087890625,0.6751284599304199,0.03737582638859749,-0.20322825014591217
1772534495196357000,6.350357177734375,0.5602390766143799,-0.05502186715602875,-0.11506209522485733
1772534495206372900,6.360372802734375,0.46653178334236145,-0.09526782482862473,-0.03516619652509689
1772534495216390100,6.37039013671875,0.37536922097206116,-0.09666375070810318,-0.012791978195309639
1772534495226406100,6.38040625,0.2775079011917114,-0.059431422501802444,-0.07242175191640854
1772534495236423000,6.3904228515625,0.17608517408370972,-0.019263222813606262,-0.19354839622974396
1772534495246439000,6.40043896484375,0.06952225416898727,-0.0006357423262670636,-0.3255285322666168
1772534495256456200,6.410456298828125,-0.028465233743190765,0.020058980211615562,-0.4080445468425751
1772534495266472200,6.42047216796875,-0.10310351848602295,0.08789848536252975,-0.40871965885162354
1772534495276489000,6.430489013671875,-0.15371672809123993,0.22273501753807068,-0.34762001037597656
1772534495286505000,6.4405048828125,-0.19100071489810944,0.39727407693862915,-0.27708035707473755
1772534495296522200,6.450522216796875,-0.21841195225715637,0.5340850353240967,-0.24071775376796722
1772534495306538000,6.4605380859375,-0.24505634605884552,0.6340651512145996,-0.24115104973316193
1772534495316555000,6.470554931640625,-0.2563073933124542,0.7097697854042053,-0.25022417306900024
1772534495326571000,6.480571044921875,-0.2187485694885254,0.7535455226898193,-0.24075476825237274
1772534495336587000,6.4905869140625,-0.12453609704971313,0.7767771482467651,-0.21514049172401428
1772534495346604000,6.50060400390625,0.011234790086746216,0.7660739421844482,-0.18557009100914001
1772534495356620000,6.5106201171875,0.15407373011112213,0.6996896862983704,-0.14991888403892517
1772534495366637000,6.520636962890625,0.2809411287307739,0.5925605893135071,-0.09199965745210648
1772534495376653000,6.530653076171875,0.3654514253139496,0.5016657710075378,-0.02062687650322914
1772534495386670000,6.540670166015625,0.41469138860702515,0.42463037371635437,0.041025303304195404
1772534495396686000,6.55068603515625,0.44722020626068115,0.31867629289627075,0.09153468906879425
1772534495406703000,6.560703125,0.4743735194206238,0.18346306681632996,0.13754451274871826
1772534495416718800,6.57071875,0.49345365166664124,0.07531444728374481,0.18688452243804932
1772534495426736000,6.580736083984375,0.49978452920913696,0.09089261293411255,0.25505557656288147
1772534495436752100,6.590752197265625,0.49841293692588806,0.19343683123588562,0.32915830612182617
1772534495446769000,6.600768798828125,0.4849671423435211,0.26987624168395996,0.37408849596977234
1772534495456785000,6.610784912109375,0.4660053253173828,0.2980314791202545,0.3497782349586487
1772534495466802200,6.62080224609375,0.44762125611305237,0.2556009292602539,0.25299230217933655
1772534495476818200,6.630818115234375,0.4167114794254303,0.17854781448841095,0.1288726031780243
1772534495486835000,6.6408349609375,0.37209099531173706,0.08935002237558365,0.016099989414215088
1772534495496851000,6.650850830078125,0.3113000690937042,-0.026800137013196945,-0.054555196315050125
1772534495506868200,6.6608681640625,0.2543531656265259,-0.10474845767021179,-0.08003046363592148
1772534495516884000,6.670884033203125,0.21751156449317932,-0.17086267471313477,-0.0771065354347229
1772534495526901000,6.68090087890625,0.20861154794692993,-0.2601110637187958,-0.062160879373550415
1772534495536917000,6.6909169921875,0.20392705500125885,-0.3613911271095276,-0.02805289439857006
1772534495546934000,6.70093408203125,0.18870656192302704,-0.4084435999393463,0.029752880334854126
1772534495556950000,6.710949951171875,0.17164188623428345,-0.3800053894519806,0.10932494699954987
1772534495566967000,6.720967041015625,0.14750193059444427,-0.2968023717403412,0.18135759234428406
1772534495576983300,6.7309833984375,0.1270335614681244,-0.13745565712451935,0.21837152540683746
1772534495586999300,6.740999267578125,0.11113661527633667,0.04649979621171951,0.2040221393108368
1772534495597016000,6.75101611328125,0.10424768924713135,0.20561663806438446,0.14078833162784576
1772534495607032000,6.761031982421875,0.11541379243135452,0.32109397649765015,0.06110842153429985
1772534495617049300,6.77104931640625,0.1378188282251358,0.3802734613418579,0.0064681340008974075
1772534495627065000,6.781065185546875,0.17477178573608398,0.3926105499267578,-0.012910357676446438
1772534495637082000,6.79108203125,0.21831603348255157,0.32211917638778687,0.02724485471844673
1772534495647098000,6.80109814453125,0.2630416750907898,0.24945186078548431,0.11153549700975418
1772534495657115100,6.811115234375,0.29366329312324524,0.17539317905902863,0.20641595125198364
1772534495667131100,6.821131103515625,0.30843451619148254,0.11998211592435837,0.27228736877441406
1772534495677148200,6.831148193359375,0.31437090039253235,0.042734794318675995,0.2794572114944458
1772534495687164200,6.8411640625,0.3127802014350891,-0.07089217007160187,0.22205862402915955
1772534495697181200,6.85118115234375,0.30817505717277527,-0.20983274281024933,0.11949948966503143
1772534495707197200,6.861197265625,0.2882809638977051,-0.33288222551345825,0.0233809482306242
1772534495717214200,6.871214111328125,0.26718905568122864,-0.45789581537246704,-0.027724461629986763
1772534495727230000,6.88122998046875,0.25811833143234253,-0.463691383600235,-0.016858763992786407
1772534495737247200,6.891247314453125,0.24934959411621094,-0.38572922348976135,0.03357085585594177
1772534495747263200,6.90126318359375,0.24749203026294708,-0.26193296909332275,0.09300009161233902
1772534495757280000,6.911280029296875,0.2437060922384262,-0.10499850660562515,0.1270185112953186
1772534495767296000,6.9212958984375,0.22466376423835754,0.07492890954017639,0.11730464547872543
1772534495777313300,6.931313232421875,0.2019566148519516,0.26110050082206726,0.05645959451794624
1772534495787329300,6.941329345703125,0.20413294434547424,0.3908989727497101,-0.03489188849925995
1772534495797346000,6.951345947265625,0.2527221143245697,0.4916430711746216,-0.12317193299531937
1772534495807362000,6.961362060546875,0.32625865936279297,0.5164921879768372,-0.1812983602285385
1772534495817379300,6.97137939453125,0.40095555782318115,0.4719464182853699,-0.1960458755493164
1772534495827395300,6.981395263671875,0.46428021788597107,0.42928364872932434,-0.17095251381397247
1772534495837412000,6.991412109375,0.5231714844703674,0.33228692412376404,-0.13710787892341614
1772534495847428000,7.001427978515625,0.5916293859481812,0.15499764680862427,-0.10201168060302734
1772534495857445000,7.011445068359375,0.6643253564834595,-0.0038658855482935905,-0.06452789157629013
1772534495867461000,7.021461181640625,0.7170247435569763,-0.09063327312469482,-0.019279450178146362
1772534495877477000,7.03147705078125,0.7514885663986206,-0.09922429174184799,0.019130539149045944
1772534495887494100,7.041494140625,0.7818994522094727,-0.056757792830467224,0.04094342887401581
1772534495897510100,7.05151025390625,0.8018786311149597,0.003207499859854579,0.03675280883908272
1772534495907527200,7.061527099609375,0.7973629832267761,0.09239383786916733,0.007320350501686335
1772534495917543200,7.071543212890625,0.7645577788352966,0.23366941511631012,-0.038911182433366776
1772534495927560200,7.081560302734375,0.7118876576423645,0.37943166494369507,-0.09001830965280533
1772534495937576000,7.091575927734375,0.6576201915740967,0.4996780455112457,-0.14080007374286652
1772534495947593200,7.10159326171875,0.6245303750038147,0.5729040503501892,-0.18130594491958618
1772534495957609200,7.111609130859375,0.6118281483650208,0.5897146463394165,-0.20186243951320648
1772534495967626000,7.1216259765625,0.628172755241394,0.5646223425865173,-0.20637543499469757
1772534495977642000,7.13164208984375,0.6721527576446533,0.5087795257568359,-0.20319581031799316
1772534495987659300,7.1416591796875,0.7371024489402771,0.4247623682022095,-0.19538529217243195
1772534495997675300,7.15167529296875,0.813670814037323,0.33407461643218994,-0.19665275514125824
1772534496007692000,7.161692138671875,0.8661572337150574,0.1696406900882721,-0.18703554570674896
1772534496017708000,7.1717080078125,0.8624012470245361,-0.0004778036382049322,-0.1338137984275818
1772534496027725300,7.181725341796875,0.8271676301956177,-0.017013370990753174,-0.032783329486846924
1772534496037741300,7.1917412109375,0.7855344414710999,0.0330846831202507,0.07985720038414001
1772534496047758000,7.201758056640625,0.7461602687835693,0.10561911761760712,0.15570496022701263
1772534496057774000,7.211774169921875,0.7249841690063477,0.16782842576503754,0.1698620468378067
1772534496067791000,7.221791015625,0.7252448797225952,0.2350330352783203,0.1056404635310173
1772534496077807000,7.23180712890625,0.7558218240737915,0.27680814266204834,0.002255083527415991
1772534496087824100,7.24182421875,0.7914843559265137,0.2830570340156555,-0.09311319142580032
1772534496097840000,7.251840087890625,0.7998911142349243,0.2734973728656769,-0.11805608868598938
1772534496107857200,7.261857177734375,0.7826817631721497,0.33014732599258423,-0.0676211416721344
1772534496117873200,7.271873046875,0.7664321660995483,0.38801321387290955,0.009614208713173866
1772534496127890200,7.28189013671875,0.7710104584693909,0.3845404386520386,0.049449771642684937
1772534496137906200,7.29190625,0.8067511916160583,0.32705628871917725,0.028449730947613716
1772534496147923200,7.301923095703125,0.8638104796409607,0.2223445177078247,-0.029964575543999672
1772534496157939200,7.311939208984375,0.8953863978385925,0.08526258170604706,-0.06671120971441269
1772534496167956200,7.321956298828125,0.8906790018081665,-0.005533367395401001,-0.04768158867955208
1772534496177972000,7.331971923828125,0.882240355014801,-0.044077318161726,0.02233591116964817
1772534496187988000,7.341988037109375,0.8914439678192139,-0.046284813433885574,0.10098438709974289
1772534496198005200,7.352005126953125,0.9231922030448914,-0.05268575996160507,0.1475200653076172
1772534496208021200,7.362021240234375,0.9639095664024353,-0.08645012229681015,0.14717012643814087
1772534496218038000,7.3720380859375,1.0052491426467896,-0.13663944602012634,0.11096791923046112
1772534496228054000,7.382053955078125,1.020304560661316,-0.15037043392658234,0.055641282349824905
1772534496238071300,7.3920712890625,1.0055937767028809,-0.18157516419887543,-0.011002333834767342
1772534496248087000,7.402087158203125,0.9837300181388855,-0.26835107803344727,-0.08215959370136261
1772534496258104000,7.41210400390625,0.9804908633232117,-0.40025076270103455,-0.13735315203666687
1772534496268120000,7.4221201171875,0.9965007305145264,-0.5539548397064209,-0.14268586039543152
1772534496278137000,7.43213720703125,1.0065385103225708,-0.7076590657234192,-0.05670170485973358
1772534496288153000,7.442153076171875,1.026321530342102,-0.7728402018547058,0.11795612424612045
1772534496298170000,7.452170166015625,1.065528154373169,-0.7909601330757141,0.3482462465763092
1772534496308186000,7.46218603515625,1.083997130393982,-0.7809956669807434,0.5861837267875671
1772534496318203100,7.472203125,1.0708433389663696,-0.538638174533844,0.7653905749320984
1772534496328219100,7.48221923828125,0.9885149002075195,-0.12331502884626389,0.8175501823425293
1772534496338236200,7.492236083984375,0.8560189604759216,0.35303062200546265,0.6777105927467346
1772534496348252200,7.502252197265625,0.7331591248512268,0.7211875915527344,0.358495831489563
1772534496358269200,7.512269287109375,0.639146089553833,0.9378321170806885,-0.05967022106051445
1772534496368285200,7.52228515625,0.5930851101875305,0.9583631753921509,-0.4346747398376465
1772534496378302200,7.53230224609375,0.5938014388084412,0.8539071083068848,-0.6635225415229797
1772534496388318000,7.54231787109375,0.6461445689201355,0.6698488593101501,-0.7133271098136902
1772534496398335200,7.552335205078125,0.7471919059753418,0.4046364426612854,-0.5909080505371094
1772534496408351200,7.562351318359375,0.8741825819015503,0.13803139328956604,-0.3478463888168335
1772534496418368000,7.572367919921875,0.9971612691879272,-0.06641406565904617,-0.05425338074564934
1772534496428384000,7.582384033203125,1.0870856046676636,-0.1713213175535202,0.20697343349456787
1772534496438401300,7.5924013671875,1.1359666585922241,-0.18442372977733612,0.3748548924922943
1772534496448417300,7.602417236328125,1.1426165103912354,-0.11676025390625,0.4085542559623718
1772534496458434000,7.61243408203125,1.1246986389160156,-0.006443018093705177,0.3200932443141937
1772534496468450000,7.622449951171875,1.1122089624404907,0.11149533092975616,0.15814374387264252
1772534496478467300,7.63246728515625,1.1175748109817505,0.2367866337299347,-0.012116266414523125
1772534496488483000,7.642483154296875,1.1441129446029663,0.3299304246902466,-0.1512126326560974
1772534496498500000,7.6525,1.1853508949279785,0.3815278708934784,-0.2156989574432373
1772534496508516000,7.66251611328125,1.2321125268936157,0.3782987892627716,-0.21120141446590424
1772534496518532000,7.672531982421875,1.2771326303482056,0.32415351271629333,-0.15025769174098969
1772534496528549000,7.682549072265625,1.3143616914749146,0.26968836784362793,-0.0646454468369484
1772534496538565000,7.692565185546875,1.3387717008590698,0.21124902367591858,0.025612812489271164
1772534496548582100,7.70258203125,1.350715160369873,0.16022151708602905,0.09041950106620789
1772534496558598000,7.712597900390625,1.3513202667236328,0.060465045273303986,0.12369908392429352
1772534496568615000,7.722614990234375,1.328454613685608,-0.028770823031663895,0.14795942604541779
1772534496578631000,7.732630859375,1.2847459316253662,-0.02078535407781601,0.1519414335489273
1772534496588648000,7.74264794921875,1.2199532985687256,0.038252364844083786,0.12562336027622223
1772534496598663700,7.75266357421875,1.1451411247253418,0.10883092880249023,0.07039099931716919
1772534496608681000,7.762680908203125,1.0634700059890747,0.1434573531150818,0.0007754352409392595
1772534496618697000,7.772697021484375,0.9673638939857483,0.1609431356191635,-0.062140412628650665
1772534496628713700,7.782713623046875,0.8612582683563232,0.17197102308273315,-0.11251250654459
1772534496638729700,7.792729736328125,0.7706344127655029,0.20603415369987488,-0.14383861422538757
1772534496648747000,7.8027470703125,0.6980093121528625,0.25762826204299927,-0.16727708280086517
1772534496658763000,7.812762939453125,0.6433077454566956,0.2957213222980499,-0.1987396627664566
1772534496668779800,7.82277978515625,0.6082903742790222,0.28614699840545654,-0.2230796366930008
1772534496678795800,7.832795654296875,0.5830878615379333,0.27343687415122986,-0.23055964708328247
1772534496688813000,7.84281298828125,0.5661054253578186,0.2683507800102234,-0.2118312269449234
1772534496698829000,7.8528291015625,0.5578578114509583,0.22111311554908752,-0.1740199476480484
1772534496708845800,7.862845703125,0.5775899887084961,0.181475430727005,-0.12472029775381088
1772534496718861800,7.87286181640625,0.6145390868186951,0.141408309340477,-0.07538536936044693
1772534496728878800,7.88287890625,0.659371554851532,0.08829208463430405,-0.03758765757083893
1772534496738894800,7.892894775390625,0.6892468929290771,0.04281408339738846,-0.02014288492500782
1772534496748911900,7.902911865234375,0.6888343691825867,0.024825498461723328,-0.029298832640051842
1772534496758928000,7.912927978515625,0.6710476875305176,0.021417422220110893,-0.05100671574473381
1772534496768945000,7.92294482421875,0.637090265750885,-0.004579024389386177,-0.0668027251958847
1772534496778961000,7.9329609375,0.5975353717803955,-0.003654464613646269,-0.06171870976686478
1772534496788978000,7.94297802734375,0.5698219537734985,0.04499642923474312,-0.021020280197262764
1772534496798994000,7.952993896484375,0.5659607648849487,0.09184793382883072,0.03023405745625496
1772534496809011000,7.963010986328125,0.5723198652267456,0.12228599935770035,0.0718613937497139
1772534496819027000,7.97302685546875,0.5647538900375366,0.14862024784088135,0.08957668393850327
1772534496829044000,7.9830439453125,0.5479011535644531,0.18098697066307068,0.0739830732345581
1772534496839059700,7.993059814453125,0.5421953201293945,0.18959102034568787,0.03499332815408707
1772534496849075700,8.00307568359375,0.5450376868247986,0.1512947678565979,-0.017005957663059235
1772534496859093000,8.013093017578125,0.541723370552063,0.07380876690149307,-0.045650385320186615
1772534496869109000,8.02310888671875,0.5415305495262146,-0.03368840366601944,-0.033251773566007614
1772534496879125800,8.033125732421874,0.5599861145019531,-0.1222800612449646,0.038493040949106216
1772534496889141800,8.043141845703126,0.5968589186668396,-0.14369428157806396,0.15115752816200256
1772534496899159000,8.053158935546875,0.6522758603096008,-0.1114528626203537,0.2608194649219513
1772534496909175000,8.063175048828125,0.7077910900115967,-0.06571707129478455,0.32885977625846863
1772534496919191800,8.07319189453125,0.7406281232833862,-0.029589755460619926,0.33716505765914917
1772534496929207800,8.083207763671876,0.7467784285545349,-0.00027314526960253716,0.29708153009414673
1772534496939224800,8.093224853515625,0.7258448004722595,0.021912574768066406,0.23518812656402588
1772534496949240800,8.10324072265625,0.684048056602478,-0.008014697581529617,0.1748131960630417
1772534496959257900,8.1132578125,0.6160566806793213,-0.048315100371837616,0.14283163845539093
1772534496969273900,8.12327392578125,0.5175751447677612,-0.06742967665195465,0.14949139952659607
1772534496979291000,8.133290771484376,0.40512847900390625,-0.020171400159597397,0.16169175505638123
1772534496989307000,8.143306884765625,0.28787320852279663,0.011714361608028412,0.14294016361236572
1772534496999324000,8.153323974609375,0.17088082432746887,-0.008739398792386055,0.08662808686494827
1772534497009340000,8.16333984375,0.0547342412173748,-0.06493768841028214,0.01225319318473339
1772534497019357000,8.17335693359375,-0.04924824833869934,-0.12398625910282135,-0.03251833841204643
1772534497029373000,8.183373046875,-0.13956154882907867,-0.18858158588409424,-0.04074585437774658
1772534497039390000,8.193389892578125,-0.20983543992042542,-0.21412663161754608,-0.023858483880758286
1772534497049405700,8.20340576171875,-0.253655344247818,-0.21616293489933014,-0.00714912498369813
1772534497059423000,8.213423095703124,-0.26220703125,-0.2121833860874176,-0.028708744794130325
1772534497069439000,8.22343896484375,-0.26187679171562195,-0.27820926904678345,-0.10106682777404785
1772534497079455700,8.233455810546875,-0.27729281783103943,-0.3794700503349304,-0.20688879489898682
1772534497089471700,8.2434716796875,-0.32136014103889465,-0.44733670353889465,-0.29622161388397217
1772534497099489000,8.253489013671874,-0.365313857793808,-0.4775058329105377,-0.3148960471153259
1772534497109505000,8.263505126953126,-0.3906101584434509,-0.4679829180240631,-0.24810156226158142
1772534497119521800,8.273521728515625,-0.4014362394809723,-0.41867494583129883,-0.12401658296585083
1772534497129537800,8.283537841796875,-0.3992793560028076,-0.3307752013206482,0.029337026178836823
1772534497139555000,8.29355517578125,-0.39282721281051636,-0.18091407418251038,0.16702699661254883
1772534497149570800,8.30357080078125,-0.3913736641407013,-0.01518342737108469,0.2603694498538971
1772534497159587800,8.313587890625,-0.40446731448173523,0.1272049993276596,0.29053208231925964
1772534497169603800,8.323603759765625,-0.43636560440063477,0.23940663039684296,0.2592732310295105
1772534497179620900,8.333620849609375,-0.4744615852832794,0.3204638957977295,0.17776459455490112
1772534497189636900,8.343636962890624,-0.5010799169540405,0.38761577010154724,0.07528216391801834
1772534497199654000,8.35365380859375,-0.5182049870491028,0.3924735188484192,-0.017390387132763863
1772534497209670000,8.363669921875,-0.5409249663352966,0.34200793504714966,-0.06868793070316315
1772534497219687000,8.37368701171875,-0.5615766048431396,0.23731158673763275,-0.05758827552199364
1772534497229703000,8.383702880859374,-0.5612554550170898,0.12382656335830688,0.014614548534154892
1772534497239719000,8.393718994140626,-0.5395352244377136,0.02736448124051094,0.11944056302309036
1772534497249736000,8.40373583984375,-0.5040478110313416,0.0017217013519257307,0.2199314832687378
1772534497259753000,8.4137529296875,-0.4712286591529846,0.015894105657935143,0.28501102328300476
1772534497269769000,8.42376904296875,-0.4635835289955139,0.062245894223451614,0.29548364877700806
1772534497279785000,8.433784912109376,-0.47737351059913635,0.10886102169752121,0.25100523233413696
1772534497289801700,8.4438017578125,-0.4971088767051697,0.12526370584964752,0.16740329563617706
1772534497299817700,8.453817626953125,-0.5057235360145569,0.12801064550876617,0.07789478451013565
1772534497309835000,8.4638349609375,-0.5078308582305908,0.12403853982686996,0.017578711733222008
1772534497319851000,8.47385107421875,-0.4967290759086609,0.13993708789348602,0.002632731571793556
1772534497329867800,8.48386767578125,-0.46306803822517395,0.1737954467535019,0.025015801191329956
1772534497339883800,8.4938837890625,-0.4313247501850128,0.21132178604602814,0.06011652946472168
1772534497349901000,8.503901123046875,-0.4170130789279938,0.24862855672836304,0.0812150239944458
1772534497359916800,8.513916748046874,-0.40237846970558167,0.27408358454704285,0.06958898901939392
1772534497369933800,8.523933837890626,-0.3916960060596466,0.2738676071166992,0.02741410583257675
1772534497379949800,8.53394970703125,-0.38251885771751404,0.26657983660697937,-0.025164619088172913
1772534497389966800,8.543966796875,-0.36935749650001526,0.23664723336696625,-0.07104369252920151
1772534497399982800,8.55398291015625,-0.3376888334751129,0.17494970560073853,-0.09546461701393127
1772534497410000000,8.563999755859374,-0.2933778166770935,0.10814563184976578,-0.09025893360376358
1772534497420015900,8.574015869140625,-0.23439215123653412,0.0646672323346138,-0.05580195412039757
1772534497430033000,8.584032958984375,-0.17941492795944214,0.05878724530339241,-0.013446776196360588
1772534497440049000,8.594048828125,-0.14574675261974335,0.06434822827577591,0.011489612981677055
1772534497450066000,8.60406591796875,-0.13022209703922272,0.04370381683111191,0.0029367213137447834
1772534497460082000,8.61408203125,-0.12417832762002945,-0.005318589508533478,-0.033590130507946014
1772534497470099000,8.624098876953125,-0.13663604855537415,-0.05595223605632782,-0.08792892843484879
1772534497480115000,8.634114990234375,-0.17200762033462524,-0.09703709185123444,-0.13957029581069946
1772534497490132000,8.644132080078125,-0.2098945528268814,-0.0995551124215126,-0.19764050841331482
1772534497500147700,8.654147705078126,-0.25065165758132935,-0.0833631083369255,-0.26501014828681946
1772534497510165000,8.6641650390625,-0.28297150135040283,-0.052131954580545425,-0.348575621843338
1772534497520181000,8.674180908203125,-0.31583940982818604,-0.06525403261184692,-0.44916754961013794
1772534497530197800,8.68419775390625,-0.3481445908546448,-0.058389145880937576,-0.545346200466156
1772534497540213800,8.6942138671875,-0.3936343193054199,-0.1806117296218872,-0.5470461249351501
1772534497550231000,8.70423095703125,-0.4300597608089447,-0.2099541276693344,-0.44618135690689087
1772534497560246800,8.714246826171875,-0.4201754331588745,-0.09523873031139374,-0.26246345043182373
1772534497570263800,8.724263916015625,-0.3484482765197754,0.05687064304947853,-0.04804251343011856
1772534497580279800,8.73427978515625,-0.2447994500398636,0.24575954675674438,0.12255360186100006
1772534497590296800,8.744296875,-0.1442675143480301,0.39729076623916626,0.19640971720218658
1772534497600312800,8.754312744140625,-0.05851797014474869,0.4750453233718872,0.15838342905044556
1772534497610329900,8.764329833984375,0.001549630193039775,0.4970209300518036,0.051764313131570816
1772534497620345900,8.774345947265624,0.05671960860490799,0.4853495657444,-0.05840199440717697
1772534497630362600,8.784362548828126,0.11390886455774307,0.46184104681015015,-0.11826293170452118
1772534497640378600,8.794378662109375,0.17799079418182373,0.39726343750953674,-0.12070305645465851
1772534497650396000,8.80439599609375,0.235664963722229,0.28688880801200867,-0.07167346030473709
1772534497660412000,8.814411865234375,0.23829056322574615,0.1385749727487564,0.018435388803482056
1772534497670428700,8.8244287109375,0.21353834867477417,0.03176011145114899,0.1401282697916031
1772534497680444700,8.834444580078125,0.19172851741313934,-0.02466971054673195,0.26849716901779175
1772534497690460700,8.844460693359375,0.17372475564479828,0.004372593946754932,0.37581804394721985
1772534497700478000,8.85447802734375,0.17065085470676422,0.11776068061590195,0.4302365481853485
1772534497710493700,8.86449365234375,0.19081257283687592,0.2493695616722107,0.4275800287723541
1772534497720510700,8.8745107421875,0.21238870918750763,0.3719319701194763,0.3685667812824249
1772534497730526700,8.884526611328125,0.21856571733951569,0.44542407989501953,0.2645571231842041
1772534497740543700,8.894543701171875,0.2157207727432251,0.43305617570877075,0.1441095769405365
1772534497750559700,8.904559814453124,0.221891850233078,0.3882921636104584,0.04002205282449722
1772534497760576800,8.91457666015625,0.24303926527500153,0.3274613618850708,-0.024177581071853638
1772534497770592800,8.9245927734375,0.2845739424228668,0.22068645060062408,-0.041796255856752396
1772534497780609800,8.93460986328125,0.35048794746398926,0.03611917421221733,-0.011566984467208385
1772534497790625800,8.944625732421875,0.40926364064216614,-0.18903803825378418,0.05545439571142197
1772534497800642800,8.954642822265624,0.43275201320648193,-0.3949993848800659,0.14843787252902985
1772534497810658800,8.964658935546876,0.4224855303764343,-0.5397533774375916,0.23230160772800446
1772534497820675800,8.97467578125,0.3907630443572998,-0.575397789478302,0.27268731594085693
1772534497830691800,8.98469189453125,0.3506656885147095,-0.5084691047668457,0.23980553448200226
1772534497840708600,8.99470849609375,0.3021512031555176,-0.3817542493343353,0.1359492987394333
1772534497850724600,9.004724609375,0.26100799441337585,-0.21004725992679596,-0.007006912026554346
1772534497860742000,9.014741943359375,0.2563040554523468,0.0017496752552688122,-0.15664727985858917
1772534497870758000,9.0247578125,0.29921048879623413,0.22766830027103424,-0.275861531496048
1772534497880774700,9.034774658203125,0.3852749764919281,0.4270698130130768,-0.3298949599266052
1772534497890790700,9.044790771484376,0.5095980167388916,0.5535875558853149,-0.314851850271225
1772534497900808000,9.054807861328126,0.6546683311462402,0.6105820536613464,-0.24172760546207428
1772534497910824000,9.064823974609375,0.7786803245544434,0.588273286819458,-0.14437521994113922
1772534497920840700,9.0748408203125,0.8688279390335083,0.502410888671875,-0.031131945550441742
1772534497930856700,9.084856689453124,0.9060701131820679,0.4021136164665222,0.0890493243932724
1772534497940874000,9.0948740234375,0.9105635285377502,0.3201315701007843,0.17741911113262177
1772534497950889700,9.1048896484375,0.9025943875312805,0.2181469351053238,0.21399402618408203
1772534497960906800,9.11490673828125,0.9036948084831238,0.13259901106357574,0.1904839128255844
1772534497970922800,9.1249228515625,0.9269899725914001,0.06776624172925949,0.10876522958278656
1772534497980939800,9.134939697265626,0.9724181890487671,-0.02779223769903183,0.0010163935367017984
1772534497990955800,9.144955810546875,1.0127429962158203,-0.1382521688938141,-0.09714585542678833
1772534498000972800,9.154972900390625,1.0316710472106934,-0.22194525599479675,-0.16040989756584167
1772534498010988800,9.16498876953125,1.012056589126587,-0.2777336835861206,-0.18649902939796448
1772534498021005800,9.175005859375,0.9502120614051819,-0.29837414622306824,-0.1903681606054306
1772534498031021800,9.185021728515625,0.8563172817230225,-0.3201601207256317,-0.19011196494102478
1772534498041038800,9.195038818359375,0.7452771067619324,-0.3416088819503784,-0.19843637943267822
1772534498051054600,9.2050546875,0.6201376914978027,-0.32364553213119507,-0.22312943637371063
1772534498061072000,9.21507177734375,0.5053554773330688,-0.24497149884700775,-0.2582666575908661
1772534498071087900,9.225087890625,0.4288681447505951,-0.12895222008228302,-0.3189883232116699
1772534498081104600,9.235104736328125,0.3703846335411072,-0.0008542257128283381,-0.3967795670032501
1772534498091120600,9.24512060546875,0.33491799235343933,0.10415421426296234,-0.47210362553596497
1772534498101138000,9.255137939453125,0.3153408467769623,0.16451774537563324,-0.520645022392273
1772534498111154000,9.26515380859375,0.3197534382343292,0.18724437057971954,-0.5194939970970154
1772534498121170700,9.275170654296875,0.34870249032974243,0.14346732199192047,-0.473084419965744
1772534498131186700,9.285186767578125,0.39015111327171326,0.04666249081492424,-0.3918105959892273
1772534498141204000,9.295203857421875,0.43009135127067566,-0.06099449470639229,-0.2884382903575897
1772534498151220000,9.305219970703124,0.4549655318260193,-0.16787061095237732,-0.17941568791866302
1772534498161236700,9.31523681640625,0.4546795189380646,-0.2631393373012543,-0.08286678791046143
1772534498171252700,9.325252685546875,0.43060827255249023,-0.31874558329582214,-0.012872518040239811
1772534498181269800,9.335269775390625,0.3913150131702423,-0.3278433382511139,0.01869158446788788
1772534498191285800,9.34528564453125,0.35411426424980164,-0.3349730968475342,0.012772578746080399
1772534498201301800,9.3553017578125,0.3166627585887909,-0.36167341470718384,-0.01946844905614853
1772534498211318800,9.36531884765625,0.2831213176250458,-0.3730906546115875,-0.04864843562245369
1772534498221334800,9.375334716796875,0.23730213940143585,-0.3393036723136902,-0.05870932340621948
1772534498231351800,9.385351806640625,0.1687183827161789,-0.241877019405365,-0.060610733926296234
1772534498241367800,9.395367919921876,0.07631974667310715,-0.12556931376457214,-0.07249722629785538
1772534498251384800,9.405384765625,-0.015095924958586693,-0.035500768572092056,-0.09079176932573318
1772534498261400600,9.415400634765625,-0.07979422807693481,0.02825477533042431,-0.11394289880990982
1772534498271417900,9.42541796875,-0.12391336262226105,0.05739474296569824,-0.13052937388420105
1772534498281433900,9.435433837890624,-0.1463979035615921,0.07937248051166534,-0.13382317125797272
1772534498291450600,9.44545068359375,-0.14614829421043396,0.08842527121305466,-0.12432288378477097
1772534498301466600,9.455466552734375,-0.132638618350029,0.03501264378428459,-0.08893799036741257
1772534498311484000,9.46548388671875,-0.12807315587997437,-0.05423547700047493,-0.02223566174507141
1772534498321500000,9.4755,-0.1360716074705124,-0.11949633806943893,0.0820242166519165
1772534498331516700,9.4855166015625,-0.14715489745140076,-0.16479632258415222,0.20361071825027466
1772534498341532700,9.49553271484375,-0.16455359756946564,-0.21432605385780334,0.317268043756485
1772534498351550000,9.505550048828125,-0.1946106255054474,-0.24726155400276184,0.4032441973686218
1772534498361566000,9.51556591796875,-0.24272915720939636,-0.2807864546775818,0.44221609830856323
1772534498371582700,9.525582763671874,-0.3070201873779297,-0.30561062693595886,0.4309735596179962
1772534498381598700,9.5355986328125,-0.4854687452316284,-0.20558786392211914,0.3847179114818573
1772534498391615700,9.54561572265625,-0.6446380019187927,-0.0383823923766613,0.2896639108657837
1772534498401631700,9.5556318359375,-0.645142674446106,-0.023079868406057358,0.15666112303733826
1772534498411648800,9.565648681640624,-0.6045706272125244,-0.05039479583501816,0.0014684628695249557
1772534498421664800,9.575664794921876,-0.610878586769104,-0.0043415492400527,-0.1515788733959198
1772534498431681800,9.585681884765625,-0.6674091219902039,0.06773911416530609,-0.2884086072444916
1772534498441697800,9.59569775390625,-0.7229245901107788,0.11003170907497406,-0.3884236216545105
1772534498451714800,9.60571484375,-0.7310761213302612,0.0996703952550888,-0.41825124621391296
1772534498461730800,9.615730712890626,-0.7087377905845642,0.09490866959095001,-0.3666093349456787
1772534498471747800,9.625747802734375,-0.6905301809310913,0.10027826577425003,-0.25169965624809265
1772534498481763800,9.635763916015625,-0.7084793448448181,0.10760941356420517,-0.10366200655698776
1772534498491780900,9.64578076171875,-0.7516384124755859,0.1194060742855072,0.03555498644709587
1772534498501796600,9.655796630859374,-0.7717862725257874,0.1157974973320961,0.12824657559394836
1772534498511814000,9.66581396484375,-0.7542762756347656,0.09047802537679672,0.15275618433952332
1772534498521830000,9.675829833984375,-0.7034943103790283,0.05006354674696922,0.1074201911687851
1772534498531846700,9.6858466796875,-0.6385302543640137,0.016629161313176155,0.006122599355876446
1772534498541862700,9.695862548828124,-0.583916425704956,-0.031882576644420624,-0.13155417144298553
1772534498551880000,9.7058798828125,-0.542971134185791,-0.09948398917913437,-0.265127956867218
1772534498561895700,9.715895751953125,-0.5110183358192444,-0.14427323639392853,-0.35304421186447144
1772534498571912400,9.725912353515625,-0.47107091546058655,-0.16264185309410095,-0.3788944482803345
1772534498581928400,9.735928466796874,-0.4195193648338318,-0.1640446037054062,-0.3351169228553772
1772534498591945700,9.74594580078125,-0.3617309033870697,-0.10031036287546158,-0.2294594943523407
1772534498601961700,9.755961669921875,-0.3177703320980072,-0.00044477637857198715,-0.07377874106168747
1772534498611978500,9.765978515625,-0.2835732102394104,0.12260152399539948,0.10397660732269287
1772534498621994500,9.775994384765625,-0.2663218379020691,0.22533279657363892,0.27180713415145874
1772534498632011800,9.78601171875,-0.27269718050956726,0.2769230306148529,0.39802631735801697
1772534498642027500,9.796027587890626,-0.2924478352069855,0.2566196024417877,0.45732420682907104
1772534498652044500,9.80604443359375,-0.3032488226890564,0.1738315224647522,0.45131585001945496
1772534498662060500,9.816060546875,-0.2899833023548126,0.06409952789545059,0.39583903551101685
1772534498672077300,9.826077392578124,-0.26479753851890564,-0.05344867706298828,0.305641770362854
1772534498682093600,9.836093505859376,-0.2447701245546341,-0.17381952702999115,0.19046874344348907
1772534498692110600,9.846110595703125,-0.25346213579177856,-0.28417402505874634,0.06060022488236427
1772534498702126600,9.856126708984375,-0.2910064160823822,-0.3556738793849945,-0.06935816258192062
1772534498712143400,9.866143310546875,-0.3401776850223541,-0.42694246768951416,-0.1877782940864563
1772534498722159600,9.87615966796875,-0.3819830119609833,-0.4808584451675415,-0.2678906321525574
1772534498732176600,9.8861767578125,-0.4009564518928528,-0.5010129809379578,-0.30580073595046997
1772534498742192400,9.8961923828125,-0.40087413787841797,-0.5006265640258789,-0.29009580612182617
1772534498752209400,9.90620947265625,-0.38794824481010437,-0.44972023367881775,-0.21963894367218018
1772534498762225700,9.9162255859375,-0.3844357132911682,-0.3646949231624603,-0.11278599500656128
1772534498772242400,9.926242431640626,-0.3730371296405792,-0.2547564208507538,-0.0025010337121784687
1772534498782258400,9.936258544921875,-0.3599260449409485,-0.11743808537721634,0.10499347001314163
1772534498792275500,9.946275390625,-0.3522345721721649,0.04453163594007492,0.1669258177280426
1772534498802291700,9.956291748046874,-0.33892199397087097,0.1495324969291687,0.17169299721717834
1772534498812308500,9.96630859375,-0.31644490361213684,0.18813714385032654,0.12333478033542633
1772534498822324500,9.976324462890625,-0.2720380425453186,0.20989948511123657,0.012339700944721699
1772534498832341500,9.986341552734375,-0.20617088675498962,0.20319709181785583,-0.11059527844190598
1772534498842357800,9.996357666015625,-0.13558010756969452,0.158202663064003,-0.2201780527830124
1772534498852374500,10.00637451171875,-0.07084691524505615,0.10187920182943344,-0.28348562121391296
1772534498862390500,10.016390625,-0.024318106472492218,0.09170351177453995,-0.2858152985572815
1772534498872407600,10.026407470703125,0.007901350036263466,0.08679051697254181,-0.23285195231437683
1772534498882423600,10.036423583984375,0.03658915311098099,0.07329684495925903,-0.15371651947498322
1772534498892440600,10.046440673828124,0.0722411572933197,0.04045820236206055,-0.058447789400815964
1772534498902456600,10.05645654296875,0.10468775033950806,-0.012686594389379025,0.037326402962207794
1772534498912473300,10.066473388671875,0.12326782941818237,-0.07680965960025787,0.11438630521297455
1772534498922489600,10.076489501953125,0.12016388028860092,-0.17270605266094208,0.15420417487621307
1772534498932506600,10.086506591796875,0.11649323999881744,-0.2827012538909912,0.15455543994903564
1772534498942522600,10.096522705078126,0.1176452562212944,-0.357768714427948,0.11658081412315369
1772534498952539400,10.106539306640625,0.13283567130565643,-0.3966820240020752,0.058858390897512436
1772534498962555600,10.1165556640625,0.15422137081623077,-0.3955778479576111,-0.005931600462645292
1772534498972572700,10.12657275390625,0.17227387428283691,-0.3355179727077484,-0.054826438426971436
1772534498982588400,10.13658837890625,0.1815132349729538,-0.20707716047763824,-0.08552933484315872
1772534498992605400,10.14660546875,0.18563953042030334,-0.03617812320590019,-0.08137693256139755
1772534499002621700,10.15662158203125,0.20422708988189697,0.14920024573802948,-0.054517313838005066
1772534499012638500,10.166638427734375,0.23818957805633545,0.31307440996170044,-0.0181430596858263
1772534499022654500,10.176654541015624,0.2813783586025238,0.41764745116233826,0.007869254797697067
1772534499032671500,10.18667138671875,0.316289484500885,0.44398316740989685,0.020141635090112686
1772534499042687500,10.1966875,0.33838924765586853,0.40420669317245483,0.01290940959006548
1772534499052703700,10.206703857421875,0.347394198179245,0.31093665957450867,0.0018935103435069323
1772534499062720500,10.216720458984375,0.3403434157371521,0.2001006305217743,-0.0045236931182444096
1772534499072737500,10.226737548828124,0.3198903501033783,0.09790688753128052,0.00840036105364561
1772534499082753500,10.23675341796875,0.2929328978061676,0.025040587410330772,0.02993813343346119
1772534499092769500,10.24676953125,0.27974146604537964,-0.021461401134729385,0.059202540665864944
1772534499102786600,10.25678662109375,0.29904910922050476,-0.015178736299276352,0.09642314910888672
1772534499112803600,10.266803466796874,0.3520899713039398,0.02100083790719509,0.12762314081192017
1772534499122819300,10.2768193359375,0.4195212423801422,0.041164252907037735,0.1340211182832718
1772534499132835600,10.286835693359375,0.4790934920310974,0.02445691078901291,0.13056620955467224
1772534499142852600,10.2968525390625,0.5143908262252808,0.03302334249019623,0.128024160861969
1772534499152868600,10.30686865234375,0.5362149477005005,0.10360989719629288,0.1430089771747589
1772534499162885400,10.316885498046876,0.5587365627288818,0.20948243141174316,0.1787092387676239
1772534499172901600,10.326901611328125,0.5879615545272827,0.3288511633872986,0.22245138883590698
1772534499182918700,10.336918701171875,0.6137083172798157,0.42226630449295044,0.24920456111431122
1772534499192934400,10.346934326171874,0.631987452507019,0.4507799744606018,0.2507784962654114
1772534499202951400,10.356951416015624,0.6392618417739868,0.3905307948589325,0.2254023551940918
1772534499212967700,10.3669677734375,0.6436735987663269,0.28604966402053833,0.17953287065029144
1772534499222984400,10.376984375,0.6341057419776917,0.19460250437259674,0.1265372335910797
1772534499233000400,10.38700048828125,0.6117101907730103,0.10971930623054504,0.07503968477249146
1772534499243017500,10.397017578125,0.5817594528198242,0.022386059165000916,0.04421927034854889
1772534499253033700,10.40703369140625,0.5448866486549377,-0.038693275302648544,0.026563044637441635
1772534499263050500,10.417050537109375,0.4930937588214874,-0.06323223561048508,0.011568037793040276
1772534499273066500,10.42706640625,0.43752342462539673,-0.05946066230535507,-0.014083263464272022
1772534499283083500,10.43708349609375,0.38640180230140686,-0.02449129894375801,-0.04656616598367691
1772534499293099500,10.447099609375,0.34883660078048706,0.05254063382744789,-0.07768600434064865
1772534499303116500,10.457116455078125,0.34497544169425964,0.18601374328136444,-0.09401624649763107
1772534499313132500,10.467132568359375,0.376514196395874,0.3625869154930115,-0.10309576243162155
1772534499323149600,10.477149658203125,0.42616865038871765,0.5327552556991577,-0.10043365508317947
1772534499333165600,10.48716552734375,0.4683062732219696,0.6554428339004517,-0.09015731513500214
1772534499343182600,10.4971826171875,0.489112913608551,0.7269195318222046,-0.07866537570953369
1772534499353198600,10.507198486328125,0.4971303641796112,0.7375493049621582,-0.0673714429140091
1772534499363215400,10.51721533203125,0.5045900344848633,0.6780530214309692,-0.05618184059858322
1772534499373231600,10.527231689453124,0.5204592943191528,0.511894941329956,-0.024053730070590973
1772534499383248600,10.53724853515625,0.5457000732421875,0.28854113817214966,0.027371516451239586
1772534499393264600,10.5472646484375,0.5663419961929321,0.034333907067775726,0.08882343024015427
1772534499403281400,10.557281494140625,0.5545698404312134,-0.23537063598632812,0.16339518129825592
1772534499413297700,10.567297607421875,0.5043647289276123,-0.44927865266799927,0.23410449922084808
1772534499423314700,10.577314697265624,0.4237699508666992,-0.6178529262542725,0.25895363092422485
1772534499433330400,10.587330322265625,0.3323119580745697,-0.7767056822776794,0.21752946078777313
1772534499443347500,10.597347412109375,0.23806780576705933,-0.8593313097953796,0.10581059753894806
1772534499453363500,10.607363525390625,0.1544373631477356,-0.8105254173278809,-0.03890397399663925
1772534499463380500,10.61738037109375,0.10360158979892731,-0.6689314842224121,-0.1849721223115921
1772534499473396500,10.627396484375,0.08833181858062744,-0.4736376106739044,-0.3204902708530426
1772534499483413500,10.63741357421875,0.10767946392297745,-0.23881426453590393,-0.4433877766132355
1772534499493429500,10.647429443359375,0.15706804394721985,-0.018341543152928352,-0.5518622994422913
1772534499503446500,10.657446533203125,0.21712756156921387,0.1867775022983551,-0.6424167156219482
1772534499513462500,10.667462646484376,0.2739578187465668,0.36467933654785156,-0.6968136429786682
1772534499523479600,10.6774794921875,0.3327503502368927,0.4914381206035614,-0.6940704584121704
1772534499533495600,10.68749560546875,0.3892788887023926,0.5426070094108582,-0.6395121216773987
1772534499543512600,10.6975126953125,0.41940513253211975,0.5451648235321045,-0.5463315844535828
1772534499553528600,10.707528564453124,0.4056139290332794,0.4917828440666199,-0.44321927428245544
1772534499563545900,10.7175458984375,0.372158020734787,0.4004354178905487,-0.3467537462711334
1772534499573561900,10.727561767578125,0.36592862010002136,0.27853164076805115,-0.25838181376457214
1772534499583579000,10.737578857421875,0.39081528782844543,0.15466076135635376,-0.19046196341514587
1772534499593595000,10.747594970703124,0.43749383091926575,0.027135545387864113,-0.14151093363761902
1772534499603612000,10.75761181640625,0.485568642616272,-0.09506912529468536,-0.11113697290420532
1772534499613628000,10.7676279296875,0.5220004320144653,-0.20174124836921692,-0.07132057845592499
1772534499623645000,10.77764501953125,0.5336410403251648,-0.3001857399940491,-0.0038471962325274944
1772534499633660700,10.78766064453125,0.5170431733131409,-0.3261486291885376,0.043730974197387695
1772534499643678000,10.797677978515624,0.4674670994281769,-0.32189902663230896,0.0596899688243866
1772534499653694000,10.80769384765625,0.38794296979904175,-0.32256028056144714,0.06235472857952118
1772534499663710700,10.817710693359375,0.2955688536167145,-0.31532666087150574,0.05970561131834984
1772534499673726700,10.827726806640625,0.2040400207042694,-0.2963188886642456,0.06493552774190903
1772534499683744000,10.837743896484374,0.13615211844444275,-0.2614990770816803,0.07791091501712799
1772534499693760000,10.847760009765626,0.08169900625944138,-0.21348656713962555,0.08848286420106888
1772534499703776800,10.85777685546875,0.026698529720306396,-0.14607584476470947,0.0645376518368721
1772534499713792800,10.867792724609375,-0.028232896700501442,-0.07774259895086288,-0.008414853364229202
1772534499723810000,10.87781005859375,-0.06954094767570496,-0.019230108708143234,-0.10980592668056488
1772534499733826000,10.887825927734376,-0.08515612781047821,-0.006740683689713478,-0.20903396606445312
1772534499743842800,10.8978427734375,-0.07715948671102524,-0.04805532842874527,-0.282707542181015
1772534499753858800,10.90785888671875,-0.05640201270580292,-0.11728579550981522,-0.3092714846134186
1772534499763875800,10.917875732421875,-0.039755094796419144,-0.16236691176891327,-0.2818736732006073
1772534499773891800,10.927891845703124,-0.04027147963643074,-0.17575567960739136,-0.20634910464286804
1772534499783908900,10.937908935546876,-0.050800833851099014,-0.18790926039218903,-0.10972489416599274
1772534499793924900,10.9479248046875,-0.07560259103775024,-0.20709706842899323,-0.00975728314369917
1772534499803942000,10.95794189453125,-0.10647835582494736,-0.1948244720697403,0.08517388254404068
1772534499813958000,10.9679580078125,-0.15575483441352844,-0.1421644538640976,0.14561112225055695
1772534499823975000,10.977974853515626,-0.2140120267868042,-0.05904141813516617,0.1601857990026474
1772534499833991000,10.987990966796875,-0.2564218044281006,0.023347731679677963,0.13363142311573029
1772534499844008000,10.998008056640625,-0.27629032731056213,0.10396520793437958,0.07350299507379532
1772534499854024000,11.00802392578125,-0.2827197313308716,0.1971239149570465,-0.007716228254139423
1772534499864041000,11.018041015625,-0.2825438678264618,0.30263832211494446,-0.08989333361387253
1772534499874056700,11.028056640625,-0.2739490568637848,0.4186578691005707,-0.16973675787448883
1772534499884074000,11.038073974609375,-0.26223692297935486,0.48401498794555664,-0.24549151957035065
1772534499894090000,11.048090087890625,-0.21179668605327606,0.4859098196029663,-0.2882520258426666
1772534499904106800,11.058106689453124,-0.12184882909059525,0.42784181237220764,-0.28374993801116943
1772534499914122800,11.068122802734376,-0.03804287686944008,0.2839927673339844,-0.2555299997329712
1772534499924140000,11.07814013671875,-0.004516188520938158,0.1052013635635376,-0.23763439059257507
1772534499934156000,11.088156005859375,-0.02100914530456066,-0.06584921479225159,-0.24053217470645905
1772534499944172800,11.0981728515625,-0.06658391654491425,-0.21653176844120026,-0.2554018497467041
1772534499954188800,11.108188720703126,-0.11749903112649918,-0.3130449950695038,-0.25584661960601807
1772534499964206000,11.1182060546875,-0.17740070819854736,-0.16612441837787628,-0.045880917459726334
1772534499974221800,11.128221923828125,-0.3001213073730469,-0.03682449460029602,0.2836703360080719
1772534499984238800,11.13823876953125,-0.45064136385917664,-0.08349628001451492,0.5437796115875244
1772534499994254800,11.1482548828125,-0.5423766374588013,-0.11792029440402985,0.6754260659217834
1772534500004271900,11.15827197265625,-0.5706048607826233,-0.0804227665066719,0.693956732749939
1772534500014288000,11.168287841796875,-0.5791821479797363,0.016888070851564407,0.5960695743560791
1772534500024305000,11.178304931640625,-0.5733498930931091,0.15901203453540802,0.4287303388118744
1772534500034321000,11.18832080078125,-0.5314730405807495,0.3123438060283661,0.22393670678138733
1772534500044337700,11.198337646484376,-0.46551355719566345,0.4161320626735687,-0.02458842098712921
1772534500054354000,11.20835400390625,-0.4003843665122986,0.5014703869819641,-0.2713175117969513
1772534500064371000,11.218370849609375,-0.35826462507247925,0.6190539598464966,-0.41486865282058716
