time,seconds_elapsed,z,y,x
1772571749664804000,0.21180419921875,0,0,0
1772571749674722000,0.22172216796875,-0.0000019073486328125,0.00007142126560211182,-0.004741564393043518
1772571749684654800,0.23165478515625,-0.012770652770996094,0.009650960564613342,0.00009376928210258484
1772571749694605300,0.241605224609375,0.001194000244140625,0.0073455870151519775,-0.007119335234165192
1772571749704545300,0.251545166015625,0.008611679077148438,-0.0015058815479278564,0.005790572613477707
1772571749714470400,0.261470458984375,-0.024749755859375,-0.005041211843490601,-0.0032459646463394165
1772571749724404500,0.271404541015625,-0.008900642395019531,0.012041613459587097,0.005508251488208771
1772571749734337300,0.281337158203125,-0.0119781494140625,0.0147610604763031,-0.0036584138870239258
1772571749744270800,0.291270751953125,0.0021228790283203125,0.00029514729976654053,-0.003258712589740753
1772571749774031600,0.321031494140625,0.001590728759765625,0.00024244189262390137,0.0007278136909008026
1772571749793931000,0.340930908203125,-0.0024003982543945312,0.018063470721244812,0.009591259062290192
1772571749803875000,0.350875,-0.006709098815917969,-0.0009807944297790527,-0.009028274565935135
1772571749813802000,0.360802001953125,0.016158103942871094,-0.0009792894124984741,-0.004175134003162384
1772571749823739100,0.3707392578125,0.010700225830078125,-0.009897708892822266,0.009581748396158218
1772571749833664000,0.3806640625,-0.012508392333984375,-0.01825881004333496,0.013566315174102783
1772571749843596000,0.390595947265625,-0.0027780532836914062,0.005421251058578491,-0.0007640756666660309
1772571749853533000,0.400532958984375,-0.0026369094848632812,-0.026752814650535583,-0.005381762981414795
1772571749863467000,0.410467041015625,0.0020503997802734375,-0.002737775444984436,-0.0005723834037780762
1772571749873396200,0.420396240234375,0.011099815368652344,0.0064667463302612305,-0.0005519501864910126
1772571749883328500,0.43032861328125,0.006033897399902344,0.0017414838075637817,-0.0005352571606636047
1772571749893260500,0.440260498046875,0.01036834716796875,-0.007372498512268066,-0.0005202740430831909
1772571749903192600,0.450192626953125,-0.008434295654296875,-0.007039934396743774,0.004189014434814453
1772571749913127400,0.46012744140625,-0.003505706787109375,0.006982147693634033,-0.000385429710149765
1772571749923060700,0.470060791015625,0.010456085205078125,0.011372387409210205,0.018164951354265213
1772571749932991000,0.479990966796875,0.014698982238769531,-0.007465481758117676,-0.005578089505434036
1772571749942923000,0.489923095703125,-0.008925437927246094,-0.021039485931396484,0.008475005626678467
1772571749952858400,0.4998583984375,-0.008626937866210938,0.01200161874294281,0.008185118436813354
1772571749962792000,0.5097919921875,0.0009174346923828125,-0.0021490901708602905,-0.001455657184123993
1772571749972726300,0.519726318359375,0.014802932739257812,0.0026952624320983887,0.012397132813930511
1772571749982660000,0.52966015625,-0.0042171478271484375,0.01648157835006714,0.0026274994015693665
1772571749992595000,0.539594970703125,0.0005550384521484375,0.006639197468757629,0.007192105054855347
1772571750002529300,0.549529296875,0.0005397796630859375,0.01103907823562622,-0.002223838120698929
1772571750012469200,0.55946923828125,0.0005235671997070312,0.006115227937698364,-0.0068248845636844635
1772571750022404000,0.569404052734375,-0.004150390625,-0.003329843282699585,-0.0018885694444179535
1772571750032333000,0.5793330078125,-0.0040416717529296875,-0.012529894709587097,-0.011067267507314682
1772571750042267100,0.58926708984375,-0.0039386749267578125,0.0064915865659713745,0.003207668662071228
1772571750052212000,0.5992119140625,-0.0038404464721679688,0.006368130445480347,0.007686346769332886
1772571750072053000,0.619052978515625,-0.004000663757324219,0.010701373219490051,-0.0021430514752864838
1772571750081985300,0.6289853515625,0.000766754150390625,0.015269100666046143,-0.0021024271845817566
1772571750091919400,0.63891943359375,-0.008606910705566406,-0.008638918399810791,-0.0020621083676815033
1772571750101852000,0.648851806640625,0.0009489059448242188,-0.0131913423538208,0.0026582442224025726
1772571750111786800,0.658786865234375,-0.008440971374511719,0.0011867433786392212,-0.0019904710352420807
1772571750121719600,0.668719482421875,-0.008260726928710938,-0.012961074709892273,0.007520075887441635
1772571750131651800,0.67865185546875,0.005978584289550781,-0.008064910769462585,0.002667289227247238
1772571750141584600,0.688584716796875,-0.008215904235839844,0.006210163235664368,-0.00687694177031517
1772571750151519500,0.69851953125,-0.008054733276367188,0.0015333741903305054,0.0026366189122200012
1772571750161452300,0.708452392578125,0.006184577941894531,0.01103183627128601,-0.011607140302658081
1772571750171360500,0.718360595703125,-0.0033292770385742188,-0.007826372981071472,-0.011492226272821426
1772571750181290800,0.728290771484375,0.0014324188232421875,0.00165480375289917,0.0028112754225730896
1772571750191248000,0.738247802734375,0.006106376647949219,0.006260544061660767,0.002753462642431259
1772571750201181000,0.748180908203125,0.001293182373046875,0.010886579751968384,-0.0019042454659938812
1772571750211116300,0.7581162109375,0.00597381591796875,-0.0034792274236679077,0.0029264017939567566
1772571750221049600,0.768049560546875,0.0105743408203125,0.02004106342792511,-0.0017355754971504211
1772571750231004200,0.778004150390625,-0.02254962921142578,0.015028327703475952,0.007698509842157364
1772571750240939800,0.787939697265625,-0.0033388137817382812,-0.0040162354707717896,-0.0019570812582969666
1772571750250856400,0.7978564453125,-0.012701034545898438,-0.003910228610038757,0.002774864435195923
1772571750260790000,0.8077900390625,-0.0077838897705078125,0.005712077021598816,0.007531050592660904
1772571750270686500,0.8176865234375,0.006468772888183594,-0.017786145210266113,-0.0160457082092762
1772571750280616200,0.8276162109375,0.001651763916015625,0.020217612385749817,0.0031499043107032776
1772571750290557400,0.837557373046875,-0.0030870437622070312,0.005895450711250305,0.007898140698671341
1772571750300488400,0.847488525390625,-0.0030317306518554688,-0.003784090280532837,-0.0018608421087265015
1772571750310421000,0.8574208984375,-0.0076904296875,0.010442256927490234,0.007583387196063995
1772571750320352300,0.867352294921875,0.006562232971191406,0.019723981618881226,-0.001967698335647583
1772571750330283800,0.87728369140625,0.015869140625,-0.00410914421081543,-0.006549675017595291
1772571750340215000,0.887215087890625,0.015605926513671875,0.0006051957607269287,-0.006448023021221161
1772571750350149400,0.8971494140625,0.001220703125,0.0005317926406860352,0.017196673899888992
1772571750360081000,0.907080810546875,-0.003509521484375,0.009978696703910828,0.0027767717838287354
1772571750370087700,0.917087646484375,-0.012869834899902344,-0.018298208713531494,-0.006796363741159439
1772571750380027000,0.92702685546875,-0.003238677978515625,-0.003829389810562134,0.007436949759721756
1772571750389885400,0.936885498046875,0.015648841857910156,-0.003626689314842224,0.011812970042228699
1772571750399816400,0.94681640625,0.010680198669433594,-0.01304619014263153,0.0021913908421993256
1772571750409754400,0.95675439453125,-0.0036230087280273438,0.0059422701597213745,-0.011976659297943115
1772571750419686000,0.966685791015625,-0.01768779754638672,0.005780473351478577,-0.002266034483909607
1772571750429612300,0.9766123046875,0.0014448165893554688,-0.008605092763900757,-0.002338819205760956
1772571750439543300,0.986543212890625,-0.0032873153686523438,0.0056019127368927,0.002399478107690811
1772571750449482500,0.996482421875,0.0014791488647460938,0.00534433126449585,0.011870570480823517
1772571750459414300,1.006414306640625,-0.012667655944824219,0.0003825724124908447,-0.0025619007647037506
1772571750469368000,1.0163681640625,-0.03129386901855469,0.005225002765655518,0.002181869000196457
1772571750479302100,1.02630224609375,-0.016645431518554688,0.005075141787528992,0.011656533926725388
1772571750489239000,1.036239013671875,-0.0022411346435546875,-0.004489436745643616,0.011556122452020645
1772571750499173600,1.046173583984375,0.007214546203613281,0.01906558871269226,-0.007478363811969757
1772571750509098500,1.056098388671875,0.0023889541625976562,0.0044586509466171265,0.0067627765238285065
1772571750519031800,1.06603173828125,0.002349853515625,0.004321575164794922,-0.0073818787932395935
1772571750528963300,1.07596337890625,-0.007109642028808594,0.009098589420318604,-0.011976726353168488
1772571750538896600,1.085896728515625,-0.011700630187988281,0.02311074733734131,-0.002365652471780777
1772571750548828700,1.09582861328125,0.0026187896728515625,0.003930330276489258,0.007182996720075607
1772571750558761700,1.10576171875,0.011989593505859375,-0.0054113417863845825,-0.0023649893701076508
1772571750568697600,1.115697509765625,-0.02117156982421875,0.004135191440582275,-0.007043458521366119
1772571750578631200,1.125631103515625,-0.01611042022705078,-0.01002037525177002,0.0023804865777492523
1772571750588566300,1.135566162109375,0.0029935836791992188,-0.0004983842372894287,0.007141467183828354
1772571750598499800,1.145499755859375,-0.011180877685546875,-0.009970590472221375,-0.011817652732133865
1772571750608425500,1.155425537109375,-0.0015745162963867188,-0.009968385100364685,0.007307432591915131
1772571750618358500,1.165358642578125,0.012576103210449219,0.00907127559185028,0.0024677589535713196
1772571750628268800,1.175268798828125,-0.006470680236816406,-0.005065560340881348,0.0024173595011234283
1772571750638199300,1.18519921875,0.007761955261230469,-0.019068345427513123,-0.002339031547307968
1772571750648134700,1.195134765625,-0.011202812194824219,-0.004586175084114075,0.007109630852937698
1772571750658066000,1.20506591796875,0.003108978271484375,0.014363765716552734,-0.007143925875425339
1772571750668025900,1.21502587890625,0.0030565261840820312,0.018871650099754333,-0.006930779665708542
1772571750677960000,1.2249599609375,-0.006411552429199219,-0.0002386718988418579,0.0024930723011493683
1772571750687891200,1.23489111328125,-0.0015974044799804688,0.0045130252838134766,0.007150828838348389
1772571750697825000,1.244824951171875,-0.015695571899414062,0.009083092212677002,-0.0023912638425827026
1772571750717689900,1.26468994140625,-0.10025215148925781,-0.00034183263778686523,0.013395395129919052
1772571750727609600,1.274609619140625,0.16977977752685547,-0.013613477349281311,-0.026280343532562256
1772571750737542000,1.2845419921875,-0.0637664794921875,0.00047378242015838623,0.021236088126897812
1772571750747486200,1.294486328125,0.05499458312988281,0.005720317363739014,-0.005855221301317215
1772571750757419800,1.304419677734375,-0.0024309158325195312,0.01047302782535553,-0.01447116956114769
1772571750767364600,1.314364501953125,-0.0023870468139648438,0.0007165223360061646,0.004497181624174118
1772571750777299200,1.32429931640625,0.016498565673828125,-0.013788506388664246,-0.02484860271215439
1772571750787219200,1.33421923828125,-0.012005805969238281,-0.028253182768821716,-0.008036572486162186
1772571750797152300,1.34415234375,-0.05887603759765625,-0.018731355667114258,0.023224133998155594
1772571750807083000,1.3540830078125,-0.010811805725097656,0.0005556344985961914,-0.00542377308011055
1772571750817015800,1.364015869140625,0.022327423095703125,0.005293548107147217,-0.0006322935223579407
1772571750826949000,1.37394921875,0.007826805114746094,-0.02280445396900177,-0.0008337013423442841
1772571750846814700,1.393814697265625,-0.01621532440185547,-0.0033306479454040527,0.008494775742292404
1772571750856747500,1.40374755859375,-0.030071258544921875,0.00147150456905365,0.0035375282168388367
1772571750866697700,1.41369775390625,-0.024865150451660156,-0.0030194371938705444,-0.015466596931219101
1772571750876632300,1.42363232421875,-0.010327339172363281,0.001879960298538208,-0.0009909719228744507
1772571750886559700,1.433559814453125,0.0039691925048828125,0.016012951731681824,-0.0009819567203521729
1772571750896493600,1.44349365234375,0.022736549377441406,0.0016583353281021118,0.008445847779512405
1772571750906410000,1.453409912109375,0.017644882202148438,0.0064789652824401855,0.013208501040935516
1772571750916342300,1.46334228515625,-0.010901451110839844,0.006410092115402222,-0.005855284631252289
1772571750926275300,1.473275390625,0.008115768432617188,0.006241589784622192,-0.005768731236457825
1772571750936207600,1.48320751953125,0.0079803466796875,0.0014675408601760864,0.008344363421201706
1772571750946157800,1.49315771484375,0.0031385421752929688,0.010898903012275696,0.008096262812614441
1772571750956092000,1.503091796875,-0.01574993133544922,-0.0032680779695510864,0.0031421147286891937
1772571750966018600,1.5130185546875,-0.0013666152954101562,-0.002972543239593506,-0.006233684718608856
1772571750975952000,1.522951904296875,-0.03430747985839844,0.011444032192230225,-0.0014287084341049194
1772571750985875200,1.532875244140625,-0.0007753372192382812,0.0018751919269561768,0.007901810109615326
1772571750995807700,1.542807861328125,0.01806926727294922,0.00198383629322052,-0.0016545802354812622
1772571751005747700,1.552747802734375,-0.019903182983398438,0.006799355149269104,-0.0016345158219337463
1772571751015680800,1.5626806640625,-0.0007381439208984375,0.002016007900238037,0.0030938126146793365
1772571751025607000,1.57260693359375,-0.010144233703613281,-0.0026876479387283325,0.0077433399856090546
1772571751035539200,1.582539306640625,-0.009975433349609375,0.006813451647758484,0.002795115113258362
1772571751045477400,1.592477294921875,0.013733863830566406,0.0020304471254348755,0.0026378892362117767
1772571751055410200,1.60241015625,0.008795738220214844,0.002035170793533325,0.00258641317486763
1772571751065316000,1.612316162109375,-0.0007686614990234375,0.0020397156476974487,0.0025358200073242188
1772571751075246300,1.622246337890625,-0.014882087707519531,-0.01679009199142456,-0.006931137293577194
1772571751085211400,1.63221142578125,-0.009926795959472656,0.002362266182899475,0.007304389029741287
1772571751095145200,1.642145263671875,0.004361152648925781,-0.016371577978134155,0.007175140082836151
1772571751105071600,1.652071533203125,0.0042877197265625,0.007482811808586121,-0.011685073375701904
1772571751115004400,1.66200439453125,-0.005200386047363281,0.007295355200767517,-0.0067892372608184814
1772571751124937200,1.671937255859375,0.0043010711669921875,0.012022241950035095,-0.00197499617934227
1772571751134870000,1.6818701171875,-0.01930999755859375,0.002241179347038269,-0.0067612528800964355
1772571751144808000,1.691807861328125,-0.018988609313964844,0.006951570510864258,-0.002050604671239853
1772571751154741200,1.7017412109375,0.0048694610595703125,-0.007149636745452881,-0.0022283270955085754
1772571751164680400,1.711680419921875,0.004786491394042969,-0.00689050555229187,-0.007008664309978485
1772571751174614300,1.7216142578125,0.00470733642578125,0.0025787949562072754,0.0025178268551826477
1772571751184540000,1.731539794921875,0.004630088806152344,0.026016071438789368,0.007176954299211502
1772571751194473000,1.741472900390625,-0.018990516662597656,0.00678667426109314,0.011859741061925888
1772571751204410400,1.751410400390625,0.004868507385253906,0.011420175433158875,0.0021377839148044586
1772571751214344000,1.761343994140625,0.014204025268554688,-0.0028579384088516235,0.011513590812683105
1772571751224265200,1.77126513671875,-0.0048675537109375,-0.002771228551864624,0.0017940551042556763
1772571751234197500,1.781197509765625,0.004630088806152344,-0.021520286798477173,-0.0028523989021778107
1772571751244136400,1.791136474609375,-0.009573936462402344,0.007129102945327759,-0.01212993636727333
1772571751254069500,1.801069580078125,-0.018830299377441406,-0.002469658851623535,-0.0025180913507938385
1772571751263999700,1.810999755859375,-0.009098052978515625,-0.011908411979675293,0.007034841924905777
1772571751273932500,1.8209326171875,-0.004237174987792969,0.002353101968765259,-0.01663287729024887
1772571751283868200,1.8308681640625,0.01937580108642578,0.007060497999191284,0.0025742948055267334
1772571751293801200,1.84080126953125,0.00021839141845703125,0.006981387734413147,-0.0022860243916511536
1772571751303726600,1.8507265625,-0.01862049102783203,-0.007222220301628113,-0.0021541938185691833
1772571751313659000,1.860658935546875,0.0005254745483398438,0.0022531747817993164,-0.0021275505423545837
1772571751323582000,1.87058203125,0.0052242279052734375,0.011671334505081177,-0.0020995885133743286
1772571751333513200,1.88051318359375,0.005138397216796875,0.001996353268623352,0.007448133081197739
1772571751343461400,1.89046142578125,0.000347137451171875,0.006507933139801025,0.002606123685836792
1772571751353394200,1.900394287109375,0.00034236907958984375,-0.003079921007156372,-0.002155173569917679
1772571751363301000,1.910301025390625,0.005042076110839844,0.00652921199798584,0.0025783441960811615
1772571751373231600,1.920231689453125,-0.0044612884521484375,0.0018527507781982422,0.002423066645860672
1772571751383189500,1.930189453125,0.005032539367675781,-0.002949640154838562,-0.002435002475976944
1772571751393122600,1.94012255859375,-0.004469871520996094,-0.002861917018890381,-0.011819109320640564
1772571751403056600,1.950056640625,0.0003147125244140625,0.001831650733947754,0.0023948289453983307
1772571751412990000,1.959989990234375,-0.009106636047363281,0.0017389357089996338,-0.007071539759635925
1772571751422922500,1.969922607421875,-0.008954048156738281,0.006355807185173035,-0.0022525936365127563
1772571751432855600,1.97985546875,-0.00409698486328125,-0.003128752112388611,0.011903226375579834
1772571751442794000,1.9897939453125,-0.008738517761230469,-0.0030374675989151,-0.007138807326555252
1772571751452727600,1.9997275390625,0.0008211135864257812,-0.007555559277534485,-0.007027331739664078
1772571751462654500,2.009654541015625,0.000804901123046875,-0.0025812536478042603,0.007208067923784256
1772571751472587500,2.01958740234375,-0.00391387939453125,-0.007410302758216858,0.0023700781166553497
1772571751482496500,2.02949658203125,-0.0038499832153320312,0.00216887891292572,0.0024241507053375244
1772571751492427300,2.03942724609375,0.010340690612792969,-0.00263860821723938,-0.002332352101802826
1772571751502393900,2.049393798828125,0.000751495361328125,0.002152666449546814,-0.0024026595056056976
1772571751512328200,2.059328125,-0.02751445770263672,0.002257242798805237,0.002235397696495056
1772571751522228000,2.06922802734375,-0.012930870056152344,-0.007158592343330383,-0.007228277623653412
1772571751532158700,2.07915869140625,-0.0032987594604492188,-0.007000178098678589,-0.021242845803499222
1772571751542103800,2.089103759765625,-0.01736927032470703,-0.016262084245681763,-0.01628914102911949
1772571751552035800,2.099035888671875,0.011168479919433594,0.002983182668685913,0.002910502254962921
1772571751561962000,2.1089619140625,0.0062732696533203125,-0.006445199251174927,-0.011170059442520142
1772571751571893500,2.1188935546875,-0.012664794921875,-0.006400510668754578,-0.006181526929140091
1772571751581824000,2.128823974609375,-0.012454986572265625,0.02199682593345642,0.008038029074668884
1772571751591755500,2.138755615234375,0.011295318603515625,0.0075429826974868774,0.01250387355685234
1772571751601698800,2.14869873046875,0.0016889572143554688,-0.0019618719816207886,-0.0018360689282417297
1772571751611631600,2.158631591796875,-0.00775909423828125,-0.006497383117675781,-0.015940506011247635
1772571751621562000,2.16856201171875,0.0017852783203125,-0.015666455030441284,0.003050766885280609
1772571751631494700,2.17849462890625,-0.0029535293579101562,-0.0059496015310287476,0.0028911232948303223
1772571751641421000,2.188421142578125,-0.017029762268066406,0.0035035312175750732,0.0030396245419979095
1772571751651352800,2.198352783203125,-0.012038230895996094,-0.0012254565954208374,-0.0016241185367107391
1772571751661316600,2.208316650390625,0.016412734985351562,-0.0011658072471618652,0.012519456446170807
1772571751671251700,2.218251708984375,0.011429786682128906,-0.005815863609313965,0.002985674887895584
1772571751681179100,2.22817919921875,-0.021719932556152344,0.0036355704069137573,-0.006387542933225632
1772571751691113500,2.238113525390625,-0.0072307586669921875,-0.010613560676574707,0.007938489317893982
1772571751701043500,2.24804345703125,-0.0024023056030273438,-0.0009803920984268188,0.00789819285273552
1772571751710977300,2.257977294921875,-0.011780738830566406,0.008492261171340942,-0.011077065020799637
1772571751720909600,2.26790966796875,0.007250785827636719,-0.005837798118591309,-0.0013814941048622131
1772571751730843100,2.277843017578125,0.0024204254150390625,0.013132452964782715,0.017468396574258804
1772571751740749800,2.287749755859375,0.011794090270996094,0.008344471454620361,0.012461178004741669
1772571751750680800,2.297680908203125,0.011597633361816406,-0.010589897632598877,-0.0019828081130981445
1772571751760652300,2.30765234375,0.0066928863525390625,-0.0055644214153289795,0.012168481945991516
1772571751770587100,2.317587158203125,0.0018720626831054688,0.0039846450090408325,-0.002068042755126953
1772571751780504600,2.327504638671875,-0.007578849792480469,-0.0006501674652099609,0.002665787935256958
1772571751790438000,2.33743798828125,-0.012160301208496094,0.008715137839317322,-0.002094745635986328
1772571751800373500,2.34737353515625,0.006877899169921875,0.008508235216140747,-0.0020708218216896057
1772571751810306800,2.357306884765625,0.0067653656005859375,-0.010530129075050354,-0.006855446845293045
1772571751820239400,2.3672392578125,0.0019445419311523438,-0.005708768963813782,-0.01145729050040245
1772571751830172700,2.377172607421875,0.001911163330078125,0.0038421452045440674,0.007661826908588409
1772571751840102400,2.387102294921875,0.0018768310546875,0.018043681979179382,0.007526624947786331
1772571751850035500,2.397035400390625,-0.0028619766235351562,-0.001153603196144104,-0.006632555276155472
1772571751859971000,2.40697119140625,-0.0028162002563476562,0.003612801432609558,-0.0016182921826839447
1772571751869904400,2.416904296875,-0.0074787139892578125,0.008299201726913452,-0.0014957934617996216
1772571751879839000,2.4268388671875,0.0020647048950195312,0.007996827363967896,-0.001377064734697342
1772571751889772500,2.4367724609375,-0.007388114929199219,0.003194063901901245,0.012762416154146194
1772571751899676000,2.446676025390625,-0.0072650909423828125,0.0031798183917999268,-0.00168628990650177
1772571751909606400,2.4566064453125,-0.0024347305297851562,0.007772698998451233,0.007751498371362686
1772571751919579100,2.4665791015625,0.002315521240234375,-0.006546154618263245,0.007718220353126526
1772571751929513700,2.476513671875,-0.00714111328125,-0.015815675258636475,0.007582075893878937
1772571751939412200,2.486412109375,0.00710296630859375,-0.0060959309339523315,0.007446490228176117
1772571751949343200,2.49634326171875,0.006985664367675781,0.00806930661201477,0.016831591725349426
1772571751959299300,2.50629931640625,-0.007254600524902344,0.017187044024467468,0.0072296299040317535
1772571751969233000,2.51623291015625,-0.007136344909667969,0.007623821496963501,-0.007025901228189468
1772571751979166700,2.526166748046875,0.011814117431640625,0.002928033471107483,0.0073107704520225525
1772571751989100500,2.5361005859375,0.006909370422363281,-0.006601795554161072,-0.006839573383331299
1772571751999039700,2.546039794921875,-0.0073337554931640625,0.0029634684324264526,-0.0018200427293777466
1772571752008973800,2.555973876953125,-0.00250244140625,0.002851337194442749,0.002911381423473358
1772571752018897200,2.565897216796875,0.0022497177124023438,-0.01138409972190857,-0.0066647715866565704
1772571752028830200,2.575830322265625,0.00691986083984375,-0.01105506718158722,-0.016179222613573074
1772571752038761500,2.585761474609375,-0.0026149749755859375,0.012811988592147827,-0.0018925666809082031
1772571752048694300,2.5956943359375,-0.0025720596313476562,-0.0014887750148773193,0.0029413551092147827
1772571752058628600,2.605628662109375,-0.0072383880615234375,0.012700393795967102,-0.01124095544219017
1772571752068561400,2.6155615234375,0.011714935302734375,-0.015623539686203003,-0.0064520686864852905
1772571752078508300,2.62550830078125,-0.012022018432617188,-0.0013001859188079834,-0.0016434639692306519
1772571752088442600,2.635442626953125,0.0023069381713867188,0.012682691216468811,0.0030867569148540497
1772571752098368800,2.64536865234375,-0.007147789001464844,-0.0017177015542984009,0.012446742504835129
1772571752108302300,2.65530224609375,-0.011738777160644531,-0.0251934677362442,0.003017190843820572
1772571752118203600,2.66520361328125,-0.002124786376953125,0.012833192944526672,-0.006358541548252106
1772571752128134000,2.6751337890625,0.021452903747558594,-0.01559370756149292,-0.006158813834190369
1772571752138090500,2.685090576171875,-0.011865615844726562,0.0035392194986343384,-0.001355104148387909
1772571752148023600,2.6950234375,0.007167816162109375,-0.0012900233268737793,-0.010760694742202759
1772571752157958100,2.704958251953125,-0.007076263427734375,0.0033773332834243774,0.017764002084732056
1772571752167891200,2.71489111328125,-0.00225067138671875,-0.0013490021228790283,0.003435935825109482
1772571752177823700,2.72482373046875,0.007203102111816406,-0.0012879669666290283,-0.010754618793725967
1772571752187756800,2.7347568359375,0.00237274169921875,-0.0011255741119384766,0.01285530999302864
1772571752197698600,2.744698486328125,-0.002376556396484375,0.008349522948265076,0.0032146088778972626
1772571752207632600,2.754632568359375,0.0023746490478515625,-0.020205244421958923,-0.006263665854930878
1772571752217554400,2.764554443359375,0.007044792175292969,-0.005804821848869324,0.007957268506288528
1772571752227487000,2.774487060546875,-0.0024881362915039062,0.008355528116226196,0.007714111357927322
1772571752237437700,2.784437744140625,0.0022592544555664062,-0.0010608285665512085,0.007578019052743912
1772571752247371800,2.794371826171875,0.0022230148315429688,0.0036032795906066895,-0.006582006812095642
1772571752257287400,2.804287353515625,0.011605262756347656,0.00348113477230072,-0.0065826550126075745
1772571752267220200,2.81422021484375,0.0019931793212890625,-0.010562285780906677,-0.0018748901784420013
1772571752277153000,2.824153076171875,0.0066680908203125,-0.00563909113407135,0.00756603479385376
1772571752287085600,2.83408544921875,0.006554603576660156,0.008721083402633667,0.007531978189945221
1772571752297026800,2.84402685546875,0.001735687255859375,-0.0008023083209991455,-0.0019186213612556458
1772571752306960400,2.85396044921875,-0.017127037048339844,-0.0008511394262313843,0.012331191450357437
1772571752316892700,2.863892578125,-0.0074253082275390625,-0.0007973015308380127,0.012114685028791428
1772571752326826000,2.873825927734375,0.011530876159667969,0.00877360999584198,0.007093638181686401
1772571752336754400,2.88375439453125,0.001922607421875,0.003856092691421509,-0.00715787336230278
1772571752346687500,2.8936875,0.01601696014404297,-0.005688101053237915,0.002472393214702606
1772571752356615400,2.903615478515625,-0.0077915191650390625,-0.005757242441177368,-0.006892263889312744
1772571752366547700,2.913547607421875,-0.007662773132324219,0.022628843784332275,-0.0019750185310840607
1772571752376494000,2.923494140625,-0.0028257369995117188,-0.006062686443328857,-0.0066582150757312775
1772571752386428000,2.933427978515625,-0.012196540832519531,-0.005922526121139526,0.007670588791370392
1772571752396349700,2.943349609375,0.0021343231201171875,-0.005887016654014587,-0.001981377601623535
1772571752406282500,2.953282470703125,-0.0026092529296875,-0.005852729082107544,-0.0019523799419403076
1772571752416210200,2.963210205078125,-0.007275581359863281,-0.005716651678085327,-0.001826111227273941
1772571752426142200,2.97314208984375,0.002262115478515625,-0.0008742362260818481,-0.015827685594558716
1772571752436091400,2.98309130859375,-0.002483367919921875,-0.0009225010871887207,-0.006052769720554352
1772571752446025200,2.993025146484375,0.0022687911987304688,0.008346036076545715,0.0035590864717960358
1772571752455939800,3.00293994140625,0.0069408416748046875,0.022270098328590393,0.0034922733902931213
1772571752465872000,3.012871826171875,-0.0120086669921875,0.0030018389225006104,-0.001282036304473877
1772571752475812400,3.022812255859375,-0.007099151611328125,0.007597625255584717,-0.010685361921787262
1772571752485745200,3.0327451171875,-0.006979942321777344,0.0026996731758117676,0.008420880883932114
1772571752495685400,3.042685302734375,-0.006861686706542969,-0.006926640868186951,0.008374381810426712
1772571752505618700,3.05261865234375,-0.0020389556884765625,0.0073537081480026245,-0.00600152462720871
1772571752515542500,3.06254248046875,-0.016129493713378906,0.01187761127948761,0.017632219940423965
1772571752525475000,3.07247509765625,-0.006443023681640625,0.01171875,0.007810626178979874
1772571752535412000,3.082411865234375,0.02662372589111328,-0.0025632381439208984,0.007671184837818146
1772571752545344800,3.0923447265625,0.012054443359375,0.006833955645561218,-0.0016787908971309662
1772571752555277600,3.102277587890625,0.007145881652832031,0.001948729157447815,0.007860153913497925
1772571752565210400,3.11221044921875,-0.0070972442626953125,-0.021688908338546753,-0.0017985887825489044
1772571752575137800,3.1221376953125,-0.0069789886474609375,-0.035414665937423706,-0.0018773451447486877
1772571752585070300,3.1320703125,0.007264137268066406,-0.001927003264427185,-0.0065621547400951385
1772571752595014400,3.142014404296875,-0.006983757019042969,0.00756092369556427,0.002956889569759369
1772571752604948000,3.151947998046875,-0.0021600723266601562,-0.006652310490608215,0.007709983736276627
1772571752614870000,3.1618701171875,0.0072917938232421875,-0.001793786883354187,-0.011160958558321
1772571752624802300,3.17180224609375,0.002460479736328125,-0.015850573778152466,-0.015591509640216827
1772571752634743300,3.181743408203125,0.007124900817871094,0.012805134057998657,0.003596574068069458
1772571752644676600,3.191676513671875,0.0070056915283203125,0.007921144366264343,-0.005785029381513596
1772571752654597400,3.201597412109375,-0.007239341735839844,-0.0014878511428833008,0.008529093116521835
1772571752664529400,3.211529296875,0.0022974014282226562,-0.006132557988166809,0.013086285442113876
1772571752674449700,3.22144970703125,-0.0024471282958984375,-0.010902747511863708,-0.005973692983388901
1772571752684380400,3.23138037109375,-0.0071163177490234375,-0.005974426865577698,-0.005879893898963928
1772571752694307800,3.241307861328125,0.00241851806640625,0.003580346703529358,-0.001079067587852478
1772571752704238300,3.25123828125,-0.0070400238037109375,0.017685547471046448,0.0036382675170898438
1772571752714175000,3.261175048828125,0.0024967193603515625,0.007910847663879395,0.008177384734153748
1772571752724106000,3.27110595703125,-0.006961822509765625,-0.03456033766269684,0.003225475549697876
1772571752734038800,3.281038818359375,-0.00213623046875,0.003621697425842285,0.012581396847963333
1772571752743970000,3.290969970703125,0.007317543029785156,0.012916341423988342,0.0077551305294036865
1772571752753934600,3.3009345703125,0.0024871826171875,0.012638688087463379,-0.006305962800979614
1772571752763869200,3.310869140625,0.02128124237060547,0.0029481202363967896,-0.006107065826654434
1772571752773771000,3.32077099609375,0.0020914077758789062,0.012354061007499695,-0.005910053849220276
1772571752783702300,3.330702392578125,-0.0120697021484375,-0.006648212671279907,-0.0011087208986282349
1772571752793638700,3.340638671875,0.00225830078125,0.0028164833784103394,-0.005804598331451416
1772571752803570400,3.3505703125,-0.0024890899658203125,0.016934409737586975,0.003700077533721924
1772571752813509400,3.36050927734375,0.0022602081298828125,0.011983245611190796,-0.005789797753095627
1772571752823442000,3.37044189453125,0.006932258605957031,-0.0024049878120422363,-0.000992216169834137
1772571752833376300,3.380376220703125,0.011525154113769531,0.011799454689025879,0.008332699537277222
1772571752843309000,3.39030908203125,-0.016921043395996094,0.007034599781036377,0.008184555917978287
1772571752853238500,3.400238525390625,0.0021944046020507812,0.002247855067253113,-0.001277044415473938
1772571752863171000,3.410171142578125,0.006865501403808594,0.0022489428520202637,0.0034453310072422028
1772571752873124900,3.420124755859375,0.011458396911621094,-0.002458512783050537,-0.0012267045676708221
1772571752883059500,3.4300595703125,-0.012278556823730469,0.011848121881484985,-0.005821049213409424
1772571752892988700,3.43998876953125,-0.007366180419921875,0.0022720247507095337,-0.0010229423642158508
1772571752902922800,3.4499228515625,-0.0025358200073242188,0.0022727251052856445,0.0036951974034309387
1772571752912871200,3.45987109375,0.002216339111328125,0.0021720081567764282,-0.00108250230550766
1772571752922806800,3.469806884765625,-0.0025300979614257812,-0.002534225583076477,-0.0010719671845436096
1772571752932724700,3.479724853515625,0.0022182464599609375,-0.002352893352508545,0.0036487504839897156
1772571752942658600,3.489658447265625,0.0068874359130859375,0.016660571098327637,-0.005836755037307739
1772571752952594000,3.499593994140625,0.002063751220703125,0.02113005518913269,-0.019974078983068466
1772571752962527700,3.50952783203125,0.0020303726196289062,-0.0028278380632400513,-0.010130193084478378
1772571752972455200,3.519455078125,-0.007419586181640625,-0.007551997900009155,-0.0004504397511482239
1772571752982388500,3.529388427734375,-0.0025854110717773438,0.0066369324922561646,-0.0005517341196537018
1772571752992324400,3.539324462890625,-0.0213775634765625,-0.016977548599243164,0.004156790673732758
1772571753002258000,3.5492578125,-0.006894111633300781,0.0020776093006134033,-0.005338940769433975
1772571753012189000,3.55918896484375,0.0073451995849609375,0.011498719453811646,-0.005257461220026016
1772571753022122200,3.569122314453125,0.011932373046875,-0.007590040564537048,0.01836562529206276
1772571753032063000,3.57906298828125,-0.002391815185546875,-0.012133538722991943,0.013242058455944061
1772571753041997000,3.5889970703125,-0.0164794921875,0.016460120677947998,-0.005921822041273117
1772571753051951400,3.598951416015625,-0.0067882537841796875,0.030349120497703552,-0.005827125161886215
1772571753061887200,3.60888720703125,0.007450103759765625,0.0016303211450576782,-0.000927608460187912
1772571753071794700,3.618794677734375,0.007325172424316406,-0.0030669867992401123,0.008497554808855057
1772571753081727700,3.628727783203125,-0.006922721862792969,0.01114848256111145,0.0035385452210903168
1772571753091649500,3.6386494140625,-0.0020999908447265625,0.0015839934349060059,0.008180666714906693
1772571753101581600,3.64858154296875,0.0026426315307617188,0.0015961378812789917,0.012846689671278
1772571753111510800,3.6585107421875,0.007308006286621094,0.010924026370048523,-0.010816644877195358
1772571753121442600,3.668442626953125,0.007185935974121094,0.005970656871795654,-0.015149921178817749
1772571753131377400,3.67837744140625,-0.0023517608642578125,-0.003507480025291443,0.003929447382688522
1772571753141309400,3.688309326171875,0.007105827331542969,0.010614588856697083,-0.005562502890825272
1772571753151258000,3.698258056640625,-0.0024290084838867188,-0.01787671446800232,0.0040413253009319305
1772571753161192000,3.70819189453125,-0.011806488037109375,-0.008123025298118591,0.00867505744099617
1772571753171125500,3.71812548828125,-0.0021915435791015625,0.006075426936149597,-0.0008942224085330963
1772571753181059300,3.728059326171875,0.0025539398193359375,0.0013041496276855469,0.0037204772233963013
1772571753190979300,3.737979248046875,-0.0069065093994140625,-0.003387138247489929,0.013167556375265121
1772571753200912000,3.747911865234375,-0.0067920684814453125,0.006125614047050476,-0.010604143142700195
1772571753210846500,3.757846435546875,-0.0019731521606445312,0.00616338849067688,-0.0010177306830883026
1772571753220779000,3.767779052734375,0.0027675628662109375,0.0013911724090576172,0.008508428931236267
1772571753230692000,3.777692138671875,-0.001987457275390625,0.01553332805633545,-0.005871254950761795
1772571753240622800,3.787622802734375,0.0027532577514648438,0.010604947805404663,0.003634519875049591
1772571753250552000,3.797552001953125,0.0074176788330078125,0.0009488612413406372,-0.0012451671063899994
1772571753260482800,3.80748291015625,-0.0021238327026367188,-0.017862781882286072,0.0034766793251037598
1772571753270424600,3.817424560546875,0.0026197433471679688,-0.01752592623233795,-0.0014005117118358612
1772571753280356000,3.827356201171875,0.00728607177734375,-0.003170222043991089,-0.001285165548324585
1772571753290308400,3.837308349609375,0.0024566650390625,0.006237506866455078,-0.0011715516448020935
1772571753300242000,3.847241943359375,0.0024127960205078125,0.006274491548538208,-0.0010617636144161224
1772571753310170600,3.857170654296875,-0.007045745849609375,0.001499861478805542,0.01778280735015869
1772571753320103700,3.867103759765625,-0.006928443908691406,-0.003195717930793762,-0.0014549791812896729
1772571753330035500,3.877035400390625,0.007309913635253906,0.011122629046440125,-0.010853659361600876
1772571753339968800,3.88696875,-0.002227783203125,0.020291700959205627,0.01286269724369049
1772571753349904400,3.896904296875,0.007225990295410156,0.010574892163276672,-0.0014849714934825897
1772571753359837700,3.906837646484375,0.011812210083007812,0.005829900503158569,-0.001569017767906189
1772571753369816600,3.916816650390625,0.006905555725097656,0.005770936608314514,-0.010965816676616669
1772571753379754500,3.92675439453125,0.011499404907226562,0.000903397798538208,0.003537900745868683
1772571753389633000,3.936633056640625,0.0018892288208007812,-0.00848996639251709,-0.0012388825416564941
1772571753399565000,3.94656494140625,-0.012264251708984375,-0.0038038790225982666,-0.006035611033439636
1772571753409504500,3.95650439453125,0.0020685195922851562,0.005512043833732605,-0.01064934954047203
1772571753419437000,3.96643701171875,0.0161590576171875,-0.008667051792144775,0.008355006575584412
1772571753429373000,3.976373046875,-0.0029430389404296875,0.010249033570289612,0.0033983327448368073
1772571753439306000,3.986305908203125,-0.0028934478759765625,0.010015487670898438,-0.010690297931432724
1772571753449234400,3.996234375,0.001865386962890625,0.0003686845302581787,-0.0059122852981090546
1772571753459167000,4.0061669921875,0.011248588562011719,-0.004205673933029175,-0.0011144354939460754
1772571753469076000,4.016075927734375,0.011061668395996094,0.024053946137428284,0.008413121104240417
1772571753479006200,4.026006103515625,0.006167411804199219,0.0001491755247116089,-0.005760885775089264
1772571753488967000,4.035966796875,0.015481948852539062,-0.00923183560371399,0.0036432109773159027
1772571753498900200,4.045900146484375,0.0010986328125,-0.004431575536727905,-0.0011353828012943268
1772571753508830700,4.055830810546875,0.010498046875,0.000288158655166626,0.003584630787372589
1772571753518763800,4.065763671875,0.0056171417236328125,0.004827916622161865,0.0035173818469047546
1772571753528703000,4.075702880859375,0.00081634521484375,0.014101862907409668,0.0034512467682361603
1772571753538636800,4.08563671875,-0.0039052963256835938,0.01380409300327301,-0.006030965596437454
1772571753548560400,4.095560302734375,-0.008548736572265625,-0.005221828818321228,0.00808662548661232
1772571753558493200,4.1054931640625,0.001010894775390625,-0.0003876239061355591,-0.001574140042066574
1772571753568430800,4.115430908203125,0.005702018737792969,-0.0003420412540435791,0.007859993726015091
1772571753578364200,4.1253642578125,0.010316848754882812,0.004310056567192078,0.007719706743955612
1772571753588296000,4.1352958984375,0.005438804626464844,0.00878278911113739,-0.011250827461481094
1772571753598228700,4.145228759765625,0.010059356689453125,-0.010362029075622559,0.003156270831823349
1772571753608159000,4.155158935546875,0.009890556335449219,-0.014859363436698914,0.007906034588813782
1772571753618091800,4.165091796875,0.009724617004394531,-0.005155414342880249,-0.0016522109508514404
1772571753628037000,4.175037109375,0.014268875122070312,0.009197443723678589,0.0029714033007621765
1772571753637971200,4.18497119140625,-0.000095367431640625,0.013791874051094055,0.00762118399143219
1772571753647875300,4.194875244140625,-0.00009441375732421875,0.004183292388916016,0.0027780868113040924
1772571753657809200,4.20480908203125,-0.00009250640869140625,-0.0005558878183364868,-0.002087429165840149
1772571753667755300,4.21475537109375,0.018744468688964844,-0.0006094574928283691,-0.016185931861400604
1772571753677690000,4.224690185546875,-0.00040149688720703125,-0.014788389205932617,-0.0065046995878219604
1772571753687631600,4.234631591796875,-0.01922607421875,0.004128262400627136,-0.0016952045261859894
1772571753697567200,4.244567138671875,-0.0047779083251953125,0.003996700048446655,0.0029327981173992157
1772571753707489300,4.2544892578125,0.004718780517578125,-0.005448594689369202,-0.001933373510837555
1772571753717423600,4.264423583984375,0.009348869323730469,-0.010129138827323914,-0.001706000417470932
1772571753727352300,4.274352294921875,0.004485130310058594,0.004102751612663269,-0.001583792269229889
1772571753737286100,4.2842861328125,-0.009717941284179688,-0.009950980544090271,0.017267689108848572
1772571753747221200,4.29422119140625,-0.009556770324707031,0.018505558371543884,-0.006572362035512924
1772571753757155000,4.304155029296875,-0.004688262939453125,-0.005408585071563721,-0.006369005888700485
1772571753767098000,4.31409814453125,-0.004609107971191406,-0.024215608835220337,0.00324823334813118
1772571753777033000,4.324032958984375,-0.004530906677246094,-0.0050398558378219604,-0.006131049245595932
1772571753786954000,4.3339541015625,0.009669303894042969,0.00920899212360382,0.0034802407026290894
1772571753796887600,4.343887451171875,0.00479888916015625,-0.009739771485328674,-0.0012956447899341583
1772571753806824000,4.353823974609375,0.018845558166503906,-0.009640201926231384,0.0034270361065864563
1772571753816757800,4.3637578125,0.004401206970214844,-0.004529178142547607,0.012879148125648499
1772571753826690800,4.37369091796875,-0.009799003601074219,0.009711205959320068,0.003339342772960663
1772571753836624400,4.383624267578125,0.004490852355957031,-0.014055818319320679,0.0032743997871875763
1772571753846553300,4.39355322265625,-0.009710311889648438,-0.023199647665023804,-0.010915230959653854
1772571753856486400,4.403486328125,-0.004840850830078125,0.0007685571908950806,0.02232065051794052
1772571753866419500,4.41341943359375,-0.000049591064453125,-0.013432785868644714,0.012422632426023483
1772571753876352800,4.423352783203125,-0.004755973815917969,-0.013271644711494446,0.0027908943593502045
1772571753886262500,4.433262451171875,0.004741668701171875,-0.003695860505104065,-0.006579220294952393
1772571753896193500,4.443193603515625,0.028204917907714844,-0.0035962313413619995,0.0030431747436523438
1772571753906159900,4.453159912109375,0.013606071472167969,0.0013132095336914062,0.002983149141073227
1772571753916094200,4.46309423828125,0.008672714233398438,-0.0034800469875335693,-0.006592601537704468
1772571753925993700,4.47299365234375,-0.0008916854858398438,-0.0032837092876434326,-0.011195279657840729
1772571753935924700,4.4829248046875,-0.005587577819824219,-0.01721489429473877,0.003008279949426651
1772571753945889300,4.49288916015625,-0.010202407836914062,-0.016990378499031067,0.0030504874885082245
1772571753955823600,4.50282373046875,-0.000614166259765625,-0.01206137239933014,-0.011133644729852676
1772571753965734100,4.512734130859375,-0.005312919616699219,-0.007113277912139893,-0.001639481633901596
1772571753975666200,4.522666259765625,-0.005227088928222656,0.007270395755767822,-0.0015166066586971283
1772571753985586200,4.532586181640625,0.004275321960449219,0.007288381457328796,0.003110334277153015
1772571753995517000,4.542516845703125,0.00420379638671875,-0.006919771432876587,0.007656533271074295
1772571754015397000,4.562397216796875,0.008852958679199219,0.0027019530534744263,-0.001793406903743744
1772571754025321200,4.5723212890625,-0.0101318359375,0.01692245900630951,0.012354765087366104
1772571754035252700,4.582252685546875,-0.019382476806640625,-0.011471271514892578,0.007331445813179016
1772571754045189600,4.592189697265625,0.004482269287109375,-0.006431549787521362,-0.0024181529879570007
1772571754055121700,4.60212158203125,-0.014429092407226562,-0.0014753341674804688,-0.016614191234111786
1772571754065077800,4.612077880859375,-0.009481430053710938,-0.010829269886016846,0.002489563077688217
1772571754075012400,4.622012451171875,0.014220237731933594,0.003414258360862732,-0.011685222387313843
1772571754084947000,4.631947021484375,-0.000141143798828125,-0.0014140158891677856,-0.001979466527700424
1772571754094881300,4.64188134765625,-0.014263153076171875,-0.0061623454093933105,-0.001850910484790802
1772571754104803000,4.651802978515625,-0.009317398071289062,-0.0013119876384735107,-0.011145293712615967
1772571754114736400,4.661736328125,0.004962921142578125,0.008165642619132996,0.0032600462436676025
1772571754124651000,4.671651123046875,-0.004535675048828125,0.012674972414970398,0.003301084041595459
1772571754134582300,4.681582275390625,-0.018584251403808594,-0.011140897870063782,-0.001574825495481491
1772571754144539000,4.691538818359375,0.019392967224121094,-0.010916024446487427,-0.015683632344007492
1772571754154472700,4.70147265625,0.004944801330566406,-0.006087705492973328,-0.0060143060982227325
1772571754164384300,4.71138427734375,0.000156402587890625,-0.001441359519958496,-0.010630153119564056
1772571754174316000,4.72131591796875,0.004863739013671875,0.003229081630706787,-0.010462235659360886
1772571754184272400,4.7312724609375,0.00007534027099609375,-0.0015962272882461548,0.00383039191365242
1772571754194206500,4.74120654296875,-0.014054298400878906,0.0032783448696136475,-0.010364994406700134
1772571754204146700,4.751146728515625,0.005013465881347656,0.017388075590133667,-0.010199762880802155
1772571754214081300,4.761081298828125,0.00022029876708984375,0.0077202171087265015,0.013503938913345337
1772571754224002000,4.771001953125,-0.0092010498046875,-0.011204317212104797,-0.0007532276213169098
1772571754233935400,4.780935302734375,-0.004340171813964844,0.0078553706407547,-0.005456775426864624
1772571754243871500,4.79087158203125,-0.013686180114746094,-0.0016541630029678345,0.004043847322463989
1772571754253805000,4.80080517578125,-0.013454437255859375,-0.0113096684217453,-0.0006365962326526642
1772571754263742000,4.810741943359375,-0.00852203369140625,-0.025309711694717407,-0.00043081119656562805
1772571754273676000,4.820676025390625,-0.0036716461181640625,0.003402799367904663,-0.0005341991782188416
1772571754283605000,4.83060498046875,0.0010976791381835938,0.01280289888381958,-0.000637546181678772
1772571754293538600,4.84053857421875,-0.008336067199707031,-0.0015984773635864258,0.00867970660328865
1772571754303455700,4.850455810546875,0.00592803955078125,0.007883340120315552,-0.00559648871421814
1772571754313387500,4.860387451171875,0.005825042724609375,0.007992565631866455,-0.005508977919816971
1772571754323330000,4.870330078125,-0.013109207153320312,-0.006126433610916138,0.008701104670763016
1772571754333262800,4.880262939453125,0.0012359619140625,0.003330141305923462,0.008548576384782791
1772571754343197700,4.89019775390625,-0.012911796569824219,-0.015521183609962463,0.008499909192323685
1772571754353130800,4.900130859375,-0.007988929748535156,-0.0010976195335388184,-0.005776785314083099
1772571754363037700,4.91003759765625,0.0062713623046875,0.01769302785396576,0.0037274546921253204
1772571754372968000,4.919968017578125,0.006167411804199219,-0.0014989525079727173,0.003657825291156769
1772571754382930400,4.929930419921875,-0.003353118896484375,-0.006143882870674133,-0.001119263470172882
1772571754392864000,4.939864013671875,-0.012713432312011719,0.012729614973068237,-0.015232153236865997
1772571754402821600,4.949821533203125,-0.00778961181640625,-0.0017727762460708618,0.008455611765384674
1772571754412757500,4.959757568359375,-0.0029516220092773438,-0.011121287941932678,0.012912694364786148
1772571754422660000,4.96966015625,-0.002902984619140625,-0.01089748740196228,0.012689996510744095
1772571754432592600,4.979592529296875,-0.0028514862060546875,-0.006171301007270813,-0.011071979999542236
1772571754442525700,4.989525634765625,0.006615638732910156,0.012601912021636963,0.0032308250665664673
1772571754452458500,4.99945849609375,0.015923500061035156,0.0029114186763763428,-0.001436084508895874
1772571754462392000,5.00939208984375,-0.007884025573730469,0.0028001517057418823,-0.015444133430719376
1772571754472324900,5.019324951171875,-0.0077533721923828125,0.021625876426696777,-0.0010667107999324799
1772571754482255000,5.029255126953125,-0.012331962585449219,0.0023678243160247803,0.013071101158857346
1772571754492187600,5.039187744140625,-0.012124061584472656,-0.026087209582328796,-0.0012800395488739014
1772571754502122500,5.04912255859375,-0.0072116851806640625,-0.011589393019676208,0.0033410750329494476
1772571754512055300,5.05905517578125,-0.0023822784423828125,0.02150227129459381,-0.0014342144131660461
1772571754521989600,5.06898974609375,0.02119922637939453,0.007056683301925659,0.00810067355632782
1772571754531922700,5.078922607421875,0.00672149658203125,0.01629352569580078,0.00805944949388504
1772571754541833700,5.088833740234375,-0.012225151062011719,-0.012291118502616882,-0.006009519100189209
1772571754551764500,5.098764404296875,-0.021439552307128906,-0.007339119911193848,0.003601592034101486
1772571754561697800,5.10869775390625,-0.0069580078125,0.01636473834514618,-0.0009719543159008026
1772571754571628800,5.11862890625,-0.0021333694458007812,0.006612643599510193,0.0039461106061935425
1772571754581589200,5.12858935546875,0.012030601501464844,0.0063374340534210205,-0.0008340105414390564
1772571754591523300,5.1385234375,-0.00229644775390625,-0.007855415344238281,0.003880981355905533
1772571754601466000,5.148466064453125,-0.011674880981445312,-0.017204999923706055,0.013227734714746475
1772571754611401000,5.15840087890625,0.007354736328125,0.011270031332969666,-0.005832850933074951
1772571754621294000,5.168294189453125,0.021358489990234375,-0.00781412422657013,0.0037732012569904327
1772571754631224600,5.178224609375,0.0021686553955078125,0.006379187107086182,0.008512668311595917
1772571754641182700,5.1881826171875,0.002132415771484375,0.010918572545051575,0.00856635719537735
1772571754651116000,5.198115966796875,0.0020971298217773438,0.006066575646400452,0.0036061927676200867
1772571754661052200,5.20805224609375,-0.0026483535766601562,0.020230591297149658,-0.010686758905649185
1772571754670986000,5.217986083984375,-0.002605438232421875,0.010514259338378906,-0.01512167975306511
1772571754680924000,5.227923828125,0.006854057312011719,0.005668476223945618,-0.005356866866350174
1772571754700785700,5.24778564453125,0.0019168853759765625,0.001084938645362854,-0.0005663260817527771
1772571754710719000,5.257718994140625,0.006592750549316406,0.01993979513645172,-0.000463094562292099
1772571754720654600,5.267654541015625,-0.0076389312744140625,-0.0042009055614471436,-0.009778749197721481
1772571754730588200,5.277588134765625,-0.007512092590332031,0.024160310626029968,-0.004816930741071701
1772571754740516400,5.287516357421875,0.016155242919921875,0.004962339997291565,-0.0046446844935417175
1772571754750449400,5.297449462890625,0.0064697265625,-0.02343466877937317,-0.009283371269702911
1772571754760378400,5.30737841796875,0.0016536712646484375,-0.004170641303062439,-0.004530586302280426
1772571754770311200,5.317311279296875,0.0204620361328125,0.009962454438209534,-0.009274236857891083
1772571754780243500,5.327243408203125,0.005997657775878906,-0.009202525019645691,0.009810272604227066
1772571754790176000,5.337176025390625,0.0011920928955078125,-0.009213194251060486,0.00493067130446434
1772571754800111000,5.347111083984375,0.0011720657348632812,0.005104720592498779,0.014156851917505264
1772571754810044200,5.357044189453125,-0.0035552978515625,-0.013877466320991516,-0.004920978099107742
1772571754819982800,5.36698291015625,0.005924224853515625,-0.02322748303413391,-0.000036522746086120605
1772571754829916400,5.37691650390625,0.005825996398925781,-0.004068732261657715,0.009373769164085388
1772571754839844400,5.38684423828125,-0.0036897659301757812,0.01497378945350647,0.009107012301683426
1772571754849777400,5.39677734375,0.0010814666748046875,0.02878725528717041,-0.00046946480870246887
1772571754859708400,5.40670849609375,0.001064300537109375,0.014118969440460205,0.009049326181411743
1772571754869641200,5.41664111328125,-0.00836944580078125,-0.00972205400466919,-0.0005261898040771484
1772571754879580700,5.42658056640625,-0.0035181045532226562,0.004401102662086487,0.004185449331998825
1772571754899419100,5.446419189453125,-0.01745128631591797,-0.00987173616886139,0.004209950566291809
1772571754909349600,5.456349609375,0.0016727447509765625,0.004456609487533569,0.008842654526233673
1772571754919280600,5.46628076171875,0.0016469955444335938,-0.005098104476928711,-0.010246090590953827
1772571754929211400,5.47621142578125,0.006327629089355469,-0.009683176875114441,-0.0005643665790557861
1772571754939148500,5.4861484375,-0.007905960083007812,0.00003586709499359131,0.004144344478845596
1772571754949079800,5.496079833984375,-0.007777214050292969,0.004883691668510437,0.008776359260082245
1772571754959043000,5.50604296875,0.0017709732055664062,0.000030249357223510742,-0.0007928460836410522
1772571754968977700,5.515977783203125,0.0064487457275390625,0.009485498070716858,-0.0053944215178489685
1772571754978907400,5.525907470703125,0.01575756072998047,0.004657372832298279,-0.0006034262478351593
1772571754988841200,5.53584130859375,-0.00804901123046875,0.01403549313545227,-0.0006008744239807129
1772571754998775000,5.545775146484375,-0.0032052993774414062,0.00432218611240387,-0.0004988424479961395
1772571755008709000,5.555709228515625,-0.007857322692871094,-0.014748290181159973,-0.019231095910072327
1772571755018643500,5.5656435546875,0.0016927719116210938,0.004268631339073181,-0.004891827702522278
1772571755028577500,5.57557763671875,-0.007750511169433594,-0.0005733221769332886,-0.00021230056881904602
1772571755038504400,5.58550439453125,-0.0076198577880859375,0.008791252970695496,0.009097911417484283
1772571755048437800,5.595437744140625,-0.012200355529785156,-0.0008351802825927734,0.008938778191804886
1772571755058343700,5.60534375,0.006836891174316406,0.003925785422325134,-0.005242448300123215
1772571755068274200,5.615274169921875,0.011430740356445312,0.013315558433532715,-0.00035092607140541077
1772571755078209800,5.625209716796875,0.0018215179443359375,-0.010410770773887634,-0.004858531057834625
1772571755088141000,5.63514111328125,0.006499290466308594,-0.014906764030456543,-0.004786845296621323
1772571755098078700,5.64507861328125,-0.021860122680664062,-0.00059528648853302,-0.000005979090929031372
1772571755108010500,5.655010498046875,-0.007369041442871094,0.008768558502197266,-0.009428780525922775
1772571755117946400,5.6649462890625,-0.007244110107421875,0.022685453295707703,-0.009380456060171127
1772571755127878400,5.67487841796875,-0.0024137496948242188,-0.006006404757499695,-0.0045248158276081085
1772571755137817900,5.68481787109375,-0.002376556396484375,-0.010474428534507751,0.00024988874793052673
1772571755147750700,5.694750732421875,-0.0023365020751953125,-0.005552694201469421,0.009554121643304825
1772571755157675000,5.704675048828125,0.0024099349975585938,0.003996104001998901,0.00467701256275177
1772571755167607000,5.71460693359375,-0.007048606872558594,-0.01486632227897644,0.009300153702497482
1772571755177544000,5.7245439453125,-0.0022220611572265625,-0.014680787920951843,-0.004888594150543213
1772571755187476500,5.7344765625,-0.0021848678588867188,0.00443682074546814,-0.004915900528430939
1772571755197408800,5.74440869140625,0.0025615692138671875,-0.009825646877288818,0.00918303057551384
1772571755207341300,5.75434130859375,-0.011606216430664062,0.004401177167892456,-0.00500202551484108
1772571755217274000,5.764274169921875,0.002712249755859375,0.03732651472091675,-0.00021756812930107117
1772571755227206700,5.77420654296875,-0.020874977111816406,-0.010443732142448425,0.004485361278057098
1772571755237200400,5.784200439453125,-0.00640106201171875,-0.000915035605430603,0.00460505485534668
1772571755247138800,5.794138916015625,0.007828712463378906,0.013365909457206726,0.02335517108440399
1772571755257029400,5.804029296875,0.007699012756347656,-0.0010450780391693115,0.0042249225080013275
1772571755266963200,5.813963134765625,0.0028629302978515625,0.0036187469959259033,-0.00046209245920181274
1772571755276891400,5.823891357421875,0.026361465454101562,0.008103638887405396,0.004346150904893875
1772571755286824700,5.83382470703125,0.016506195068359375,-0.015637651085853577,-0.014566369354724884
1772571755296733000,5.84373291015625,0.002105712890625,-0.010629966855049133,-0.009723521769046783
1772571755306663700,5.85366357421875,-0.02147197723388672,0.003712072968482971,-0.0002548396587371826
1772571755316631600,5.863631591796875,0.007136344909667969,-0.0010191500186920166,-0.00015827640891075134
1772571755326566100,5.873566162109375,0.011727333068847656,-0.01519070565700531,0.004646755754947662
1772571755336494300,5.883494384765625,0.016241073608398438,-0.0008744299411773682,0.013978999108076096
1772571755346428200,5.89342822265625,-0.00286102294921875,0.017810478806495667,-0.00028596818447113037
1772571755356354300,5.903354248046875,-0.0075206756591796875,0.017450958490371704,-0.00018747523427009583
1772571755366287600,5.91328759765625,-0.002685546875,-0.006446123123168945,-0.004898648709058762
1772571755386159000,5.9331591796875,0.0019598007202148438,-0.006299659609794617,0.014216750860214233
1772571755396089600,5.943089599609375,-0.007491111755371094,-0.0014480352401733398,0.009366773068904877
1772571755406022700,5.953022705078125,-0.007367134094238281,0.003323778510093689,-0.004924416542053223
1772571755415956000,5.9629560546875,0.0021734237670898438,0.0032056570053100586,-0.009558435529470444
1772571755425889300,5.97288916015625,0.0021381378173828125,0.003089502453804016,-0.004698038101196289
1772571755435830300,5.982830322265625,-0.007313728332519531,0.021809592843055725,-0.014044433832168579
1772571755445764400,5.992764404296875,-0.0024843215942382812,0.01677606999874115,0.005016513168811798
1772571755455682600,6.0026826171875,-0.0071506500244140625,0.016434356570243835,0.004923611879348755
1772571755465615000,6.012614990234375,-0.0023241043090820312,0.020908117294311523,-0.009192254394292831
1772571755475543600,6.02254345703125,-0.006995201110839844,-0.007652848958969116,-0.013756953179836273
1772571755485475600,6.0324755859375,0.0072479248046875,-0.017005205154418945,0.010007794946432114
1772571755495428400,6.042428466796875,0.021253585815429688,0.0020502805709838867,0.0051230788230896
1772571755505362400,6.052362548828125,-0.016768455505371094,-0.007463827729225159,0.0003215968608856201
1772571755515281200,6.06228125,0.0023441314697265625,0.002116277813911438,0.014434527605772018
1772571755525214000,6.0722138671875,0.016431808471679688,-0.0026903152465820312,0.004769261926412582
1772571755535144700,6.082144775390625,-0.007386207580566406,-0.007315531373023987,0.004682276397943497
1772571755545077000,6.092076904296875,-0.0025539398193359375,-0.007257387042045593,-0.0000069588422775268555
1772571755555016200,6.10201611328125,-0.002513885498046875,0.0071298182010650635,-0.004623394459486008
1772571755564949500,6.111949462890625,0.011652946472167969,-0.021201491355895996,0.0048615410923957825
1772571755574877000,6.121876953125,0.011458396911621094,-0.016202762722969055,0.004977289587259293
1772571755584809500,6.1318095703125,-0.007568359375,0.007647782564163208,0.00028312206268310547
1772571755594751500,6.14175146484375,0.0019741058349609375,-0.015984058380126953,0.009688083082437515
1772571755604685000,6.15168505859375,0.0019388198852539062,-0.010869204998016357,0.00010192394256591797
1772571755614620700,6.16162060546875,-0.012219429016113281,0.0034763067960739136,-0.004717189818620682
1772571755624554500,6.171554443359375,-0.012014389038085938,0.0033551156520843506,-0.004644282162189484
1772571755634476000,6.18147607421875,-0.011813163757324219,-0.0014720559120178223,-0.004574369639158249
1772571755654339800,6.20133984375,0.01651477813720703,0.003338858485221863,0.009710535407066345
1772571755664230000,6.21122998046875,-0.007302284240722656,0.003221273422241211,0.004830844700336456
1772571755684139500,6.231139404296875,-0.0025053024291992188,-0.011158421635627747,-0.0000097714364528656
1772571755694076400,6.241076416015625,-0.00246429443359375,-0.0015166699886322021,0.004792813211679459
1772571755704022300,6.251022216796875,0.0069942474365234375,0.0032563358545303345,0.01401938870549202
1772571755713960200,6.260960205078125,-0.0072479248046875,0.012657836079597473,0.0042596980929374695
1772571755723871700,6.270871826171875,-0.0024213790893554688,0.003169238567352295,0.013598408550024033
1772571755733807000,6.28080712890625,-0.011796951293945312,0.0030536800622940063,-0.0006602071225643158
1772571755743737000,6.290737060546875,-0.01630878448486328,-0.00647658109664917,-0.005164578557014465
1772571755753671700,6.300671630859375,0.012217521667480469,0.007593661546707153,-0.009796395897865295
1772571755763611400,6.310611328125,-0.0021123886108398438,0.007505685091018677,-0.004932034760713577
1772571755773546500,6.32054638671875,0.0073394775390625,0.007419690489768982,-0.00015054643154144287
1772571755783487000,6.330487060546875,0.02134418487548828,-0.0021834075450897217,0.009259842336177826
1772571755793422600,6.340422607421875,0.0021524429321289062,0.007410064339637756,0.004288095980882645
1772571755803343400,6.35034326171875,-0.00730133056640625,-0.0020926445722579956,-0.0004976615309715271
1772571755813277700,6.360277587890625,0.0022363662719726562,-0.016144990921020508,0.009021621197462082
1772571755823210000,6.3702099609375,0.011616706848144531,0.007604345679283142,0.009066324681043625
1772571755833144000,6.38014404296875,-0.0027036666870117188,0.007516711950302124,0.004197325557470322
1772571755843066600,6.390066650390625,0.011465072631835938,-0.016012370586395264,0.008729081600904465
1772571755852999400,6.39999951171875,0.01598072052001953,-0.010897040367126465,0.00847480446100235
1772571755862934500,6.4099345703125,0.0015897750854492188,-0.015486210584640503,0.0036156661808490753
1772571755872867600,6.41986767578125,-0.007852554321289062,-0.001165047287940979,0.0036492012441158295
1772571755882796800,6.429796875,0.00640106201171875,-0.0010052919387817383,0.0036803483963012695
1772571755892729600,6.4397294921875,0.01571178436279297,-0.0009499639272689819,0.008218802511692047
1772571755902663000,6.449662841796875,-0.008095741271972656,0.01804010570049286,-0.0012415647506713867
1772571755912595700,6.459595703125,-0.022090911865234375,-0.005562379956245422,-0.005835670977830887
1772571755922538500,6.46953857421875,0.0018215179443359375,-0.014949649572372437,0.0037726610898971558
1772571755932472000,6.47947216796875,0.0017910003662109375,-0.009952783584594727,-0.0011094026267528534
1772571755942408000,6.489407958984375,-0.007656097412109375,0.004377454519271851,0.008217450231313705
1772571755952342000,6.499342041015625,0.01601696014404297,-0.01940251886844635,0.0034657008945941925
1772571755962238000,6.509238037109375,0.006333351135253906,-0.028558284044265747,-0.010626174509525299
1772571755972168200,6.519168212890625,0.010937690734863281,0.00010654330253601074,-0.015165168792009354
1772571755982127900,6.5291279296875,0.006046295166015625,0.018977805972099304,-0.0007941611111164093
1772571755992061000,6.53906103515625,0.0012359619140625,0.02340814471244812,0.004023250192403793
1772571756002002200,6.549002197265625,0.005923271179199219,-0.0004858076572418213,-0.0006603114306926727
1772571756011936300,6.558936279296875,-0.013009071350097656,-0.0005399137735366821,-0.00055728480219841
1772571756021859000,6.568859130859375,-0.0033740997314453125,-0.00530165433883667,0.008859913796186447
1772571756031791900,6.5787919921875,-0.0033178329467773438,-0.005174726247787476,-0.0008137412369251251
1772571756041723600,6.5887236328125,-0.0032634735107421875,-0.023884281516075134,-0.005414985120296478
1772571756051656400,6.598656494140625,0.0015020370483398438,-0.014233574271202087,0.018313802778720856
1772571756061589500,6.608589599609375,-0.003231048583984375,-0.009349942207336426,0.008582103997468948
1772571756071522300,6.618522216796875,0.010945320129394531,-0.009054243564605713,0.0037229694426059723
1772571756081458700,6.628458740234375,0.010762214660644531,-0.004156172275543213,0.013070598244667053
1772571756091391700,6.638391845703125,0.005875587463378906,0.00997614860534668,0.0034280605614185333
1772571756101329000,6.648328857421875,0.010487556457519531,0.009747117757797241,0.0034647583961486816
1772571756111262500,6.658262451171875,0.0008955001831054688,0.004915177822113037,0.0032964199781417847
1772571756121165000,6.6681650390625,-0.017953872680664062,0.00016310811042785645,0.003133002668619156
1772571756131095300,6.67809521484375,0.001178741455078125,-0.009218260645866394,-0.00153404101729393
1772571756141054000,6.688053955078125,0.010575294494628906,0.014517024159431458,0.00329415500164032
1772571756150987000,6.697987060546875,0.010401725769042969,-0.000015288591384887695,0.012650713324546814
1772571756160920600,6.707920654296875,0.010230064392089844,-0.014203563332557678,0.007622458040714264
1772571756170854000,6.71785400390625,0.00534820556640625,0.009716570377349854,0.002777542918920517
1772571756180785700,6.72778564453125,0.009967803955078125,0.009593755006790161,0.016746453940868378
1772571756190718700,6.73771875,0.0003833770751953125,0.028307348489761353,0.0023322850465774536
1772571756200650200,6.747650146484375,0.005085945129394531,-0.014502659440040588,-0.016651540994644165
1772571756210583000,6.7575830078125,0.009708404541015625,0.014029189944267273,0.0024528540670871735
1772571756220519700,6.767519775390625,0.0048370361328125,0.00912591814994812,0.0024026818573474884
1772571756230453200,6.777453369140625,-0.0046596527099609375,-0.00992274284362793,-0.007063835859298706
1772571756240404700,6.78740478515625,-0.004580497741699219,-0.00040246546268463135,0.002360273152589798
1772571756250339800,6.79733984375,-0.004506111145019531,0.013871043920516968,-0.007208656519651413
1772571756260263000,6.807262939453125,-0.01384735107421875,0.008869677782058716,0.002317611128091812
1772571756270196700,6.81719677734375,-0.018323898315429688,-0.005466684699058533,0.0022714808583259583
1772571756280129000,6.82712890625,-0.0038957595825195312,-0.02407008409500122,0.002226121723651886
1772571756290062800,6.837062744140625,0.005587577819824219,-0.00489729642868042,0.006890106946229935
1772571756299962000,6.846962158203125,0.010202407836914062,-0.0000686347484588623,0.0021601617336273193
1772571756309892600,6.856892578125,-0.004092216491699219,0.009286969900131226,0.011635120958089828
1772571756319859000,6.86685888671875,0.010100364685058594,0.02800525724887848,0.0020164847373962402
1772571756329792800,6.876792724609375,-0.0041942596435546875,0.00874270498752594,-0.0027332231402397156
1772571756339693300,6.886693359375,-0.0041255950927734375,-0.005489811301231384,-0.007304549217224121
1772571756349623800,6.896623779296875,0.0006513595581054688,-0.0006505995988845825,-0.007293377071619034
1772571756359554800,6.906554931640625,0.010057449340820312,-0.005309239029884338,0.0021347925066947937
1772571756369485300,6.9164853515625,0.009886741638183594,-0.0050803422927856445,-0.0026186704635620117
1772571756379422700,6.926422607421875,-0.004403114318847656,-0.0003498345613479614,-0.007291123270988464
1772571756389354000,6.93635400390625,-0.004328727722167969,-0.0004067271947860718,0.0069486722350120544
1772571756399286800,6.946286865234375,0.00045299530029296875,-0.00988045334815979,-0.012007232755422592
1772571756409218300,6.95621826171875,0.0004425048828125,-0.009576469659805298,-0.002294357866048813
1772571756419159000,6.966158935546875,0.005141258239746094,-0.009277433156967163,-0.006869055330753326
1772571756429091300,6.97609130859375,-0.004361152648925781,0.004940241575241089,0.002655111253261566
1772571756439019000,6.98601904296875,0.0004215240478515625,0.00008715689182281494,-0.011524200439453125
1772571756448950800,6.99595068359375,-0.004291534423828125,-0.00007833540439605713,-0.0018211528658866882
1772571756458908200,7.005908203125,-0.0042209625244140625,-0.00003835558891296387,0.002910275012254715
1772571756468842800,7.0158427734375,-0.004150390625,0.00941804051399231,-0.01608143374323845
1772571756478773200,7.025773193359375,0.0006284713745117188,-0.0096360445022583,0.0030134618282318115
1772571756488707300,7.035707275390625,-0.013505935668945312,-0.009538725018501282,-0.011269588023424149
1772571756498615800,7.04561572265625,-0.0038652420043945312,-0.009341806173324585,-0.015593957155942917
1772571756508547300,7.05554736328125,0.005615234375,0.009686291217803955,0.0035958774387836456
1772571756518504400,7.06550439453125,-0.00389862060546875,0.009665608406066895,0.008235234767198563
1772571756528438500,7.0754384765625,0.005585670471191406,-0.009392067790031433,0.0032787881791591644
1772571756538398200,7.085398193359375,-0.008630752563476562,-0.004691421985626221,-0.001491982489824295
1772571756548334800,7.0953349609375,-0.022611618041992188,0.004741206765174866,0.003233969211578369
1772571756558240300,7.105240234375,-0.017528533935546875,0.004801660776138306,0.003172587603330612
1772571756568173800,7.115173828125,-0.00311279296875,-0.02809867262840271,-0.001697693020105362
1772571756578111700,7.12511181640625,0.00164794921875,-0.0134660005569458,-0.0017782524228096008
1772571756588045800,7.1350458984375,0.0016202926635742188,0.0009233355522155762,-0.006567787379026413
1772571756597970400,7.144970458984375,-0.012533187866210938,0.0009464770555496216,-0.006465822458267212
1772571756607903200,7.1549033203125,-0.0076160430908203125,0.010386988520622253,0.002948559820652008
1772571756617836000,7.1648359375,-0.0074901580810546875,-0.008581951260566711,0.007600504904985428
1772571756627769000,7.17476904296875,0.0067596435546875,-0.013109490275382996,-0.02068217471241951
1772571756637711600,7.184711669921875,0.0019378662109375,0.01068948209285736,0.0033029094338417053
1772571756647645700,7.194645751953125,-0.021636009216308594,0.0010313987731933594,0.0033416561782360077
1772571756657564700,7.204564697265625,-0.0024442672729492188,0.0011544078588485718,0.007985293865203857
1772571756667497000,7.2144970703125,0.011719703674316406,0.010691657662391663,-0.006178028881549835
1772571756677433000,7.22443310546875,-0.002605438232421875,-0.0034729838371276855,0.003539029508829117
1772571756687366000,7.234365966796875,-0.01668834686279297,-0.01279371976852417,-0.005944646894931793
1772571756697310500,7.244310546875,0.0024251937866210938,0.006191089749336243,0.008272696286439896
1772571756707244500,7.25424462890625,-0.01174163818359375,0.015543654561042786,-0.0059984661638736725
1772571756717162000,7.264161865234375,-0.020965576171875,0.015423685312271118,-0.0011956281960010529
1772571756727094500,7.274094482421875,-0.001781463623046875,-0.0036292076110839844,0.003424115478992462
1772571756737034200,7.2840341796875,-0.0017518997192382812,-0.003530144691467285,0.012675371021032333
1772571756746967300,7.29396728515625,0.007695198059082031,-0.0035340338945388794,-0.006276484578847885
1772571756756894200,7.303894287109375,0.0075664520263671875,-0.008144646883010864,-0.001371331512928009
1772571756766826500,7.313826416015625,-0.001979827880859375,0.015674442052841187,-0.001357749104499817
1772571756776764200,7.32376416015625,-0.025490760803222656,0.0013260096311569214,-0.0012412965297698975
1772571756786697000,7.333697021484375,-0.015646934509277344,0.001241728663444519,-0.0013311579823493958
1772571756796634000,7.343634033203125,-0.0012598037719726562,0.005867421627044678,0.0033903494477272034
1772571756806567400,7.3535673828125,0.0034723281860351562,-0.0038110315799713135,-0.005991339683532715
1772571756816492800,7.363492919921875,0.008123397827148438,-0.013125628232955933,-0.0012933574616909027
1772571756826425300,7.37342529296875,0.012694358825683594,-0.00334930419921875,-0.006090939044952393
1772571756836340000,7.383340087890625,0.0030651092529296875,0.0014536231756210327,0.0035213716328144073
1772571756846270700,7.393270751953125,-0.0016946792602539062,-0.008050516247749329,0.008366286754608154
1772571756856226600,7.4032265625,0.0030450820922851562,0.0060450732707977295,-0.0058049410581588745
1772571756866159900,7.413159912109375,-0.011130332946777344,-0.008244737982749939,-0.0010053403675556183
1772571756876092200,7.423092041015625,-0.006237030029296875,-0.003360182046890259,-0.005603410303592682
1772571756886025200,7.433025146484375,-0.015551567077636719,0.006151050329208374,-0.010123074054718018
1772571756895966000,7.442966064453125,-0.0011682510375976562,-0.0033300817012786865,0.004366625100374222
1772571756905900000,7.452900146484375,0.012975692749023438,-0.012652665376663208,0.004385862499475479
1772571756915824600,7.46282470703125,-0.010784149169921875,0.011139705777168274,0.004305265843868256
1772571756925757700,7.4727578125,-0.001186370849609375,0.001474142074584961,0.008934598416090012
1772571756935686000,7.482685791015625,0.012958526611328125,0.006196707487106323,-0.010056186467409134
1772571756945618400,7.492618408203125,0.0033245086669921875,0.02967548370361328,-0.00048066675662994385
1772571756955550700,7.50255078125,0.0032701492309570312,0.010283812880516052,0.013746894896030426
1772571756965483300,7.512483154296875,0.003215789794921875,-0.01820187270641327,0.009004227817058563
1772571756975417300,7.522417236328125,-0.010962486267089844,0.0008736848831176758,-0.014698084443807602
1772571756985350000,7.532349853515625,-0.015486717224121094,0.02433989942073822,0.004270710051059723
1772571756995291100,7.542291015625,-0.0011053085327148438,0.009948402643203735,-0.005123808979988098
1772571757005224700,7.552224609375,0.0036211013793945312,0.01452973484992981,-0.014361824840307236
1772571757015163100,7.5621630859375,-0.0011472702026367188,-0.0046095699071884155,-0.009421374648809433
1772571757025097200,7.57209716796875,-0.005835533142089844,-0.01401318609714508,0.009665582329034805
1772571757035017500,7.582017578125,-0.0057373046875,0.00028352439403533936,0.00959813967347145
1772571757044950300,7.5919501953125,-0.005640983581542969,0.014342382550239563,0.009530160576105118
1772571757054884000,7.601884033203125,0.008578300476074219,-0.004691958427429199,0.009463325142860413
1772571757064817000,7.61181689453125,0.008433341979980469,-0.013890579342842102,-0.00022213533520698547
1772571757074750200,7.621750244140625,0.0035877227783203125,0.00030325353145599365,-0.000328991562128067
1772571757084683000,7.63168310546875,0.0035305023193359375,0.0048422664403915405,0.009189225733280182
1772571757094640600,7.641640625,-0.010655403137207031,0.009508281946182251,-0.01451263576745987
1772571757104576000,7.651575927734375,-0.010477066040039062,0.004577964544296265,0.004659190773963928
1772571757114480000,7.661480224609375,-0.005597114562988281,-0.0047766417264938354,0.014093998819589615
1772571757124412200,7.671412109375,-0.014919281005859375,0.014074638485908508,0.004333142191171646
1772571757134348000,7.68134814453125,0.0041637420654296875,-0.0002471506595611572,0.008860714733600616
1772571757144280600,7.691280517578125,0.008802413940429688,0.004503577947616577,0.008808579295873642
1772571757154214000,7.7012138671875,-0.005471229553222656,0.004466548562049866,0.003947455435991287
1772571757164146400,7.711146484375,-0.0006723403930664062,-0.00027845799922943115,-0.010148569941520691
1772571757174078500,7.721078369140625,0.004048347473144531,-0.00033652782440185547,-0.014594264328479767
1772571757184011300,7.73101123046875,0.008688926696777344,-0.005000978708267212,-0.0001314803957939148
1772571757193942800,7.74094287109375,-0.0055789947509765625,-0.005081593990325928,0.00928039476275444
1772571757203875300,7.750875244140625,-0.010189056396484375,-0.0052626729011535645,0.004310145974159241
1772571757213809200,7.76080908203125,0.0041065216064453125,0.004280254244804382,0.008839908987283707
1772571757223741700,7.77074169921875,0.013454437255859375,0.0042474716901779175,-0.0007321089506149292
1772571757233689300,7.780689453125,-0.0008945465087890625,0.008822456002235413,0.008689768612384796
1772571757243623400,7.79062353515625,0.008536338806152344,-0.005411282181739807,0.013244245201349258
1772571757253524700,7.800524658203125,-0.0010242462158203125,-0.005282118916511536,-0.010528717190027237
1772571757263455700,7.810455810546875,-0.010422706604003906,0.0041604191064834595,-0.005753394216299057
1772571757273419800,7.820419677734375,-0.0055370330810546875,0.013343751430511475,-0.0010580234229564667
1772571757283353900,7.830353759765625,-0.010152816772460938,-0.005776301026344299,-0.005754698067903519
1772571757293273600,7.840273681640625,-0.0005674362182617188,-0.029184475541114807,0.008459500968456268
1772571757303206400,7.850206298828125,-0.005267143249511719,-0.009824603796005249,0.008309226483106613
1772571757313143600,7.8601435546875,-0.0098876953125,-0.00020509958267211914,-0.0013552606105804443
1772571757323076600,7.87007666015625,-0.014431953430175781,-0.009579792618751526,0.008176498115062714
1772571757333005300,7.88000537109375,-0.018898963928222656,-0.01419086754322052,0.008132167160511017
1772571757342938000,7.889938232421875,-0.013874053955078125,-0.018725663423538208,-0.001428060233592987
1772571757352869000,7.899869140625,-0.013643264770507812,-0.004248708486557007,0.0031938254833221436
1772571757362801700,7.9098017578125,0.010128021240234375,-0.008949190378189087,-0.0015755034983158112
1772571757382674200,7.929674072265625,-0.013510704040527344,-0.008879035711288452,-0.0013374164700508118
1772571757392605000,7.93960498046875,-0.008580207824707031,-0.013299867510795593,0.0035884343087673187
1772571757402538000,7.9495380859375,-0.0037317276000976562,-0.012936770915985107,-0.0011927708983421326
1772571757412463000,7.959463134765625,-0.0036706924438476562,0.0014436990022659302,-0.005890741944313049
1772571757422395400,7.9693955078125,0.0010976791381835938,0.006166219711303711,0.017845913767814636
1772571757432344000,7.979343994140625,-0.017757415771484375,0.006204009056091309,0.008223425596952438
1772571757442278000,7.98927783203125,-0.008044242858886719,0.006139159202575684,0.00797760859131813
1772571757452181000,7.999180908203125,0.0015039443969726562,-0.0032409876585006714,0.012545764446258545
1772571757462111700,8.00911181640625,0.010894775390625,-0.012565076351165771,0.00761881098151207
1772571757472049000,8.019048828125,-0.008124351501464844,0.006619125604629517,0.002773970365524292
1772571757481980400,8.02898046875,-0.0032835006713867188,0.006648585200309753,0.0027202367782592773
1772571757491947500,8.038947509765626,-0.007940292358398438,-0.0027385950088500977,-0.006751582026481628
1772571757501882600,8.048882568359375,-0.0030984878540039062,-0.007463693618774414,-0.0018384568393230438
1772571757511811300,8.058811279296876,0.015786170959472656,0.006825551390647888,-0.006424460560083389
1772571757521745700,8.06874560546875,0.0061054229736328125,0.011459484696388245,-0.015743833035230637
1772571757531643100,8.07864306640625,0.0012950897216796875,0.0018897205591201782,-0.006172608584165573
1772571757541573600,8.08857373046875,-0.00814056396484375,-0.012431487441062927,-0.006077233701944351
1772571757551550000,8.098550048828125,0.006119728088378906,-0.0027678608894348145,-0.001276656985282898
1772571757561485300,8.1084853515625,0.0013065338134765625,-0.0025818943977355957,-0.0012628845870494843
1772571757571389700,8.1183896484375,-0.0034198760986328125,-0.02624531090259552,0.003358319401741028
1772571757581321700,8.12832177734375,-0.012780189514160156,-0.006934985518455505,-0.0015149898827075958
1772571757591277600,8.138277587890625,-0.02198505401611328,0.002636432647705078,-0.0014972612261772156
1772571757601212000,8.1482119140625,-0.007494926452636719,0.0027322918176651,-0.006289660930633545
1772571757611142000,8.158141845703126,-0.0026636123657226562,0.012244224548339844,0.0031218938529491425
1772571757621076000,8.168075927734375,0.0020914077758789062,0.01197744905948639,-0.015873268246650696
1772571757630997200,8.177997314453124,-0.016776084899902344,0.007006600499153137,0.007825639098882675
1772571757640929800,8.1879296875,0.007045745849609375,-0.0024883002042770386,-0.0016300007700920105
1772571757650860300,8.1978603515625,0.011635780334472656,-0.002407744526863098,0.007805101573467255
1772571757660792800,8.207792724609375,-0.012102127075195312,-0.021162912249565125,0.007665760815143585
1772571757670723300,8.217723388671875,-0.00719451904296875,0.0028725266456604004,0.007530499249696732
1772571757680655600,8.227655517578125,-0.002368927001953125,0.0029638856649398804,0.0027918778359889984
1772571757690610700,8.237610595703124,-0.007037162780761719,-0.00656554102897644,0.016863610595464706
1772571757700545300,8.247545166015625,-0.016340255737304688,0.01722666621208191,-0.01638510823249817
1772571757710468900,8.25746875,0.016892433166503906,0.0075608789920806885,0.002613719552755356
1772571757720402200,8.267402099609376,0.0071926116943359375,0.007473960518836975,0.0025609061121940613
1772571757730322400,8.277322509765625,-0.007052421569824219,-0.0021304190158843994,-0.011513937264680862
1772571757740254500,8.28725439453125,-0.0022268295288085938,0.01206997036933899,-0.00191410630941391
1772571757750185700,8.297185791015625,0.007229804992675781,0.002389475703239441,0.0027159154415130615
1772571757760117800,8.30711767578125,0.002399444580078125,0.00238819420337677,-0.0020454488694667816
1772571757770019600,8.31701953125,0.0023584365844726562,0.02122117578983307,-0.0019179172813892365
1772571757779948500,8.326948486328124,-0.011809349060058594,-0.0025357604026794434,0.007624935358762741
1772571757789924000,8.336924072265624,-0.01632213592529297,-0.007163390517234802,-0.006533794105052948
1772571757799857700,8.346857666015625,-0.0019273757934570312,-0.0021956264972686768,-0.006432399153709412
1772571757809784600,8.35678466796875,0.0028142929077148438,0.0024869143962860107,0.017311450093984604
1772571757819717600,8.366717529296874,0.012186050415039062,-0.002427622675895691,-0.01584174484014511
1772571757829663200,8.376663330078125,-0.0068511962890625,0.002360045909881592,-0.0062694065272808075
1772571757839597600,8.38659765625,0.0026798248291015625,-0.007057934999465942,-0.0015650726854801178
1772571757849517800,8.396517822265626,0.012053489685058594,-0.002294868230819702,-0.0015447288751602173
1772571757859450600,8.40645068359375,-0.00698089599609375,-0.0023187845945358276,0.0173061341047287
1772571757869385200,8.41638525390625,-0.002155303955078125,-0.007051974534988403,0.002886168658733368
1772571757879318300,8.426318359375,0.012009620666503906,0.025861233472824097,0.0028323158621788025
1772571757889260000,8.436260009765626,0.007100105285644531,0.001925826072692871,0.0027776025235652924
1772571757899193900,8.44619384765625,-0.0024385452270507812,-0.01209227740764618,0.0074323974549770355
1772571757909115000,8.456114990234376,0.007018089294433594,0.006981596350669861,0.00730278342962265
1772571757919047400,8.46604736328125,0.011610984802246094,0.0020939409732818604,-0.011660803109407425
1772571757928991000,8.475990966796875,0.0020017623901367188,-0.016939446330070496,-0.011372614651918411
1772571757938924800,8.4859248046875,-0.0074481964111328125,0.002115100622177124,-0.006483741104602814
1772571757948847900,8.495847900390626,-0.02144908905029297,-0.002691403031349182,-0.006383173167705536
1772571757958780400,8.505780517578126,0.0024499893188476562,0.006809726357460022,-0.0015774555504322052
1772571757968714200,8.51571435546875,0.002407073974609375,-0.00258009135723114,0.003045167773962021
1772571757978647000,8.52564697265625,0.0070743560791015625,0.0022106021642684937,-0.015849221497774124
1772571757988577000,8.535576904296875,-0.0024595260620117188,-0.007305577397346497,0.0033412575721740723
1772571757998509600,8.545509521484375,0.011708259582519531,-0.01195564866065979,0.008089650422334671
1772571758008443000,8.55544287109375,0.01622295379638672,0.01643247902393341,0.0033399760723114014
1772571758018375400,8.56537548828125,-0.0028829574584960938,0.0020719021558761597,0.003376290202140808
1772571758038244000,8.585244140625,-0.012204170227050781,0.016342028975486755,0.002991538494825363
1772571758048178700,8.5951787109375,-0.012001991271972656,-0.002624914050102234,-0.006685525178909302
1772571758058111700,8.60511181640625,0.011739730834960938,0.00216597318649292,-0.001873008906841278
1772571758068038000,8.615037841796875,0.016256332397460938,-0.012159749865531921,0.012175321578979492
1772571758077970400,8.624970458984375,0.0018606185913085938,-0.012019231915473938,0.011963140219449997
1772571758087911200,8.6349111328125,-0.021712303161621094,0.016369909048080444,0.011857569217681885
1772571758097844200,8.64484423828125,-0.011932373046875,-0.002800002694129944,0.006943844258785248
1772571758107775000,8.65477490234375,-0.007025718688964844,0.006702393293380737,-0.007305163890123367
1772571758117708000,8.6647080078125,-0.002201080322265625,-0.012205719947814941,-0.0023793280124664307
1772571758127641000,8.67464111328125,0.0025434494018554688,-0.002546563744544983,0.007171254605054855
1772571758137574100,8.68457421875,-0.011624336242675781,-0.0024650245904922485,-0.0024759508669376373
1772571758147506000,8.694505859375,-0.011429786682128906,-0.007195219397544861,-0.011859368532896042
1772571758157438700,8.704438720703125,0.007594108581542969,-0.0023281723260879517,-0.011669214814901352
1772571758167387100,8.71438720703125,0.007468223571777344,0.002355903387069702,-0.016087692230939865
1772571758177321500,8.724321533203126,-0.0067844390869140625,0.011873617768287659,-0.006409879773855209
1772571758187242800,8.73424267578125,-0.0019655227661132812,-0.011727645993232727,0.007815241813659668
1772571758197176000,8.744176025390624,-0.020763397216796875,0.01645420491695404,0.007778722792863846
1772571758207105000,8.75410498046875,0.0031270980834960938,0.01611730456352234,0.012248985469341278
1772571758217037800,8.764037841796876,0.02190876007080078,-0.0029471665620803833,0.0026201456785202026
1772571758226949000,8.77394921875,0.0074176788330078125,0.00655759871006012,-0.006949208676815033
1772571758236879600,8.783879638671875,0.0025854110717773438,-0.002930358052253723,-0.01635928452014923
1772571758246856700,8.793856689453126,-0.011582374572753906,0.001763567328453064,-0.0019666142761707306
1772571758256792000,8.8037919921875,-0.011388778686523438,-0.007746279239654541,0.012186206877231598
1772571758266667500,8.81366748046875,-0.011198997497558594,0.00183887779712677,-0.002252534031867981
1772571758276596700,8.8235966796875,-0.011011123657226562,0.006454154849052429,0.0024861060082912445
1772571758286504400,8.83350439453125,-0.015537261962890625,-0.00774131715297699,-0.002269648015499115
1772571758296431600,8.843431640625,0.0035572052001953125,0.001742243766784668,0.002469278872013092
1772571758306384000,8.8533837890625,-0.029458999633789062,-0.017284855246543884,-0.00689692422747612
1772571758316313300,8.863313232421875,-0.00542449951171875,0.006483525037765503,-0.0020808838307857513
1772571758326224100,8.87322412109375,-0.0006237030029296875,-0.003104269504547119,-0.0021546781063079834
1772571758336151800,8.88315185546875,-0.0006113052368164062,0.006302565336227417,-0.0022291913628578186
1772571758346111200,8.893111328125,0.004108428955078125,0.015552401542663574,-0.006909921765327454
1772571758365978600,8.912978515625,-0.0006580352783203125,-0.008271276950836182,0.0026440657675266266
1772571758375910100,8.92291015625,-0.0006475448608398438,0.0012211054563522339,0.01692068949341774
1772571758385827000,8.9328271484375,0.01819896697998047,-0.008279025554656982,-0.002203185111284256
1772571758395757000,8.942757080078126,-0.010356903076171875,0.006024375557899475,-0.016303274780511856
1772571758405695200,8.9526953125,-0.01960277557373047,0.020088300108909607,0.00750390812754631
1772571758415626000,8.9626259765625,0.0042705535888671875,-0.008763685822486877,0.002765718847513199
1772571758425590300,8.97259033203125,0.027744293212890625,0.0007366836071014404,-0.0020980313420295715
1772571758435524600,8.982524658203126,0.0037374496459960938,0.000864177942276001,-0.002171803265810013
1772571758445457200,8.99245703125,-0.005741119384765625,-0.008630111813545227,0.01198267936706543
1772571758455391200,9.00239111328125,0.008482933044433594,-0.003941625356674194,0.011876702308654785
1772571758465296000,9.0122958984375,-0.005784034729003906,0.0008705407381057739,-0.0025536753237247467
1772571758475227100,9.02222705078125,0.008435249328613281,-0.013130024075508118,0.006898574531078339
1772571758485174300,9.03217431640625,0.008294105529785156,-0.008164003491401672,-0.0026411041617393494
1772571758495106800,9.04210693359375,0.0034465789794921875,-0.00328025221824646,0.006912060081958771
1772571758505032400,9.052032470703125,-0.010733604431152344,-0.0128059983253479,0.002079010009765625
1772571758514964500,9.061964599609375,-0.0058422088623046875,-0.012756451964378357,-0.007481541484594345
1772571758524891100,9.07189111328125,0.01779937744140625,-0.0031893104314804077,-0.007364343851804733
1772571758534822700,9.08182275390625,0.012793540954589844,-0.01251479983329773,0.002168085426092148
1772571758544776700,9.091776611328125,0.0031604766845703125,0.011376827955245972,0.011541619896888733
1772571758554710500,9.10171044921875,-0.0016040802001953125,0.01603558659553528,0.0019245706498622894
1772571758564666600,9.11166650390625,0.0031309127807617188,0.0016817301511764526,0.001781746745109558
1772571758574602800,9.121602783203125,-0.011048316955566406,-0.003016352653503418,0.01587032899260521
1772571758584556500,9.131556640625,-0.0061588287353515625,-0.012243196368217468,-0.007843218743801117
1772571758594494500,9.141494384765625,0.008069038391113281,-0.002583414316177368,0.0017984583973884583
1772571758604350000,9.151349853515624,0.007935523986816406,0.006814643740653992,0.0018614791333675385
1772571758614279700,9.16127978515625,0.007802009582519531,0.002030998468399048,-0.007594231516122818
1772571758624243200,9.1712431640625,0.0029621124267578125,0.006744951009750366,0.0019402392208576202
1772571758634176000,9.181176025390625,0.007622718811035156,0.006570950150489807,0.006605476140975952
1772571758644095000,9.191094970703125,0.007494926452636719,-0.00762532651424408,0.001878637820482254
1772571758654026800,9.20102685546875,0.007369041442871094,0.006666645407676697,0.0065466612577438354
1772571758663971800,9.210971923828126,0.0025377273559570312,0.0018855184316635132,0.006328679621219635
1772571758673905000,9.22090478515625,-0.00691986083984375,0.025334909558296204,0.0061127059161663055
1772571758683823400,9.2308232421875,-0.006804466247558594,0.0014087408781051636,-0.003516700118780136
1772571758693754600,9.240754638671875,-0.006691932678222656,-0.0032848119735717773,0.010660197585821152
1772571758703731200,9.250731201171876,0.002838134765625,0.0014155805110931396,0.0010578036308288574
1772571758713667300,9.260667236328125,0.01691722869873047,0.010747030377388,0.005739498883485794
1772571758723582500,9.27058251953125,-0.006908416748046875,0.015314966440200806,-0.003780834376811981
1772571758733516300,9.280516357421876,-0.01620960235595703,0.010288432240486145,0.0057931095361709595
1772571758753376000,9.3003759765625,0.012182235717773438,-0.013260051608085632,-0.008540794253349304
1772571758763296000,9.3102958984375,0.01668548583984375,-0.02231663465499878,0.0009101442992687225
1772571758773227800,9.320227783203125,-0.0165557861328125,-0.007679149508476257,-0.008428484201431274
1772571758783156200,9.33015625,-0.002155303955078125,-0.007512643933296204,-0.013004101812839508
1772571758793087700,9.340087646484376,-0.01624584197998047,-0.0026397407054901123,0.0013291575014591217
1772571758803022600,9.350022705078125,-0.011267662048339844,-0.026099592447280884,0.010816182941198349
1772571758812954400,9.359954345703125,0.0030460357666015625,0.002524852752685547,0.0014119073748588562
1772571758822898400,9.3698984375,-0.011129379272460938,-0.0022885948419570923,-0.003327731043100357
1772571758832831500,9.37983154296875,-0.006236076354980469,-0.016338244080543518,0.0014305748045444489
1772571758842756400,9.38975634765625,-0.001422882080078125,0.007312685251235962,-0.007712770253419876
1772571758852688600,9.399688720703125,-0.0013980865478515625,0.007128119468688965,-0.002781912684440613
1772571758862618600,9.40961865234375,-0.006083488464355469,0.011756986379623413,-0.007554590702056885
1772571758872550700,9.419550537109375,-0.010691642761230469,-0.01665198802947998,-0.0027275867760181427
1772571758882473000,9.429472900390625,0.0036106109619140625,-0.006918221712112427,-0.0024891383945941925
1772571758892404000,9.439404052734375,0.008259773254394531,0.0072602033615112305,0.01177183911204338
1772571758902374000,9.449373779296875,-0.0012941360473632812,0.0023671388626098633,-0.002555910497903824
1772571758912308700,9.459308837890624,-0.010691642761230469,0.0071755051612854,-0.0026203058660030365
1772571758922201000,9.469201171875,0.008322715759277344,0.01641121506690979,0.00202193483710289
1772571758932131800,9.4791318359375,0.012895584106445312,0.0018480420112609863,0.006689328700304031
1772571758942100500,9.4891005859375,-0.0014429092407226562,-0.01237034797668457,-0.0076605938374996185
1772571758952034800,9.499034912109375,-0.0014200210571289062,0.006709307432174683,-0.002833586186170578
1772571758961939700,9.508939697265625,-0.010812759399414062,0.001826941967010498,-0.012212779372930527
1772571758971871200,9.518871337890625,-0.0012149810791015625,-0.01699991524219513,0.002009596675634384
1772571758981828400,9.528828369140625,0.01763916015625,-0.007260769605636597,-0.007550079375505447
1772571758991762400,9.538762451171875,0.0032205581665039062,0.01634107530117035,0.0019836872816085815
1772571759001670000,9.548669921875,0.012582778930664062,-0.0027266740798950195,0.011459548026323318
1772571759011601400,9.558601318359376,0.017080307006835938,-0.002642691135406494,-0.0027635134756565094
1772571759021574100,9.56857421875,-0.006748199462890625,0.006857812404632568,-0.01214393600821495
1772571759031509800,9.578509765625,-0.006636619567871094,0.006782069802284241,0.0068853311240673065
1772571759041396000,9.58839599609375,0.0028886795043945312,-0.012026235461235046,-0.0072619132697582245
1772571759051326500,9.598326416015626,0.007548332214355469,-0.0023695379495620728,-0.002441544085741043
1772571759061300000,9.608300048828125,-0.0067043304443359375,0.021252185106277466,0.021132823079824448
1772571759071234800,9.61823486328125,-0.016012191772460938,0.011620596051216125,-0.0027698613703250885
1772571759081154800,9.62815478515625,-0.0016202926635742188,0.011465415358543396,0.011394593864679337
1772571759091088400,9.63808837890625,-0.006300926208496094,0.006502479314804077,-0.007635436952114105
1772571759101024300,9.648024169921875,-0.0014867782592773438,0.0016216784715652466,0.006613623350858688
1772571759110958000,9.6579580078125,0.007952690124511719,0.006443008780479431,0.0018885396420955658
1772571759120892400,9.667892333984375,-0.006306648254394531,0.029917672276496887,-0.002860795706510544
1772571759130826200,9.677826171875,0.0032176971435546875,0.015231132507324219,-0.0029236190021038055
1772571759140733200,9.687733154296875,0.012579917907714844,-0.008526697754859924,0.0019254200160503387
1772571759150664200,9.697664306640625,-0.0017566680908203125,-0.003637462854385376,-0.01223994791507721
1772571759160613000,9.707613037109375,0.031236648559570312,-0.008551016449928284,-0.002423487603664398
1772571759170546000,9.7175458984375,-0.01635456085205078,-0.01409091055393219,-0.006694246083498001
1772571759180494000,9.727494140625,-0.011363983154296875,0.009117186069488525,0.0030297748744487762
1772571759190428400,9.737428466796874,0.007670402526855469,0.008295595645904541,-0.006244707852602005
1772571759200361000,9.74736083984375,-0.0018634796142578125,0.016802683472633362,-0.010450005531311035
1772571759210295300,9.75729541015625,-0.01595020294189453,-0.002881184220314026,-0.00526919960975647
1772571759220200700,9.76720068359375,-0.006264686584472656,0.011128619313240051,0.004331089556217194
1772571759230132000,9.777132080078125,-0.024999618530273438,-0.007650822401046753,-0.0004553757607936859
1772571759240059400,9.787059326171875,-0.019887924194335938,0.0027417391538619995,-0.000758785754442215
1772571759249990400,9.796990478515625,0.027515411376953125,-0.019897058606147766,-0.005970023572444916
