time,seconds_elapsed,z,y,x
1772571749595011800,0.14201171875,0.0031956990715116262,0.0021304660476744175,0.004260932095348835
1772571749644926500,0.191926513671875,0.0010652330238372087,0.0010652330238372087,0.0031956990715116262
1772571749664804000,0.21180419921875,0.0021304660476744175,0.0010652330238372087,0.0021304660476744175
1772571749674722000,0.22172216796875,0.0031956990715116262,0.0021304660476744175,0.0010652330238372087
1772571749684654800,0.23165478515625,0.0031956990715116262,0.0021304660476744175,0.0021304660476744175
1772571749694605300,0.241605224609375,0.0031956990715116262,0.0010652330238372087,0.0010652330238372087
1772571749704545300,0.251545166015625,0.0021304660476744175,0.0010652330238372087,-0.0010652330238372087
1772571749714470400,0.261470458984375,0.0010652330238372087,0,0
1772571749724404500,0.271404541015625,0.0021304660476744175,0.0021304660476744175,0.0031956990715116262
1772571749734337300,0.281337158203125,0.0031956990715116262,0,0.0021304660476744175
1772571749744270800,0.291270751953125,0.0021304660476744175,0.0010652330238372087,0.0031956990715116262
1772571749774031600,0.321031494140625,0.0021304660476744175,0.0010652330238372087,0.0021304660476744175
1772571749793931000,0.340930908203125,0.0021304660476744175,0.0010652330238372087,0.0021304660476744175
1772571749803875000,0.350875,0.0021304660476744175,0,0.0021304660476744175
1772571749813802000,0.360802001953125,0.0021304660476744175,-0.0010652330238372087,0.0031956990715116262
1772571749823739100,0.3707392578125,0.0031956990715116262,0.0010652330238372087,0.0021304660476744175
1772571749833664000,0.3806640625,0.0010652330238372087,0.0010652330238372087,0.0010652330238372087
1772571749843596000,0.390595947265625,0.0021304660476744175,0.0010652330238372087,0.0021304660476744175
1772571749853533000,0.400532958984375,0.0031956990715116262,0,0.0031956990715116262
1772571749863467000,0.410467041015625,0.0021304660476744175,0.0010652330238372087,0.0031956990715116262
1772571749873396200,0.420396240234375,0.0010652330238372087,0.0010652330238372087,0.0031956990715116262
1772571749883328500,0.43032861328125,0.0021304660476744175,0.0010652330238372087,0.0010652330238372087
1772571749893260500,0.440260498046875,0.0021304660476744175,0.0010652330238372087,0.0010652330238372087
1772571749903192600,0.450192626953125,0.0021304660476744175,0.0021304660476744175,0.0021304660476744175
1772571749913127400,0.46012744140625,0.0021304660476744175,0.0031956990715116262,0.0031956990715116262
1772571749923060700,0.470060791015625,0.0021304660476744175,0.0021304660476744175,0.0021304660476744175
1772571749932991000,0.479990966796875,0.0021304660476744175,0.0010652330238372087,0.0021304660476744175
1772571749942923000,0.489923095703125,0.0031956990715116262,0.0010652330238372087,0.0021304660476744175
1772571749952858400,0.4998583984375,0.0021304660476744175,0.0010652330238372087,0.0031956990715116262
1772571749962792000,0.5097919921875,0.0031956990715116262,0,0.0010652330238372087
1772571749972726300,0.519726318359375,0.0031956990715116262,0,0.0010652330238372087
1772571749982660000,0.52966015625,0.0021304660476744175,0,0.0031956990715116262
1772571749992595000,0.539594970703125,0.0010652330238372087,0.0010652330238372087,0.0031956990715116262
1772571750002529300,0.549529296875,0.0021304660476744175,0.0021304660476744175,0.0031956990715116262
1772571750012469200,0.55946923828125,0.0021304660476744175,0.0010652330238372087,0.0021304660476744175
1772571750022404000,0.569404052734375,0.0021304660476744175,0.0021304660476744175,0.0021304660476744175
1772571750032333000,0.5793330078125,0,0.0021304660476744175,0.0021304660476744175
1772571750042267100,0.58926708984375,0.0010652330238372087,0.0010652330238372087,0.0021304660476744175
1772571750052212000,0.5992119140625,0.0031956990715116262,0,0.0021304660476744175
1772571750062147300,0.609147216796875,0.0031956990715116262,0,0.0021304660476744175
1772571750072053000,0.619052978515625,0.0021304660476744175,0.0010652330238372087,0.0021304660476744175
1772571750081985300,0.6289853515625,0.0031956990715116262,0.0010652330238372087,0.0010652330238372087
1772571750091919400,0.63891943359375,0.0021304660476744175,0.0010652330238372087,0.004260932095348835
1772571750101852000,0.648851806640625,0.0021304660476744175,0.0010652330238372087,0.0031956990715116262
1772571750111786800,0.658786865234375,0.0021304660476744175,0.0021304660476744175,0.0021304660476744175
1772571750121719600,0.668719482421875,0.0010652330238372087,0.0021304660476744175,0.0031956990715116262
1772571750131651800,0.67865185546875,0.0021304660476744175,0.0010652330238372087,0.0031956990715116262
1772571750141584600,0.688584716796875,0.0021304660476744175,0,0.0021304660476744175
1772571750151519500,0.69851953125,0.0031956990715116262,0.0010652330238372087,0.0010652330238372087
1772571750161452300,0.708452392578125,0.0021304660476744175,0,0.0010652330238372087
1772571750171360500,0.718360595703125,0.0021304660476744175,0,0.0010652330238372087
1772571750181290800,0.728290771484375,0.0021304660476744175,0.0010652330238372087,0.0031956990715116262
1772571750191248000,0.738247802734375,0.0010652330238372087,0.0010652330238372087,0.0031956990715116262
1772571750201181000,0.748180908203125,0.0021304660476744175,0.0021304660476744175,0.0021304660476744175
1772571750211116300,0.7581162109375,0.0021304660476744175,0.0021304660476744175,0.0031956990715116262
1772571750221049600,0.768049560546875,0.0021304660476744175,0.0021304660476744175,0.0031956990715116262
1772571750231004200,0.778004150390625,0.0021304660476744175,0.0010652330238372087,0.0021304660476744175
1772571750240939800,0.787939697265625,0.0031956990715116262,0,0.0021304660476744175
1772571750250856400,0.7978564453125,0.0031956990715116262,0.0010652330238372087,0.0021304660476744175
1772571750260790000,0.8077900390625,0.0021304660476744175,0.0021304660476744175,0.0010652330238372087
1772571750270686500,0.8176865234375,0.0031956990715116262,0.0021304660476744175,0.0010652330238372087
1772571750280616200,0.8276162109375,0.0021304660476744175,0.0021304660476744175,0.0021304660476744175
1772571750290557400,0.837557373046875,0.0031956990715116262,0.0021304660476744175,0.0010652330238372087
1772571750300488400,0.847488525390625,0.0021304660476744175,-0.0010652330238372087,0.004260932095348835
1772571750310421000,0.8574208984375,0,0.0010652330238372087,0.0021304660476744175
1772571750320352300,0.867352294921875,0.0021304660476744175,0.0010652330238372087,0.0021304660476744175
1772571750330283800,0.87728369140625,0.0021304660476744175,0.0021304660476744175,0.0021304660476744175
1772571750340215000,0.887215087890625,0.0021304660476744175,0.0010652330238372087,0.0031956990715116262
1772571750350149400,0.8971494140625,0.0010652330238372087,0.0010652330238372087,0.0031956990715116262
1772571750360081000,0.907080810546875,0.0021304660476744175,0.0010652330238372087,0.0021304660476744175
1772571750370087700,0.917087646484375,0.0021304660476744175,0,0.0010652330238372087
1772571750380027000,0.92702685546875,0.0010652330238372087,0.0010652330238372087,0.0021304660476744175
1772571750389885400,0.936885498046875,0.0021304660476744175,-0.0010652330238372087,0.0010652330238372087
1772571750399816400,0.94681640625,0.0021304660476744175,0.0010652330238372087,0.0031956990715116262
1772571750409754400,0.95675439453125,0.0010652330238372087,0.0010652330238372087,0.0031956990715116262
1772571750419686000,0.966685791015625,0.0021304660476744175,0.0021304660476744175,0.0031956990715116262
1772571750429612300,0.9766123046875,0.0031956990715116262,0,0.004260932095348835
1772571750439543300,0.986543212890625,0.0031956990715116262,0.0010652330238372087,0.0031956990715116262
1772571750449482500,0.996482421875,0.0021304660476744175,0.0021304660476744175,0.004260932095348835
1772571750459414300,1.006414306640625,0.0021304660476744175,0,0.004260932095348835
1772571750469368000,1.0163681640625,0.0021304660476744175,0.0010652330238372087,0.0010652330238372087
1772571750479302100,1.02630224609375,0.0021304660476744175,0.0021304660476744175,0.0031956990715116262
1772571750489239000,1.036239013671875,0.0021304660476744175,0.0021304660476744175,0.0031956990715116262
1772571750499173600,1.046173583984375,0.0021304660476744175,0.0010652330238372087,0.0031956990715116262
1772571750509098500,1.056098388671875,0.0031956990715116262,0.0010652330238372087,0.004260932095348835
1772571750519031800,1.06603173828125,0.0021304660476744175,0.0021304660476744175,0.0031956990715116262
1772571750528963300,1.07596337890625,0.0031956990715116262,0.0010652330238372087,0.0010652330238372087
1772571750538896600,1.085896728515625,0.0010652330238372087,0.0010652330238372087,0.0021304660476744175
1772571750548828700,1.09582861328125,0.0031956990715116262,0.0021304660476744175,0.0021304660476744175
1772571750558761700,1.10576171875,0.004260932095348835,0.0010652330238372087,0.0010652330238372087
1772571750568697600,1.115697509765625,0.0031956990715116262,0.0010652330238372087,0.0021304660476744175
1772571750578631200,1.125631103515625,0.0031956990715116262,0,0.0021304660476744175
1772571750588566300,1.135566162109375,0.0031956990715116262,0.0021304660476744175,0.0031956990715116262
1772571750598499800,1.145499755859375,0.0010652330238372087,0.0010652330238372087,0.0031956990715116262
1772571750608425500,1.155425537109375,0.0021304660476744175,0.0021304660476744175,0.004260932095348835
1772571750618358500,1.165358642578125,0.0031956990715116262,0.0010652330238372087,0.0021304660476744175
1772571750628268800,1.175268798828125,0.0031956990715116262,0.0010652330238372087,0.0010652330238372087
1772571750638199300,1.18519921875,0.0021304660476744175,0.0010652330238372087,0.0021304660476744175
1772571750648134700,1.195134765625,0.0021304660476744175,0.0010652330238372087,0.0021304660476744175
1772571750658066000,1.20506591796875,0.0031956990715116262,0.0010652330238372087,0.0021304660476744175
1772571750668025900,1.21502587890625,0.0021304660476744175,0.0021304660476744175,0.0021304660476744175
1772571750677960000,1.2249599609375,0.0021304660476744175,0,0.0021304660476744175
1772571750687891200,1.23489111328125,0.0031956990715116262,0.0010652330238372087,0.0021304660476744175
1772571750697825000,1.244824951171875,0.0010652330238372087,0.0010652330238372087,0.0031956990715116262
1772571750717689900,1.26468994140625,0.0031956990715116262,0.0159784946590662,0.0010652330238372087
1772571750727609600,1.274609619140625,0.0031956990715116262,0.0319569893181324,-0.0063913981430232525
1772571750737542000,1.2845419921875,0.0021304660476744175,0.0010652330238372087,0.0053261648863554
1772571750747486200,1.294486328125,0.0021304660476744175,0.01704372838139534,-0.0031956990715116262
1772571750757419800,1.304419677734375,0.0010652330238372087,0.00852186419069767,0.0010652330238372087
1772571750767364600,1.314364501953125,0.0010652330238372087,0,0.004260932095348835
1772571750777299200,1.32429931640625,0.0010652330238372087,-0.009587096981704235,0.0063913981430232525
1772571750787219200,1.33421923828125,0.0021304660476744175,-0.02450035884976387,0.00852186419069767
1772571750797152300,1.34415234375,0.0031956990715116262,-0.01810896210372448,0.0063913981430232525
1772571750807083000,1.3540830078125,0.0031956990715116262,0.0010652330238372087,0.0010652330238372087
1772571750817015800,1.364015869140625,0.0021304660476744175,0.0010652330238372087,0.0021304660476744175
1772571750826949000,1.37394921875,0.0031956990715116262,-0.0010652330238372087,0
1772571750836882000,1.3838818359375,0.0031956990715116262,0,0.0010652330238372087
1772571750846814700,1.393814697265625,0.0021304660476744175,0.0010652330238372087,0.0010652330238372087
1772571750856747500,1.40374755859375,0.0010652330238372087,0,0.0021304660476744175
1772571750866697700,1.41369775390625,0.0031956990715116262,0,0
1772571750876632300,1.42363232421875,0.0031956990715116262,0.0021304660476744175,0.0010652330238372087
1772571750886559700,1.433559814453125,0.0021304660476744175,0.0010652330238372087,0.0021304660476744175
1772571750896493600,1.44349365234375,0.0010652330238372087,0.0010652330238372087,0.0021304660476744175
1772571750906410000,1.453409912109375,0.0021304660476744175,0.0031956990715116262,0.0010652330238372087
1772571750916342300,1.46334228515625,0.0031956990715116262,0.0010652330238372087,0.0021304660476744175
1772571750926275300,1.473275390625,0.004260932095348835,0.0010652330238372087,0.0031956990715116262
1772571750936207600,1.48320751953125,0.0021304660476744175,0,0.0021304660476744175
1772571750946157800,1.49315771484375,0.0021304660476744175,0,0.0021304660476744175
1772571750956092000,1.503091796875,0.0031956990715116262,0,0.0010652330238372087
1772571750966018600,1.5130185546875,0.0021304660476744175,0.0021304660476744175,0
1772571750975952000,1.522951904296875,0.0021304660476744175,0.0010652330238372087,0
1772571750985875200,1.532875244140625,0.0031956990715116262,0,0.0021304660476744175
1772571750995807700,1.542807861328125,0.0021304660476744175,0.0010652330238372087,0.0010652330238372087
1772571751005747700,1.552747802734375,0.0021304660476744175,0.0010652330238372087,0.0010652330238372087
1772571751015680800,1.5626806640625,0.0021304660476744175,0.0010652330238372087,0.0021304660476744175
1772571751025607000,1.57260693359375,0.0021304660476744175,0.0010652330238372087,0.0021304660476744175
1772571751035539200,1.582539306640625,0.0031956990715116262,0,0.0021304660476744175
1772571751045477400,1.592477294921875,0.0031956990715116262,0,0.0021304660476744175
1772571751055410200,1.60241015625,0.0021304660476744175,0.0010652330238372087,0.0021304660476744175
1772571751065316000,1.612316162109375,0.0021304660476744175,0.0010652330238372087,0.0021304660476744175
1772571751075246300,1.622246337890625,0.0021304660476744175,0.0010652330238372087,0.0021304660476744175
1772571751085211400,1.63221142578125,0.0010652330238372087,0.0010652330238372087,0.0021304660476744175
1772571751095145200,1.642145263671875,0.0021304660476744175,0.0010652330238372087,0.0010652330238372087
1772571751105071600,1.652071533203125,0.0021304660476744175,0.0021304660476744175,0.0021304660476744175
1772571751115004400,1.66200439453125,0.0021304660476744175,0.0010652330238372087,0.0031956990715116262
1772571751124937200,1.671937255859375,0.0021304660476744175,0.0010652330238372087,0.0010652330238372087
1772571751134870000,1.6818701171875,0.0031956990715116262,0,0.004260932095348835
1772571751144808000,1.691807861328125,0.0031956990715116262,0,0.0021304660476744175
1772571751154741200,1.7017412109375,0.0031956990715116262,-0.0010652330238372087,0.0010652330238372087
1772571751164680400,1.711680419921875,0.0021304660476744175,0,0.0010652330238372087
1772571751174614300,1.7216142578125,0.0021304660476744175,0.0010652330238372087,0.0031956990715116262
1772571751184540000,1.731539794921875,0.0021304660476744175,0.0010652330238372087,0.0031956990715116262
1772571751194473000,1.741472900390625,0.0021304660476744175,0.0021304660476744175,0.0021304660476744175
1772571751204410400,1.751410400390625,0.0010652330238372087,0,0.0021304660476744175
1772571751214344000,1.761343994140625,0.0010652330238372087,0.0010652330238372087,0.0021304660476744175
1772571751224265200,1.77126513671875,0.0031956990715116262,0,0.0021304660476744175
1772571751234197500,1.781197509765625,0.0031956990715116262,0.0021304660476744175,0.0021304660476744175
1772571751244136400,1.791136474609375,0.0031956990715116262,0.0021304660476744175,0.0021304660476744175
1772571751254069500,1.801069580078125,0.0021304660476744175,0.0010652330238372087,0.0031956990715116262
1772571751263999700,1.810999755859375,0.0021304660476744175,0.0021304660476744175,0.0031956990715116262
1772571751273932500,1.8209326171875,0.0021304660476744175,0.0010652330238372087,0.0031956990715116262
1772571751283868200,1.8308681640625,0.0010652330238372087,0.0021304660476744175,0.0021304660476744175
1772571751293801200,1.84080126953125,0.0021304660476744175,0,0.0021304660476744175
1772571751303726600,1.8507265625,0.0021304660476744175,0.0021304660476744175,0.0021304660476744175
1772571751313659000,1.860658935546875,0.0031956990715116262,0.0010652330238372087,0.0031956990715116262
1772571751323582000,1.87058203125,0.0021304660476744175,0.0010652330238372087,0.0021304660476744175
1772571751333513200,1.88051318359375,0.0010652330238372087,0.0021304660476744175,0.0031956990715116262
1772571751343461400,1.89046142578125,0.0031956990715116262,0.0010652330238372087,0.004260932095348835
1772571751353394200,1.900394287109375,0.0031956990715116262,0.0010652330238372087,0.0031956990715116262
1772571751363301000,1.910301025390625,0.004260932095348835,0.0010652330238372087,0.0010652330238372087
1772571751373231600,1.920231689453125,0.004260932095348835,0,0.0010652330238372087
1772571751383189500,1.930189453125,0.0021304660476744175,0,0.0031956990715116262
1772571751393122600,1.94012255859375,0.0021304660476744175,0.0010652330238372087,0.0021304660476744175
1772571751403056600,1.950056640625,0.0021304660476744175,0,0.0031956990715116262
1772571751412990000,1.959989990234375,0.0031956990715116262,0.0010652330238372087,0.0031956990715116262
1772571751422922500,1.969922607421875,0.0021304660476744175,0.0010652330238372087,0.0031956990715116262
1772571751432855600,1.97985546875,0.0021304660476744175,0.0010652330238372087,0.0021304660476744175
1772571751442794000,1.9897939453125,0.0031956990715116262,0.0010652330238372087,0.0021304660476744175
1772571751452727600,1.9997275390625,0.0021304660476744175,0.0010652330238372087,0.0010652330238372087
1772571751462654500,2.009654541015625,0.0021304660476744175,0.0010652330238372087,0.0010652330238372087
1772571751472587500,2.01958740234375,0.0031956990715116262,0.0010652330238372087,0.004260932095348835
1772571751482496500,2.02949658203125,0.0021304660476744175,0.0021304660476744175,0.0021304660476744175
1772571751492427300,2.03942724609375,0.0021304660476744175,0.0010652330238372087,0.0031956990715116262
1772571751502393900,2.049393798828125,0.0021304660476744175,0,0.0021304660476744175
1772571751512328200,2.059328125,0.0031956990715116262,0,0.0010652330238372087
1772571751522228000,2.06922802734375,0.0031956990715116262,0.0010652330238372087,0.0021304660476744175
1772571751532158700,2.07915869140625,0.0031956990715116262,0.0010652330238372087,0.0021304660476744175
1772571751542103800,2.089103759765625,0.0021304660476744175,0,0.0021304660476744175
1772571751552035800,2.099035888671875,0.0021304660476744175,0.0021304660476744175,0.0010652330238372087
1772571751561962000,2.1089619140625,0.0021304660476744175,0.0021304660476744175,0.0021304660476744175
1772571751571893500,2.1188935546875,0.0021304660476744175,0.0021304660476744175,0.0031956990715116262
1772571751581824000,2.128823974609375,0.0031956990715116262,0.0010652330238372087,0.0021304660476744175
1772571751591755500,2.138755615234375,0.0021304660476744175,0,0.0021304660476744175
1772571751601698800,2.14869873046875,0.0010652330238372087,0.0010652330238372087,0.0021304660476744175
1772571751611631600,2.158631591796875,0.0031956990715116262,0.0010652330238372087,0.0010652330238372087
1772571751621562000,2.16856201171875,0.0021304660476744175,0,0.0010652330238372087
1772571751631494700,2.17849462890625,0.0021304660476744175,0,0.0021304660476744175
1772571751641421000,2.188421142578125,0.0010652330238372087,0.0031956990715116262,0.0031956990715116262
1772571751651352800,2.198352783203125,0.0010652330238372087,0.0021304660476744175,0.0021304660476744175
1772571751661316600,2.208316650390625,0.0031956990715116262,0.0010652330238372087,0.0021304660476744175
1772571751671251700,2.218251708984375,0.0031956990715116262,0.0021304660476744175,0.0021304660476744175
1772571751681179100,2.22817919921875,0.0021304660476744175,0.0021304660476744175,0.0031956990715116262
1772571751691113500,2.238113525390625,0.0021304660476744175,0.0021304660476744175,0.0031956990715116262
1772571751701043500,2.24804345703125,0.0031956990715116262,0.0021304660476744175,0.0021304660476744175
1772571751710977300,2.257977294921875,0.0031956990715116262,0.0010652330238372087,0.0021304660476744175
1772571751720909600,2.26790966796875,0.0021304660476744175,0.0021304660476744175,0.0031956990715116262
1772571751730843100,2.277843017578125,0.0021304660476744175,0.0010652330238372087,0.0021304660476744175
1772571751740749800,2.287749755859375,0.0021304660476744175,0.0010652330238372087,0.0010652330238372087
1772571751750680800,2.297680908203125,0.0031956990715116262,0,0.0021304660476744175
1772571751760652300,2.30765234375,0.0021304660476744175,0.0010652330238372087,0.0010652330238372087
1772571751770587100,2.317587158203125,0.0031956990715116262,0.0021304660476744175,0.0021304660476744175
1772571751780504600,2.327504638671875,0.0031956990715116262,0.0010652330238372087,0.0010652330238372087
1772571751790438000,2.33743798828125,0.0021304660476744175,0.0010652330238372087,0.0031956990715116262
1772571751800373500,2.34737353515625,0.004260932095348835,0.0010652330238372087,0.0031956990715116262
1772571751810306800,2.357306884765625,0.0031956990715116262,0,0.0031956990715116262
1772571751820239400,2.3672392578125,0.0021304660476744175,0.0010652330238372087,0.0031956990715116262
1772571751830172700,2.377172607421875,0.0021304660476744175,0.0021304660476744175,0.0021304660476744175
1772571751840102400,2.387102294921875,0.0021304660476744175,0.0010652330238372087,0.0010652330238372087
1772571751850035500,2.397035400390625,0.0031956990715116262,0.0021304660476744175,0.0031956990715116262
1772571751859971000,2.40697119140625,0.0021304660476744175,0.0031956990715116262,0.0021304660476744175
1772571751869904400,2.416904296875,0.0010652330238372087,0.0021304660476744175,0.0021304660476744175
1772571751879839000,2.4268388671875,0.0021304660476744175,0.0021304660476744175,0.004260932095348835
1772571751889772500,2.4367724609375,0.0031956990715116262,0.0010652330238372087,0.0021304660476744175
1772571751899676000,2.446676025390625,0.0031956990715116262,0,0.0021304660476744175
1772571751909606400,2.4566064453125,0.0021304660476744175,0.0010652330238372087,0.0031956990715116262
1772571751919579100,2.4665791015625,0.0010652330238372087,0.0021304660476744175,0.0031956990715116262
1772571751929513700,2.476513671875,0.0021304660476744175,0.0010652330238372087,0.0021304660476744175
1772571751939412200,2.486412109375,0.0031956990715116262,0.0010652330238372087,0.0021304660476744175
1772571751949343200,2.49634326171875,0.0031956990715116262,0.0021304660476744175,0.0031956990715116262
1772571751959299300,2.50629931640625,0.0010652330238372087,0.0021304660476744175,0.004260932095348835
1772571751969233000,2.51623291015625,0.0031956990715116262,0.0010652330238372087,0.0010652330238372087
1772571751979166700,2.526166748046875,0.0021304660476744175,0.0021304660476744175,0.0010652330238372087
1772571751989100500,2.5361005859375,0,0.0021304660476744175,0.0031956990715116262
1772571751999039700,2.546039794921875,0.0010652330238372087,0.0031956990715116262,0.0021304660476744175
1772571752008973800,2.555973876953125,0.0021304660476744175,0.0010652330238372087,0.0031956990715116262
1772571752018897200,2.565897216796875,0.0031956990715116262,0,0.0031956990715116262
1772571752028830200,2.575830322265625,0.0010652330238372087,-0.0010652330238372087,0.0010652330238372087
1772571752038761500,2.585761474609375,0.0021304660476744175,0,0.0010652330238372087
1772571752048694300,2.5956943359375,0.0021304660476744175,0.0021304660476744175,0.0021304660476744175
1772571752058628600,2.605628662109375,0.0021304660476744175,0.0010652330238372087,0.0021304660476744175
1772571752068561400,2.6155615234375,0.0010652330238372087,0,0.0010652330238372087
1772571752078508300,2.62550830078125,0.0021304660476744175,0.0010652330238372087,0.0031956990715116262
1772571752088442600,2.635442626953125,0.0010652330238372087,0.0010652330238372087,0.004260932095348835
1772571752098368800,2.64536865234375,0.0010652330238372087,0.0010652330238372087,0.0031956990715116262
1772571752108302300,2.65530224609375,0.0021304660476744175,0.0031956990715116262,0.0021304660476744175
1772571752118203600,2.66520361328125,0.0031956990715116262,0.0021304660476744175,0.0031956990715116262
1772571752128134000,2.6751337890625,0.0021304660476744175,0.0021304660476744175,0.0021304660476744175
1772571752138090500,2.685090576171875,0.0021304660476744175,0.0010652330238372087,0.0021304660476744175
1772571752148023600,2.6950234375,0.004260932095348835,0.0010652330238372087,0.0031956990715116262
1772571752157958100,2.704958251953125,0.0021304660476744175,0.0021304660476744175,0.0031956990715116262
1772571752167891200,2.71489111328125,0.0021304660476744175,0.0021304660476744175,0.0021304660476744175
1772571752177823700,2.72482373046875,0.0021304660476744175,0.0010652330238372087,0.0021304660476744175
1772571752187756800,2.7347568359375,0.004260932095348835,0,0.0010652330238372087
1772571752197698600,2.744698486328125,0.0031956990715116262,0.0010652330238372087,0.0021304660476744175
1772571752207632600,2.754632568359375,0.0021304660476744175,0.0010652330238372087,0.004260932095348835
1772571752217554400,2.764554443359375,0.0031956990715116262,0.0010652330238372087,0.0031956990715116262
1772571752227487000,2.774487060546875,0.0031956990715116262,0,0.0031956990715116262
1772571752237437700,2.784437744140625,0.0021304660476744175,0.0010652330238372087,0.0010652330238372087
1772571752247372000,2.7943720703125,0.0031956990715116262,0.0021304660476744175,0.0031956990715116262
1772571752257287400,2.804287353515625,0.0031956990715116262,0,0.0031956990715116262
1772571752267220200,2.81422021484375,0.0031956990715116262,0,0.0010652330238372087
1772571752277153000,2.824153076171875,0.0021304660476744175,0.0010652330238372087,0.0021304660476744175
1772571752287085600,2.83408544921875,0.0031956990715116262,0.0021304660476744175,0.0010652330238372087
1772571752297026800,2.84402685546875,0.0031956990715116262,0.0021304660476744175,0.0021304660476744175
1772571752306960400,2.85396044921875,0.0031956990715116262,0.0021304660476744175,0.0031956990715116262
1772571752316892700,2.863892578125,0.004260932095348835,0.0010652330238372087,0.0021304660476744175
1772571752326826000,2.873825927734375,0.0031956990715116262,0,0.0010652330238372087
1772571752336754400,2.88375439453125,0.0021304660476744175,0.0010652330238372087,0.0031956990715116262
1772571752346687500,2.8936875,0.0021304660476744175,0.0021304660476744175,0.0031956990715116262
1772571752356615400,2.903615478515625,0.0021304660476744175,0.0021304660476744175,0.004260932095348835
1772571752366547700,2.913547607421875,0.0021304660476744175,0.0021304660476744175,0.0021304660476744175
1772571752376494000,2.923494140625,0.0021304660476744175,0.0010652330238372087,0.0031956990715116262
1772571752386428000,2.933427978515625,0.0031956990715116262,0.0021304660476744175,0.0021304660476744175
1772571752396349700,2.943349609375,0.0010652330238372087,0,0.0031956990715116262
1772571752406282500,2.953282470703125,0,0.0010652330238372087,0.0031956990715116262
1772571752416210200,2.963210205078125,0.0021304660476744175,0.0021304660476744175,0.0021304660476744175
1772571752426142200,2.97314208984375,0.0021304660476744175,0.0021304660476744175,0.0021304660476744175
1772571752436091400,2.98309130859375,0.0021304660476744175,0.0021304660476744175,0.0031956990715116262
1772571752446025200,2.993025146484375,0.0021304660476744175,0.0021304660476744175,0.004260932095348835
1772571752455939800,3.00293994140625,0.0021304660476744175,0.0010652330238372087,0.0031956990715116262
1772571752465872000,3.012871826171875,0.0021304660476744175,0.0010652330238372087,0.0031956990715116262
1772571752475812400,3.022812255859375,0.0021304660476744175,0.0010652330238372087,0.0031956990715116262
1772571752485745200,3.0327451171875,0.0021304660476744175,0.0021304660476744175,0.0031956990715116262
1772571752495685400,3.042685302734375,0.0021304660476744175,0.0021304660476744175,0.004260932095348835
1772571752505618700,3.05261865234375,0.0031956990715116262,0,0.0021304660476744175
1772571752515542500,3.06254248046875,0.0031956990715116262,0.0010652330238372087,0.0031956990715116262
1772571752525475000,3.07247509765625,0.0031956990715116262,0,0.0021304660476744175
1772571752535412000,3.082411865234375,0.0031956990715116262,0.0010652330238372087,0.0021304660476744175
1772571752545344800,3.0923447265625,0.0021304660476744175,0.0031956990715116262,0.0031956990715116262
1772571752555277600,3.102277587890625,0.0021304660476744175,0.0021304660476744175,0.0031956990715116262
1772571752565210400,3.11221044921875,0.0031956990715116262,0,0.0031956990715116262
1772571752575137800,3.1221376953125,0.0021304660476744175,0,0.0021304660476744175
1772571752585070300,3.1320703125,0.0021304660476744175,0.0010652330238372087,0.0031956990715116262
1772571752595014400,3.142014404296875,0.0021304660476744175,0.0010652330238372087,0.0021304660476744175
1772571752604948000,3.151947998046875,0.0021304660476744175,0.0021304660476744175,0.0021304660476744175
1772571752614870000,3.1618701171875,0.0031956990715116262,0.0021304660476744175,0.0021304660476744175
1772571752624802300,3.17180224609375,0.0031956990715116262,0.0021304660476744175,0.0021304660476744175
1772571752634743300,3.181743408203125,0.0021304660476744175,0.0021304660476744175,0.0010652330238372087
1772571752644676600,3.191676513671875,0.0010652330238372087,0.0021304660476744175,0.0021304660476744175
1772571752654597400,3.201597412109375,0.0031956990715116262,0.0021304660476744175,0.0010652330238372087
1772571752664529400,3.211529296875,0.0031956990715116262,0.0010652330238372087,0.0021304660476744175
1772571752674449700,3.22144970703125,0.0021304660476744175,0.0010652330238372087,0.004260932095348835
1772571752684380400,3.23138037109375,0.0010652330238372087,0.0010652330238372087,0.0021304660476744175
1772571752694307800,3.241307861328125,0.0010652330238372087,0.0010652330238372087,0.0021304660476744175
1772571752704238300,3.25123828125,0.0031956990715116262,0.0010652330238372087,0.0021304660476744175
1772571752714175000,3.261175048828125,0.0021304660476744175,0,0.0031956990715116262
1772571752724106000,3.27110595703125,0.0010652330238372087,0,0.0021304660476744175
1772571752734038800,3.281038818359375,0.0021304660476744175,0.0010652330238372087,0.0031956990715116262
1772571752743970000,3.290969970703125,0.0031956990715116262,0.0021304660476744175,0.0031956990715116262
1772571752753934600,3.3009345703125,0.0031956990715116262,0.0031956990715116262,0.0031956990715116262
1772571752763869200,3.310869140625,0.0021304660476744175,0.0021304660476744175,0.0031956990715116262
1772571752773771000,3.32077099609375,0.0010652330238372087,0.0021304660476744175,0.0021304660476744175
1772571752783702300,3.330702392578125,0.0010652330238372087,0.0010652330238372087,0.0021304660476744175
1772571752793638700,3.340638671875,0.0010652330238372087,0.0010652330238372087,0.0031956990715116262
1772571752803570400,3.3505703125,0.0031956990715116262,0.0010652330238372087,0.0021304660476744175
1772571752813509400,3.36050927734375,0.004260932095348835,0.0010652330238372087,0.0021304660476744175
1772571752823442000,3.37044189453125,0.0021304660476744175,0.0010652330238372087,0.0031956990715116262
1772571752833376300,3.380376220703125,0.0021304660476744175,0,0.0021304660476744175
1772571752843309000,3.39030908203125,0.0031956990715116262,0.0010652330238372087,0.0010652330238372087
1772571752853238500,3.400238525390625,0.0031956990715116262,0.0021304660476744175,0.0021304660476744175
1772571752863171000,3.410171142578125,0.0021304660476744175,0.0010652330238372087,0.0021304660476744175
1772571752873124900,3.420124755859375,0.0021304660476744175,0.0021304660476744175,0.0021304660476744175
1772571752883059500,3.4300595703125,0.0021304660476744175,0.0021304660476744175,0.0010652330238372087
1772571752892988700,3.43998876953125,0.0021304660476744175,0.0010652330238372087,0.0021304660476744175
1772571752902922800,3.4499228515625,0.0021304660476744175,0.0010652330238372087,0.0021304660476744175
1772571752912871200,3.45987109375,0.0021304660476744175,0.0010652330238372087,0.0031956990715116262
1772571752922806800,3.469806884765625,0.0021304660476744175,0.0010652330238372087,0.0021304660476744175
1772571752932724700,3.479724853515625,0.0010652330238372087,0.0010652330238372087,0.0010652330238372087
1772571752942658600,3.489658447265625,0.0021304660476744175,0.0010652330238372087,0.0010652330238372087
1772571752952594000,3.499593994140625,0.0021304660476744175,0,0.0021304660476744175
1772571752962527700,3.50952783203125,0.0021304660476744175,0.0021304660476744175,0.0031956990715116262
1772571752972455200,3.519455078125,0.0021304660476744175,0.0021304660476744175,0.0031956990715116262
1772571752982388500,3.529388427734375,0.0021304660476744175,0,0.0031956990715116262
1772571752992324400,3.539324462890625,0.0031956990715116262,0.0010652330238372087,0.0021304660476744175
1772571753002258000,3.5492578125,0.0031956990715116262,0.0010652330238372087,0.0031956990715116262
1772571753012189000,3.55918896484375,0.0021304660476744175,0.0010652330238372087,0.0021304660476744175
1772571753022122200,3.569122314453125,0.0021304660476744175,0.0010652330238372087,0.0031956990715116262
1772571753032063000,3.57906298828125,0.0021304660476744175,0,0.0021304660476744175
1772571753041997000,3.5889970703125,0.0021304660476744175,0,0.0010652330238372087
1772571753051951400,3.598951416015625,0,0.0010652330238372087,0.0021304660476744175
1772571753061887200,3.60888720703125,0.0021304660476744175,0.0021304660476744175,0.0021304660476744175
1772571753071794700,3.618794677734375,0.0021304660476744175,0.0010652330238372087,0.0021304660476744175
1772571753081727700,3.628727783203125,0.0021304660476744175,0,0.0021304660476744175
1772571753091649500,3.6386494140625,0.0021304660476744175,0.0010652330238372087,0.0021304660476744175
1772571753101581600,3.64858154296875,0.0021304660476744175,0.0021304660476744175,0.0021304660476744175
1772571753111510800,3.6585107421875,0.0021304660476744175,0.0021304660476744175,0.0031956990715116262
1772571753121442600,3.668442626953125,0.0021304660476744175,0.0031956990715116262,0.0031956990715116262
1772571753131377400,3.67837744140625,0.0021304660476744175,0.0010652330238372087,0.0021304660476744175
1772571753141309400,3.688309326171875,0.0031956990715116262,0.0010652330238372087,0.0031956990715116262
1772571753151258000,3.698258056640625,0.0021304660476744175,0.0021304660476744175,0.0031956990715116262
1772571753161192000,3.70819189453125,0.0021304660476744175,0.0010652330238372087,0.0021304660476744175
1772571753171125500,3.71812548828125,0.0021304660476744175,0.0010652330238372087,0.0031956990715116262
1772571753181059300,3.728059326171875,0.0021304660476744175,0,0.0021304660476744175
1772571753190979300,3.737979248046875,0.0031956990715116262,0.0021304660476744175,0.0021304660476744175
1772571753200912000,3.747911865234375,0.0031956990715116262,0.0010652330238372087,0.0021304660476744175
1772571753210846500,3.757846435546875,0.0021304660476744175,0.0010652330238372087,0.0010652330238372087
1772571753220779000,3.767779052734375,0.0031956990715116262,0.0021304660476744175,0.0021304660476744175
1772571753230692000,3.777692138671875,0.004260932095348835,0,0.0021304660476744175
1772571753240622800,3.787622802734375,0.0031956990715116262,0.0010652330238372087,0.0021304660476744175
1772571753250552000,3.797552001953125,0.0031956990715116262,0,0.0031956990715116262
1772571753260482800,3.80748291015625,0.0021304660476744175,0.0010652330238372087,0.0021304660476744175
1772571753270424600,3.817424560546875,0.0031956990715116262,0,0.0021304660476744175
1772571753280356000,3.827356201171875,0.0031956990715116262,0.0021304660476744175,0.0031956990715116262
1772571753290308400,3.837308349609375,0.0031956990715116262,0.0021304660476744175,0.0031956990715116262
1772571753300242000,3.847241943359375,0.004260932095348835,0.0021304660476744175,0.0010652330238372087
1772571753310170600,3.857170654296875,0.0021304660476744175,0.0010652330238372087,0.0021304660476744175
1772571753320103700,3.867103759765625,0.0010652330238372087,0,0.0021304660476744175
1772571753330035500,3.877035400390625,0.0010652330238372087,0.0010652330238372087,0.0010652330238372087
1772571753339968800,3.88696875,0.0021304660476744175,0.0010652330238372087,0.0031956990715116262
1772571753349904400,3.896904296875,0.0021304660476744175,0.0010652330238372087,0.0021304660476744175
1772571753359837700,3.906837646484375,0.0021304660476744175,0,0.0010652330238372087
1772571753369816600,3.916816650390625,0.0010652330238372087,0.0010652330238372087,0.0021304660476744175
1772571753379754500,3.92675439453125,0.0021304660476744175,0.0031956990715116262,0.0031956990715116262
1772571753389633000,3.936633056640625,0.0031956990715116262,0.0010652330238372087,0.0021304660476744175
1772571753399565000,3.94656494140625,0.0021304660476744175,0,0.004260932095348835
1772571753409504500,3.95650439453125,0.0010652330238372087,0.0010652330238372087,0.004260932095348835
1772571753419437000,3.96643701171875,0.0021304660476744175,0.0010652330238372087,0.0021304660476744175
1772571753429373000,3.976373046875,0.0021304660476744175,0,0.0031956990715116262
1772571753439306000,3.986305908203125,0.0021304660476744175,0.0021304660476744175,0.0031956990715116262
1772571753449234400,3.996234375,0.0021304660476744175,0,0.0031956990715116262
1772571753459167000,4.0061669921875,0.0031956990715116262,0.0010652330238372087,0.0010652330238372087
1772571753469076000,4.016075927734375,0.0031956990715116262,0.0021304660476744175,0.0031956990715116262
1772571753479006200,4.026006103515625,0.0031956990715116262,0.0021304660476744175,0.0021304660476744175
1772571753488967000,4.035966796875,0.0021304660476744175,0,0.0021304660476744175
1772571753498900200,4.045900146484375,0.0031956990715116262,0.0010652330238372087,0.0031956990715116262
1772571753508830700,4.055830810546875,0.0021304660476744175,0.0010652330238372087,0.0031956990715116262
1772571753518763800,4.065763671875,0.0021304660476744175,0.0010652330238372087,0.004260932095348835
1772571753528703000,4.075702880859375,0.0021304660476744175,0.0010652330238372087,0.0031956990715116262
1772571753548560400,4.095560302734375,0.0021304660476744175,0,0.0021304660476744175
1772571753558493200,4.1054931640625,0.0021304660476744175,0,0.0021304660476744175
1772571753568430800,4.115430908203125,0.0031956990715116262,0.0010652330238372087,0.0021304660476744175
1772571753578364200,4.1253642578125,0.0031956990715116262,0.0010652330238372087,0.0031956990715116262
1772571753588296000,4.1352958984375,0.0021304660476744175,0.0010652330238372087,0.004260932095348835
1772571753598228700,4.145228759765625,0.0021304660476744175,0.0021304660476744175,0.004260932095348835
1772571753608159000,4.155158935546875,0.0021304660476744175,0.0021304660476744175,0.0021304660476744175
1772571753618091800,4.165091796875,0.0031956990715116262,0.0010652330238372087,0.0021304660476744175
1772571753628037000,4.175037109375,0.004260932095348835,0,0.0010652330238372087
1772571753637971200,4.18497119140625,0.0031956990715116262,0.0010652330238372087,0.0021304660476744175
1772571753647875300,4.194875244140625,0.0021304660476744175,0.0010652330238372087,0.0021304660476744175
1772571753657809200,4.20480908203125,0.0031956990715116262,0,0.0021304660476744175
1772571753667755300,4.21475537109375,0.0021304660476744175,0.0010652330238372087,0.0031956990715116262
1772571753677690000,4.224690185546875,0.0010652330238372087,0.0010652330238372087,0.0031956990715116262
1772571753687631600,4.234631591796875,0.0021304660476744175,0.0010652330238372087,0.004260932095348835
1772571753697567200,4.244567138671875,0.0021304660476744175,0,0.0031956990715116262
1772571753707489300,4.2544892578125,0.0021304660476744175,0,0.0021304660476744175
1772571753717423600,4.264423583984375,0.0021304660476744175,0.0031956990715116262,0.0031956990715116262
1772571753727352300,4.274352294921875,0.0021304660476744175,0.0021304660476744175,0.0031956990715116262
1772571753737286100,4.2842861328125,0.0031956990715116262,0.0010652330238372087,0.0010652330238372087
1772571753747221200,4.29422119140625,0.0031956990715116262,0.0010652330238372087,0.0021304660476744175
1772571753757155000,4.304155029296875,0.0021304660476744175,0.0021304660476744175,0.0031956990715116262
1772571753767098000,4.31409814453125,0.0021304660476744175,0.0021304660476744175,0.0031956990715116262
1772571753777033000,4.324032958984375,0.0031956990715116262,0.0021304660476744175,0.0031956990715116262
1772571753786954000,4.3339541015625,0.0031956990715116262,0.0021304660476744175,0.0021304660476744175
1772571753796887600,4.343887451171875,0.0031956990715116262,0.0010652330238372087,0.0021304660476744175
1772571753806824000,4.353823974609375,0.0021304660476744175,0.0010652330238372087,0.0031956990715116262
1772571753816757800,4.3637578125,0.0031956990715116262,0.0021304660476744175,0
1772571753826690800,4.37369091796875,0.0031956990715116262,0.0021304660476744175,0.0021304660476744175
1772571753836624400,4.383624267578125,0.0031956990715116262,0.0010652330238372087,0.0031956990715116262
1772571753846553300,4.39355322265625,0.0031956990715116262,0.0010652330238372087,0.0021304660476744175
1772571753856486400,4.403486328125,0.0021304660476744175,0.0021304660476744175,0.0021304660476744175
1772571753866419500,4.41341943359375,0.0021304660476744175,0,0.0031956990715116262
1772571753876352800,4.423352783203125,0.0021304660476744175,0.0010652330238372087,0.0031956990715116262
1772571753886262500,4.433262451171875,0.0021304660476744175,0.0021304660476744175,0.0031956990715116262
1772571753896193500,4.443193603515625,0.0010652330238372087,0.0021304660476744175,0.0021304660476744175
1772571753906159900,4.453159912109375,0.0031956990715116262,0.0010652330238372087,0.0010652330238372087
1772571753916094200,4.46309423828125,0.0021304660476744175,0,0.0031956990715116262
1772571753925993700,4.47299365234375,0,0.0010652330238372087,0.0010652330238372087
1772571753935924700,4.4829248046875,0.0021304660476744175,0,0.0010652330238372087
1772571753945889300,4.49288916015625,0.0031956990715116262,0.0021304660476744175,0.0031956990715116262
1772571753955823600,4.50282373046875,0.0021304660476744175,0.0010652330238372087,0.0031956990715116262
1772571753965734100,4.512734130859375,0.0021304660476744175,0,0.0021304660476744175
1772571753975666200,4.522666259765625,0.0010652330238372087,0.0021304660476744175,0.0010652330238372087
1772571753985586200,4.532586181640625,0.0010652330238372087,0,0.0010652330238372087
1772571753995517000,4.542516845703125,0.0031956990715116262,0,0.0021304660476744175
1772571754005464800,4.55246484375,0.0031956990715116262,0,0.0021304660476744175
1772571754015397000,4.562397216796875,0.0021304660476744175,0.0021304660476744175,0.0031956990715116262
1772571754025321200,4.5723212890625,0.0021304660476744175,0.0010652330238372087,0.0010652330238372087
1772571754035252700,4.582252685546875,0.0021304660476744175,0,0.0010652330238372087
1772571754045189600,4.592189697265625,0.0021304660476744175,-0.0010652330238372087,0.0010652330238372087
1772571754055121700,4.60212158203125,0.0031956990715116262,0,0.0010652330238372087
1772571754065077800,4.612077880859375,0.0021304660476744175,0.0010652330238372087,0.0021304660476744175
1772571754075012400,4.622012451171875,0.0021304660476744175,0.0010652330238372087,0.0031956990715116262
1772571754084947000,4.631947021484375,0.0021304660476744175,0.0021304660476744175,0.0031956990715116262
1772571754094881300,4.64188134765625,0.0010652330238372087,0.0021304660476744175,0.0031956990715116262
1772571754104803000,4.651802978515625,0.0031956990715116262,0.0021304660476744175,0.0021304660476744175
1772571754114736400,4.661736328125,0.0021304660476744175,0.0021304660476744175,0.0021304660476744175
1772571754124651000,4.671651123046875,0.0010652330238372087,0.0021304660476744175,0.0031956990715116262
1772571754134582300,4.681582275390625,0.004260932095348835,0,0.0031956990715116262
1772571754144539000,4.691538818359375,0.0031956990715116262,0.0010652330238372087,0.0021304660476744175
1772571754154472700,4.70147265625,0.0031956990715116262,0.0010652330238372087,0.0031956990715116262
1772571754164384300,4.71138427734375,0.0021304660476744175,0.0010652330238372087,0.004260932095348835
1772571754174316000,4.72131591796875,0.0031956990715116262,0.0010652330238372087,0.0031956990715116262
1772571754184272400,4.7312724609375,0.0021304660476744175,0.0010652330238372087,0.0031956990715116262
1772571754194206500,4.74120654296875,0.0010652330238372087,0.0010652330238372087,0.0010652330238372087
1772571754204146700,4.751146728515625,0.0021304660476744175,0.0010652330238372087,0.0021304660476744175
1772571754214081300,4.761081298828125,0.0031956990715116262,0.0010652330238372087,0.0021304660476744175
1772571754224002000,4.771001953125,0.0021304660476744175,0.0021304660476744175,0.0021304660476744175
1772571754233935400,4.780935302734375,0.0021304660476744175,0.0010652330238372087,0.0021304660476744175
1772571754243871500,4.79087158203125,0.0021304660476744175,0.0010652330238372087,0.0021304660476744175
1772571754253805000,4.80080517578125,0.0010652330238372087,0.0021304660476744175,0.0053261648863554
1772571754263742000,4.810741943359375,0.0021304660476744175,0.0031956990715116262,0.0031956990715116262
1772571754273676000,4.820676025390625,0.0031956990715116262,0,0.0021304660476744175
1772571754283605000,4.83060498046875,0.004260932095348835,0,0.0021304660476744175
1772571754293538600,4.84053857421875,0.0031956990715116262,0,0.0031956990715116262
1772571754303455700,4.850455810546875,0.0010652330238372087,0.0010652330238372087,0.0021304660476744175
1772571754313387500,4.860387451171875,0.0010652330238372087,0.0010652330238372087,0
1772571754323330000,4.870330078125,0.0021304660476744175,0.0010652330238372087,0.0010652330238372087
1772571754333262800,4.880262939453125,0.0021304660476744175,0.0010652330238372087,0.0031956990715116262
1772571754343197700,4.89019775390625,0.0021304660476744175,0.0021304660476744175,0.0021304660476744175
1772571754353130800,4.900130859375,0.0031956990715116262,0.0010652330238372087,0.0021304660476744175
1772571754363037700,4.91003759765625,0.0031956990715116262,0.0010652330238372087,0.0031956990715116262
1772571754372968000,4.919968017578125,0.0021304660476744175,0.0010652330238372087,0.0031956990715116262
1772571754382930400,4.929930419921875,0.0021304660476744175,0.0010652330238372087,0.0021304660476744175
1772571754392864000,4.939864013671875,0.0010652330238372087,0.0010652330238372087,0.0031956990715116262
1772571754402821600,4.949821533203125,0.0021304660476744175,0,0.004260932095348835
1772571754412757500,4.959757568359375,0.0031956990715116262,0,0.0021304660476744175
1772571754422660000,4.96966015625,0.0021304660476744175,0.0010652330238372087,0.0021304660476744175
1772571754432592600,4.979592529296875,0.0021304660476744175,0.0010652330238372087,0.004260932095348835
1772571754442525700,4.989525634765625,0.0021304660476744175,0.0010652330238372087,0.004260932095348835
1772571754452458500,4.99945849609375,0.0010652330238372087,0.0021304660476744175,0.0031956990715116262
1772571754462392000,5.00939208984375,0.0021304660476744175,0.0021304660476744175,0.0031956990715116262
1772571754472324900,5.019324951171875,0.0010652330238372087,0.0010652330238372087,0.0021304660476744175
1772571754482255000,5.029255126953125,0.0010652330238372087,0.0010652330238372087,0.0031956990715116262
1772571754492187600,5.039187744140625,0.0021304660476744175,0.0010652330238372087,0.004260932095348835
1772571754502122500,5.04912255859375,0.0021304660476744175,0,0.0031956990715116262
1772571754512055300,5.05905517578125,0.004260932095348835,0.0010652330238372087,0.0031956990715116262
1772571754521989600,5.06898974609375,0.0021304660476744175,0.0021304660476744175,0.0021304660476744175
1772571754531922700,5.078922607421875,0.0021304660476744175,0.0021304660476744175,0.0031956990715116262
1772571754541833700,5.088833740234375,0.004260932095348835,0.0031956990715116262,0.0031956990715116262
1772571754551764500,5.098764404296875,0.0021304660476744175,0.0021304660476744175,0.0021304660476744175
1772571754561697800,5.10869775390625,0.0021304660476744175,0.0031956990715116262,0.0021304660476744175
1772571754571628800,5.11862890625,0.0031956990715116262,0.0031956990715116262,0.0031956990715116262
1772571754581589200,5.12858935546875,0.0010652330238372087,0.0010652330238372087,0.004260932095348835
1772571754591523300,5.1385234375,0.0021304660476744175,0.0010652330238372087,0.0021304660476744175
1772571754601466000,5.148466064453125,0.0010652330238372087,0.0010652330238372087,0.0031956990715116262
1772571754611401000,5.15840087890625,0.0010652330238372087,0.0010652330238372087,0.0031956990715116262
1772571754621294000,5.168294189453125,0.0031956990715116262,0.0021304660476744175,0.0031956990715116262
1772571754631224600,5.178224609375,0.0021304660476744175,0.0021304660476744175,0.0031956990715116262
1772571754641182700,5.1881826171875,0.0021304660476744175,0.0031956990715116262,0.0031956990715116262
1772571754651116000,5.198115966796875,0.0021304660476744175,0,0.0021304660476744175
1772571754661052200,5.20805224609375,0.0010652330238372087,0,0.0010652330238372087
1772571754670986000,5.217986083984375,0.0010652330238372087,0.0021304660476744175,0.0021304660476744175
1772571754680924000,5.227923828125,0.0010652330238372087,0.0021304660476744175,0.0021304660476744175
1772571754690858000,5.23785791015625,0.0021304660476744175,0.0010652330238372087,0.0021304660476744175
1772571754700785700,5.24778564453125,0.0031956990715116262,0.0010652330238372087,0.0021304660476744175
1772571754710719000,5.257718994140625,0.0021304660476744175,0.0021304660476744175,0.0021304660476744175
1772571754720654600,5.267654541015625,0.0021304660476744175,0.0021304660476744175,0.0053261648863554
1772571754730588200,5.277588134765625,0.004260932095348835,0.0021304660476744175,0.0021304660476744175
1772571754740516400,5.287516357421875,0.0031956990715116262,0.0021304660476744175,0.0021304660476744175
1772571754750449400,5.297449462890625,0.0021304660476744175,0.0010652330238372087,0.0031956990715116262
1772571754760378400,5.30737841796875,0.0031956990715116262,0,0.0021304660476744175
1772571754770311200,5.317311279296875,0.0031956990715116262,0,0.0031956990715116262
1772571754780243500,5.327243408203125,0.0010652330238372087,0.0021304660476744175,0.004260932095348835
1772571754790176000,5.337176025390625,0.0021304660476744175,0.0010652330238372087,0.004260932095348835
1772571754800111000,5.347111083984375,0.0021304660476744175,0,0.0021304660476744175
1772571754810044200,5.357044189453125,0.0021304660476744175,0.0010652330238372087,0.0031956990715116262
1772571754819982800,5.36698291015625,0.0021304660476744175,0.0021304660476744175,0.004260932095348835
1772571754829916400,5.37691650390625,0.0021304660476744175,0.0010652330238372087,0.0031956990715116262
1772571754839844400,5.38684423828125,0.0031956990715116262,0,0.0010652330238372087
1772571754849777400,5.39677734375,0.0021304660476744175,0.0010652330238372087,0.0031956990715116262
1772571754859708400,5.40670849609375,0.0021304660476744175,0.0021304660476744175,0.0031956990715116262
1772571754869641200,5.41664111328125,0.0021304660476744175,0.0010652330238372087,0.0031956990715116262
1772571754879580700,5.42658056640625,0.0010652330238372087,0.0010652330238372087,0.004260932095348835
1772571754889514000,5.436513916015625,0.0021304660476744175,0.0010652330238372087,0.0021304660476744175
1772571754899419100,5.446419189453125,0.0031956990715116262,0.0021304660476744175,0.0021304660476744175
1772571754909349600,5.456349609375,0.0010652330238372087,0.0010652330238372087,0.0021304660476744175
1772571754919280600,5.46628076171875,0.0010652330238372087,0,0.0031956990715116262
1772571754929211400,5.47621142578125,0.0021304660476744175,0.0021304660476744175,0.0021304660476744175
1772571754939148500,5.4861484375,0.0031956990715116262,0.0010652330238372087,0.0010652330238372087
1772571754949079800,5.496079833984375,0.0021304660476744175,0.0010652330238372087,0.0010652330238372087
1772571754959043000,5.50604296875,0.0010652330238372087,0.0010652330238372087,0.0031956990715116262
1772571754968977700,5.515977783203125,0.0021304660476744175,0.0021304660476744175,0.0021304660476744175
1772571754978907400,5.525907470703125,0.0021304660476744175,0.0010652330238372087,0.0021304660476744175
1772571754988841200,5.53584130859375,0.0021304660476744175,0.0010652330238372087,0.0021304660476744175
1772571754998775000,5.545775146484375,0.0031956990715116262,0.0021304660476744175,0.0031956990715116262
1772571755008709000,5.555709228515625,0.0021304660476744175,0.0021304660476744175,0.004260932095348835
1772571755018643500,5.5656435546875,0.0010652330238372087,0,0.0031956990715116262
1772571755028577500,5.57557763671875,0.0031956990715116262,0,0.0031956990715116262
1772571755038504400,5.58550439453125,0.0031956990715116262,0,0.0031956990715116262
1772571755048437800,5.595437744140625,0.0021304660476744175,0.0010652330238372087,0.0031956990715116262
1772571755058343700,5.60534375,0.0021304660476744175,0.0021304660476744175,0.0021304660476744175
1772571755068274200,5.615274169921875,0.0010652330238372087,0.0021304660476744175,0.0021304660476744175
1772571755078209800,5.625209716796875,0.0021304660476744175,0.0031956990715116262,0.0021304660476744175
1772571755088141000,5.63514111328125,0.0031956990715116262,0.0010652330238372087,0.0021304660476744175
1772571755098078700,5.64507861328125,0.0021304660476744175,0.0010652330238372087,0.0031956990715116262
1772571755108010500,5.655010498046875,0.0010652330238372087,0.0010652330238372087,0.0031956990715116262
1772571755117946400,5.6649462890625,0.0021304660476744175,0,0.0031956990715116262
1772571755127878400,5.67487841796875,0.0031956990715116262,0.0010652330238372087,0.0031956990715116262
1772571755137817900,5.68481787109375,0.0031956990715116262,0.0010652330238372087,0.0010652330238372087
1772571755147750700,5.694750732421875,0.0021304660476744175,0,0.0021304660476744175
1772571755157675000,5.704675048828125,0.0031956990715116262,0.0010652330238372087,0.0021304660476744175
1772571755167607000,5.71460693359375,0.0021304660476744175,0.0010652330238372087,0.0021304660476744175
1772571755177544000,5.7245439453125,0.0031956990715116262,0.0021304660476744175,0.0031956990715116262
1772571755187476500,5.7344765625,0.0021304660476744175,0,0.0021304660476744175
1772571755197408800,5.74440869140625,0.0021304660476744175,0,0.0031956990715116262
1772571755207341300,5.75434130859375,0.0021304660476744175,0.0021304660476744175,0.0031956990715116262
1772571755217274000,5.764274169921875,0.0021304660476744175,0.0010652330238372087,0.0021304660476744175
1772571755227206700,5.77420654296875,0.0031956990715116262,0.0010652330238372087,0.0031956990715116262
1772571755237200400,5.784200439453125,0.0031956990715116262,0.0031956990715116262,0.0031956990715116262
1772571755247138800,5.794138916015625,0.0021304660476744175,0.0010652330238372087,0.0010652330238372087
1772571755257029400,5.804029296875,0.0021304660476744175,0.0021304660476744175,0.0031956990715116262
1772571755266963200,5.813963134765625,0.0031956990715116262,0.0021304660476744175,0.0031956990715116262
1772571755276891400,5.823891357421875,0.0031956990715116262,0.0021304660476744175,0.004260932095348835
1772571755286824700,5.83382470703125,0.0010652330238372087,0.0010652330238372087,0.0031956990715116262
1772571755296733000,5.84373291015625,0.0021304660476744175,0,0.0021304660476744175
1772571755306663700,5.85366357421875,0.0031956990715116262,0,0.0021304660476744175
1772571755316631600,5.863631591796875,0.0031956990715116262,0.0021304660476744175,0.0021304660476744175
1772571755326566100,5.873566162109375,0.0021304660476744175,0.0021304660476744175,0.0031956990715116262
1772571755336494300,5.883494384765625,0.0021304660476744175,0.0010652330238372087,0.0031956990715116262
1772571755346428200,5.89342822265625,0.0021304660476744175,0.0021304660476744175,0.004260932095348835
1772571755356354300,5.903354248046875,0.0021304660476744175,0.0021304660476744175,0.0031956990715116262
1772571755366287600,5.91328759765625,0.0010652330238372087,0.0010652330238372087,0.0031956990715116262
1772571755376225500,5.9232255859375,0.0021304660476744175,0,0.004260932095348835
1772571755386159000,5.9331591796875,0.0031956990715116262,0.0010652330238372087,0.0031956990715116262
1772571755396089600,5.943089599609375,0.0010652330238372087,0.0021304660476744175,0.0021304660476744175
1772571755406022700,5.953022705078125,0.0031956990715116262,0.0010652330238372087,0.0021304660476744175
1772571755415956000,5.9629560546875,0.0021304660476744175,0.0010652330238372087,0.0031956990715116262
1772571755425889300,5.97288916015625,0.0021304660476744175,0.0010652330238372087,0.0031956990715116262
1772571755435830300,5.982830322265625,0.0021304660476744175,0.0010652330238372087,0.0031956990715116262
1772571755445764400,5.992764404296875,0.0021304660476744175,0.0010652330238372087,0.0021304660476744175
1772571755455682600,6.0026826171875,0.0031956990715116262,0.0010652330238372087,0.0031956990715116262
1772571755465615000,6.012614990234375,0.0031956990715116262,0.0021304660476744175,0.0021304660476744175
1772571755475543600,6.02254345703125,0.0031956990715116262,0.0010652330238372087,0.0021304660476744175
1772571755485475600,6.0324755859375,0.0021304660476744175,0.0010652330238372087,0.0031956990715116262
1772571755495428400,6.042428466796875,0.0031956990715116262,0.0010652330238372087,0.0031956990715116262
1772571755505362400,6.052362548828125,0.0021304660476744175,0.0010652330238372087,0.0031956990715116262
1772571755515281200,6.06228125,0.0021304660476744175,0.0010652330238372087,0.0021304660476744175
1772571755525214000,6.0722138671875,0.0021304660476744175,0.0010652330238372087,0.0031956990715116262
1772571755535144700,6.082144775390625,0.0021304660476744175,0.0010652330238372087,0.0021304660476744175
1772571755545077000,6.092076904296875,0,0.0021304660476744175,0.0031956990715116262
1772571755555016200,6.10201611328125,0.0031956990715116262,0.0021304660476744175,0.0010652330238372087
1772571755564949500,6.111949462890625,0.0031956990715116262,0.0010652330238372087,0.0021304660476744175
1772571755574877000,6.121876953125,0.0010652330238372087,0.0031956990715116262,0.0031956990715116262
1772571755584809500,6.1318095703125,0,0.0021304660476744175,0.0021304660476744175
1772571755594751500,6.14175146484375,0.0021304660476744175,0.0010652330238372087,0.0021304660476744175
1772571755604685000,6.15168505859375,0.0021304660476744175,0.0010652330238372087,0.0010652330238372087
1772571755614620700,6.16162060546875,0.0021304660476744175,0,0.0021304660476744175
1772571755624554500,6.171554443359375,0.0010652330238372087,0.0010652330238372087,0.0031956990715116262
1772571755634476000,6.18147607421875,0.0021304660476744175,0.0010652330238372087,0.0031956990715116262
1772571755654339800,6.20133984375,0.0021304660476744175,0.0021304660476744175,0.0031956990715116262
1772571755664230000,6.21122998046875,0.0031956990715116262,0.0010652330238372087,0.0031956990715116262
1772571755684139500,6.231139404296875,0.0031956990715116262,0.0021304660476744175,0.004260932095348835
1772571755694076400,6.241076416015625,0.0021304660476744175,0.0021304660476744175,0.0021304660476744175
1772571755704022300,6.251022216796875,0.0031956990715116262,0,0.0021304660476744175
1772571755713960200,6.260960205078125,0.0021304660476744175,0,0.0021304660476744175
1772571755723871700,6.270871826171875,0.0021304660476744175,0.0010652330238372087,0.0010652330238372087
1772571755733807000,6.28080712890625,0.0021304660476744175,0.0021304660476744175,0.0031956990715116262
1772571755743737000,6.290737060546875,0.0031956990715116262,0.0031956990715116262,0.0031956990715116262
1772571755753671700,6.300671630859375,0.0031956990715116262,0.0010652330238372087,0.004260932095348835
1772571755763611400,6.310611328125,0.0021304660476744175,0.0010652330238372087,0.0021304660476744175
1772571755773546500,6.32054638671875,0.0031956990715116262,0.0010652330238372087,0.0021304660476744175
1772571755783487000,6.330487060546875,0.0031956990715116262,0.0010652330238372087,0.0031956990715116262
1772571755793422600,6.340422607421875,0.0021304660476744175,0,0.0010652330238372087
1772571755803343400,6.35034326171875,0.0010652330238372087,0.0010652330238372087,0.0021304660476744175
1772571755813277700,6.360277587890625,0.0021304660476744175,0.0021304660476744175,0.0021304660476744175
1772571755823210000,6.3702099609375,0.0021304660476744175,0.0031956990715116262,0.0031956990715116262
1772571755833144000,6.38014404296875,0.0031956990715116262,0.0010652330238372087,0.0021304660476744175
1772571755843066600,6.390066650390625,0.0010652330238372087,0,0.0010652330238372087
1772571755852999400,6.39999951171875,0.0021304660476744175,0,0.0010652330238372087
1772571755862934500,6.4099345703125,0.0031956990715116262,0.0010652330238372087,0.0031956990715116262
1772571755872867600,6.41986767578125,0.0021304660476744175,0.0021304660476744175,0.0031956990715116262
1772571755882796800,6.429796875,0.0031956990715116262,0.0021304660476744175,0.0010652330238372087
1772571755892729600,6.4397294921875,0.0021304660476744175,0,0.0021304660476744175
1772571755902663000,6.449662841796875,0.0021304660476744175,0.0021304660476744175,0.0010652330238372087
1772571755912595700,6.459595703125,0.0021304660476744175,0.0021304660476744175,0
1772571755922538500,6.46953857421875,0.0021304660476744175,0.0021304660476744175,0.0031956990715116262
1772571755932472000,6.47947216796875,0.0031956990715116262,0,0.0021304660476744175
1772571755942408000,6.489407958984375,0.0021304660476744175,0,0.0021304660476744175
1772571755952342000,6.499342041015625,0.0021304660476744175,0.0021304660476744175,0.004260932095348835
1772571755962238000,6.509238037109375,0.0031956990715116262,0.0021304660476744175,0.0031956990715116262
1772571755972168200,6.519168212890625,0.0021304660476744175,0.0010652330238372087,0.0031956990715116262
1772571755982127900,6.5291279296875,0.0021304660476744175,0.0010652330238372087,0.0021304660476744175
1772571755992061000,6.53906103515625,0.0010652330238372087,0.0021304660476744175,0.0021304660476744175
1772571756002002200,6.549002197265625,0.0031956990715116262,0.0021304660476744175,0.0021304660476744175
1772571756011936300,6.558936279296875,0.0031956990715116262,0.0021304660476744175,0.0031956990715116262
1772571756021859000,6.568859130859375,0.0031956990715116262,0.0010652330238372087,0.0031956990715116262
1772571756031791900,6.5787919921875,0.0021304660476744175,0,0.0021304660476744175
1772571756041723600,6.5887236328125,0.0021304660476744175,0.0021304660476744175,0.0021304660476744175
1772571756051656400,6.598656494140625,0.0010652330238372087,0.0021304660476744175,0.004260932095348835
1772571756061589500,6.608589599609375,0.0031956990715116262,0.0010652330238372087,0.0031956990715116262
1772571756071522300,6.618522216796875,0.0021304660476744175,0.0010652330238372087,0.0010652330238372087
1772571756081458700,6.628458740234375,0.0021304660476744175,0.0010652330238372087,0.0021304660476744175
1772571756091391700,6.638391845703125,0.0021304660476744175,0.0010652330238372087,0.0031956990715116262
1772571756101329000,6.648328857421875,0.0021304660476744175,0.0021304660476744175,0.0031956990715116262
1772571756111262500,6.658262451171875,0.0031956990715116262,0,0.0021304660476744175
1772571756121165000,6.6681650390625,0.0021304660476744175,0,0.0021304660476744175
1772571756131095300,6.67809521484375,0.0021304660476744175,0.0021304660476744175,0.0021304660476744175
1772571756141054000,6.688053955078125,0.0021304660476744175,0.0021304660476744175,0.0021304660476744175
1772571756150987000,6.697987060546875,0.0010652330238372087,0.0010652330238372087,0.004260932095348835
1772571756160920600,6.707920654296875,0.0021304660476744175,0,0.0031956990715116262
1772571756170854000,6.71785400390625,0.0031956990715116262,0.0010652330238372087,0.0010652330238372087
1772571756180785700,6.72778564453125,0.0031956990715116262,0,0.0021304660476744175
1772571756190718700,6.73771875,0.0031956990715116262,0.0010652330238372087,0.0021304660476744175
1772571756200650200,6.747650146484375,0.0031956990715116262,0,0.0021304660476744175
1772571756210583000,6.7575830078125,0.0021304660476744175,0.0010652330238372087,0.0021304660476744175
1772571756220519700,6.767519775390625,0.0031956990715116262,0.0010652330238372087,0.0021304660476744175
1772571756230453200,6.777453369140625,0.0031956990715116262,0.0010652330238372087,0.0031956990715116262
1772571756240404700,6.78740478515625,0.0031956990715116262,0,0.0031956990715116262
1772571756250339800,6.79733984375,0.004260932095348835,0,0.0010652330238372087
1772571756260263000,6.807262939453125,0.004260932095348835,0.0010652330238372087,0.0031956990715116262
1772571756270196700,6.81719677734375,0.0021304660476744175,0.0010652330238372087,0.0031956990715116262
1772571756280129000,6.82712890625,0.0021304660476744175,0.0010652330238372087,0.0010652330238372087
1772571756290062800,6.837062744140625,0.0021304660476744175,0.0010652330238372087,0.0031956990715116262
1772571756299962000,6.846962158203125,0.0021304660476744175,0.0021304660476744175,0.0021304660476744175
1772571756309892600,6.856892578125,0.0021304660476744175,0.0021304660476744175,0.0031956990715116262
1772571756319859000,6.86685888671875,0.0021304660476744175,0.0010652330238372087,0.0021304660476744175
1772571756329792800,6.876792724609375,0.0021304660476744175,0.0010652330238372087,0.0021304660476744175
1772571756339693300,6.886693359375,0.0031956990715116262,0.0021304660476744175,0.0021304660476744175
1772571756349623800,6.896623779296875,0.0031956990715116262,0,0.0021304660476744175
1772571756359554800,6.906554931640625,0.0031956990715116262,0,0.0021304660476744175
1772571756369485300,6.9164853515625,0.0031956990715116262,0.0010652330238372087,0.0010652330238372087
1772571756379422700,6.926422607421875,0.0021304660476744175,0.0010652330238372087,0.0031956990715116262
1772571756389354000,6.93635400390625,0.0021304660476744175,0.0010652330238372087,0.0031956990715116262
1772571756399286800,6.946286865234375,0.0010652330238372087,0.0010652330238372087,0.0031956990715116262
1772571756409218300,6.95621826171875,0.0010652330238372087,0.0021304660476744175,0.0010652330238372087
1772571756419159000,6.966158935546875,0.0010652330238372087,0.0021304660476744175,0.0010652330238372087
1772571756429091300,6.97609130859375,0.0021304660476744175,0.0010652330238372087,0.0031956990715116262
1772571756439019000,6.98601904296875,0.0031956990715116262,0.0010652330238372087,0.0031956990715116262
1772571756448950800,6.99595068359375,0.0021304660476744175,0.0021304660476744175,0.004260932095348835
1772571756458908200,7.005908203125,0.0021304660476744175,0.0010652330238372087,0.0021304660476744175
1772571756468842800,7.0158427734375,0.0021304660476744175,0,0.0021304660476744175
1772571756478773200,7.025773193359375,0.0021304660476744175,0.0010652330238372087,0.0031956990715116262
1772571756488707300,7.035707275390625,0.0010652330238372087,0,0.0031956990715116262
1772571756498615800,7.04561572265625,0.0010652330238372087,0.0031956990715116262,0.0021304660476744175
1772571756508547300,7.05554736328125,0.0010652330238372087,0.0021304660476744175,0.0021304660476744175
1772571756518504400,7.06550439453125,0.0031956990715116262,0.0010652330238372087,0.0010652330238372087
1772571756528438500,7.0754384765625,0.0031956990715116262,0,0.0031956990715116262
1772571756538398200,7.085398193359375,0.0021304660476744175,0.0010652330238372087,0.004260932095348835
1772571756548334800,7.0953349609375,0.0021304660476744175,0.0010652330238372087,0.0031956990715116262
1772571756558240300,7.105240234375,0.0021304660476744175,0.0010652330238372087,0.0010652330238372087
1772571756568173800,7.115173828125,0.0021304660476744175,0,0.0010652330238372087
1772571756578111700,7.12511181640625,0.0021304660476744175,0,0.0021304660476744175
1772571756588045800,7.1350458984375,0.0031956990715116262,0,0.0021304660476744175
1772571756597970400,7.144970458984375,0.0021304660476744175,0.0010652330238372087,0.0021304660476744175
1772571756607903200,7.1549033203125,0.0031956990715116262,0,0.0021304660476744175
1772571756617836000,7.1648359375,0.0021304660476744175,0.0010652330238372087,0.0021304660476744175
1772571756627769000,7.17476904296875,0.0010652330238372087,0.0021304660476744175,0.0021304660476744175
1772571756637711600,7.184711669921875,0,0.0021304660476744175,0.0021304660476744175
1772571756647645700,7.194645751953125,0.0021304660476744175,0.0021304660476744175,0.0031956990715116262
1772571756657564700,7.204564697265625,0.0031956990715116262,0.0010652330238372087,0.0010652330238372087
1772571756667497000,7.2144970703125,0.0010652330238372087,0.0021304660476744175,0.0010652330238372087
1772571756677433000,7.22443310546875,0.0010652330238372087,0.0031956990715116262,0.0010652330238372087
1772571756687366000,7.234365966796875,0.0021304660476744175,0.0010652330238372087,0.0021304660476744175
1772571756697310500,7.244310546875,0.0021304660476744175,0.0010652330238372087,0.0031956990715116262
1772571756707244500,7.25424462890625,0.0021304660476744175,0.0010652330238372087,0.0021304660476744175
1772571756717162000,7.264161865234375,0.0010652330238372087,0.0010652330238372087,0.0010652330238372087
1772571756727094500,7.274094482421875,0.0021304660476744175,0,0.0021304660476744175
1772571756737034200,7.2840341796875,0.0021304660476744175,0,0.0021304660476744175
1772571756746967300,7.29396728515625,0.0021304660476744175,0.0021304660476744175,0.0031956990715116262
1772571756756894200,7.303894287109375,0.0031956990715116262,0.0021304660476744175,0.0021304660476744175
1772571756766826500,7.313826416015625,0.0031956990715116262,0.0010652330238372087,0.0010652330238372087
1772571756776764200,7.32376416015625,0.0021304660476744175,0.0021304660476744175,0.0021304660476744175
1772571756786697000,7.333697021484375,0.0031956990715116262,0,0.0031956990715116262
1772571756796634000,7.343634033203125,0.0031956990715116262,0.0010652330238372087,0.0031956990715116262
1772571756806567400,7.3535673828125,0.0031956990715116262,0.0021304660476744175,0.004260932095348835
1772571756816492800,7.363492919921875,0.0031956990715116262,0,0.0021304660476744175
1772571756826425300,7.37342529296875,0.0031956990715116262,0,0.0010652330238372087
1772571756836340000,7.383340087890625,0.0021304660476744175,0.0021304660476744175,0.0021304660476744175
1772571756846270700,7.393270751953125,0.0021304660476744175,0.0031956990715116262,0.0031956990715116262
1772571756856226600,7.4032265625,0.0021304660476744175,0.0021304660476744175,0.004260932095348835
1772571756866159900,7.413159912109375,0.0010652330238372087,0.0010652330238372087,0.0031956990715116262
1772571756876092200,7.423092041015625,0.0021304660476744175,0.0021304660476744175,0.0021304660476744175
1772571756886025200,7.433025146484375,0.0010652330238372087,0.0021304660476744175,0.0021304660476744175
1772571756895966000,7.442966064453125,0.0021304660476744175,0.0031956990715116262,0.0021304660476744175
1772571756905900000,7.452900146484375,0.0031956990715116262,0.0021304660476744175,0.0021304660476744175
1772571756915824600,7.46282470703125,0.0021304660476744175,0.0010652330238372087,0.0021304660476744175
1772571756925757700,7.4727578125,0.0021304660476744175,0.0010652330238372087,0.0031956990715116262
1772571756935686000,7.482685791015625,0.0021304660476744175,0.0010652330238372087,0.0021304660476744175
1772571756945618400,7.492618408203125,0.0031956990715116262,0.0010652330238372087,0.0021304660476744175
1772571756955550700,7.50255078125,0.0021304660476744175,0.0021304660476744175,0.0031956990715116262
1772571756965483300,7.512483154296875,0.0021304660476744175,0.0031956990715116262,0.0031956990715116262
1772571756975417300,7.522417236328125,0.0031956990715116262,0.0010652330238372087,0.0031956990715116262
1772571756985350000,7.532349853515625,0.0031956990715116262,0,0.0031956990715116262
1772571756995291100,7.542291015625,0.0021304660476744175,0.0021304660476744175,0.0010652330238372087
1772571757005224700,7.552224609375,0.0021304660476744175,0.0021304660476744175,0.0021304660476744175
1772571757015163100,7.5621630859375,0.0021304660476744175,0.0010652330238372087,0.0031956990715116262
1772571757025097200,7.57209716796875,0.0010652330238372087,0.0021304660476744175,0.0031956990715116262
1772571757035017500,7.582017578125,0.0021304660476744175,0.0021304660476744175,0.0031956990715116262
1772571757044950300,7.5919501953125,0.0031956990715116262,0.0021304660476744175,0.0031956990715116262
1772571757054884000,7.601884033203125,0.0031956990715116262,0.0021304660476744175,0.0021304660476744175
1772571757064817000,7.61181689453125,0.0031956990715116262,0,0.0010652330238372087
1772571757074750200,7.621750244140625,0.0031956990715116262,0,0.004260932095348835
1772571757084683000,7.63168310546875,0.0010652330238372087,0.0021304660476744175,0.004260932095348835
1772571757094640600,7.641640625,0.0010652330238372087,0.0010652330238372087,0.0021304660476744175
1772571757104576000,7.651575927734375,0.0010652330238372087,0.0021304660476744175,0.0031956990715116262
1772571757114480000,7.661480224609375,0.0010652330238372087,0.0021304660476744175,0.0010652330238372087
1772571757124412200,7.671412109375,0.0021304660476744175,0,0.0031956990715116262
1772571757134348000,7.68134814453125,0.0021304660476744175,0,0.0021304660476744175
1772571757144280600,7.691280517578125,0.0010652330238372087,0.0021304660476744175,0.0021304660476744175
1772571757154214000,7.7012138671875,0.0010652330238372087,0.0010652330238372087,0.0021304660476744175
1772571757164146400,7.711146484375,0.0010652330238372087,0.0021304660476744175,0.0021304660476744175
1772571757174078500,7.721078369140625,0.0021304660476744175,0.0021304660476744175,0.0031956990715116262
1772571757184011300,7.73101123046875,0.0021304660476744175,0.0021304660476744175,0.0021304660476744175
1772571757193942800,7.74094287109375,0.0021304660476744175,0.0010652330238372087,0.004260932095348835
1772571757203875300,7.750875244140625,0.0010652330238372087,0,0.0053261648863554
1772571757213809200,7.76080908203125,0.0010652330238372087,0,0.0021304660476744175
1772571757223741700,7.77074169921875,0.0021304660476744175,0.0010652330238372087,0.0021304660476744175
1772571757233689300,7.780689453125,0.0021304660476744175,0.0010652330238372087,0.0031956990715116262
1772571757243623400,7.79062353515625,0.0031956990715116262,0.0010652330238372087,0.0021304660476744175
1772571757253524700,7.800524658203125,0.0031956990715116262,0.0010652330238372087,0.0021304660476744175
1772571757263455700,7.810455810546875,0.0021304660476744175,0,0.0031956990715116262
1772571757273419800,7.820419677734375,0.0021304660476744175,0,0.004260932095348835
1772571757283353900,7.830353759765625,0.0010652330238372087,0.0010652330238372087,0.0031956990715116262
1772571757293273600,7.840273681640625,0.0021304660476744175,0.0010652330238372087,0.0021304660476744175
1772571757303206400,7.850206298828125,0.0031956990715116262,0.0010652330238372087,0.0021304660476744175
1772571757313143600,7.8601435546875,0.0021304660476744175,0,0.0021304660476744175
1772571757323076600,7.87007666015625,0.0031956990715116262,0.0021304660476744175,0.0021304660476744175
1772571757333005300,7.88000537109375,0.0031956990715116262,0.0021304660476744175,0.0031956990715116262
1772571757342938000,7.889938232421875,0.0021304660476744175,0.0010652330238372087,0.0031956990715116262
1772571757352869000,7.899869140625,0.0031956990715116262,0,0.0021304660476744175
1772571757362801700,7.9098017578125,0.0021304660476744175,0.0010652330238372087,0.0031956990715116262
1772571757372740900,7.919740966796875,0.0021304660476744175,0.0021304660476744175,0.0031956990715116262
1772571757382674200,7.929674072265625,0.0021304660476744175,0.0021304660476744175,0.004260932095348835
1772571757392605000,7.93960498046875,0.0021304660476744175,0.0031956990715116262,0.0010652330238372087
1772571757402538000,7.9495380859375,0.0053261648863554,0.0010652330238372087,0.0010652330238372087
1772571757412463000,7.959463134765625,0.0031956990715116262,0.0010652330238372087,0.0021304660476744175
1772571757422395400,7.9693955078125,0.0010652330238372087,0.0021304660476744175,0.0021304660476744175
1772571757432344000,7.979343994140625,0.0031956990715116262,0.0021304660476744175,0.0010652330238372087
1772571757442278000,7.98927783203125,0.0021304660476744175,0,0.0021304660476744175
1772571757452181000,7.999180908203125,0.0021304660476744175,0.0010652330238372087,0.0010652330238372087
1772571757462111700,8.00911181640625,0.0031956990715116262,0.0010652330238372087,0.0021304660476744175
1772571757472049000,8.019048828125,0.0031956990715116262,0.0010652330238372087,0.0010652330238372087
1772571757481980400,8.02898046875,0.0021304660476744175,0.0010652330238372087,0.0010652330238372087
1772571757491947500,8.038947509765626,0.0031956990715116262,0.0010652330238372087,0.0010652330238372087
1772571757501882600,8.048882568359375,0.0031956990715116262,0.0021304660476744175,0.0031956990715116262
1772571757511811300,8.058811279296876,0.0031956990715116262,0.0021304660476744175,0.0021304660476744175
1772571757521745700,8.06874560546875,0.0031956990715116262,0.0010652330238372087,0.0021304660476744175
1772571757531643100,8.07864306640625,0.0021304660476744175,0,0.0021304660476744175
1772571757541573600,8.08857373046875,0.0021304660476744175,0.0010652330238372087,0.004260932095348835
1772571757551550000,8.098550048828125,0.0031956990715116262,0.0010652330238372087,0.0021304660476744175
1772571757561485300,8.1084853515625,0.0021304660476744175,0.0010652330238372087,0.0010652330238372087
1772571757571389700,8.1183896484375,0.0021304660476744175,0,0.004260932095348835
1772571757581321700,8.12832177734375,0.0021304660476744175,0,0.0021304660476744175
1772571757591277600,8.138277587890625,0.0021304660476744175,0.0010652330238372087,0.0021304660476744175
1772571757601212000,8.1482119140625,0.0021304660476744175,0,0.0010652330238372087
1772571757611142000,8.158141845703126,0.0031956990715116262,0,0.0010652330238372087
1772571757621076000,8.168075927734375,0.0021304660476744175,0,0.0031956990715116262
1772571757630997200,8.177997314453124,0.0021304660476744175,0,0.0031956990715116262
1772571757640929800,8.1879296875,0.0031956990715116262,0.0021304660476744175,0.0021304660476744175
1772571757650860300,8.1978603515625,0.0031956990715116262,0.0010652330238372087,0.0021304660476744175
1772571757660792800,8.207792724609375,0.0031956990715116262,0.0010652330238372087,0.0021304660476744175
1772571757670723300,8.217723388671875,0.0021304660476744175,0.0010652330238372087,0.0010652330238372087
1772571757680655600,8.227655517578125,0.0010652330238372087,0.0021304660476744175,0.0010652330238372087
1772571757690610700,8.237610595703124,0.0021304660476744175,0.0010652330238372087,0.0031956990715116262
1772571757700545300,8.247545166015625,0.0021304660476744175,0.0010652330238372087,0.0010652330238372087
1772571757710468900,8.25746875,0.0021304660476744175,0,0.0021304660476744175
1772571757720402200,8.267402099609376,0.0031956990715116262,0.0010652330238372087,0.0021304660476744175
1772571757730322400,8.277322509765625,0.0021304660476744175,0.0021304660476744175,0.0031956990715116262
1772571757740254500,8.28725439453125,0.0031956990715116262,0.0010652330238372087,0.0021304660476744175
1772571757750185700,8.297185791015625,0.0031956990715116262,0,0.0031956990715116262
1772571757760117800,8.30711767578125,0.0021304660476744175,0.0010652330238372087,0.0021304660476744175
1772571757770019600,8.31701953125,0.0021304660476744175,0.0021304660476744175,0.0021304660476744175
1772571757779948500,8.326948486328124,0.0021304660476744175,0.0021304660476744175,0.0010652330238372087
1772571757789924000,8.336924072265624,0.0021304660476744175,0.0021304660476744175,0.0021304660476744175
1772571757799857700,8.346857666015625,0.0021304660476744175,0.0010652330238372087,0.0010652330238372087
1772571757809784600,8.35678466796875,0.0021304660476744175,0.0021304660476744175,0.0031956990715116262
1772571757819717600,8.366717529296874,0.0010652330238372087,0.0021304660476744175,0.004260932095348835
1772571757829663200,8.376663330078125,0.0021304660476744175,0,0.0021304660476744175
1772571757839597600,8.38659765625,0.0021304660476744175,0,0.0021304660476744175
1772571757849517800,8.396517822265626,0.0010652330238372087,0.0010652330238372087,0.0031956990715116262
1772571757859450600,8.40645068359375,0.0031956990715116262,0.0010652330238372087,0.0031956990715116262
1772571757869385200,8.41638525390625,0.0010652330238372087,0.0010652330238372087,0.0031956990715116262
1772571757879318300,8.426318359375,0.0010652330238372087,0.0010652330238372087,0.004260932095348835
1772571757889260000,8.436260009765626,0.0021304660476744175,0.0010652330238372087,0.0021304660476744175
1772571757899193900,8.44619384765625,0.0021304660476744175,0.0010652330238372087,0.0010652330238372087
1772571757909115000,8.456114990234376,0.0010652330238372087,0.0010652330238372087,0.0021304660476744175
1772571757919047400,8.46604736328125,0.0021304660476744175,0.0010652330238372087,0.0031956990715116262
1772571757928991000,8.475990966796875,0.0021304660476744175,0.0021304660476744175,0.004260932095348835
1772571757938924800,8.4859248046875,0.0031956990715116262,0.0010652330238372087,0.0031956990715116262
1772571757948847900,8.495847900390626,0.0021304660476744175,0.0010652330238372087,0.0031956990715116262
1772571757958780400,8.505780517578126,0.0031956990715116262,0.0010652330238372087,0.0021304660476744175
1772571757968714200,8.51571435546875,0.004260932095348835,0,0.0010652330238372087
1772571757978647000,8.52564697265625,0.0031956990715116262,0.0010652330238372087,0.0021304660476744175
1772571757988577000,8.535576904296875,0.0031956990715116262,0.0021304660476744175,0.0031956990715116262
1772571757998509600,8.545509521484375,0.0010652330238372087,0.0021304660476744175,0.0031956990715116262
1772571758008443000,8.55544287109375,0.0021304660476744175,0.0021304660476744175,0.0031956990715116262
1772571758018375400,8.56537548828125,0.0031956990715116262,0.0021304660476744175,0.0021304660476744175
1772571758038244000,8.585244140625,0.0021304660476744175,0.0010652330238372087,0.0021304660476744175
1772571758048178700,8.5951787109375,0.0021304660476744175,-0.0010652330238372087,0.0010652330238372087
1772571758058111700,8.60511181640625,0.0021304660476744175,0.0010652330238372087,0.0021304660476744175
1772571758068038000,8.615037841796875,0.0021304660476744175,0,0.004260932095348835
1772571758077970400,8.624970458984375,0.0031956990715116262,0.0010652330238372087,0.0031956990715116262
1772571758087911200,8.6349111328125,0.0021304660476744175,0.0021304660476744175,0.0031956990715116262
1772571758097844200,8.64484423828125,0.0021304660476744175,0.0010652330238372087,0.0031956990715116262
1772571758107775000,8.65477490234375,0.0021304660476744175,0.0010652330238372087,0.0021304660476744175
1772571758117708000,8.6647080078125,0.0010652330238372087,0.0021304660476744175,0.0021304660476744175
1772571758127641000,8.67464111328125,0.0021304660476744175,0.0021304660476744175,0.0021304660476744175
1772571758137574100,8.68457421875,0.0031956990715116262,0,0.0021304660476744175
1772571758147506000,8.694505859375,0.0021304660476744175,0.0010652330238372087,0.0031956990715116262
1772571758157438700,8.704438720703125,0.0021304660476744175,0.0010652330238372087,0.0021304660476744175
1772571758167387100,8.71438720703125,0.0010652330238372087,0.0021304660476744175,0.0031956990715116262
1772571758177321500,8.724321533203126,0.0021304660476744175,0.0010652330238372087,0.0010652330238372087
1772571758187242800,8.73424267578125,0.0021304660476744175,0.0010652330238372087,0.0010652330238372087
1772571758197176000,8.744176025390624,0.0021304660476744175,0.0021304660476744175,0.0053261648863554
1772571758207105000,8.75410498046875,0.0021304660476744175,0,0.0031956990715116262
1772571758217037800,8.764037841796876,0.0021304660476744175,0.0010652330238372087,0.0021304660476744175
1772571758226949000,8.77394921875,0.0021304660476744175,0,0.0021304660476744175
1772571758236879600,8.783879638671875,0.0021304660476744175,0,0.0021304660476744175
1772571758246856700,8.793856689453126,0.0010652330238372087,0.0010652330238372087,0.0031956990715116262
1772571758256792000,8.8037919921875,0.0010652330238372087,0.0010652330238372087,0.0031956990715116262
1772571758266667500,8.81366748046875,0.0031956990715116262,0,0.0021304660476744175
1772571758276596700,8.8235966796875,0.0021304660476744175,0.0010652330238372087,0.0031956990715116262
1772571758286504400,8.83350439453125,0.0010652330238372087,0.0010652330238372087,0.0021304660476744175
1772571758296431600,8.843431640625,0.0021304660476744175,0.0010652330238372087,0.0031956990715116262
1772571758306384000,8.8533837890625,0.0031956990715116262,0.0021304660476744175,0.004260932095348835
1772571758316313300,8.863313232421875,0.0021304660476744175,0.0010652330238372087,0.0031956990715116262
1772571758326224100,8.87322412109375,0.0021304660476744175,0,0.0031956990715116262
1772571758336151800,8.88315185546875,0.0031956990715116262,0,0.0031956990715116262
1772571758346111200,8.893111328125,0.0031956990715116262,0.0010652330238372087,0.0031956990715116262
1772571758356042200,8.903042236328124,0.0021304660476744175,0,0.0021304660476744175
1772571758365978600,8.912978515625,0.0021304660476744175,0.0021304660476744175,0.0021304660476744175
1772571758375910100,8.92291015625,0.0021304660476744175,0.0031956990715116262,0.0031956990715116262
1772571758385827000,8.9328271484375,0.0021304660476744175,0.0010652330238372087,0.0031956990715116262
1772571758395757000,8.942757080078126,0.004260932095348835,0.0010652330238372087,0.0021304660476744175
1772571758405695200,8.9526953125,0.0021304660476744175,0.0010652330238372087,0.0021304660476744175
1772571758415626000,8.9626259765625,0.0010652330238372087,0.0021304660476744175,0.0053261648863554
1772571758425590300,8.97259033203125,0.0021304660476744175,0,0.0031956990715116262
1772571758435524600,8.982524658203126,0.0021304660476744175,0,0.0010652330238372087
1772571758445457200,8.99245703125,0.0021304660476744175,0.0010652330238372087,0.0031956990715116262
1772571758455391200,9.00239111328125,0.0021304660476744175,0.0021304660476744175,0.004260932095348835
1772571758465296000,9.0122958984375,0.0010652330238372087,0,0.0021304660476744175
1772571758475227100,9.02222705078125,0.0021304660476744175,0.0010652330238372087,0.0010652330238372087
1772571758485174300,9.03217431640625,0.0021304660476744175,0.0010652330238372087,0.0021304660476744175
1772571758495106800,9.04210693359375,0.0031956990715116262,0.0021304660476744175,0.0021304660476744175
1772571758505032400,9.052032470703125,0.0031956990715116262,0.0010652330238372087,0.004260932095348835
1772571758514964500,9.061964599609375,0.0021304660476744175,0,0.004260932095348835
1772571758524891100,9.07189111328125,0.0021304660476744175,0.0010652330238372087,0.0031956990715116262
1772571758534822700,9.08182275390625,0.0021304660476744175,0.0010652330238372087,0.0021304660476744175
1772571758544776700,9.091776611328125,0.0021304660476744175,0.0010652330238372087,0.0010652330238372087
1772571758554710500,9.10171044921875,0.0021304660476744175,0.0010652330238372087,0.0010652330238372087
1772571758564666600,9.11166650390625,0.0031956990715116262,0,0.0021304660476744175
1772571758574602800,9.121602783203125,0.0021304660476744175,0.0010652330238372087,0.0021304660476744175
1772571758584556500,9.131556640625,0.0021304660476744175,0.0021304660476744175,0.0010652330238372087
1772571758594494500,9.141494384765625,0.0021304660476744175,0.0021304660476744175,0.0021304660476744175
1772571758604350000,9.151349853515624,0.0021304660476744175,0.0021304660476744175,0.0031956990715116262
1772571758614279700,9.16127978515625,0.0021304660476744175,0.0010652330238372087,0.0021304660476744175
1772571758624243200,9.1712431640625,0.0031956990715116262,0.0010652330238372087,0.0021304660476744175
1772571758634176000,9.181176025390625,0.004260932095348835,0.0010652330238372087,0.0031956990715116262
1772571758644095000,9.191094970703125,0.0031956990715116262,0.0021304660476744175,0.0021304660476744175
1772571758654026800,9.20102685546875,0.0031956990715116262,0.0010652330238372087,0.0021304660476744175
1772571758663971800,9.210971923828126,0.0021304660476744175,0,0.0021304660476744175
1772571758673905000,9.22090478515625,0.0031956990715116262,0,0.0031956990715116262
1772571758683823400,9.2308232421875,0.0031956990715116262,0,0.0021304660476744175
1772571758693754600,9.240754638671875,0.0021304660476744175,0.0010652330238372087,0.0021304660476744175
1772571758703731200,9.250731201171876,0.0021304660476744175,0.0010652330238372087,0.0031956990715116262
1772571758713667300,9.260667236328125,0.0031956990715116262,0.0010652330238372087,0.0031956990715116262
1772571758723582500,9.27058251953125,0.0021304660476744175,0.0010652330238372087,0.0021304660476744175
1772571758733516300,9.280516357421876,0.0021304660476744175,0.0021304660476744175,0.0031956990715116262
1772571758743442700,9.290442626953125,0.0021304660476744175,0.0021304660476744175,0.0021304660476744175
1772571758753376000,9.3003759765625,0.0021304660476744175,0,0.0010652330238372087
1772571758763296000,9.3102958984375,0.0021304660476744175,0,0.0010652330238372087
1772571758773227800,9.320227783203125,0.0021304660476744175,0.0021304660476744175,0.0010652330238372087
1772571758783156200,9.33015625,0.0021304660476744175,0.0010652330238372087,0.0021304660476744175
1772571758793087700,9.340087646484376,0.0031956990715116262,0.0010652330238372087,0.0021304660476744175
1772571758803022600,9.350022705078125,0.0031956990715116262,0.0021304660476744175,0.0021304660476744175
1772571758812954400,9.359954345703125,0.0031956990715116262,0.0031956990715116262,0.0031956990715116262
1772571758822898400,9.3698984375,0.0021304660476744175,0.0010652330238372087,0.0031956990715116262
1772571758832831500,9.37983154296875,0.0010652330238372087,0.0010652330238372087,0.0021304660476744175
1772571758842756400,9.38975634765625,0.0010652330238372087,0.004260932095348835,0.004260932095348835
1772571758852688600,9.399688720703125,0.0021304660476744175,0.0021304660476744175,0.0031956990715116262
1772571758862618600,9.40961865234375,0.0031956990715116262,0,0.0021304660476744175
1772571758872550700,9.419550537109375,0.0021304660476744175,0.0010652330238372087,0.0021304660476744175
1772571758882473000,9.429472900390625,0.0031956990715116262,0.0031956990715116262,0.0021304660476744175
1772571758892404000,9.439404052734375,0.0021304660476744175,0.0021304660476744175,0.0031956990715116262
1772571758902374000,9.449373779296875,0.0010652330238372087,0.0010652330238372087,0.0031956990715116262
1772571758912308700,9.459308837890624,0.0010652330238372087,0,0.0010652330238372087
1772571758922201000,9.469201171875,0.0031956990715116262,0,0.0031956990715116262
1772571758932131800,9.4791318359375,0.0021304660476744175,0.0010652330238372087,0.004260932095348835
1772571758942100500,9.4891005859375,0.004260932095348835,0,0.0031956990715116262
1772571758952034800,9.499034912109375,0.0031956990715116262,0.0010652330238372087,0.0021304660476744175
1772571758961939700,9.508939697265625,0.0031956990715116262,0.0010652330238372087,0.0031956990715116262
1772571758971871200,9.518871337890625,0.0010652330238372087,0,0.0021304660476744175
1772571758981828400,9.528828369140625,0.0021304660476744175,0,0.0021304660476744175
1772571758991762400,9.538762451171875,0.0031956990715116262,0.0010652330238372087,0.0031956990715116262
1772571759001670000,9.548669921875,0.0031956990715116262,0.0021304660476744175,0.0021304660476744175
1772571759011601400,9.558601318359376,0.0021304660476744175,0.0021304660476744175,0.0021304660476744175
1772571759021574100,9.56857421875,0.0031956990715116262,0.0010652330238372087,0.0021304660476744175
1772571759031509800,9.578509765625,0.0021304660476744175,0.0010652330238372087,0.0021304660476744175
1772571759041396000,9.58839599609375,0.0021304660476744175,0.0021304660476744175,0.0010652330238372087
1772571759051326500,9.598326416015626,0.0031956990715116262,0.0010652330238372087,0.0021304660476744175
1772571759061300000,9.608300048828125,0.0031956990715116262,0.0010652330238372087,0.0021304660476744175
1772571759071234800,9.61823486328125,0.0021304660476744175,0.0010652330238372087,0.0010652330238372087
1772571759081154800,9.62815478515625,0.0021304660476744175,0.0010652330238372087,0.0021304660476744175
1772571759091088400,9.63808837890625,0.0010652330238372087,0.0010652330238372087,0.0031956990715116262
1772571759101024300,9.648024169921875,0,0.0010652330238372087,0.0031956990715116262
1772571759110958000,9.6579580078125,0.0021304660476744175,0.0021304660476744175,0.0010652330238372087
1772571759120892400,9.667892333984375,0.0031956990715116262,0.0010652330238372087,0.0021304660476744175
1772571759130826200,9.677826171875,0.0031956990715116262,0,0.0031956990715116262
1772571759140733200,9.687733154296875,0.0031956990715116262,0.0021304660476744175,0.0021304660476744175
1772571759150664200,9.697664306640625,0.0021304660476744175,0.0010652330238372087,0.0021304660476744175
1772571759160613000,9.707613037109375,0.0021304660476744175,0.0031956990715116262,0.0053261648863554
1772571759170546000,9.7175458984375,0.0021304660476744175,0.0053261648863554,0.012782796286046505
1772571759180494000,9.727494140625,0.0021304660476744175,0.0031956990715116262,0.00852186419069767
1772571759190428400,9.737428466796874,0.0031956990715116262,0.0031956990715116262,0.009587096981704235
1772571759200361000,9.74736083984375,0.0010652330238372087,0.0053261648863554,0.0106523297727108
1772571759210295300,9.75729541015625,0.0010652330238372087,0.004260932095348835,0.00852186419069767
1772571759220200700,9.76720068359375,0.0010652330238372087,0.0021304660476744175,0.004260932095348835
1772571759230132000,9.777132080078125,0.0010652330238372087,0.0010652330238372087,0
1772571759240059400,9.787059326171875,0.0021304660476744175,-0.0021304660476744175,-0.0063913981430232525
1772571759249990400,9.796990478515625,0.0031956990715116262,-0.004260932095348835,-0.007456631399691105
