time,seconds_elapsed,z,y,x
1772571702900707800,0.215707763671875,0,0,0
1772571702920572000,0.235572021484375,-0.0063877105712890625,0.0160791277885437,0.0014982689172029495
1772571702930505700,0.245505615234375,0.0059833526611328125,0.004835903644561768,0.004613516852259636
1772571702940437800,0.255437744140625,0.0009555816650390625,0.01156887412071228,-0.00016750581562519073
1772571702950370800,0.265370849609375,-0.007183074951171875,-0.0063657015562057495,-0.0000786464661359787
1772571702960292600,0.275292724609375,-0.0020513534545898438,-0.005502626299858093,-0.004197422415018082
1772571702970221000,0.285220947265625,-0.0017938613891601562,-0.0006725490093231201,0.00886860117316246
1772571702980138500,0.295138427734375,-0.010107994079589844,0.007958367466926575,-0.004820965230464935
1772571702990062600,0.3050625,-0.004784584045410156,0.002711936831474304,0.0000384841114282608
1772571703000002300,0.315002197265625,-0.008701324462890625,-0.00628998875617981,0.004454581066966057
1772571703009932800,0.324932861328125,0.01396942138671875,-0.014499649405479431,-0.0002390090376138687
1772571703019870200,0.3348701171875,0.008474349975585938,-0.00007915496826171875,0.013009795919060707
1772571703029803500,0.344803466796875,0.012318611145019531,-0.00021944940090179443,0.016499068588018417
1772571703039770600,0.3547705078125,-0.0019140243530273438,-0.0000623464584350586,0.006432715803384781
1772571703049717500,0.364717529296875,0.0026912689208984375,0.00008437037467956543,-0.02102900668978691
1772571703059600400,0.374600341796875,-0.0064792633056640625,-0.004477962851524353,-0.010806610807776451
1772571703069521400,0.384521484375,0.0029230117797851562,-0.013130173087120056,-0.0010903682559728622
1772571703079466800,0.394466796875,0.011842727661132812,-0.012490421533584595,0.007913565263152122
1772571703089397500,0.4043974609375,-0.0069427490234375,0.0016317367553710938,-0.0062554385513067245
1772571703099339300,0.41433935546875,-0.0020503997802734375,0.019744008779525757,-0.0013274550437927246
1772571703109274600,0.424274658203125,0.0071811676025390625,0.014421328902244568,0.0033756140619516373
1772571703119197700,0.43419775390625,0.011447906494140625,0.004680737853050232,-0.010540416464209557
1772571703129128000,0.4441279296875,-0.0027952194213867188,-0.00015501677989959717,-0.0055410657078027725
1772571703139062000,0.45406201171875,-0.0026845932006835938,0.013688832521438599,0.00854138657450676
1772571703148993800,0.463993896484375,0.00202178955078125,0.004000991582870483,0.008184053003787994
1772571703158927600,0.473927734375,-0.011889457702636719,0.013221710920333862,-0.010490646585822105
1772571703168860400,0.4838603515625,-0.016080856323242188,-0.005772203207015991,-0.010144887492060661
1772571703178810000,0.49381005859375,0.016839981079101562,-0.010348781943321228,0.004043590277433395
1772571703188749600,0.50374951171875,0.007021903991699219,-0.0007985830307006836,0.0038798097521066666
1772571703198684000,0.513683837890625,-0.011742591857910156,-0.0007257014513015747,-0.0010102912783622742
1772571703208623000,0.523623046875,0.007180213928222656,0.0131608247756958,-0.005546595901250839
1772571703218546400,0.53354638671875,0.0023202896118164062,-0.005863279104232788,-0.0006621722131967545
1772571703228483800,0.54348388671875,-0.0023965835571289062,-0.0009953677654266357,0.013273099437355995
1772571703238407700,0.55340771484375,-0.006981849670410156,-0.005570948123931885,-0.0011900626122951508
1772571703248343800,0.56334375,0.0025234222412109375,-0.0008131265640258789,0.0034714434295892715
1772571703258280200,0.5732802734375,0.011769294738769531,-0.005302071571350098,-0.005969522520899773
1772571703268216300,0.58321630859375,-0.0071887969970703125,-0.0052149295806884766,-0.005939841270446777
1772571703278149400,0.5931494140625,-0.0023374557495117188,-0.00046800076961517334,0.0035167112946510315
1772571703288085200,0.603085205078125,0.021068572998046875,-0.0006099194288253784,-0.005839478224515915
1772571703297987600,0.612987548828125,-0.007475852966308594,0.013467460870742798,-0.0010545961558818817
1772571703307920100,0.622920166015625,-0.00262451171875,0.017868727445602417,-0.010409748181700706
1772571703317873200,0.632873046875,-0.0025625228881835938,0.0033690929412841797,0.013188207522034645
1772571703327807500,0.642807373046875,-0.02122211456298828,-0.010799065232276917,0.01763952523469925
1772571703347688400,0.6626884765625,-0.011242866516113281,-0.010437756776809692,-0.0013003256171941757
1772571703357610500,0.672610595703125,-0.011006355285644531,-0.010067269206047058,-0.0012033917009830475
1772571703367544800,0.682544921875,0.007978439331054688,0.008844062685966492,-0.005896314978599548
1772571703377470000,0.692469970703125,-0.0015649795532226562,-0.0007710158824920654,-0.005807545036077499
1772571703387403500,0.702403564453125,-0.0015325546264648438,-0.005501240491867065,0.003664495423436165
1772571703397351000,0.712350830078125,0.0078887939453125,-0.000751987099647522,-0.000928850844502449
1772571703407285800,0.72228564453125,-0.01104736328125,0.013298362493515015,-0.010333022102713585
1772571703417210400,0.73221044921875,-0.00144195556640625,0.008296355605125427,0.004027780145406723
1772571703427144200,0.742144287109375,-0.010813713073730469,0.012789696455001831,-0.0007737204432487488
1772571703437111300,0.752111328125,-0.020018577575683594,-0.0016001611948013306,0.00861348956823349
1772571703447048400,0.76204833984375,-0.000850677490234375,-0.010929226875305176,0.008430223912000656
1772571703456935200,0.77193505859375,0.0038700103759765625,-0.01079036295413971,-0.001155773177742958
1772571703466867200,0.7818671875,0.0038022994995117188,0.00826689600944519,-0.0058733802288770676
1772571703476763100,0.79176318359375,0.013148307800292969,-0.005845963954925537,-0.0011969134211540222
1772571703496674600,0.811674560546875,-0.01993274688720703,-0.01021072268486023,-0.010658742859959602
1772571703506611000,0.82161083984375,0.003940582275390625,0.008842021226882935,-0.0012962017208337784
1772571703516531200,0.83153125,0.017999649047851562,0.004034191370010376,-0.010721217840909958
1772571703526465800,0.8414658203125,0.003574371337890625,0.01333126425743103,-0.010671164840459824
1772571703536402400,0.85140234375,-0.02002716064453125,-0.010487109422683716,-0.01062420941889286
1772571703546337300,0.861337158203125,-0.038529396057128906,-0.005555853247642517,-0.015390230342745781
1772571703556261600,0.87126171875,-0.00963592529296875,0.003900781273841858,-0.0012399405241012573
1772571703566195500,0.881195556640625,0.014071464538574219,-0.0010267645120620728,-0.005851494148373604
1772571703576129300,0.89112939453125,-0.004996299743652344,-0.010480031371116638,-0.005783446133136749
1772571703586063000,0.90106298828125,-0.009623527526855469,0.013285785913467407,-0.0011093076318502426
1772571703595997400,0.91099755859375,-0.047127723693847656,0.008201181888580322,-0.015246076509356499
1772571703605931300,0.92093115234375,-0.013378143310546875,0.0032013654708862305,-0.0007943026721477509
1772571703615882200,0.93088232421875,0.015100479125976562,-0.006423979997634888,-0.005519183352589607
1772571703625817600,0.940817626953125,0.02897357940673828,0.012565359473228455,-0.01958470232784748
1772571703635721700,0.9507216796875,0.004946708679199219,-0.00643041729927063,-0.005161898210644722
1772571703645654000,0.960654052734375,-0.01867961883544922,0.0031418055295944214,0.004309605807065964
1772571703655594500,0.970594482421875,-0.027784347534179688,0.007744506001472473,0.013724654912948608
1772571703665527800,0.98052783203125,-0.01790332794189453,0.0028533488512039185,-0.0005602352321147919
1772571703675454200,0.9904541015625,0.024773597717285156,-0.011373132467269897,0.004128241911530495
1772571703685386800,1.00038671875,0.014946937561035156,0.016913145780563354,0.004027718678116798
1772571703695335200,1.010335205078125,-0.018262863159179688,0.011970609426498413,-0.0007797796279191971
1772571703705269500,1.02026953125,-0.027376174926757812,-0.002306506037712097,-0.0006948988884687424
1772571703715193300,1.030193359375,0.0013303756713867188,-0.011637121438980103,0.004097083583474159
1772571703725126400,1.04012646484375,0.02014636993408203,0.011944964528083801,-0.005420112982392311
1772571703735054000,1.05005419921875,0.010394096374511719,0.011692434549331665,-0.0007541980594396591
1772571703744986600,1.059986572265625,-0.008612632751464844,0.002027183771133423,-0.005479700863361359
1772571703754921200,1.069921142578125,-0.008469581604003906,-0.007375612854957581,0.003999331966042519
1772571703764853800,1.079853759765625,-0.013037681579589844,-0.0024959146976470947,0.003903200849890709
1772571703774783200,1.089783203125,0.0013065338134765625,0.011618643999099731,-0.0056062545627355576
1772571703784715800,1.0997158203125,0.0012807846069335938,0.0021573156118392944,0.008583487942814827
1772571703794651100,1.109651123046875,-0.0081634521484375,-0.011753484606742859,-0.005816208198666573
1772571703804584000,1.119583984375,-0.003322601318359375,0.0074262917041778564,0.00827568955719471
1772571703814514700,1.1295146484375,0.0014400482177734375,-0.011483371257781982,0.0034019500017166138
1772571703824447000,1.139447021484375,-0.0032930374145507812,-0.0065352171659469604,-0.0013928133994340897
1772571703834394600,1.14939453125,0.0014696121215820312,-0.0016694515943527222,-0.006006211042404175
1772571703844328700,1.15932861328125,0.0014486312866210938,0.021747112274169922,0.0036865677684545517
1772571703854246700,1.16924658203125,-0.017409324645996094,-0.011628895998001099,0.0084032341837883
1772571703864179200,1.17917919921875,-0.012409210205078125,0.002636924386024475,0.01293780468404293
1772571703874111200,1.189111328125,-0.012205123901367188,0.0027424991130828857,0.012794038280844688
1772571703884043500,1.19904345703125,0.0068340301513671875,-0.011482447385787964,0.003131899982690811
1772571703893976800,1.208976806640625,0.016138076782226562,0.0027809441089630127,-0.001764204353094101
1772571703903909000,1.2189091796875,0.0017423629760742188,-0.001926124095916748,-0.011183707043528557
1772571703913849600,1.228849609375,0.0017147064208984375,0.01217825710773468,0.0030967220664024353
1772571703923783000,1.238782958984375,-0.012440681457519531,-0.006810903549194336,-0.0016929581761360168
1772571703933710000,1.2487099609375,-0.0028200149536132812,-0.01596483588218689,0.003016643226146698
1772571703943642600,1.258642578125,0.011350631713867188,-0.015650570392608643,-0.0018730349838733673
1772571703953576000,1.268575927734375,-0.0029630661010742188,-0.006026014685630798,0.007442314177751541
1772571703963508700,1.2785087890625,-0.0029125213623046875,-0.005978748202323914,-0.006836969405412674
1772571703973442600,1.288442626953125,-0.016991615295410156,-0.0011226087808609009,-0.002147490158677101
1772571703983375600,1.298375732421875,-0.007294654846191406,0.01788000762462616,-0.006951095536351204
1772571703993309200,1.30830908203125,-0.007174491882324219,-0.010621383786201477,-0.011674650013446808
1772571704003242000,1.318241943359375,-0.0070514678955078125,-0.005890563130378723,-0.0020945891737937927
1772571704013172500,1.32817236328125,0.0071926116943359375,0.003571942448616028,0.021456066519021988
1772571704023105300,1.338105224609375,-0.011762619018554688,-0.0011477172374725342,0.002236871048808098
1772571704033052700,1.348052734375,-0.020984649658203125,-0.010497227311134338,-0.0025362689048051834
1772571704042987000,1.357987060546875,-0.0065097808837890625,-0.0008569061756134033,-0.0072320569306612015
1772571704052907500,1.367907470703125,-0.006404876708984375,0.013432204723358154,-0.011952973902225494
1772571704062840300,1.37784033203125,0.01253509521484375,0.0038393139839172363,-0.002366030588746071
1772571704072783600,1.38778369140625,-0.006506919860839844,-0.010403648018836975,-0.011773275211453438
1772571704082717700,1.3977177734375,-0.0063991546630859375,-0.0007645934820175171,0.002521499991416931
1772571704092637400,1.407637451171875,0.017246246337890625,-0.014728307723999023,-0.016384322196245193
1772571704102570000,1.417570068359375,0.007542610168457031,-0.00041049718856811523,-0.0020171552896499634
1772571704112503600,1.427503662109375,-0.001995086669921875,0.0040488094091415405,-0.006825165823101997
1772571704122436000,1.43743603515625,-0.00196075439453125,0.008636772632598877,-0.011348137632012367
1772571704132373500,1.44737353515625,0.0027799606323242188,0.013249620795249939,0.0030386801809072495
1772571704142306300,1.457306396484375,-0.00197601318359375,-0.005757719278335571,-0.006460852921009064
1772571704152211500,1.46721142578125,-0.011362075805664062,-0.019739791750907898,0.007639950141310692
1772571704162141700,1.4771416015625,0.00295257568359375,-0.014654040336608887,0.002774575725197792
1772571704172122000,1.4871220703125,0.0029039382934570312,-0.005046024918556213,-0.006718453019857407
1772571704182057500,1.497057373046875,-0.0018520355224609375,-0.014431983232498169,-0.011342305690050125
1772571704191940600,1.506940673828125,-0.0018205642700195312,0.014006927609443665,-0.001767607405781746
1772571704201870800,1.516870849609375,-0.006499290466308594,-0.0003041476011276245,-0.006374888122081757
1772571704211813400,1.5268134765625,0.012446403503417969,0.008963480591773987,-0.0016909614205360413
1772571704221744600,1.53674462890625,-0.011304855346679688,-0.0005549341440200806,-0.0015909168869256973
1772571704231675400,1.54667529296875,-0.00640869140625,-0.009914711117744446,0.0031147394329309464
1772571704241606700,1.556606689453125,0.007822036743164062,0.00442446768283844,-0.011193716898560524
1772571704251537400,1.566537353515625,0.002979278564453125,0.009209081530570984,-0.011034376919269562
1772571704261468700,1.57646875,0.021762847900390625,0.009103760123252869,-0.010879922658205032
1772571704271439600,1.586439697265625,-0.006850242614746094,0.008898377418518066,-0.006021810695528984
1772571704281374700,1.596374755859375,-0.011448860168457031,-0.0005178749561309814,0.007969917729496956
1772571704291268000,1.60626806640625,-0.0018415451049804688,-0.005169853568077087,0.012516336515545845
1772571704301198800,1.61619873046875,0.007610321044921875,-0.014655321836471558,0.0029624048620462418
1772571704311134700,1.626134765625,0.0074825286865234375,-0.0002377033233642578,-0.001829490065574646
1772571704321066200,1.636066162109375,0.012063026428222656,0.0046246349811553955,-0.011446049436926842
1772571704331000000,1.646,0.0024442672729492188,-0.0001125633716583252,-0.011282512918114662
1772571704340931800,1.655931884765625,-0.016431808471679688,-0.00006221234798431396,0.012421268969774246
1772571704350904000,1.665904052734375,0.0026769638061523438,-0.00011454522609710693,-0.0019411053508520126
1772571704360840000,1.67583984375,0.007340431213378906,0.004643842577934265,0.0028695091605186462
1772571704370768000,1.685767822265625,0.00251007080078125,-0.0049041807651519775,-0.001817295327782631
1772571704380703000,1.695702880859375,-0.006947517395019531,0.004541873931884766,-0.0063201189041137695
1772571704390631400,1.70563134765625,-0.006833076477050781,0.01393154263496399,-0.0015356335788965225
1772571704400566000,1.71556591796875,0.0074024200439453125,0.02797435224056244,-0.006250327453017235
1772571704410488000,1.725488037109375,0.0025663375854492188,0.004114493727684021,-0.010884175077080727
1772571704420421000,1.735421142578125,-0.002185821533203125,-0.01003168523311615,-0.006023641675710678
1772571704430365000,1.745364990234375,-0.0021505355834960938,0.004309818148612976,0.0034666843712329865
1772571704440299000,1.755299072265625,-0.006824493408203125,0.023120835423469543,0.003381675109267235
1772571704450229200,1.765229248046875,0.012120246887207031,0.004050582647323608,-0.0014127343893051147
1772571704460163000,1.7751630859375,-0.016332626342773438,-0.014904454350471497,-0.0060259029269218445
1772571704470082600,1.78508251953125,-0.02077007293701172,0.00893472135066986,0.008269855752587318
1772571704480015000,1.79501513671875,0.012534141540527344,0.00883367657661438,0.0032904185354709625
1772571704489948400,1.804948486328125,-0.006505012512207031,-0.010302409529685974,-0.015628261491656303
1772571704499880700,1.814880615234375,-0.01581287384033203,0.013359412550926208,-0.0012692324817180634
1772571704509812200,1.824812255859375,0.003284454345703125,-0.015066653490066528,0.003431059420108795
1772571704519744500,1.83474462890625,-0.006186485290527344,0.003965064883232117,0.00344126857817173
1772571704529678800,1.844678955078125,-0.010790824890136719,0.003845512866973877,-0.010672224685549736
1772571704539611400,1.854611328125,0.0035161972045898438,-0.01039750874042511,0.008310560137033463
1772571704549543200,1.864543212890625,0.012873649597167969,-0.005467459559440613,-0.0012745913118124008
1772571704559475700,1.874475830078125,0.007951736450195312,-0.0007208883762359619,0.003324465826153755
1772571704569407500,1.884407470703125,0.0031118392944335938,0.003946572542190552,-0.006278904154896736
1772571704579340000,1.894340087890625,-0.0016498565673828125,-0.005488201975822449,0.0033147986978292465
1772571704589275100,1.904275146484375,0.007793426513671875,-0.010057434439659119,-0.006087984889745712
1772571704599207700,1.914207763671875,-0.0017528533935546875,-0.009942665696144104,-0.006013743579387665
1772571704609141500,1.9241416015625,-0.015848159790039062,0.009003952145576477,-0.015362394973635674
1772571704619074300,1.93407421875,-0.0014553070068359375,-0.005426391959190369,-0.005819952115416527
1772571704629013200,1.94401318359375,0.0032777786254882812,-0.019413232803344727,-0.0007374361157417297
1772571704638946600,1.953946533203125,-0.0014829635620117188,-0.01914285123348236,-0.004956534132361412
1772571704648883000,1.963883056640625,0.0032520294189453125,-0.004751533269882202,0.00010706670582294464
1772571704658816800,1.973816650390625,0.007905960083007812,0.00008408725261688232,0.009794794023036957
1772571704668762000,1.98376220703125,0.012479782104492188,-0.004475906491279602,0.0052000656723976135
1772571704678697200,1.993697265625,0.0028514862060546875,0.009874328970909119,-0.004026968032121658
1772571704688600600,2.0036005859375,-0.0019016265869140625,0.014365345239639282,0.0013255719095468521
1772571704698532400,2.013532470703125,-0.015993118286132812,0.009364143013954163,0.015906406566500664
1772571704708468500,2.023468505859375,0.003108978271484375,-0.00016060471534729004,-0.002612132579088211
1772571704718400800,2.03340087890625,0.012476921081542969,0.01862362027168274,0.01674516312777996
1772571704728335000,2.043335205078125,0.0028524398803710938,-0.005282938480377197,-0.011814948171377182
1772571704738267600,2.053267578125,-0.0019016265869140625,-0.0006404668092727661,-0.0027347058057785034
1772571704748199000,2.063198974609375,0.0028371810913085938,-0.010099813342094421,-0.013146679848432541
1772571704758131200,2.073131103515625,-0.0066318511962890625,0.008951038122177124,0.014179946854710579
1772571704768068000,2.083068115234375,-0.02535724639892578,0.013457268476486206,0.017710387706756592
1772571704778000600,2.093000732421875,-0.0155181884765625,0.01328115165233612,-0.0014486163854599
1772571704787931000,2.102930908203125,0.0035734176635742188,-0.0010178238153457642,-0.0014539249241352081
1772571704797863200,2.11286328125,0.008223533630371094,-0.010471194982528687,0.0032494422048330307
1772571704807802600,2.122802734375,0.012796401977539062,0.008484497666358948,0.0031658057123422623
1772571704817735700,2.132735595703125,0.012581825256347656,-0.0057348161935806274,0.003081340342760086
1772571704837640000,2.152639892578125,-0.0110626220703125,-0.020067662000656128,0.003177883103489876
1772571704847524600,2.162524658203125,-0.00146484375,-0.005458638072013855,-0.0017138272523880005
1772571704857456000,2.1724560546875,-0.0014390945434570312,0.027539357542991638,-0.015840498730540276
1772571704867397400,2.1823974609375,0.0032939910888671875,-0.005932986736297607,-0.020314568653702736
1772571704877330000,2.192329833984375,0.0079498291015625,-0.0011786669492721558,-0.005677027627825737
1772571704887259600,2.202259765625,0.012526512145996094,-0.005921065807342529,-0.010221397504210472
1772571704897191700,2.212191650390625,-0.0018072128295898438,-0.0011672526597976685,-0.005475470796227455
1772571704907124500,2.22212451171875,-0.0064849853515625,0.003507956862449646,-0.005411434918642044
1772571704917056500,2.232056396484375,0.0030412673950195312,0.003396332263946533,-0.009957976639270782
1772571704926991400,2.241991455078125,-0.011136054992675781,0.0033878982067108154,0.009012892842292786
1772571704936923600,2.251923583984375,-0.029786109924316406,0.0033795982599258423,-0.014709752053022385
1772571704956782300,2.2717822265625,0.0083160400390625,0.0129375159740448,-0.00007766671478748322
1772571704966723800,2.281723876953125,-0.0012407302856445312,-0.006064280867576599,-0.009523047134280205
1772571704976657000,2.291656982421875,0.008197784423828125,-0.0013080984354019165,-0.009396033361554146
1772571704986589000,2.3015888671875,-0.006068229675292969,-0.001137465238571167,0.00014381110668182373
1772571704996521700,2.311521728515625,-0.005970954895019531,-0.0009690225124359131,0.00011195242404937744
1772571705006468600,2.321468505859375,0.0082550048828125,-0.005715027451515198,0.00939406268298626
1772571705016403000,2.33140283203125,0.02224445343017578,0.013161435723304749,0.004600778222084045
1772571705026322000,2.341322021484375,-0.0016679763793945312,0.008180707693099976,-0.004819085821509361
1772571705036254700,2.351254638671875,0.003070831298828125,0.00318126380443573,-0.00016096420586109161
1772571705046196700,2.36119677734375,-0.0016880035400390625,-0.00634215772151947,-0.004794945940375328
1772571705056130300,2.37113037109375,-0.011075973510742188,0.003127560019493103,0.004774026572704315
1772571705066052400,2.38105224609375,-0.0014781951904296875,-0.006192415952682495,0.004665028303861618
1772571705075984600,2.390984619140625,0.012671470642089844,-0.006041049957275391,0.009266408160328865
1772571705085896000,2.40089599609375,-0.0016660690307617188,-0.010600566864013672,0.009084805846214294
1772571705095826200,2.410826171875,0.0030689239501953125,0.008458629250526428,-0.014639027416706085
1772571705105781800,2.42078173828125,-0.011112213134765625,-0.0009500086307525635,-0.00981978140771389
1772571705115714600,2.430714599609375,-0.010928153991699219,-0.010303512215614319,-0.00016930140554904938
1772571705125660200,2.44066015625,0.0033769607543945312,0.008852258324623108,0.009322663769125938
1772571705135594200,2.45059423828125,0.00331878662109375,-0.000664934515953064,0.004323422908782959
1772571705145525200,2.460525146484375,0.0032625198364257812,-0.010023191571235657,-0.014614695683121681
1772571705155458800,2.470458740234375,-0.0014963150024414062,0.00882372260093689,-0.0002747960388660431
1772571705165396000,2.48039599609375,-0.010888099670410156,0.018040671944618225,0.004408905282616615
1772571705175330000,2.490330078125,0.012835502624511719,-0.0010458976030349731,-0.009716244414448738
1772571705185245000,2.500244873046875,-0.0015077590942382812,-0.0008789151906967163,-0.00016429461538791656
1772571705195177200,2.51017724609375,0.007933616638183594,0.0038924962282180786,-0.00019101426005363464
1772571705205111300,2.520111328125,0.0030908584594726562,-0.0055417269468307495,-0.0003208741545677185
1772571705215043800,2.5300439453125,-0.011089324951171875,-0.005299881100654602,0.009173525497317314
1772571705224977400,2.539977294921875,-0.010903358459472656,0.004152461886405945,0.004282582551240921
1772571705234909700,2.54990966796875,-0.0060138702392578125,-0.014702633023262024,-0.02396625652909279
1772571705244842500,2.559842529296875,-0.005917549133300781,-0.004890605807304382,-0.01427818089723587
1772571705254775000,2.569775146484375,-0.010529518127441406,-0.00005201995372772217,-0.0047515686601400375
1772571705264722000,2.579721923828125,-0.005646705627441406,-0.00000260770320892334,0.004717549309134483
1772571705274656000,2.589656005859375,0.013280868530273438,0.004754513502120972,-0.004805492237210274
1772571705284573400,2.599573486328125,0.013060569763183594,-0.004794672131538391,-0.004752583801746368
1772571705294505700,2.609505615234375,-0.0012865066528320312,-0.013982787728309631,-0.004806371405720711
1772571705304432400,2.619432373046875,0.008152961730957031,0.01915760338306427,-0.00014614127576351166
1772571705314364200,2.6293642578125,-0.0108184814453125,0.037721142172813416,0.009246258065104485
1772571705324308200,2.63930810546875,-0.010641098022460938,0.008990556001663208,0.009164102375507355
1772571705334241300,2.6492412109375,-0.00104522705078125,0.00407959520816803,0.004176462069153786
1772571705344148700,2.659148681640625,-0.010446548461914062,0.008768543601036072,-0.01485573872923851
1772571705354079200,2.669079345703125,-0.010272979736328125,0.008671179413795471,-0.009823231026530266
1772571705364050400,2.679050537109375,-0.0006856918334960938,-0.010259047150611877,0.004438944160938263
1772571705373985000,2.688985107421875,-0.010090827941894531,-0.010141238570213318,0.004335498437285423
1772571705383886000,2.698885986328125,-0.009924888610839844,0.008910149335861206,0.008841482922434807
1772571705393817000,2.708817138671875,-0.028593063354492188,0.018126025795936584,-0.005357574671506882
1772571705403774200,2.718774169921875,0.00013446807861328125,0.013163596391677856,0.008827969431877136
1772571705413708000,2.7287080078125,0.0001354217529296875,0.008080810308456421,-0.014995152130723
1772571705423617000,2.738616943359375,0.004840850830078125,0.0032852590084075928,-0.009866129606962204
1772571705433548300,2.74854833984375,0.0047588348388671875,-0.01555602252483368,-0.00031620636582374573
1772571705443507200,2.758507080078125,0.004680633544921875,0.012901514768600464,-0.005049064755439758
1772571705453441300,2.768441162109375,-0.014230728149414062,0.012633651494979858,-0.00959940068423748
1772571705463380700,2.778380615234375,0.004839897155761719,0.007762983441352844,0.000051919370889663696
1772571705473315300,2.7883154296875,0.0000514984130859375,-0.006545007228851318,0.009441019967198372
1772571705483209700,2.798209716796875,-0.009366035461425781,0.002928629517555237,0.004547968506813049
1772571705493140200,2.80814013671875,-0.00920867919921875,0.0028273016214370728,-0.00026138685643672943
1772571705503128600,2.818128662109375,0.005069732666015625,0.002828925848007202,-0.0001825224608182907
1772571705513065000,2.82806494140625,0.00027561187744140625,-0.006586924195289612,-0.00481395423412323
1772571705522939400,2.837939453125,0.009687423706054688,-0.020554721355438232,0.02349078096449375
1772571705532869600,2.84786962890625,0.00010776519775390625,0.003378644585609436,0.004233203828334808
1772571705542809900,2.857809814453125,0.004811286926269531,0.008180201053619385,0.013548113405704498
1772571705552741000,2.8677412109375,-0.014103889465332031,-0.010742664337158203,0.0038734301924705505
1772571705562673200,2.877673095703125,0.009675025939941406,0.017634496092796326,-0.00564001128077507
1772571705572604700,2.887604736328125,-0.004612922668457031,0.01738812029361725,-0.005579950287938118
1772571705582560800,2.897560791015625,-0.013952255249023438,0.012336447834968567,-0.0008078888058662415
1772571705592494600,2.90749462890625,0.014533042907714844,-0.006756380200386047,-0.014947423711419106
1772571705602436000,2.91743603515625,0.00016307830810546875,-0.006595581769943237,-0.010120591148734093
1772571705612370700,2.92737060546875,0.0001583099365234375,-0.0017288923263549805,0.00404307059943676
1772571705622293000,2.93729296875,0.0142822265625,0.002955406904220581,0.013363443315029144
1772571705632226300,2.947226318359375,0.014042854309082031,0.017080411314964294,-0.005619553849101067
1772571705642157300,2.9571572265625,0.009099006652832031,0.002718418836593628,-0.010261699557304382
1772571705652090600,2.967090576171875,0.01836109161376953,-0.0018860101699829102,-0.005411546677350998
1772571705662025000,2.97702490234375,-0.0007781982421875,0.012218356132507324,0.013587133958935738
1772571705671958000,2.9869580078125,-0.005473136901855469,-0.0115814208984375,0.008622618392109871
1772571705681889800,2.996889892578125,-0.01950836181640625,0.012202411890029907,0.008548503741621971
1772571705691822800,3.00682275390625,-0.009766578674316406,0.016755491495132446,-0.005751466378569603
1772571705701766700,3.0167666015625,0.009229660034179688,-0.007018536329269409,-0.0008750893175601959
1772571705711700700,3.02670068359375,0.009075164794921875,0.0025634765625,0.0134362131357193
1772571705721631500,3.036631591796875,0.008924484252929688,0.01659339666366577,-0.010258853435516357
1772571705731565300,3.0465654296875,-0.014766693115234375,0.01626400649547577,-0.01472235843539238
1772571705741502000,3.056501953125,-0.005099296569824219,0.011130139231681824,-0.009795613586902618
1772571705751436000,3.06643603515625,-0.005015373229980469,-0.0031329840421676636,-0.004953237250447273
1772571705761352400,3.0763525390625,0.0044841766357421875,-0.003032684326171875,-0.009507551789283752
1772571705771285000,3.086284912109375,0.004406929016113281,0.011293113231658936,-0.009175941348075867
1772571705781219800,3.0962197265625,0.004332542419433594,-0.026515692472457886,0.005073295906186104
1772571705791152400,3.10615234375,-0.005157470703125,-0.021316707134246826,-0.009062940254807472
1772571705801085000,3.1160849609375,0.004343986511230469,-0.006787821650505066,-0.013753514736890793
1772571705811017500,3.126017578125,0.0042705535888671875,0.0027906447649002075,-0.0182623490691185
1772571705820951300,3.135951416015625,-0.0005102157592773438,-0.011333480477333069,0.0009482558816671371
1772571705830884000,3.145884033203125,0.008916854858398438,-0.020614609122276306,0.005512513220310211
1772571705840814300,3.155814453125,-0.010069847106933594,-0.005995810031890869,0.005289891734719276
1772571705850747000,3.165746826171875,-0.005194664001464844,-0.005847737193107605,0.009982174262404442
1772571705860681500,3.175681396484375,-0.014521598815917969,0.017638206481933594,0.00036915577948093414
1772571705870614000,3.185614013671875,-0.009572029113769531,0.012683793902397156,-0.0042737387120723724
1772571705880552700,3.195552734375,0.009421348571777344,0.0031033754348754883,0.009893789887428284
1772571705890486000,3.205486083984375,0.032806396484375,-0.0204431414604187,0.0002822447568178177
1772571705900423700,3.215423583984375,0.01813030242919922,-0.019952550530433655,-0.004458287730813026
1772571705910357500,3.225357421875,-0.024550437927246094,0.008679702877998352,-0.004413444548845291
1772571705920278500,3.235278564453125,-0.033560752868652344,-0.0008343607187271118,-0.004472741857171059
1772571705930211000,3.245211181640625,-0.004754066467285156,-0.00067099928855896,0.004989538341760635
1772571705940129000,3.25512890625,-0.004673957824707031,-0.005421802401542664,-0.004542449489235878
1772571705950060000,3.26506005859375,0.00011157989501953125,-0.009991884231567383,-0.013913378119468689
1772571705960013800,3.275013916015625,-0.023436546325683594,0.009158790111541748,-0.013711001724004745
1772571705969947100,3.284947021484375,-0.008920669555664062,-0.023905858397483826,0.000613844022154808
1772571705979876600,3.294876708984375,-0.008772850036621094,0.0047925859689712524,-0.0041321925818920135
1772571705989809400,3.304809326171875,0.005497932434082031,0.00005227327346801758,0.005324415862560272
1772571705999741700,3.31474169921875,0.014824867248535156,0.014123722910881042,0.005204003304243088
1772571706009674800,3.3246748046875,-0.0042552947998046875,0.009126558899879456,0.004986511543393135
1772571706019616000,3.334615966796875,-0.013602256774902344,-0.00039486587047576904,-0.009254086762666702
1772571706029549600,3.344549560546875,-0.008667945861816406,0.004368454217910767,0.005199100822210312
1772571706039471000,3.35447119140625,-0.00852203369140625,-0.00046603381633758545,0.0005768109112977982
1772571706049403400,3.3644033203125,0.02457904815673828,0.004298150539398193,-0.004173077642917633
1772571706059341000,3.374341064453125,0.005333900451660156,-0.005142495036125183,-0.0040316395461559296
1772571706069273900,3.38427392578125,-0.013592720031738281,-0.0001987367868423462,0.0006133895367383957
1772571706079215400,3.39421533203125,-0.013364791870117188,0.009168550372123718,0.00047229789197444916
1772571706089149200,3.404149169921875,0.0009851455688476562,-0.0051631927490234375,0.00514356791973114
1772571706099081700,3.414081787109375,0.015095710754394531,-0.019256383180618286,0.00041886791586875916
1772571706109015600,3.424015625,0.028970718383789062,-0.018988609313964844,-0.008933436125516891
1772571706118940200,3.433940185546875,-0.009180068969726562,-0.009308069944381714,0.0007044430822134018
1772571706128873000,3.443873046875,-0.004317283630371094,0.00021141767501831055,-0.004043113440275192
1772571706138813400,3.4538134765625,-0.008953094482421875,-0.004553884267807007,-0.008713789284229279
1772571706148747000,3.4637470703125,-0.01351165771484375,0.004886031150817871,0.005527768284082413
1772571706158668800,3.473668701171875,0.019672393798828125,0.014269232749938965,-0.008622810244560242
1772571706168601300,3.483601318359375,0.00051116943359375,0.013977929949760437,-0.003802180290222168
1772571706178522600,3.493522705078125,-0.023036956787109375,0.004173487424850464,0.0009403694421052933
1772571706188454000,3.503453857421875,-0.013235092163085938,0.008759036660194397,0.005601607263088226
1772571706198402600,3.513402587890625,0.001110076904296875,-0.0007559061050415039,0.010187339037656784
1772571706208335400,3.52333544921875,-0.0036134719848632812,-0.010315284132957458,-0.01345580443739891
1772571706218268400,3.533268310546875,0.0058650970458984375,0.003928929567337036,-0.00384603813290596
1772571706228201500,3.543201416015625,0.001056671142578125,0.008620187640190125,0.005504492670297623
1772571706238125600,3.55312548828125,0.0010366439819335938,-0.00549963116645813,0.00077817402780056
1772571706248057900,3.563057861328125,-0.008399009704589844,-0.019484952092170715,-0.003867078572511673
1772571706258000100,3.573000244140625,-0.012967109680175781,0.023163601756095886,0.010291438549757004
1772571706267933200,3.58293310546875,0.0013742446899414062,0.00870022177696228,0.005485408008098602
1772571706277864700,3.59286474609375,0.0013523101806640625,-0.010331973433494568,0.00055689737200737
1772571706287797500,3.602797607421875,-0.008086204528808594,-0.0055046528577804565,0.010034412145614624
1772571706297742300,3.612742431640625,0.0014667510986328125,0.008659332990646362,-0.004290331155061722
1772571706307676400,3.622676513671875,0.0014429092407226562,-0.0009553283452987671,-0.004349591210484505
1772571706317606000,3.63260595703125,0.0014181137084960938,0.01794278621673584,-0.004308775067329407
1772571706327539500,3.64253955078125,-0.003314971923828125,0.03181798756122589,0.014570195227861404
1772571706337463800,3.6524638671875,0.0014476776123046875,-0.0016240477561950684,0.004882983863353729
1772571706347396600,3.662396728515625,-0.007994651794433594,-0.0015488266944885254,-0.023479415103793144
1772571706357324800,3.67232470703125,-0.012574195861816406,0.008043542504310608,0.00032418593764305115
1772571706367257000,3.682257080078125,-0.002948760986328125,0.0032487213611602783,0.014412866905331612
1772571706377189600,3.692189697265625,0.011224746704101562,0.0032427310943603516,-0.004589887335896492
1772571706387122000,3.702121826171875,0.0016183853149414062,-0.00147208571434021,0.00006221979856491089
1772571706397067000,3.71206689453125,-0.007824897766113281,-0.0015010982751846313,0.00002944469451904297
1772571706407000600,3.72200048828125,-0.012402534484863281,-0.010946735739707947,-0.009318631142377853
1772571706416923400,3.73192333984375,-0.0027799606323242188,0.003409251570701599,0.00032339058816432953
1772571706426856000,3.74185595703125,-0.0027341842651367188,-0.006016924977302551,0.009703492745757103
1772571706436758800,3.7517587890625,0.006726264953613281,-0.01528581976890564,-0.000005766749382019043
1772571706446688300,3.761688232421875,-0.016927719116210938,-0.005667001008987427,-0.004844961687922478
1772571706456657000,3.771656982421875,-0.00722503662109375,-0.0010192841291427612,-0.0000874195247888565
1772571706466590500,3.781590576171875,0.007018089294433594,-0.014978304505348206,-0.018846256658434868
1772571706476532200,3.7915322265625,0.01631927490234375,0.008761107921600342,-0.027877435088157654
1772571706486466600,3.801466552734375,-0.016916275024414062,0.004055961966514587,-0.008607890456914902
1772571706496396800,3.811396728515625,-0.007216453552246094,0.003935232758522034,-0.01320246234536171
1772571706506330600,3.82133056640625,-0.007100105285644531,-0.010106697678565979,0.001113908365368843
1772571706516255000,3.8312548828125,0.0024366378784179688,0.008843004703521729,0.005875714123249054
1772571706526188000,3.84118798828125,0.0023937225341796875,0.004035159945487976,-0.0037701353430747986
1772571706536116000,3.851115966796875,0.0023527145385742188,-0.01481868326663971,0.0009696241468191147
1772571706546048500,3.861048583984375,0.011731147766113281,0.00891810655593872,-0.008391886949539185
1772571706555982600,3.870982666015625,-0.007297515869140625,0.004007399082183838,-0.0035751163959503174
1772571706565915100,3.8809150390625,-0.011883735656738281,-0.0102386474609375,-0.00835709273815155
1772571706575855000,3.890855224609375,-0.030518531799316406,0.004004567861557007,-0.00814591720700264
1772571706585788400,3.900788330078125,-0.015885353088378906,0.003986284136772156,-0.01274595782160759
1772571706595692800,3.91069287109375,-0.001495361328125,-0.014866530895233154,0.006271488964557648
1772571706605623000,3.920623046875,-0.010889053344726562,-0.009862393140792847,-0.01280033215880394
1772571706615557600,3.9305576171875,-0.0012922286987304688,-0.0002330392599105835,-0.012719962745904922
1772571706625488600,3.940488525390625,0.012856483459472656,-0.004990890622138977,0.0015883836895227432
1772571706635422700,3.950422607421875,0.003223419189453125,0.00455726683139801,-0.017405427992343903
1772571706645353700,3.960353759765625,0.007880210876464844,0.013845369219779968,-0.007626324892044067
1772571706655324700,3.97032470703125,0.012456893920898438,0.013663262128829956,0.011307835578918457
1772571706665259800,3.980259765625,0.007544517517089844,-0.0008447170257568359,-0.003035861998796463
1772571706675154400,3.990154541015625,0.0027112960815429688,-0.01971830427646637,-0.01724349707365036
1772571706685085400,4.00008544921875,0.021497726440429688,-0.014532029628753662,-0.00746932253241539
1772571706695021600,4.010021484375,0.007012367248535156,-0.014242023229598999,0.006850585341453552
1772571706704953000,4.019953125,-0.0025224685668945312,-0.0186651349067688,0.0067069679498672485
1772571706714923000,4.029923095703125,-0.00247955322265625,0.0004273056983947754,0.0018592718988656998
1772571706724858400,4.0398583984375,0.02110576629638672,0.0003666728734970093,0.006403893232345581
1772571706734753500,4.04975341796875,0.006625175476074219,0.005218014121055603,0.006368741393089294
1772571706744685000,4.05968505859375,-0.0029010772705078125,0.005078554153442383,0.011047475039958954
1772571706754649600,4.069649658203125,-0.00756072998046875,0.0002319812774658203,0.02025100216269493
1772571706764584400,4.07958447265625,-0.012144088745117188,0.00027592480182647705,-0.0036611557006835938
1772571706774517200,4.089517333984375,0.0021829605102539062,-0.004389449954032898,0.0010767895728349686
1772571706784451800,4.099451904296875,0.011562347412109375,0.005148708820343018,0.0010271761566400528
1772571706794370600,4.10937060546875,0.016077041625976562,0.005110636353492737,-0.003629010170698166
1772571706804303400,4.119303466796875,0.0016841888427734375,-0.009153470396995544,0.0011106263846158981
1772571706814239500,4.129239501953125,0.0016603469848632812,0.014387235045433044,-0.008356746286153793
1772571706824172800,4.1391728515625,0.0016336441040039062,0.014093965291976929,0.001269342377781868
1772571706834128000,4.1491279296875,-0.0031032562255859375,0.009198367595672607,0.0012164395302534103
1772571706844063200,4.159063232421875,0.0016565322875976562,0.01851041615009308,-0.0035418830811977386
1772571706853950200,4.1689501953125,-0.01720905303955078,-0.009900927543640137,-0.00822075828909874
1772571706863881000,4.178880859375,-0.0075092315673828125,-0.004877939820289612,0.01072118803858757
1772571706873833200,4.188833251953125,-0.0026760101318359375,-0.00004048645496368408,0.005901433527469635
1772571706883766000,4.19876611328125,-0.012047767639160156,0.023449674248695374,0.00577140599489212
1772571706893697800,4.20869775390625,-0.0024309158325195312,0.008981183171272278,-0.003670141100883484
1772571706903630300,4.21863037109375,0.002315521240234375,-0.0192706435918808,0.0011714603751897812
1772571706913567000,4.22856689453125,-0.016561508178710938,0.009451553225517273,0.0011224839836359024
1772571706923500300,4.238500244140625,-0.0021638870239257812,0.00944344699382782,-0.0036342591047286987
1772571706933428500,4.248428466796875,-0.00212860107421875,0.009333834052085876,-0.013022534549236298
1772571706943361300,4.258361328125,0.00261688232421875,-0.0002923905849456787,-0.008027289062738419
1772571706953296600,4.268296630859375,-0.00213623046875,-0.0002393871545791626,0.0014942344278097153
1772571706963229400,4.2782294921875,0.007317543029785156,0.013836890459060669,0.010854844003915787
1772571706973161700,4.28816162109375,-0.00222015380859375,0.013552799820899963,0.010743532329797745
1772571706983094500,4.298094482421875,-0.0068912506103515625,-0.005560621619224548,0.0011178422719240189
1772571706993030100,4.308030029296875,0.0026397705078125,-0.0007115453481674194,-0.008349664509296417
1772571707002963500,4.31796337890625,0.0025930404663085938,0.01828378438949585,-0.0034323036670684814
1772571707012905200,4.3279052734375,0.0025491714477539062,0.00861002504825592,0.001405397430062294
1772571707022839000,4.337839111328125,0.007214546203613281,0.017932191491127014,-0.012669727206230164
1772571707032771000,4.34777099609375,0.011804580688476562,-0.0012542158365249634,-0.0029695481061935425
1772571707042705000,4.357704833984375,-0.0025167465209960938,0.008130371570587158,-0.00295175239443779
1772571707052627000,4.367626953125,0.0022325515747070312,0.01745980978012085,0.006482969969511032
1772571707062559500,4.3775595703125,0.016323089599609375,-0.0017187297344207764,0.015863938257098198
1772571707072504600,4.387504638671875,0.020757675170898438,-0.011059075593948364,0.01546863280236721
1772571707082438400,4.3974384765625,-0.003131866455078125,0.022133871912956238,0.005766421556472778
1772571707092359400,4.407359375,-0.0030775070190429688,0.00287783145904541,0.001035718247294426
1772571707102292000,4.4172919921875,0.006389617919921875,0.002878338098526001,-0.008425939828157425
1772571707112222200,4.42722216796875,0.001575469970703125,0.01219409704208374,0.015225762501358986
1772571707122154500,4.437154541015625,-0.012575149536132812,-0.021022439002990723,0.005626644939184189
1772571707132091000,4.4470908203125,0.011176109313964844,-0.0017892122268676758,0.000898381695151329
1772571707142023700,4.457023681640625,0.010988235473632812,-0.006420165300369263,-0.003958180546760559
1772571707151961000,4.466961181640625,0.01080322265625,-0.010973930358886719,0.005391918122768402
1772571707161894400,4.476894287109375,0.0012044906616210938,-0.020159751176834106,0.014590723440051079
1772571707171831000,4.4868310546875,-0.0035247802734375,-0.005649492144584656,0.00019453838467597961
1772571707181764600,4.4967646484375,0.015364646911621094,0.0040106624364852905,-0.013968409970402718
1772571707191685000,4.50668505859375,-0.0084381103515625,-0.0053240954875946045,-0.0043478310108184814
1772571707201617400,4.516617431640625,-0.017716407775878906,-0.005186885595321655,0.00020342320203781128
1772571707211556600,4.526556640625,0.010828971862792969,0.013782128691673279,0.004777796566486359
1772571707221489700,4.53648974609375,0.005936622619628906,-0.0004242360591888428,-0.000042108818888664246
1772571707231425300,4.54642529296875,0.0011272430419921875,0.009048506617546082,-0.004878554493188858
1772571707241358300,4.5563583984375,-0.017726898193359375,0.018363043665885925,0.009299082681536674
1772571707251283500,4.566283447265625,-0.008015632629394531,0.022813379764556885,0.004403844475746155
1772571707261216000,4.576216064453125,0.006244659423828125,0.01767142117023468,-0.009926076978445053
1772571707271150300,4.586150390625,0.01555633544921875,0.008007541298866272,-0.009893655776977539
1772571707281083000,4.596082763671875,0.0011692047119140625,0.02204802632331848,-0.00044232793152332306
1772571707291020500,4.6060205078125,-0.0035581588745117188,-0.011332780122756958,0.01356000266969204
1772571707300953600,4.61595361328125,-0.008206367492675781,0.0029287338256835938,-0.0007199347019195557
1772571707310885000,4.625885009765625,-0.017487525939941406,0.017053842544555664,-0.005445985123515129
1772571707320818200,4.635818115234375,0.0063457489013671875,-0.0020169317722320557,-0.005285631865262985
1772571707330746000,4.64574609375,0.0062408447265625,-0.01145392656326294,0.004187958315014839
1772571707340678400,4.655678466796875,0.0014295578002929688,0.007518202066421509,0.013505887240171432
1772571707350617300,4.665617431640625,-0.00330352783203125,-0.001976102590560913,-0.000773109495639801
1772571707360550700,4.675550537109375,0.010873794555664062,-0.0017937272787094116,-0.015016764402389526
1772571707370512600,4.6855126953125,0.005982398986816406,-0.011133342981338501,-0.0007763504981994629
1772571707380448800,4.69544873046875,-0.012953758239746094,-0.001482442021369934,0.013231569901108742
1772571707400296200,4.715296142578125,0.0013628005981445312,0.008076950907707214,0.0035727694630622864
1772571707410212600,4.725212646484375,-0.0033674240112304688,-0.015653669834136963,-0.015249429270625114
1772571707420144600,4.73514453125,0.010815620422363281,-0.029571369290351868,0.003913180902600288
1772571707430058000,4.74505810546875,0.0012187957763671875,-0.010296866297721863,0.013237984851002693
1772571707439988000,4.754988037109375,0.005906105041503906,0.004048973321914673,-0.010451551526784897
1772571707449953000,4.764953125,0.015225410461425781,-0.0007804185152053833,-0.0008897203952074051
1772571707459886600,4.774886474609375,-0.0038661956787109375,0.004090636968612671,-0.0010056570172309875
1772571707469811700,4.784811767578125,-0.0038051605224609375,0.01358899474143982,-0.010536734014749527
1772571707479712300,4.794712158203125,-0.0037412643432617188,0.00860092043876648,0.0037353038787841797
1772571707499587600,4.814587646484375,-0.003780364990234375,-0.015107870101928711,0.008319320157170296
1772571707509521200,4.824521240234375,-0.013134002685546875,-0.0007831454277038574,-0.00587102584540844
1772571707519449600,4.83444970703125,-0.008209228515625,0.008796781301498413,-0.0009905323386192322
1772571707529382700,4.844382568359375,-0.02690887451171875,-0.014844641089439392,0.008312409743666649
1772571707539347000,4.854346923828125,0.0017919540405273438,-0.005233362317085266,-0.005879836156964302
1772571707549283300,4.864283447265625,0.02530193328857422,0.004420846700668335,-0.000999143347144127
1772571707559205400,4.874205322265625,0.0013360977172851562,0.0043955594301223755,0.0036989152431488037
1772571707569140200,4.88414013671875,0.0013151168823242188,0.008977726101875305,0.0037091299891471863
1772571707579073800,4.89407373046875,-0.003414154052734375,0.008774623274803162,-0.01521875150501728
1772571707589008400,4.90400830078125,-0.012775421142578125,-0.005449250340461731,0.003941129893064499
1772571707598947800,4.91394775390625,0.015689849853515625,-0.005411624908447266,0.0039473362267017365
1772571707608883000,4.923883056640625,0.0013036727905273438,0.004042595624923706,-0.014880964532494545
1772571707618803700,4.9338037109375,0.0012826919555664062,-0.010203644633293152,-0.000536581501364708
1772571707628737500,4.943737548828125,-0.008154869079589844,-0.0006689280271530151,0.008763255551457405
1772571707638666800,4.953666748046875,0.0061054229736328125,-0.0006099492311477661,-0.010350104421377182
1772571707648600000,4.96360009765625,-0.008124351501464844,-0.0240945965051651,-0.005599763244390488
1772571707658538500,4.97353857421875,-0.00798797607421875,-0.00020290911197662354,0.008592113852500916
1772571707668472300,4.983472412109375,-0.0031480789184570312,-0.014277160167694092,-0.015224810689687729
1772571707678415400,4.993415283203125,0.0016117095947265625,-0.004573836922645569,-0.00548195093870163
1772571707688350000,5.003349853515625,-0.0219573974609375,-0.00455106794834137,0.004096241667866707
1772571707698251000,5.0132509765625,0.0019502639770507812,-0.0044275373220443726,-0.014837969094514847
1772571707708182300,5.023182373046875,0.011331558227539062,0.0005042552947998047,-0.010012786835432053
1772571707718145000,5.03314501953125,0.0017232894897460938,0.014670252799987793,-0.0005576219409704208
1772571707728079400,5.043079345703125,0.006403923034667969,0.004955083131790161,-0.0005800016224384308
1772571707738011000,5.053010986328125,0.015715599060058594,0.009527325630187988,0.008812958374619484
1772571707747945200,5.0629453125,-0.017507553100585938,-8.046627044677734e-7,0.003925804048776627
1772571707757866000,5.072865966796875,-0.012508392333984375,0.00004729628562927246,-0.01029481552541256
1772571707767798800,5.082798828125,0.0018253326416015625,-0.004613935947418213,-0.010051386430859566
1772571707777733000,5.092733154296875,-0.007625579833984375,0.005029603838920593,0.004111163318157196
1772571707787666000,5.102666015625,0.0066280364990234375,0.004892632365226746,0.008620502427220345
1772571707797573400,5.112573486328125,0.0018129348754882812,0.004657045006752014,0.008447457104921341
1772571707807504000,5.12250390625,0.0017833709716796875,-0.00018198788166046143,-0.005846323445439339
1772571707817437000,5.13243701171875,0.0017499923706054688,0.009387671947479248,0.008347447961568832
1772571707827367700,5.14236767578125,-0.012407302856445312,0.004672035574913025,-0.001137029379606247
1772571707837311700,5.152311767578125,-0.007493019104003906,0.014059245586395264,0.003660213202238083
1772571707847243800,5.162243896484375,0.0020456314086914062,0.0045568495988845825,-0.0011410582810640335
1772571707857169700,5.172169677734375,0.01613616943359375,0.009237602353096008,0.008366940543055534
1772571707867101200,5.18210107421875,-0.0076770782470703125,0.009131789207458496,-0.0012191366404294968
1772571707877033000,5.192032958984375,-0.012256622314453125,0.008926749229431152,-0.010643215849995613
1772571707886964500,5.201964599609375,-0.0026311874389648438,-0.0007936209440231323,0.022464878857135773
1772571707896899300,5.2118994140625,-0.00258636474609375,0.003875046968460083,0.01264382153749466
1772571707906831000,5.2218310546875,-0.0025424957275390625,-0.01036815345287323,-0.006428493186831474
1772571707916767200,5.231767333984375,0.006915092468261719,0.018104389309883118,0.0029650554060935974
1772571707926699500,5.241699462890625,0.011505126953125,0.00853489339351654,0.002784905955195427
1772571707936630300,5.25163037109375,0.016020774841308594,-0.0009761005640029907,0.007419874891638756
1772571707956499000,5.2714990234375,0.02067089080810547,0.013254061341285706,0.0025601107627153397
1772571707966431500,5.281431396484375,0.02974224090576172,0.0036641210317611694,-0.002220604568719864
1772571707976394500,5.29139453125,0.015119552612304688,-0.0010572224855422974,-0.002111528068780899
1772571707986330000,5.301330078125,0.014866828918457031,0.013134077191352844,-0.0021080374717712402
1772571707996254200,5.311254150390625,-0.018342018127441406,-0.001162499189376831,0.0026062577962875366
1772571708006188800,5.321188720703125,-0.013326644897460938,0.008220627903938293,-0.002278793603181839
1772571708016116000,5.331115966796875,0.01985931396484375,0.007928967475891113,0.00263858400285244
1772571708026049800,5.3410498046875,0.033654212951660156,0.007844984531402588,-0.00654810294508934
1772571708035981300,5.350981201171875,-0.004574775695800781,0.0029527992010116577,-0.006364881992340088
1772571708045915000,5.360914794921875,0.009633064270019531,-0.011477679014205933,-0.001577422022819519
1772571708055848200,5.37084814453125,-0.004651069641113281,-0.006630644202232361,0.0033328793942928314
1772571708065781800,5.38078173828125,0.0001316070556640625,-0.006370946764945984,-0.006171565502882004
1772571708075731200,5.390731201171875,0.004836082458496094,-0.01092541217803955,0.0032152459025382996
1772571708085666300,5.400666259765625,0.0047607421875,0.0031269192695617676,-0.010890008881688118
1772571708095585500,5.41058544921875,-0.018860816955566406,0.017147213220596313,-0.006132753565907478
1772571708105519000,5.42051904296875,-0.009133338928222656,-0.0018237829208374023,-0.0014549735933542252
1772571708115445000,5.430445068359375,0.00043487548828125,-0.006453841924667358,-0.015585945919156075
1772571708135314400,5.450314453125,0.0005855560302734375,0.0026345551013946533,-0.0009271372109651566
1772571708145247700,5.460247802734375,0.0005769729614257812,-0.011588290333747864,-0.0008398406207561493
1772571708155198000,5.470197998046875,-0.01355743408203125,0.007385969161987305,-0.0007538739591836929
1772571708165132800,5.4801328125,0.005501747131347656,0.0073113590478897095,0.00864865817129612
1772571708175040300,5.490040283203125,-0.008714675903320312,-0.002280697226524353,-0.010359246283769608
1772571708184972300,5.49997216796875,0.010266304016113281,0.0024130791425704956,-0.0007966142147779465
1772571708194923800,5.509923828125,-0.008740425109863281,0.0024217218160629272,-0.02435130998492241
1772571708204857900,5.51985791015625,-0.013302803039550781,0.007036164402961731,-0.005145056173205376
1772571708214781700,5.52978173828125,0.010460853576660156,0.006966695189476013,0.013743380084633827
1772571708224714800,5.53971484375,0.014994621276855469,0.002190142869949341,-0.009956803172826767
1772571708234642700,5.549642578125,0.005326271057128906,0.006910368800163269,-0.00040312111377716064
1772571708244575200,5.5595751953125,0.009946823120117188,0.020867526531219482,-0.005238020792603493
1772571708254516200,5.56951611328125,0.00036334991455078125,0.015859335660934448,-0.005180215463042259
1772571708264449500,5.579449462890625,0.000354766845703125,-0.003089889883995056,-0.009629316627979279
1772571708274381000,5.589381103515625,-0.004359245300292969,0.006325975060462952,-0.004787443205714226
1772571708284314400,5.599314453125,-0.004282951354980469,0.0013578087091445923,0.004682324826717377
1772571708294243600,5.60924365234375,-0.01833820343017578,-0.012742146849632263,-0.000030236318707466125
1772571708304176400,5.61917626953125,-0.003911018371582031,0.006454050540924072,0.018775172531604767
1772571708314105900,5.62910595703125,-0.0038471221923828125,-0.0030228793621063232,0.009013347327709198
1772571708324038400,5.639038330078125,0.010341644287109375,-0.0076332539319992065,-0.00048448704183101654
1772571708333970000,5.648969970703125,0.010168075561523438,-0.0027492940425872803,-0.0052144695073366165
1772571708343902200,5.658902099609375,0.0052928924560546875,-0.0028582364320755005,-0.0052605848759412766
1772571708353827800,5.668827880859375,0.0052051544189453125,-0.0028637200593948364,-0.0004937611520290375
1772571708363759400,5.67875927734375,0.00040912628173828125,0.0019404441118240356,0.004191340878605843
1772571708373700600,5.68870068359375,0.0051097869873046875,-0.007461190223693848,-0.0004160739481449127
1772571708383633400,5.69863330078125,0.000316619873046875,-0.016807183623313904,-0.009754486382007599
1772571708393577700,5.70857763671875,-0.009106636047363281,0.011772707104682922,0.004504367709159851
1772571708403511600,5.718511474609375,-0.004245758056640625,0.016231924295425415,-0.0003087669610977173
1772571708413442000,5.728442138671875,0.0005340576171875,0.006490737199783325,-0.009955093264579773
1772571708423375600,5.738375732421875,0.0005245208740234375,-0.002987101674079895,-0.00030466727912425995
1772571708433312800,5.748312744140625,-0.004193305969238281,0.020653843879699707,0.004379522055387497
1772571708443246600,5.75824658203125,-0.013541221618652344,0.0015233755111694336,0.004277057945728302
1772571708453173500,5.768173583984375,-0.0039043426513671875,0.01116548478603363,-0.009951714426279068
1772571708463106600,5.7781064453125,-0.008548736572265625,0.0016100406646728516,0.004308197647333145
1772571708473032700,5.78803271484375,0.0057201385498046875,0.0015294551849365234,-0.0052147600799798965
1772571708482965200,5.79796533203125,0.005623817443847656,0.02509477734565735,-0.005058277398347855
1772571708492904200,5.807904296875,0.0008172988891601562,0.015408888459205627,0.004413723945617676
1772571708502797000,5.817797119140625,0.0008058547973632812,-0.0037352442741394043,-0.0002968907356262207
1772571708522663200,5.8376630859375,0.010199546813964844,-0.0035599470138549805,0.004388120025396347
1772571708532641300,5.847641357421875,-0.00409698486328125,-0.008161157369613647,-0.00032372400164604187
1772571708542578000,5.857577880859375,-0.004029273986816406,0.0014402121305465698,-0.0003478098660707474
1772571708552493600,5.86749365234375,-0.0039615631103515625,0.006071746349334717,0.00423603318631649
1772571708562428000,5.877427978515625,0.00081634521484375,0.015232950448989868,0.004133690148591995
1772571708572363300,5.88736328125,-0.003907203674316406,0.000901445746421814,-0.0053818728774785995
1772571708582297900,5.8972978515625,0.005576133728027344,-0.00858423113822937,-0.010032514110207558
1772571708592230400,5.90723046875,0.014903068542480469,0.0008209347724914551,-0.0005834270268678665
1772571708602164700,5.917164794921875,0.01465606689453125,0.0007537901401519775,0.013419007882475853
1772571708612097000,5.927096923828125,0.0049953460693359375,-0.01343768835067749,0.0036473944783210754
1772571708622031000,5.937031005859375,-0.004506111145019531,0.01037771999835968,0.008267983794212341
1772571708631970800,5.946970703125,0.000278472900390625,0.0007343888282775879,-0.006025092676281929
1772571708641905700,5.95690576171875,0.000274658203125,-0.01817488670349121,0.008193651214241982
1772571708651802400,5.96680224609375,-0.004439353942871094,-0.00841626524925232,0.00804966315627098
1772571708661737000,5.976737060546875,0.005053520202636719,0.010495409369468689,-0.010827265679836273
1772571708671693800,5.98669384765625,-0.009157180786132812,0.005650624632835388,0.012888681143522263
1772571708681630500,5.99663037109375,0.0004119873046875,0.015012308955192566,-0.0013580229133367538
1772571708691556600,6.006556640625,0.005112648010253906,0.01950901746749878,0.003464728593826294
1772571708701492200,6.0164921875,0.005026817321777344,0.00038814544677734375,-0.015333512797951698
1772571708711425000,6.026425048828125,0.00023365020751953125,0.005129233002662659,-0.0008560456335544586
1772571708721360100,6.036360107421875,-0.009188652038574219,-0.0043344646692276,-0.000745624303817749
1772571708731284700,6.04628466796875,-0.004324913024902344,0.00038376450538635254,0.004069173708558083
1772571708741219000,6.056218994140625,-0.01837921142578125,0.0004160255193710327,0.008702492341399193
1772571708751151400,6.0661513671875,0.0007619857788085938,0.005055040121078491,-0.0008671879768371582
1772571708761085400,6.07608544921875,-0.01808452606201172,0.014325335621833801,0.0038484036922454834
1772571708771007000,6.086007080078125,0.0010519027709960938,0.014023691415786743,0.0036733578890562057
1772571708780939800,6.095939697265625,0.001033782958984375,0.004411414265632629,0.0036046821624040604
1772571708790893800,6.105893798828125,-0.008401870727539062,-0.005040556192398071,0.003537137061357498
1772571708800828700,6.11582861328125,0.0011568069458007812,-0.014436081051826477,0.003574330359697342
1772571708810755000,6.125755126953125,0.010555267333984375,-0.014258086681365967,-0.01532706432044506
1772571708820689200,6.135689208984375,0.005671501159667969,0.00945986807346344,-0.019787659868597984
1772571708830627600,6.145627685546875,0.0008678436279296875,-0.004785224795341492,-0.0052404627203941345
1772571708840562200,6.155562255859375,-0.0038557052612304688,-0.009375408291816711,-0.00505925714969635
1772571708850459000,6.165458984375,0.0009164810180664062,-0.009180650115013123,0.00453575886785984
1772571708860389400,6.175389404296875,0.0009021759033203125,-0.02321605384349823,0.004351431503891945
1772571708870324500,6.185324462890625,0.005597114562988281,-0.013474598526954651,-0.005145734176039696
1772571708880255700,6.195255859375,-0.003916740417480469,0.0057236552238464355,0.008952533826231956
1772571708890217700,6.2052177734375,0.010274887084960938,0.014981687068939209,-0.0007297620177268982
1772571708900152000,6.215152099609375,-0.0040187835693359375,0.0004422217607498169,0.00388222374022007
1772571708910082000,6.22508203125,-0.008656501770019531,0.0002712458372116089,0.003913614898920059
1772571708920016000,6.235015869140625,0.000904083251953125,0.019139453768730164,-0.010287120938301086
1772571708929943600,6.244943603515625,0.0008878707885742188,0.000024721026420593262,-0.010123118758201599
1772571708939876900,6.254876953125,-0.003833770751953125,-0.00945553183555603,-0.014569142833352089
1772571708949810400,6.264810546875,0.0009393692016601562,-0.004651680588722229,-0.02374868467450142
1772571708959743700,6.27474365234375,0.005631446838378906,-0.0045358240604400635,-0.01394541934132576
1772571708969689600,6.284689697265625,0.0008258819580078125,0.014514297246932983,-0.008910425007343292
1772571708979624200,6.294624267578125,0.005522727966308594,-0.004624307155609131,-0.00395718589425087
1772571708989522200,6.304522216796875,-0.003987312316894531,0.00019988417625427246,-0.003999609500169754
1772571708999453200,6.314453125,-0.018047332763671875,-0.013890579342842102,0.010084092617034912
1772571709009385700,6.3243857421875,0.001087188720703125,0.000504717230796814,0.00980273075401783
1772571709019316700,6.334316650390625,0.015195846557617188,0.009850546717643738,0.0049210358411073685
1772571709029284000,6.3442841796875,0.0102386474609375,-0.014020800590515137,0.00032853707671165466
1772571709039219000,6.354218994140625,0.005358695983886719,0.01450277864933014,0.00031333230435848236
1772571709049115400,6.364115478515625,-0.004153251647949219,0.005084246397018433,0.00030068494379520416
1772571709059046400,6.37404638671875,0.005330085754394531,0.005139440298080444,0.0049968138337135315
1772571709068985000,6.383985107421875,0.005246162414550781,0.00489005446434021,0.0004024915397167206
1772571709078916900,6.393916748046875,0.019283294677734375,0.0001382976770401001,-0.0043225400149822235
1772571709088849000,6.403848876953125,0.0048351287841796875,0.004883244633674622,0.014475120231509209
1772571709098780700,6.41378076171875,-0.009368896484375,0.009447827935218811,-0.004506660625338554
1772571709108716300,6.42371630859375,0.00020313262939453125,-0.00008784234523773193,-0.00914531759917736
1772571709118648600,6.433648681640625,0.009615898132324219,-0.009465232491493225,-0.009002627804875374
1772571709128582700,6.443582763671875,0.009454727172851562,-0.0045608580112457275,-0.0042573232203722
1772571709138515000,6.453514892578125,-0.0001163482666015625,0.00005945563316345215,0.0005124974995851517
1772571709148481800,6.463481689453125,-0.00011539459228515625,-0.009319931268692017,0.0005981344729661942
1772571709158417400,6.47341748046875,-0.014238357543945312,0.009606793522834778,0.0005784314125776291
1772571709168339000,6.4833388671875,0.009542465209960938,0.009384095668792725,0.014687122777104378
1772571709178273300,6.493273193359375,0.01409149169921875,-0.01427660882472992,0.005119021981954575
1772571709188203500,6.50320361328125,-0.0049762725830078125,-0.004684120416641235,-0.004289647564291954
1772571709198137300,6.513137451171875,-0.009599685668945312,0.00003987550735473633,-0.004022959619760513
1772571709208066600,6.523066650390625,-0.009440422058105469,0.014203637838363647,-0.0038620829582214355
1772571709218000100,6.533000244140625,-0.004570960998535156,0.013802602887153625,-0.008516043424606323
1772571709227933200,6.54293310546875,-0.009202003479003906,-0.0053244829177856445,0.0009343121200799942
1772571709237866800,6.55286669921875,-0.009049415588378906,-0.0004884898662567139,0.005721196532249451
1772571709247797800,6.5627978515625,-0.008897781372070312,-0.0005433112382888794,-0.0038010776042938232
1772571709257731000,6.57273095703125,0.0006666183471679688,-0.00991278886795044,-0.013061057776212692
1772571709267686400,6.582686279296875,0.014780044555664062,-0.000291973352432251,-0.008042998611927032
1772571709277621800,6.592621826171875,-0.004302024841308594,-0.023791402578353882,0.010917969048023224
1772571709287541000,6.602541015625,0.009894371032714844,-0.009230509400367737,-0.003397218883037567
1772571709297474600,6.612474609375,-0.004399299621582031,0.005189090967178345,-0.012765239924192429
1772571709307396400,6.622396240234375,-0.013742446899414062,0.005040019750595093,-0.003142744302749634
1772571709317329200,6.6323291015625,0.010031700134277344,0.00018477439880371094,-0.007705111056566238
1772571709327268400,6.642268310546875,-0.008971214294433594,-0.00448821485042572,0.0018330346792936325
1772571709337201400,6.652201416015625,-0.022945404052734375,0.00023253262042999268,0.006604932248592377
1772571709347139000,6.66213916015625,0.005687713623046875,-0.013858452439308167,0.006487391889095306
1772571709357073000,6.672072998046875,0.00559234619140625,-0.00888022780418396,0.0017645303159952164
1772571709367000800,6.682000732421875,0.010207176208496094,0.0007236003875732422,0.011144857853651047
1772571709376934100,6.69193408203125,0.010036468505859375,0.0054587870836257935,0.0061417557299137115
1772571709386863400,6.70186328125,0.0051593780517578125,0.0006978511810302734,-0.0033852458000183105
1772571709396796200,6.711796142578125,0.0003662109375,0.0006238967180252075,-0.02216837927699089
1772571709406732800,6.72173291015625,-0.013768196105957031,0.00546245276927948,0.0017388779670000076
1772571709416666000,6.731666015625,0.0005884170532226562,0.014725953340530396,0.0064110346138477325
1772571709426594600,6.741594482421875,-0.008837699890136719,0.00500035285949707,0.0015858691185712814
1772571709436527400,6.75152734375,0.010146141052246094,-0.004563167691230774,-0.007766176015138626
1772571709446462500,6.76146240234375,0.0005588531494140625,-0.023282811045646667,0.0016716588288545609
1772571709456395500,6.7713955078125,0.0005502700805664062,0.0005851984024047852,-0.007783111184835434
1772571709466326000,6.781325927734375,0.0052490234375,-0.013511359691619873,-0.00755729153752327
1772571709476258800,6.7912587890625,0.009870529174804688,0.0102958083152771,0.006891869008541107
1772571709486196000,6.801196044921875,0.004998207092285156,-0.004063919186592102,-0.007455315440893173
1772571709496105200,6.811105224609375,0.00020694732666015625,0.010067448019981384,0.006789546459913254
1772571709515991800,6.83099169921875,-0.013925552368164062,0.014498859643936157,-0.0025872550904750824
1772571709525927000,6.840927001953125,-0.004277229309082031,-0.009246736764907837,0.002159280702471733
1772571709535855000,6.850855224609375,0.005209922790527344,-0.01376292109489441,0.011429499834775925
1772571709545789400,6.86078955078125,-0.0042934417724609375,-0.008887946605682373,0.0018120910972356796
1772571709555727400,6.870727294921875,0.005196571350097656,0.014740481972694397,-0.0029341615736484528
1772571709565662200,6.880662109375,0.0004024505615234375,0.005014598369598389,-0.0028949901461601257
1772571709575587600,6.890587646484375,0.005103111267089844,0.004969313740730286,-0.002957690507173538
1772571709585521200,6.900521240234375,0.005016326904296875,-0.009200960397720337,0.006296426057815552
1772571709595448600,6.910448486328125,0.009640693664550781,0.00040821731090545654,0.0013741906732320786
1772571709605381600,6.920381591796875,0.0047702789306640625,0.0004397481679916382,0.005948841571807861
1772571709615318800,6.93031884765625,-0.000019073486328125,-0.008946418762207031,-0.008184459060430527
1772571709625252400,6.94025244140625,-0.0000152587890625,0.005164161324501038,0.006169319152832031
1772571709635186000,6.95018603515625,-0.009430885314941406,0.009724035859107971,0.010666314512491226
1772571709645119200,6.960119140625,0.00014209747314453125,-0.004525497555732727,0.0010616276413202286
1772571709655046000,6.9700458984375,0.009558677673339844,-0.013929873704910278,-0.012988053262233734
1772571709664979000,6.97997900390625,-0.014142036437988281,-0.02317720651626587,-0.012675456702709198
1772571709674915600,6.98991552734375,-0.004487037658691406,-0.004019573330879211,0.006461795419454575
1772571709684848600,6.9998486328125,0.005003929138183594,-0.0039139240980148315,0.0158651415258646
1772571709694755300,7.00975537109375,-0.013915061950683594,-0.013227328658103943,-0.00324108824133873
1772571709704686000,7.01968603515625,-0.0042667388916015625,-0.017676830291748047,-0.003295809030532837
1772571709714648600,7.029648681640625,-0.0041942596435546875,-0.012736469507217407,-0.00795695185661316
1772571709724582400,7.03958251953125,0.019417762756347656,0.006348833441734314,0.0015853960067033768
1772571709734511000,7.049510986328125,0.023804664611816406,0.0061807334423065186,0.00646490603685379
1772571709744444400,7.0594443359375,-0.009554862976074219,-0.0031994879245758057,0.006451018154621124
1772571709754377700,7.069377685546875,-0.0188140869140625,0.015726536512374878,-0.007791992276906967
1772571709764311000,7.07931103515625,0.00504302978515625,0.0012759864330291748,-0.002960987389087677
1772571709774245000,7.0892451171875,-0.0044574737548828125,0.010609596967697144,0.015917545184493065
1772571709784178400,7.099178466796875,-0.013799667358398438,0.010370120406150818,-0.0032908879220485687
1772571709794110000,7.10910986328125,-0.004153251647949219,0.005527332425117493,-0.007952086627483368
1772571709804043000,7.11904296875,0.005331993103027344,0.010182127356529236,0.0062965042889118195
1772571709813986000,7.128986083984375,0.0005340576171875,-0.008783578872680664,-0.003336772322654724
1772571709823920400,7.13892041015625,-0.013601303100585938,0.0008186548948287964,0.0014199744910001755
1772571709833819100,7.148819091796875,-0.003955841064453125,0.0007422566413879395,-0.003221016377210617
1772571709843750000,7.15875,0.0055294036865234375,0.010084450244903564,0.006343681365251541
1772571709853725700,7.1687255859375,-0.008691787719726562,0.0006397366523742676,0.015647655352950096
1772571709873576200,7.188576171875,-0.00377655029296875,0.0006160587072372437,-0.00809672474861145
1772571709883509200,7.19850927734375,0.015119552612304688,-0.004063472151756287,-0.0032561011612415314
1772571709893434400,7.208434326171875,0.000743865966796875,0.005358844995498657,0.011017721146345139
1772571709903367000,7.218366943359375,-0.013397216796875,-0.022842079401016235,0.0061180442571640015
1772571709913309200,7.22830908203125,-0.0084686279296875,0.005930259823799133,-0.003509972244501114
1772571709923242500,7.238242431640625,0.010507583618164062,0.029311418533325195,-0.008169785141944885
1772571709933171700,7.248171630859375,0.019750595092773438,-0.008908480405807495,-0.008041072636842728
1772571709943104800,7.258104736328125,0.0005846023559570312,0.010214343667030334,0.0016039814800024033
1772571709953033700,7.26803369140625,0.00057220458984375,0.014892607927322388,-0.003138795495033264
1772571709962966300,7.27796630859375,0.0052700042724609375,0.0005569308996200562,0.006422281265258789
1772571709972918300,7.287918212890625,-0.008944511413574219,0.0005860328674316406,0.015722686424851418
1772571709982852900,7.297852783203125,-0.004084587097167969,0.000513613224029541,0.010845914483070374
1772571709992802000,7.307802001953125,0.0053997039794921875,-0.004165142774581909,-0.008178967982530594
1772571710002738000,7.317738037109375,0.0006017684936523438,-0.004158720374107361,-0.008052382618188858
1772571710012636200,7.32763623046875,0.005301475524902344,-0.008860096335411072,-0.007923342287540436
1772571710022568200,7.337568115234375,-0.01833057403564453,0.005452007055282593,-0.012406039983034134
1772571710032510700,7.3475107421875,0.005517005920410156,0.005399838089942932,0.011336233466863632
1772571710042444000,7.357444091796875,0.0007171630859375,0.0005385875701904297,0.006431248039007187
1772571710052361500,7.367361572265625,-0.008710861206054688,0.00046671926975250244,0.0016057547181844711
1772571710062293000,7.37729296875,-0.0038595199584960938,0.014724671840667725,-0.007845647633075714
1772571710072239400,7.3872392578125,-0.008504867553710938,0.005101099610328674,-0.00782151147723198
1772571710082172400,7.39717236328125,0.0010528564453125,0.005054742097854614,0.011135764420032501
1772571710092094000,7.407093994140625,0.010454177856445312,0.00019900500774383545,-0.0077927373349666595
1772571710102025700,7.417025634765625,0.0008649826049804688,-0.004575878381729126,-0.0075712911784648895
1772571710111964000,7.4269638671875,-0.0038585662841796875,0.00024731457233428955,-0.007353480905294418
1772571710121896400,7.436896484375,-0.0037927627563476562,0.00018021464347839355,-0.002430759370326996
1772571710131831000,7.4468310546875,0.010393142700195312,0.005025774240493774,-0.007106296718120575
1772571710141763800,7.456763916015625,-0.003910064697265625,0.009790569543838501,0.00232057087123394
1772571710151690500,7.4666904296875,-0.0038461685180664062,0.023791790008544922,0.011691629886627197
1772571710161622800,7.476622802734375,0.0009260177612304688,0.009308487176895142,0.006783004850149155
1772571710171539700,7.486539794921875,0.0009069442749023438,-0.00012412667274475098,0.0018527787178754807
1772571710181470500,7.496470458984375,-0.003814697265625,-0.0001843571662902832,0.006626598536968231
1772571710191407900,7.506407958984375,0.0103759765625,-0.014369741082191467,-0.0029084868729114532
1772571710201339400,7.51633935546875,0.0007848739624023438,0.00474277138710022,0.00644843652844429
1772571710211273700,7.526273681640625,-0.013355255126953125,-0.000006213784217834473,-0.003184996545314789
1772571710221205200,7.536205322265625,-0.013134002685546875,-0.014093562960624695,0.006376832723617554
1772571710231138300,7.54613818359375,-0.008207321166992188,-0.01852893829345703,0.0015522334724664688
1772571710241070000,7.556070068359375,-0.00336456298828125,-0.003954067826271057,0.0015211794525384903
1772571710250999800,7.565999755859375,-0.0033111572265625,0.000961005687713623,0.006201501935720444
1772571710260931600,7.575931640625,-0.0032548904418945312,-0.013243421912193298,-0.0034277811646461487
1772571710270864600,7.58586474609375,-0.007912635803222656,-0.01288306713104248,0.0059355199337005615
1772571710280796400,7.59579638671875,0.0016355514526367188,-0.003212854266166687,-0.008298899978399277
1772571710290729200,7.605729248046875,-0.0031032562255859375,-0.01714545488357544,0.0059554800391197205
1772571710300661000,7.615660888671875,0.006366729736328125,0.0019117146730422974,-0.0035706758499145508
1772571710310598000,7.625597900390625,0.0015506744384765625,0.016044318675994873,-0.008227214217185974
1772571710320530200,7.6355302734375,-0.0031862258911132812,0.015916526317596436,0.006127260625362396
1772571710330461000,7.6454609375,-0.007838249206542969,0.010778754949569702,-0.003399498760700226
1772571710340393200,7.655393310546875,-0.00299835205078125,-0.008297577500343323,-0.01747380942106247
1772571710350344000,7.665343994140625,0.01588153839111328,0.01562570035457611,0.006456661969423294
1772571710360277800,7.67527783203125,-0.00792694091796875,0.0012781322002410889,0.010948877781629562
1772571710370271200,7.685271240234375,-0.0030851364135742188,0.0011941492557525635,0.0013439860194921494
1772571710380211200,7.695211181640625,0.011091232299804688,0.01063045859336853,-0.0128093883395195
1772571710390085000,7.705085205078125,-0.0032186508178710938,-0.008443042635917664,-0.012601051479578018
1772571710400018400,7.715018310546875,0.010959625244140625,-0.0035554170608520508,0.001826329156756401
1772571710409955000,7.724955078125,-0.012766838073730469,-0.003457486629486084,-0.003021497279405594
1772571710419888600,7.734888671875,-0.007846832275390625,0.006056308746337891,-0.01229221373796463
1772571710429817600,7.744817626953125,0.020532608032226562,-0.008030161261558533,-0.012092530727386475
1772571710439751000,7.7547509765625,0.0013551712036132812,-0.007857665419578552,0.006935931742191315
1772571710449692200,7.764692138671875,0.0060405731201171875,0.006438106298446655,-0.0026020556688308716
1772571710459626000,7.7746259765625,0.024773597717285156,-0.0030477195978164673,-0.002667456865310669
1772571710469548300,7.78454833984375,-0.0038900375366210938,0.01577453315258026,0.0019746962934732437
1772571710479481000,7.794481201171875,0.015012741088867188,-0.003486350178718567,0.011353779584169388
1772571710489420800,7.8044208984375,0.0053462982177734375,-0.012908130884170532,0.00634712353348732
1772571710499354400,7.814354248046875,0.00525665283203125,-0.003237500786781311,0.010940216481685638
1772571710509282600,7.824282470703125,-0.004246711730957031,-0.0032461732625961304,0.0015357639640569687
1772571710519215400,7.83421533203125,-0.008885383605957031,0.010972380638122559,0.0016040187329053879
1772571710529144800,7.844144775390625,0.010096549987792969,0.0014112889766693115,0.0015720929950475693
1772571710539077600,7.85407763671875,-0.0041980743408203125,0.006135344505310059,-0.017293673008680344
1772571710549013200,7.86401318359375,0.0005826950073242188,-0.003447100520133972,0.006629135459661484
1772571710558946300,7.8739462890625,-0.0041351318359375,0.005964875221252441,0.006511196494102478
1772571710568878800,7.88387890625,-0.008772850036621094,0.005802810192108154,-0.0029206648468971252
1772571710578811600,7.893811767578125,-0.013339042663574219,-0.008280053734779358,-0.0076916031539440155
1772571710588740400,7.903740234375,-0.0037031173706054688,-0.0032935738563537598,-0.002963528037071228
1772571710598673000,7.9136728515625,0.0010662078857421875,0.010926097631454468,0.001789262518286705
1772571710608611000,7.923611083984375,0.010464668273925781,0.006074056029319763,-0.007665202021598816
1772571710618544000,7.933544189453125,-0.013256072998046875,0.0108213871717453,0.006479572504758835
1772571710628487400,7.9434873046875,0.0010900497436523438,-0.008154988288879395,0.001653255894780159
1772571710638421500,7.95342138671875,0.0057811737060546875,0.0013354569673538208,-0.007798939943313599
1772571710648337700,7.963337646484375,-0.013150215148925781,-0.008065059781074524,0.006451640278100967
1772571710658270000,7.97327001953125,-0.008225440979003906,-0.017207875847816467,0.00633665919303894
1772571710668203500,7.98320361328125,-0.012796401977539062,-0.007566884160041809,0.001512741670012474
1772571710678135800,7.9931357421875,-0.017294883728027344,0.006825283169746399,0.015608111396431923
1772571710688080100,8.003080078125,0.011243820190429688,0.002041637897491455,0.005821920931339264
1772571710698013700,8.013013671875,0.011053085327148438,-0.007269620895385742,0.010223422199487686
1772571710707935500,8.022935546875,0.015576362609863281,0.0023073405027389526,0.01936158910393715
1772571710717868000,8.032867919921875,0.005898475646972656,0.021141916513442993,0.009614253416657448
1772571710727804400,8.042804443359374,0.0010957717895507812,0.0017911642789840698,0.00013070926070213318
1772571710737737200,8.0527373046875,-0.008340835571289062,0.0017999708652496338,0.009538263082504272
1772571710747668500,8.06266845703125,0.0012140274047851562,0.006517201662063599,-0.004855223000049591
1772571710757601000,8.07260107421875,-0.017641067504882812,-0.002970263361930847,-0.00007542222738265991
1772571710767511000,8.082510986328124,-0.0032205581665039062,-0.00769120454788208,0.009340090677142143
1772571710777441300,8.092441162109376,0.006249427795410156,0.006601393222808838,0.009176969528198242
1772571710787398400,8.1023984375,-0.00327301025390625,-0.0028873831033706665,0.00430569052696228
1772571710797331500,8.11233154296875,0.010909080505371094,0.006515279412269592,-0.0003808215260505676
1772571710817148000,8.13214794921875,-0.022180557250976562,0.006319865584373474,0.004244910553097725
1772571710827116300,8.1421162109375,-0.0029745101928710938,0.006151989102363586,-0.00043798796832561493
1772571710846983400,8.1619833984375,-0.007662773132324219,0.005925685167312622,-0.0002373829483985901
1772571710856934700,8.1719345703125,0.020715713500976562,0.010574579238891602,0.004469968378543854
1772571710866870000,8.1818701171875,0.02036762237548828,0.019955500960350037,-0.009636444970965385
1772571710876795600,8.191795654296875,-0.0035161972045898438,-0.0038814395666122437,-0.004875918850302696
1772571710886730000,8.20172998046875,0.0059566497802734375,-0.00838536024093628,-0.004802107810974121
1772571710896670000,8.211669921875,-0.0035610198974609375,0.0012102574110031128,-0.00012230873107910156
1772571710906604800,8.221604736328125,0.0012063980102539062,-0.0034798532724380493,-0.00012772716581821442
1772571710916511700,8.23151171875,0.0011854171752929688,-0.003383934497833252,0.009380673989653587
1772571710936391200,8.25139111328125,0.0010662078857421875,-0.012457668781280518,0.009212348610162735
1772571710946326800,8.261326904296874,0.0010499954223632812,-0.0028948932886123657,-0.00025998614728450775
1772571710956267000,8.27126708984375,-0.008383750915527344,-0.007618248462677002,-0.004973966628313065
1772571710966203100,8.281203125,0.0011749267578125,0.015988722443580627,-0.00009085610508918762
1772571710976120800,8.291120849609374,0.010571479797363281,-0.007782444357872009,-0.004807636141777039
1772571710986055200,8.30105517578125,-0.013148307800292969,0.006511688232421875,0.004682222381234169
1772571710995989200,8.3109892578125,-0.00821685791015625,-0.007886260747909546,0.009307583793997765
1772571711005923300,8.32092333984375,0.0013380050659179688,-0.003109186887741089,0.013851335272192955
1772571711015858700,8.330858642578125,-0.0033941268920898438,0.01110677421092987,-0.005223611369729042
1772571711025793000,8.34079296875,0.0060787200927734375,0.006251707673072815,-0.01456119492650032
1772571711035727000,8.35072705078125,0.005976676940917969,0.006186172366142273,-0.009718677029013634
1772571711045661400,8.360661376953125,0.0058765411376953125,-0.0032954663038253784,-0.0048555638641119
1772571711055604000,8.37060400390625,0.0010709762573242188,-0.012720748782157898,-0.004885764792561531
1772571711065539000,8.3805390625,-0.00365447998046875,0.00626295804977417,-0.00962170772254467
1772571711075455500,8.39045556640625,0.0011138916015625,0.029740124940872192,-0.009569916874170303
1772571711085388800,8.400388916015626,-0.008322715759277344,0.005740135908126831,0.004707906395196915
1772571711095330300,8.410330322265626,-0.0034761428833007812,-0.0037340372800827026,0.000014776363968849182
1772571711105264400,8.420264404296875,0.024832725524902344,-0.003633469343185425,0.0000048074871301651
1772571711115183000,8.43018310546875,0.005585670471191406,0.0010724961757659912,0.004701351746916771
1772571711125115600,8.44011572265625,0.0007829666137695312,0.015218764543533325,-0.0047026127576828
1772571711135049500,8.450049560546875,-0.013360023498535156,-0.017855077981948853,0.009392775595188141
1772571711144982000,8.45998193359375,0.0009870529174804688,0.0013155341148376465,-0.00489700585603714
1772571711154918100,8.469918212890626,-0.0037374496459960938,0.0012309402227401733,-0.00011425279080867767
1772571711164851200,8.479851318359374,0.010451316833496094,-0.012978315353393555,-0.009640557691454887
1772571711174779400,8.489779296875,0.014985084533691406,-0.012723371386528015,0.004638446494936943
1772571711184712000,8.4997119140625,0.014734268188476562,-0.01718093454837799,-0.00015264935791492462
1772571711194655000,8.509655029296875,0.0097808837890625,0.0018770694732666016,-0.009574754163622856
1772571711204588500,8.519588623046875,0.000202178955078125,0.006491720676422119,0.0048044659197330475
1772571711214523600,8.529523681640624,0.00019741058349609375,-0.0029949843883514404,0.00481826439499855
1772571711224457200,8.539457275390625,0.009608268737792969,-0.01693086326122284,-0.00929395854473114
1772571711234378500,8.54937841796875,0.004736900329589844,0.0070337653160095215,-0.01385735347867012
1772571711244310800,8.559310791015625,0.014074325561523438,0.0022466033697128296,-0.0043179746717214584
1772571711254244400,8.569244384765625,-0.004990577697753906,0.006753444671630859,0.005060145631432533
1772571711264177000,8.579177001953125,-0.00019741058349609375,0.02541261911392212,-0.009157426655292511
1772571711274124500,8.58912451171875,0.004513740539550781,0.006193727254867554,0.00040718168020248413
1772571711284058600,8.59905859375,-0.023812294006347656,-0.00809827446937561,0.0049979425966739655
1772571711293981200,8.608981201171876,-0.004582405090332031,-0.012633278965950012,-0.009117377921938896
1772571711303914000,8.6189140625,0.0002040863037109375,0.01576651632785797,-0.013476595282554626
1772571711313842000,8.628842041015625,0.014327049255371094,0.01544111967086792,0.0007650833576917648
1772571711323774200,8.638774169921875,-0.018871307373046875,0.0009953230619430542,0.005453471094369888
1772571711333710300,8.64871044921875,-0.013846397399902344,-0.013209715485572815,0.005456462502479553
1772571711343643100,8.65864306640625,-0.013614654541015625,-0.0036353468894958496,-0.004061385989189148
1772571711353586000,8.6685859375,0.0054473876953125,0.005779385566711426,0.0006037633866071701
1772571711363519700,8.678519775390624,0.019481658935546875,0.005721718072891235,-0.00872962549328804
1772571711373453300,8.688453369140625,0.005032539367675781,0.0008551031351089478,-0.008591584861278534
1772571711383387100,8.69838720703125,-0.00917816162109375,0.015005290508270264,-0.008557166904211044
1772571711393309000,8.708308837890625,0.005099296569824219,0.01008489727973938,0.0008917283266782761
1772571711403241500,8.718241455078125,-0.0044040679931640625,-0.013587504625320435,0.005578003823757172
1772571711413150200,8.728150146484374,-0.018454551696777344,0.0007022321224212646,0.00087006576359272
1772571711423080400,8.73808056640625,-0.00872802734375,0.0006282329559326172,-0.008465524762868881
1772571711433024500,8.7480244140625,-0.0038700103759765625,0.00045362114906311035,-0.013040494173765182
1772571711442956300,8.757956298828125,0.0056171417236328125,0.019015565514564514,-0.012828327715396881
1772571711452884200,8.76788427734375,0.0055255889892578125,-0.00019869208335876465,0.001602785661816597
1772571711462815200,8.777815185546874,-0.0039825439453125,0.01857602596282959,-0.007850848138332367
1772571711472754200,8.787754150390626,0.005499839782714844,-0.0099467933177948,0.0016874466091394424
1772571711482686200,8.797686279296874,-0.008718490600585938,0.013800621032714844,0.006360463798046112
1772571711492619800,8.807619873046875,-0.0038652420043945312,-0.00522477924823761,-0.003167901188135147
1772571711502551800,8.8175517578125,0.015035629272460938,-0.009908929467201233,0.0016873348504304886
1772571711512478500,8.827478515625,-0.008758544921875,0.004420623183250427,-0.0030568279325962067
1772571711522410000,8.837409912109376,-0.01803112030029297,-0.00032332539558410645,0.0015916917473077774
1772571711532368400,8.847368408203126,0.001102447509765625,-0.00027951598167419434,0.0014538448303937912
1772571711552232400,8.867232421875,-0.003960609436035156,-0.004802897572517395,-0.01703042909502983
1772571711562166300,8.877166259765625,0.0149383544921875,0.014150187373161316,0.006788928061723709
1772571711572098000,8.88709814453125,-0.004145622253417969,-0.00017312169075012207,-0.0027511417865753174
1772571711582031600,8.897031494140625,-0.008786201477050781,-0.014257356524467468,-0.002712741494178772
1772571711591963400,8.90696337890625,0.005486488342285156,0.028294965624809265,0.002033611759543419
1772571711601897000,8.91689697265625,0.00539398193359375,0.009027674794197083,0.006599549204111099
1772571711611830800,8.926830810546875,-0.008820533752441406,-0.0006026476621627808,-0.0076436735689640045
1772571711621764400,8.936764404296875,-0.003966331481933594,-0.0005539506673812866,-0.0028151385486125946
1772571711631709200,8.946709228515624,0.0008077621459960938,-0.0005063563585281372,0.0065377987921237946
1772571711641643800,8.956643798828125,0.0007953643798828125,0.004148021340370178,-0.012412995100021362
1772571711651601000,8.966600830078125,-0.003930091857910156,0.008927464485168457,-0.007608827203512192
1772571711661537800,8.976537841796874,0.000843048095703125,0.008817002177238464,0.011241275817155838
1772571711671430700,8.9864306640625,0.0008258819580078125,-0.0006080716848373413,0.0063356272876262665
1772571711681363200,8.99636328125,-0.003902435302734375,-0.014482125639915466,-0.00800221785902977
1772571711691292200,9.006292236328125,0.010287284851074219,0.009340852499008179,-0.01258489117026329
1772571711701224200,9.01622412109375,0.01482391357421875,0.0045148879289627075,-0.012384876608848572
1772571711711162600,9.02616259765625,-0.004258155822753906,-0.00023061037063598633,-0.007479604333639145
1772571711721095200,9.03609521484375,-0.00418853759765625,0.013937681913375854,0.002054790034890175
1772571711731025700,9.046025634765625,0.005297660827636719,-0.00509035587310791,0.0019118133932352066
1772571711740958200,9.055958251953125,-0.013624191284179688,-0.033319368958473206,-0.0028338171541690826
1772571711750888400,9.065888427734375,0.0007305145263671875,0.00013381242752075195,0.0020181071013212204
1772571711760820700,9.07582080078125,-0.008699417114257812,0.004878833889961243,-0.007440168410539627
1772571711770734600,9.085734619140625,0.00086212158203125,-0.009289681911468506,-0.007222495973110199
1772571711780665000,9.0956650390625,0.019685745239257812,-0.014007344841957092,0.007117483764886856
1772571711790619400,9.105619384765625,0.009942054748535156,0.004997685551643372,0.011801507323980331
1772571711800552400,9.115552490234375,0.014484405517578125,0.0002444535493850708,-0.002528417855501175
1772571711810486800,9.12548681640625,0.004824638366699219,0.00027905404567718506,-0.0023924075067043304
1772571711820419800,9.135419921875,-0.0093841552734375,0.005122959613800049,0.002348603680729866
1772571711830344400,9.145344482421875,0.009607315063476562,0.019100770354270935,0.011719197034835815
1772571711840276700,9.15527685546875,0.014156341552734375,-0.004822850227355957,0.016227295622229576
1772571711850223400,9.165223388671874,-0.0049152374267578125,0.000004827976226806641,-0.007593587040901184
1772571711860157000,9.175156982421875,-0.009542465209960938,0.009460598230361938,0.006651297211647034
1772571711870061000,9.18506103515625,-0.0093841552734375,-0.00949259102344513,0.015851454809308052
1772571711879991600,9.194991455078124,-0.004520416259765625,0.0001211315393447876,0.006160348653793335
1772571711889951500,9.204951416015625,-0.0044460296630859375,0.004866465926170349,0.0013416092842817307
1772571711899885000,9.214885009765625,0.02858734130859375,-0.004592835903167725,0.006123978644609451
1772571711909830400,9.224830322265625,-0.004845619201660156,0.00002847611904144287,0.006118167191743851
1772571711919765200,9.23476513671875,0.014073371887207031,-0.00013566017150878906,-0.003406170755624771
1772571711929682700,9.2446826171875,-0.0002880096435546875,-0.004803389310836792,-0.008065436035394669
1772571711939615700,9.25461572265625,0.004424095153808594,-0.004684999585151672,0.015500908717513084
1772571711949548000,9.264548095703125,-0.009776115417480469,0.00484892725944519,0.005817923694849014
1772571711959480800,9.274480712890625,-0.0001964569091796875,0.009515047073364258,0.000901317223906517
1772571711969420500,9.284420654296875,-0.0001926422119140625,-0.014249205589294434,0.0008788388222455978
1772571711979354000,9.29435400390625,-0.014314651489257812,0.014177188277244568,-0.003953177481889725
1772571711989279700,9.30427978515625,-0.0046596527099609375,0.004562005400657654,0.005621407181024551
1772571711999212500,9.314212646484375,0.0001239776611328125,-0.009499847888946533,0.0008116718381643295
1772571712009146000,9.32414599609375,0.00012302398681640625,-0.014112427830696106,-0.003915626555681229
1772571712019079000,9.334078857421876,0.009538650512695312,0.000186234712600708,0.010270234197378159
1772571712029017000,9.34401708984375,-0.014163970947265625,-0.004487097263336182,0.010190695524215698
1772571712038950700,9.35395068359375,-0.013928413391113281,-0.004373654723167419,-0.008719664067029953
1772571712048886500,9.363886474609375,0.014555931091308594,-0.004363745450973511,-0.003875475376844406
1772571712058820400,9.3738203125,0.014317512512207031,0.004962518811225891,0.015018308535218239
1772571712068750600,9.38375048828125,-0.00004482269287109375,-0.009308606386184692,-0.003972537815570831
1772571712078684000,9.393683837890626,-0.01416778564453125,0.00961826741695404,0.0056047216057777405
1772571712088590000,9.403590087890626,0.00019550323486328125,0.009395480155944824,0.005402836948633194
1772571712098520600,9.4135205078125,0.00019359588623046875,-0.009658128023147583,0.01001393049955368
1772571712108474000,9.42347412109375,-0.004519462585449219,0.004667356610298157,0.0005238968878984451
1772571712118407200,9.4334072265625,-0.013860702514648438,-0.019016042351722717,-0.013618070632219315
1772571712128343800,9.44334375,0.000499725341796875,-0.01415453851222992,-0.013398557901382446
1772571712138277400,9.45327734375,-0.004216194152832031,0.00014449656009674072,0.005651671439409256
1772571712148206300,9.463206298828124,0.014685630798339844,0.009699195623397827,-0.003867160528898239
1772571712158139100,9.47313916015625,0.009731292724609375,0.004867926239967346,-0.003807883709669113
1772571712168073000,9.483072998046875,-0.004557609558105469,-0.00459173321723938,-0.003853190690279007
1772571712178006000,9.493006103515626,0.00022602081298828125,0.0002320408821105957,0.0056207627058029175
1772571712187935500,9.502935546875,0.009638786315917969,-0.009150370955467224,0.0008110348135232925
1772571712197868000,9.512867919921876,-0.01877117156982422,0.009773865342140198,-0.0038172267377376556
1772571712207808300,9.522808349609376,0.005084037780761719,0.004941046237945557,0.0009475294500589371
1772571712217741800,9.532741943359374,0.004998207092285156,0.00018875300884246826,0.015151375904679298
1772571712227669500,9.54266943359375,-0.009211540222167969,0.004932835698127747,-0.003841713070869446
1772571712237602300,9.552602294921876,0.00035858154296875,0.009597882628440857,-0.013101022690534592
1772571712247513600,9.562513671875,-0.009063720703125,0.023501187562942505,-0.008181516081094742
1772571712257444000,9.572444091796875,-0.008913993835449219,-0.00039483606815338135,-0.017469797283411026
1772571712267410000,9.582409912109375,-0.004057884216308594,-0.0003491342067718506,0.011067740619182587
1772571712277344000,9.592343994140625,-0.008701324462890625,-0.004911929368972778,0.00626855343580246
1772571712287279600,9.602279541015625,0.0008630752563476562,0.004524454474449158,0.010966546833515167
1772571712297213700,9.612213623046875,0.0008497238159179688,-0.0003218650817871094,0.0012600962072610855
1772571712307137000,9.622136962890625,0.0008344650268554688,-0.00027789175510406494,-0.01770392432808876
1772571712317070000,9.632070068359376,0.005528450012207031,-0.004943192005157471,-0.022023595869541168
1772571712327006700,9.6420068359375,-0.003981590270996094,-0.00011387467384338379,0.006585288792848587
1772571712336940000,9.65193994140625,0.0055027008056640625,-0.004883229732513428,0.01117667555809021
1772571712346888200,9.66188818359375,-0.013423919677734375,-0.009471714496612549,0.0015657488256692886
1772571712356823300,9.6718232421875,0.01505279541015625,0.0000406801700592041,0.0016335230320692062
1772571712366710500,9.68171044921875,0.005383491516113281,0.0000784844160079956,0.006408311426639557
1772571712376640800,9.691640869140626,-0.008832931518554688,0.00011581182479858398,-0.003021854907274246
1772571712386620400,9.701620361328125,0.000728607177734375,0.014380276203155518,-0.0029789768159389496
1772571712396555500,9.711555419921876,-0.013410568237304688,-0.009363368153572083,0.011292599141597748
1772571712406474500,9.721474609375,-0.017894744873046875,0.00014729797840118408,0.006388355046510696
1772571712416408000,9.731407958984375,0.0012388229370117188,0.00008185207843780518,0.006272152066230774
1772571712426334500,9.74133447265625,0.020051956176757812,-0.00458979606628418,0.010866481810808182
1772571712436267300,9.751267333984375,0.01031494140625,-0.0003738701343536377,-0.007751245051622391
1772571712446193000,9.76119287109375,0.010165214538574219,-0.015467092394828796,0.020925749093294144
1772571712456125000,9.771125,0.010022163391113281,-0.006867736577987671,0.016367429867386818
1772571712466060300,9.781060302734375,-0.013658523559570312,0.0014866143465042114,-0.006746463477611542
1772571712475992600,9.79099267578125,-0.008695602416992188,0.014511287212371826,-0.0061396099627017975
1772571712485928400,9.800928466796876,-0.01795673370361328,0.013801783323287964,-0.00594107061624527
1772571712495861200,9.810861328125,-0.022369384765625,0.004294171929359436,0.0033627543598413467
1772571712505792500,9.82079248046875,-0.04085540771484375,0.019298195838928223,-0.006727930158376694
1772571712515725000,9.83072509765625,0.020997047424316406,-0.00290718674659729,-0.0026236549019813538
