time,seconds_elapsed,z,y,x
1772535154765566500,0.05456640625,-0.00011930961773032323,0.002703641075640917,-0.004728975240141153
1772535154775582200,0.064582275390625,-0.000023169501218944788,0.0024799355305731297,-0.0038575888611376286
1772535154785598200,0.07459814453125,-0.001014664419926703,0.002005626680329442,-0.0059838565066456795
1772535154795614200,0.0846142578125,-0.0007962851668708026,0.0030192257836461067,-0.005842442624270916
1772535154805630200,0.094630126953125,-0.0012575446162372828,0.0028008464723825455,-0.004351871553808451
1772535154815646200,0.104646240234375,0.00009400958515470847,0.0030389330349862576,-0.004496747627854347
1772535154825662200,0.114662109375,-0.0005627259379252791,0.00020399813365656883,-0.0038096518255770206
1772535154835679200,0.12467919921875,-0.00013795174891129136,0.0037462685722857714,-0.002552639925852418
1772535154845695200,0.1346953125,-0.0008135957177728415,0.0030743530951440334,-0.00395585922524333
1772535154855711200,0.144711181640625,-0.00023542344570159912,0.0033076461404561996,-0.00313560594804585
1772535154865727200,0.154727294921875,0.001145425601862371,0.0028522454667836428,-0.00430100504308939
1772535154875743200,0.1647431640625,-0.0011981561547145247,0.0025856629945337772,-0.004988899454474449
1772535154885759200,0.17475927734375,-0.00026551715563982725,0.003197657410055399,-0.00487278588116169
1772535154895775200,0.184775146484375,-0.000660463934764266,0.003448527306318283,-0.004495682194828987
1772535154905791200,0.194791259765625,-0.0008799084462225437,0.0022924491204321384,-0.004562527406960726
1772535154915807200,0.20480712890625,-0.0003049319493584335,0.003370496677234769,-0.0033784860279411077
1772535154925823200,0.2148232421875,-0.0007643272401764989,0.0027028422337025404,-0.003918575122952461
1772535154935840300,0.22484033203125,-0.0015315839555114508,0.0026383937802165747,-0.0032676986884325743
1772535154945856300,0.234856201171875,0.0014293185668066144,0.0030474551022052765,-0.004381965380162001
1772535154955872300,0.244872314453125,-0.0006593986763618886,0.0025350630749017,-0.005361475981771946
1772535154965888300,0.25488818359375,-0.0007502124644815922,0.0027955202385783195,-0.0031012510880827904
1772535154975904300,0.264904296875,-0.0008623315370641649,0.002656236756592989,-0.004748149774968624
1772535154985920300,0.274920166015625,-0.0015606123488396406,0.002019208623096347,-0.0038314899429678917
1772535154995936300,0.284936279296875,-0.00012117382721044123,0.003245061729103327,-0.004771851934492588
1772535155005952300,0.2949521484375,-0.0008884305134415627,0.0027624969370663166,-0.0039854203350842
1772535155015968300,0.30496826171875,0.000290018244413659,0.002915362361818552,-0.005323659162968397
1772535155025984300,0.314984375,-0.0009595369338057935,0.001455151243135333,-0.004378769546747208
1772535155036000300,0.325000244140625,-0.001088966615498066,0.0031473238486796618,-0.006214486435055733
1772535155046017300,0.335017333984375,-0.0016506272368133068,0.0026075011119246483,-0.0035175031516700983
1772535155056033000,0.345032958984375,-0.00015233281010296196,0.0026820695493370295,-0.003567304229363799
1772535155066049300,0.35504931640625,-0.0009664611425250769,0.0027318706270307302,-0.004286890383809805
1772535155076065300,0.365065185546875,-0.0009962886106222868,0.0006572681595571339,-0.005086903925985098
1772535155086081300,0.375081298828125,0.0001001348573481664,0.002412024885416031,-0.004877313040196896
1772535155096097300,0.38509716796875,-0.0022620889358222485,0.0029843382071703672,-0.005240035708993673
1772535155106113300,0.39511328125,0.0003102582704741508,0.0029933929909020662,-0.006057093385607004
1772535155116129300,0.40512939453125,-0.0004415521107148379,0.002427204977720976,-0.006052033510059118
1772535155126145300,0.415145263671875,-0.00022743394947610795,0.0023811322171241045,-0.0036847495939582586
1772535155136161300,0.425161376953125,-0.0021840583067387342,0.0016442356863990426,-0.003926032222807407
1772535155146177300,0.43517724609375,-0.0014112089993432164,0.0035542547702789307,-0.004481034819036722
1772535155156194300,0.4451943359375,-0.000606934423558414,0.002463423879817128,-0.005303418729454279
1772535155166210000,0.4552099609375,-0.00020905814017169178,0.003272492438554764,-0.004910602699965239
1772535155176226000,0.46522607421875,-0.0005038700764998794,0.0029643645975738764,-0.004836566746234894
1772535155186242300,0.4752421875,-0.001588575541973114,0.003866909770295024,-0.004038151353597641
1772535155196258000,0.485258056640625,0.00014514227223116904,0.0033334787003695965,-0.003245594445616007
1772535155206274000,0.495274169921875,-0.0017923073610290885,0.002520149340853095,-0.004084223881363869
1772535155216290000,0.5052900390625,-0.00042051312630064785,0.001746501075103879,-0.0024887239560484886
1772535155226306000,0.51530615234375,0.00046871634549461305,0.0023350596893578768,-0.0030152308754622936
1772535155236322000,0.525322021484375,-0.0009294432238675654,0.004192348103970289,-0.00567093538120389
1772535155246337800,0.535337890625,-0.002034388715401292,0.003138535423204303,-0.004916994366794825
1772535155256355000,0.54535498046875,-0.0005129248020239174,0.003368099918588996,-0.004721784498542547
1772535155266371000,0.55537109375,-0.00032730249222368,0.0024823325220495462,-0.004518318921327591
1772535155276387000,0.565386962890625,-0.0013169331941753626,0.0024825986474752426,-0.005191300064325333
1772535155286402800,0.57540283203125,-0.0001685781026026234,0.003846936160698533,-0.004701544530689716
1772535155296418800,0.585418701171875,-0.0003067961661145091,0.0013885721564292908,-0.0035752938129007816
1772535155306435000,0.59543505859375,-0.0001917476038215682,0.003350256709381938,-0.005288505461066961
1772535155316451000,0.605451171875,0.0006500775925815105,0.0025124261155724525,-0.005017661955207586
1772535155326467000,0.615467041015625,-0.0006530070677399635,0.0030005834996700287,-0.003379817819222808
1772535155336483000,0.625483154296875,-0.00042104575550183654,0.0012889700010418892,-0.003522030543535948
1772535155346499000,0.6354990234375,-0.0014077469240874052,0.0029790119733661413,-0.005075452383607626
1772535155356514800,0.645514892578125,0.00018881811411119998,0.0031760858837515116,-0.005283977836370468
1772535155366532000,0.655531982421875,-0.0015188007382676005,0.0019771307706832886,-0.0044112601317465305
1772535155376548000,0.665548095703125,0.00006870955257909372,0.0018876485992223024,-0.003817907767370343
1772535155386564000,0.675564208984375,-0.0010327738709747791,0.00169563468080014,-0.004614725708961487
1772535155396580000,0.685580078125,-0.000015180017726379447,0.0033310819417238235,-0.0041183121502399445
1772535155406595800,0.695595947265625,-0.00015206649550236762,0.002017610939219594,-0.0046269758604466915
1772535155416611800,0.70561181640625,-0.0016929714474827051,0.0033076461404561996,-0.003154247999191284
1772535155426628000,0.715628173828125,-0.0023909860756248236,0.002659698948264122,-0.004610198084264994
1772535155436644000,0.72564404296875,0.0008841694798320532,0.002487658755853772,-0.0035545211285352707
1772535155446660000,0.73566015625,-0.00019867181254085153,0.0023318638559430838,-0.003573163179680705
1772535155456676000,0.745676025390625,-0.000003462109361862531,0.0028360001742839813,-0.004917793441563845
1772535155466692900,0.75569287109375,0.0002719087351579219,0.002858637133613229,-0.0032120386604219675
1772535155476708900,0.765708984375,-0.0009041432058438659,0.002246110001578927,-0.0037404096219688654
1772535155486725000,0.77572509765625,0.0010048106778413057,0.0018972359830513597,-0.004201402887701988
1772535155496741000,0.7857412109375,-0.0004117247008252889,0.0029675604309886694,-0.005163869354873896
1772535155506757000,0.795757080078125,-0.0004753742541652173,0.0023193468805402517,-0.003965713083744049
1772535155516772900,0.80577294921875,-0.0006002765148878098,0.001853826455771923,-0.003358246060088277
1772535155526788900,0.815788818359375,-0.0005060005933046341,0.00247567449696362,-0.004611529875546694
1772535155536804900,0.825804931640625,-0.00014434332842938602,0.0016192019684240222,-0.0032317459117621183
1772535155546820900,0.83582080078125,-0.0010037453612312675,0.0030013825744390488,-0.003276220755651593
1772535155556837000,0.845837158203125,-0.0010434264549985528,0.003135872073471546,-0.0020000338554382324
1772535155566853000,0.85585302734375,-0.0020301276817917824,0.002621349412947893,-0.004569185432046652
1772535155576870000,0.865869873046875,-0.0021015002857893705,0.0031646343413740396,-0.0041002025827765465
1772535155586886000,0.875885986328125,-0.0006846986943855882,0.0024434502702206373,-0.0051963599398732185
1772535155596902000,0.88590185546875,-0.0004093278548680246,0.0013025520602241158,-0.0035838158801198006
1772535155606918100,0.895918212890625,0.0004242415598127991,0.0014389059506356716,-0.005008340813219547
1772535155616934100,0.90593408203125,-0.001056209672242403,0.002293247962370515,-0.004338289611041546
1772535155626950100,0.9159501953125,-0.0013249226612970233,0.0022005699574947357,-0.0036557212006300688
1772535155636966000,0.9259658203125,-0.00038269624928943813,0.001113201375119388,-0.005820604972541332
1772535155646982000,0.93598193359375,-0.0016114787431433797,0.0023451796732842922,-0.004593153949826956
1772535155656998000,0.945997802734375,0.00018855179951060563,0.002425074577331543,-0.004461327567696571
1772535155667014000,0.956013916015625,-0.0013363742036744952,0.0026040389202535152,-0.005035505164414644
1772535155677030100,0.966030029296875,0.0003123887872789055,0.002426672261208296,-0.0046240463852882385
1772535155687047000,0.976046875,-0.00025300029665231705,0.0026293389964848757,-0.004162786994129419
1772535155697063000,0.98606298828125,-0.0015523566398769617,0.003355050226673484,-0.004877579398453236
1772535155707079000,0.996078857421875,-0.0009350358741357923,0.0013936321483924985,-0.004857605788856745
1772535155717095000,1.006094970703125,-0.0003182477375958115,0.002153698354959488,-0.0038506644777953625
1772535155727111200,1.016111083984375,-0.0010660634143278003,0.002802710747346282,-0.0035444011446088552
1772535155737127200,1.026127197265625,-0.0008428904693573713,0.003229881636798382,-0.004388090688735247
1772535155747143000,1.036142822265625,-0.0013379721203818917,0.0037382792215794325,-0.004975583869963884
1772535155757159000,1.046158935546875,-0.003625893732532859,0.002161954063922167,-0.0049705239944159985
1772535155767175000,1.0561748046875,-0.0013733921805396676,0.0030538467690348625,-0.0038003309164196253
1772535155777191000,1.06619091796875,-0.00010466222738614306,0.0015030881622806191,-0.005613144487142563
1772535155787208200,1.076208251953125,-0.0013116068439558148,0.0027361316606402397,-0.004087686073035002
1772535155797224000,1.086223876953125,0.0004649879119824618,0.0013142699608579278,-0.0032442628871649504
1772535155807240000,1.096239990234375,-0.0008183894096873701,0.002657035831362009,-0.003323625074699521
1772535155817256000,1.106255859375,0.0005547364708036184,0.0033489251509308815,-0.004354801028966904
1772535155827272000,1.11627197265625,-0.0015195996966212988,0.002263420494273305,-0.0038091193418949842
1772535155837288000,1.126287841796875,-0.0013177321525290608,0.002728408435359597,-0.005513542331755161
1772535155847304200,1.13630419921875,-0.00013688647595699877,0.0032738239970058203,-0.005381183233112097
1772535155857320200,1.1463203125,-0.001350222621113062,0.003564907470718026,-0.0041526672430336475
1772535155867336000,1.1563359375,-0.0022804648615419865,0.003025617217645049,-0.004200870171189308
1772535155877352000,1.16635205078125,-0.0010540791554376483,0.0025153555907309055,-0.0027542412281036377
1772535155887368000,1.176367919921875,-0.001190433045849204,0.00264798104763031,-0.0031968585681170225
1772535155897385000,1.186385009765625,-0.0009275790071114898,0.0019283948931843042,-0.004315652418881655
1772535155907401000,1.19640087890625,-0.0003531351685523987,0.0022040321491658688,-0.00376064982265234
1772535155917417000,1.2064169921875,-0.0004689826746471226,0.0024229439441114664,-0.002683667466044426
1772535155927433000,1.216432861328125,0.0003784351865760982,0.0033156354911625385,-0.004432831425219774
1772535155937449000,1.226448974609375,-0.00048389637959189713,0.002478337613865733,-0.004161987919360399
1772535155947465000,1.23646484375,-0.0007659250986762345,0.003195260651409626,-0.0028706213925033808
1772535155957481000,1.24648095703125,0.0002348908019484952,0.0025632926262915134,-0.004787831101566553
1772535155967497200,1.256497314453125,-0.002231462625786662,0.0027454528026282787,-0.004668787587434053
1772535155977513000,1.266512939453125,-0.0016056197928264737,0.0026296053547412157,-0.003356115659698844
1772535155987529000,1.276529052734375,-0.0008751147543080151,0.0026967169251292944,-0.005048554390668869
1772535155997545000,1.286544921875,0.000017310547264060006,0.004381965380162001,-0.0044046021066606045
1772535156007562000,1.29656201171875,-0.0016165387351065874,0.0018455706303939223,-0.004206995479762554
1772535156017578000,1.306577880859375,-0.0000577905957470648,0.001270327833481133,-0.004601676017045975
1772535156027594000,1.316593994140625,-0.00024208133982028812,0.004408597014844418,-0.005336974747478962
1772535156037610000,1.32660986328125,-0.00027324032271280885,0.002909237053245306,-0.00398568669334054
1772535156047626000,1.3366259765625,-0.000966727442573756,0.0022266688756644726,-0.0049255164340138435
1772535156057642000,1.34664208984375,-0.0006833671359345317,0.002567287301644683,-0.00498144282028079
1772535156067658000,1.356657958984375,-0.0007768440991640091,0.002379534300416708,-0.0026170883793383837
1772535156077674000,1.366674072265625,-0.0011803129455074668,0.003284742822870612,-0.0052267201244831085
1772535156087690000,1.37668994140625,-0.0021052288357168436,0.0026101642288267612,-0.003689010627567768
1772535156097706000,1.3867060546875,-0.001142496126703918,0.0024836640805006027,-0.003993410151451826
1772535156107722000,1.396721923828125,0.00036245622322894633,0.0033577135764062405,-0.0037609159480780363
1772535156117739000,1.406739013671875,-0.0002713761059567332,0.0019973707385361195,-0.005051217507570982
1772535156127755000,1.416755126953125,-0.001531850197352469,0.002546780975535512,-0.003365170443430543
1772535156137771000,1.42677099609375,0.00011877698125317693,0.00236275652423501,-0.004757737275213003
1772535156147787000,1.436787109375,-0.0003944141499232501,0.0034639735240489244,-0.0043896883726119995
1772535156157803000,1.446802978515625,-0.0016937704058364034,0.0019318570848554373,-0.004198207054287195
1772535156167819000,1.456819091796875,-0.001044491771608591,0.0036732980515807867,-0.004860002547502518
1772535156177835000,1.4668349609375,-0.0005547364708036184,0.0018245317041873932,-0.0046815709210932255
1772535156187851000,1.47685107421875,-0.0012322446564212441,0.0024916534312069416,-0.004774781409651041
1772535156197867500,1.486867431640625,-0.0008173241512849927,0.0024226775858551264,-0.005497563164681196
1772535156207883500,1.496883544921875,0.00042583944741636515,0.002811765531077981,-0.003743072971701622
1772535156217899500,1.5068994140625,-0.0010612696642056108,0.0034109766129404306,-0.00430286955088377
1772535156227916800,1.516916748046875,-0.0021371867042034864,0.0028810077346861362,-0.003808320267125964
1772535156237932800,1.526932861328125,-0.00013315805699676275,0.002715891692787409,-0.0046384274028241634
1772535156247948500,1.536948486328125,-0.0007424892974086106,0.0018370485631749034,-0.003772101365029812
1772535156257964500,1.546964599609375,-0.00030413299100473523,0.003141731023788452,-0.002968359272927046
1772535156267980500,1.55698046875,-0.0010815097484737635,0.0014788532862439752,-0.0035276231355965137
1772535156277996800,1.566996826171875,-0.0015140071045607328,0.0031411985401064157,-0.004607002250850201
1772535156288012800,1.5770126953125,-0.000651675509288907,0.0018852517241612077,-0.0038338867016136646
1772535156298028800,1.58702880859375,-0.0005558017292059958,0.002061819192022085,-0.003938282374292612
1772535156308044800,1.597044921875,0.001119060325436294,0.0016178702935576439,-0.0036639769095927477
1772535156318060500,1.607060546875,-0.001460743835195899,0.0028522454667836428,-0.006094910204410553
1772535156328076500,1.61707666015625,-0.0009896307019516826,0.0025686188600957394,-0.004568919073790312
1772535156338093800,1.62709375,-0.0009635316673666239,0.0028932581190019846,-0.003778226673603058
1772535156348109800,1.63710986328125,0.00035926041891798377,0.0029353362042456865,-0.005497563164681196
1772535156358125600,1.64712548828125,-0.0012548814993351698,0.002802977105602622,-0.0041550640016794205
1772535156368141600,1.6571416015625,-0.0018485001055523753,0.002817890839651227,-0.003385676769539714
1772535156378157600,1.667157470703125,-0.0007344998302869499,0.003486610483378172,-0.004794222768396139
1772535156388173600,1.677173583984375,-0.00133903743699193,0.0035167040769010782,-0.006446181330829859
1772535156398189600,1.687189453125,-0.0007145261042751372,0.0026405241806060076,-0.004825381562113762
1772535156408205800,1.697205810546875,0.00027750138542614877,0.004169711377471685,-0.0034416031558066607
1772535156418221800,1.707221923828125,-0.0006596649764105678,0.0022114890161901712,-0.003668237943202257
1772535156428237600,1.717237548828125,-0.0014948323369026184,0.0017038905061781406,-0.00395612558349967
1772535156438253600,1.727253662109375,-0.0026261431630700827,0.0031486554071307182,-0.0024027039762586355
1772535156448270600,1.7372705078125,-0.000041278995922766626,0.0016801883466541767,-0.006454703398048878
1772535156458286800,1.747286865234375,-0.0004500742070376873,0.0026288062799721956,-0.004258128348737955
1772535156468302800,1.757302734375,-0.002085521351546049,0.003358778776600957,-0.004264520015567541
1772535156478318600,1.767318603515625,-0.0017486315919086337,0.001978995045647025,-0.005269064102321863
1772535156488334600,1.77733447265625,-0.0017957695527002215,0.0028639633674174547,-0.003832022426649928
1772535156498350600,1.7873505859375,-0.0006447513005696237,0.0030013825744390488,-0.0049343048594892025
1772535156508366600,1.79736669921875,-0.0005491438205353916,0.0011656655697152019,-0.005483714863657951
1772535156518382600,1.807382568359375,-0.0003834952076431364,0.0018634138396009803,-0.0043625240214169025
1772535156528398800,1.81739892578125,-0.0002495381922926754,0.002779274946078658,-0.004775314126163721
1772535156538414600,1.82741455078125,0.00009827064059209079,0.003078880487009883,-0.004614192992448807
1772535156548430600,1.8374306640625,-0.0011552792275324464,0.003216566052287817,-0.005564675200730562
1772535156558447600,1.847447509765625,-0.00032623723382130265,0.0024956483393907547,-0.004477039910852909
1772535156568463600,1.857463623046875,-0.0004266384057700634,0.0026546388398855925,-0.005356415640562773
1772535156578479900,1.86747998046875,-0.0006234460161067545,0.0025475798174738884,-0.004503138829022646
1772535156588495600,1.87749560546875,-0.0019302591681480408,0.003469299990683794,-0.004831773228943348
1772535156598511600,1.88751171875,-0.0009600695921108127,0.0023129554465413094,-0.004572114907205105
1772535156608527600,1.897527587890625,-0.0003110571997240186,0.0018551580142229795,-0.004609399009495974
1772535156618543600,1.907543701171875,0.0012783173006027937,0.0024951156228780746,-0.0034815503749996424
1772535156628559600,1.9175595703125,-0.002097239252179861,0.002347842790186405,-0.003736148588359356
1772535156638575600,1.92757568359375,-0.0006298375665210187,0.0026610305067151785,-0.003998736385256052
1772535156648592000,1.937591796875,0.00003888214996550232,0.0024112260434776545,-0.00421471893787384
1772535156658607600,1.947607666015625,-0.0004964132094755769,0.002814428647980094,-0.004667456261813641
1772535156668624600,1.957624755859375,-0.0004849616379942745,0.0021321268286556005,-0.004455202259123325
1772535156678640600,1.967640625,-0.0018106831703335047,0.0023483755066990852,-0.003973170183598995
1772535156688656600,1.97765673828125,-0.0006500775925815105,0.0023148194886744022,-0.005550027824938297
1772535156698673000,1.9876728515625,0.000008788431841821875,0.002843457041308284,-0.0044133905321359634
1772535156708688600,1.997688720703125,0.00038482676609419286,0.002502838848158717,-0.0038181741256266832
1772535156718704600,2.00770458984375,-0.0019941749051213264,0.0036823528353124857,-0.004234958905726671
1772535156728720600,2.017720703125,-0.0015651397407054901,0.004032824654132128,-0.005987851414829493
1772535156738736600,2.027736572265625,-0.0006671218434348702,0.0028762139845639467,-0.004163319710642099
1772535156748752600,2.037752685546875,-0.000672181835398078,0.0024224112275987864,-0.0036397422663867474
1772535156758768600,2.0477685546875,-0.0013435647124424577,0.002186455298215151,-0.004775314126163721
1772535156768785700,2.05778564453125,-0.0003328951424919069,0.0015475628897547722,-0.003924700431525707
1772535156778801700,2.0678017578125,-0.00032091091270558536,0.002529204124584794,-0.0036855486687272787
1772535156788817700,2.077817626953125,-0.001023186487145722,0.00221947836689651,-0.003969175275415182
1772535156798833700,2.087833740234375,-0.0011060107499361038,0.0031784826423972845,-0.0032895365729928017
1772535156808849700,2.097849609375,-0.0008303736103698611,0.0028336034156382084,-0.005787581671029329
1772535156818865700,2.10786572265625,-0.0001150485550169833,0.0029766152147203684,-0.00433136522769928
1772535156828881700,2.117881591796875,-0.001761148450896144,0.0027084348257631063,-0.004760933108627796
1772535156838897700,2.127897705078125,-0.0017057546647265553,0.001924666459672153,-0.004098072182387114
1772535156848913700,2.13791357421875,-0.0005502090789377689,0.0026756778825074434,-0.004875715356320143
1772535156858929700,2.1479296875,0.0002031991898547858,0.0024706146214157343,-0.00387330143712461
1772535156868945700,2.157945556640625,-0.0011297129094600677,0.00264744833111763,-0.004165450111031532
1772535156878961700,2.167961669921875,0.00027270769351162016,0.0024082965683192015,-0.003745469730347395
1772535156888978700,2.177978759765625,-0.001910019083879888,0.0022453111596405506,-0.004525509662926197
1772535156898994700,2.18799462890625,-0.0006588660762645304,0.0032951291650533676,-0.005176386330276728
1772535156909010700,2.1980107421875,0.000075101139373146,0.0027451864443719387,-0.004778509959578514
1772535156919026700,2.208026611328125,-0.001734516816213727,0.0019465044606477022,-0.004500475712120533
1772535156929042700,2.218042724609375,-0.0013510215794667602,0.0035390746779739857,-0.0033182986080646515
1772535156939058400,2.228058349609375,-0.0014314490836113691,0.002718821167945862,-0.003940945956856012
1772535156949074700,2.23807470703125,-0.0004362257895991206,0.0023217438720166683,-0.004989698529243469
1772535156959090700,2.248090576171875,-0.0008849684381857514,0.001603222917765379,-0.003285009181126952
1772535156969106700,2.258106689453125,-0.001306280493736267,0.002701510675251484,-0.004593686666339636
1772535156979122700,2.268122802734375,0.00030067088664509356,0.002377403900027275,-0.004424575716257095
1772535156989138700,2.278138671875,-0.0011377023765817285,0.0035329493694007397,-0.004858671221882105
1772535156999155700,2.28815576171875,0.0011142665753141046,0.002669020090252161,-0.004595550708472729
1772535157009171700,2.298171630859375,-0.0016226640436798334,0.0018716695485636592,-0.006539391819387674
1772535157019187700,2.308187744140625,-0.0012010856298729777,0.0033987262286245823,-0.003034938359633088
1772535157029203700,2.31820361328125,0.00018429075134918094,0.0024895230308175087,-0.0029345371294766665
1772535157039219700,2.3282197265625,-0.0009265137487091124,0.0032927324064075947,-0.004881840664893389
1772535157049235500,2.3382353515625,-0.0018298579379916191,0.0034557178150862455,-0.0038189729675650597
1772535157059251500,2.34825146484375,-0.0009065400226972997,0.002852511825039983,-0.00410552928224206
1772535157069267700,2.358267822265625,-0.0013313142117112875,0.0033939324785023928,-0.004307663068175316
1772535157079283700,2.36828369140625,-0.002292981604114175,0.002763828495517373,-0.0044440170750021935
1772535157089299700,2.3782998046875,0.00012144014181103557,0.002225337317213416,-0.004890895448625088
1772535157099315700,2.388315673828125,-0.0010186590952798724,0.0036274916492402554,-0.005556153133511543
1772535157109332500,2.39833251953125,-0.000580036488827318,0.003148122690618038,-0.0038341530598700047
1772535157119348700,2.4083486328125,-0.000007723167072981596,0.003111371072009206,-0.004938033409416676
1772535157129364700,2.41836474609375,-0.001654355670325458,0.0032027175184339285,-0.002743322169408202
1772535157139380700,2.428380615234375,-0.002240783767774701,0.0030858046375215054,-0.003885019337758422
1772535157149396700,2.438396728515625,-0.001116130850277841,0.002284725895151496,-0.0041763694025576115
1772535157159412700,2.448412841796875,-0.0010375675046816468,0.002243446884676814,-0.004336425103247166
1772535157169428500,2.458428466796875,-0.00034115093876607716,0.0030652983114123344,-0.006872553378343582
1772535157179444500,2.468444580078125,-0.00040266994619742036,0.002382996492087841,-0.003306314582005143
1772535157189460700,2.478460693359375,-0.0003259709046687931,0.002873817225918174,-0.003921504598110914
1772535157199476500,2.4884765625,-0.001324123702943325,0.002138518262654543,-0.004021639470010996
1772535157209493800,2.49849365234375,-0.0005424859118647873,0.00296303303912282,-0.004478638060390949
1772535157219509500,2.508509521484375,-0.0005632585380226374,0.002528405049815774,-0.003784085623919964
1772535157229525500,2.518525390625,0.00005326322207110934,0.003436010330915451,-0.004688761197030544
1772535157239541500,2.52854150390625,0.00007163903501350433,0.0019433086272329092,-0.0033103092573583126
1772535157249557500,2.5385576171875,0.000041278995922766626,0.0026525084394961596,-0.004334294702857733
1772535157259573500,2.548573486328125,-0.0011464908020570874,0.002113218419253826,-0.005181712564080954
1772535157269589500,2.558589599609375,0.001181378262117505,0.0015659386990591884,-0.003227218519896269
1772535157279605500,2.56860546875,0.0005440838285721838,0.0035113778430968523,-0.005497829522937536
1772535157289621500,2.57862158203125,-0.0006042712484486401,0.0043955473229289055,-0.004874649923294783
1772535157299637500,2.588637451171875,-0.0015299860388040543,0.0019022959750145674,-0.005258411634713411
1772535157309653500,2.598653564453125,-0.0015480954898521304,0.002172074280679226,-0.003400324145331979
1772535157319670500,2.60867041015625,0.0004748416249640286,0.003549461020156741,-0.004174504894763231
1772535157329686500,2.6186865234375,-0.0012889700010418892,0.0021965752821415663,-0.00446798512712121
1772535157339702500,2.62870263671875,-0.00046312372433021665,0.002669286448508501,-0.004327903036028147
1772535157349718500,2.638718505859375,-0.0007651261985301971,0.002492984989657998,-0.00449941074475646
1772535157359734500,2.648734619140625,-0.0013148026773706079,0.002170742489397526,-0.004536162130534649
1772535157369750500,2.65875048828125,-0.00021172130072955042,0.0031960594933480024,-0.004126834217458963
1772535157379766500,2.6687666015625,0.0005049353349022567,0.0014149374328553677,-0.004868258256465197
1772535157389782500,2.678782470703125,-0.0013164004776626825,0.001698564155958593,-0.0038272286765277386
1772535157399798500,2.688798583984375,-0.0008428904693573713,0.0017592841759324074,-0.005429652985185385
1772535157409814500,2.698814453125,-0.0005819007055833936,0.003011502558365464,-0.004658934194594622
1772535157419830500,2.70883056640625,-0.0009366337326355278,0.0026458504144102335,-0.004727909807115793
1772535157429847600,2.71884765625,-0.0009278453071601689,0.004270378965884447,-0.0054485611617565155
1772535157439863600,2.728863525390625,-0.00038242992013692856,0.0022913836874067783,-0.0046392264775931835
1772535157449879600,2.738879638671875,-0.001270061475224793,0.0032586439047008753,-0.0051897019147872925
1772535157459895600,2.7488955078125,-0.0012660667998716235,0.0017425062833353877,-0.004180630203336477
1772535157469911600,2.75891162109375,-0.0006631271098740399,0.003346794517710805,-0.004575044382363558
1772535157479927600,2.768927490234375,-0.00014620754518546164,0.002156361471861601,-0.003644269658252597
1772535157489943600,2.778943603515625,-0.0012373046483844519,0.0041822283528745174,-0.0036573191173374653
1772535157499959600,2.78895947265625,-0.0001637844106880948,0.004185690078884363,-0.0035185683518648148
1772535157509975600,2.7989755859375,-0.0006554039428010583,0.001719603082165122,-0.005391037091612816
1772535157519991600,2.808991455078125,-0.0018847191240638494,0.0034176346380263567,-0.003183276392519474
1772535157530007600,2.819007568359375,-0.0012948289513587952,0.0025774072855710983,-0.003674363251775503
1772535157540024600,2.829024658203125,-0.0004471447318792343,0.0027419906109571457,-0.00498170917853713
1772535157550040600,2.83904052734375,-0.0008860336965881288,0.0030208237003535032,-0.004591555800288916
1772535157560056300,2.849056396484375,-0.0007898935582488775,0.0030032468494027853,-0.003552124137058854
1772535157570072600,2.859072509765625,-0.0001960086519829929,0.0038549257442355156,-0.0036242958158254623
1772535157580088600,2.869088623046875,-0.00010226538870483637,0.00256435782648623,-0.005735383834689856
1772535157590104600,2.8791044921875,-0.0008844357798807323,0.002665025182068348,-0.0046911584213376045
1772535157600120600,2.88912060546875,-0.001088433898985386,0.0014418354257941246,-0.003707386553287506
1772535157610136600,2.899136474609375,-0.0024644893128424883,0.0033318807836622,-0.003127083647996187
1772535157620152600,2.909152587890625,-0.0009020126308314502,0.002787797013297677,-0.006316485349088907
1772535157630168300,2.919168212890625,-0.0017161410069093108,0.0011677960865199566,-0.005314604379236698
1772535157640184600,2.9291845703125,-0.000910268456209451,0.003093527862802148,-0.004035221878439188
1772535157650201600,2.93920166015625,0.0012359730899333954,0.001719603082165122,-0.003040530951693654
1772535157660217600,2.949217529296875,-0.0008223841432482004,0.002585396869108081,-0.0027417242527008057
1772535157670233600,2.959233642578125,-0.002267149044200778,0.0020013656467199326,-0.0035228293854743242
1772535157680249300,2.969249267578125,-0.0005930859479121864,0.0013606089632958174,-0.004030427895486355
1772535157690265300,2.979265380859375,-0.0002671150432433933,0.002567287301644683,-0.0035473306197673082
1772535157700281600,2.989281494140625,-0.0007912251749075949,0.002034388715401292,-0.0045572011731565
1772535157710297600,2.999297607421875,0.00004394215648062527,0.002734001260250807,-0.004436826333403587
1772535157720313600,3.009313720703125,0.00039308256236836314,0.0020908478181809187,-0.0038256309926509857
1772535157730329600,3.01932958984375,-0.0001781654718797654,0.0034466630313545465,-0.0070853400975465775
1772535157740345600,3.029345703125,-0.0011837751371785998,0.0030682277865707874,-0.003796336008235812
1772535157750361300,3.039361328125,-0.000022370553779182956,0.0021726067643612623,-0.0041302964091300964
1772535157760378600,3.049378662109375,-0.0021995047573000193,0.004070907831192017,-0.005352421198040247
1772535157770394600,3.05939453125,-0.0010833739070221782,0.002942793071269989,-0.00520674604922533
1772535157780410600,3.06941064453125,-0.001281779375858605,0.0015448997728526592,-0.004456001333892345
1772535157790426400,3.07942626953125,-0.0005669869715347886,0.0012604740913957357,-0.0054128747433424
1772535157800442400,3.0894423828125,-0.0006892260862514377,0.0032826124224811792,-0.0035838158801198006
1772535157810458400,3.099458251953125,-0.000472977408207953,0.002270611235871911,-0.005429386626929045
1772535157820474600,3.109474609375,0.00009321063407696784,0.0029316076543182135,-0.00504003232344985
1772535157830490600,3.11949072265625,-0.0016729978378862143,0.002767823403701186,-0.004579837899655104
1772535157840506600,3.129506591796875,-0.00169563468080014,0.0022176143247634172,-0.003484213724732399
1772535157850522600,3.139522705078125,-0.00034194986801594496,0.0025931198615580797,-0.0035116442013531923
1772535157860538400,3.149538330078125,0.00016964336100500077,0.0032258869614452124,-0.0037417414132505655
1772535157870554400,3.159554443359375,-0.00138058268930763,0.0015334481140598655,-0.004325506277382374
1772535157880571600,3.169571533203125,-0.0013933659065514803,0.003381948219612241,-0.0032288164366036654
1772535157890587600,3.179587646484375,-0.000660463934764266,0.002314287004992366,-0.004356665071099997
1772535157900603600,3.189603759765625,-0.001421861699782312,0.003162503708153963,-0.0052264537662267685
1772535157910619400,3.199619384765625,-0.00047643951256759465,0.0014170679496601224,-0.0044048684649169445
1772535157920635400,3.209635498046875,-0.0006756439688615501,0.0024375913199037313,-0.0038637141697108746
1772535157930651400,3.2196513671875,0.0002008023438975215,0.002569417702034116,-0.004548679105937481
1772535157940667600,3.229667724609375,-0.00031798143754713237,0.002968092914670706,-0.004918059334158897
1772535157950683600,3.23968359375,-0.0016671388875693083,0.0026676885318011045,-0.003522030543535948
1772535157960699600,3.24969970703125,-0.0012391688069328666,0.0020208065398037434,-0.004343882203102112
1772535157970715600,3.259715576171875,-0.0009353021741844714,0.0028783443849533796,-0.003796336008235812
1772535157980731400,3.2697314453125,-0.0010074737947434187,0.003341468283906579,-0.004947886802256107
1772535157990748700,3.279748779296875,0.00001651159800530877,0.0027475832030177116,-0.0054613444954156876
1772535158000764700,3.2897646484375,-0.001119060325436294,0.001549959764815867,-0.003910585772246122
1772535158010780700,3.29978076171875,-0.001106809708289802,0.0024085629265755415,-0.003796069882810116
1772535158020796400,3.30979638671875,-0.0004223773430567235,0.00321896281093359,-0.004827778320759535
1772535158030812400,3.3198125,-0.0015361113473773003,0.002228533150628209,-0.004503671545535326
1772535158040828400,3.329828369140625,-0.0011736550368368626,0.002258893335238099,-0.005998237524181604
1772535158050844400,3.339844482421875,-0.0005174521938897669,0.0018913770327344537,-0.004144144710153341
1772535158060860700,3.349860595703125,-0.0012325108982622623,0.0026818031910806894,-0.004022704903036356
1772535158070876700,3.359876708984375,0.00020532972121145576,0.003061303636059165,-0.004225637763738632
1772535158080892700,3.369892578125,-0.0006548712844960392,0.0030565098859369755,-0.0030605047941207886
1772535158090908400,3.379908447265625,-0.0013755226973444223,0.001752360025420785,-0.004909005016088486
1772535158100925400,3.389925537109375,-0.0004269047058187425,0.0034104441292583942,-0.0038986015133559704
1772535158110941700,3.399941650390625,-0.0023704797495156527,0.0009227853151969612,-0.0034735610242933035
1772535158120957700,3.409957763671875,-0.0003294330381322652,0.0034677020739763975,-0.0037318875547498465
1772535158130973700,3.4199736328125,-0.0019150790758430958,0.0025875272694975138,-0.004200870171189308
1772535158140989400,3.429989501953125,0.00008974852971732616,0.0034029872622340918,-0.004479703027755022
1772535158151005400,3.44000537109375,-0.0003432814555708319,0.0024229439441114664,-0.005031243897974491
1772535158161021400,3.450021484375,-0.0004420847399160266,0.0027531760279089212,-0.003882356220856309
1772535158171037400,3.460037353515625,-0.00038296254933811724,0.0025395904667675495,-0.00490208063274622
1772535158181053700,3.4700537109375,-0.0010516822803765535,0.0016056197928264737,-0.004828577395528555
1772535158191069700,3.480069580078125,-0.0003020024741999805,0.001958488719537854,-0.004554271697998047
1772535158201085400,3.49008544921875,-0.0010428938549011946,0.0031065773218870163,-0.004088218789547682
1772535158211102500,3.5001025390625,0.0009355684742331505,0.0024588967207819223,-0.0051955608651041985
1772535158221118500,3.510118408203125,-0.0010154632618650794,0.002245843643322587,-0.004202201962471008
1772535158231134500,3.520134521484375,-0.0001395496365148574,0.002412557601928711,-0.0033960631117224693
1772535158241150500,3.530150390625,-0.0010077401529997587,0.001716939965263009,-0.005333778914064169
1772535158251166500,3.54016650390625,-0.0019321233266964555,0.0036615801509469748,-0.0032975259236991405
1772535158261182200,3.55018212890625,-0.0006138586322776973,0.0037092508282512426,-0.004555603489279747
1772535158271198200,3.5601982421875,-0.00032890037982724607,0.0027515781112015247,-0.004856273997575045
1772535158281214500,3.57021435546875,-0.00036991306114941835,0.001891909632831812,-0.004195543937385082
1772535158291230500,3.58023046875,0.0007560714147984982,0.00213638786226511,-0.004156661685556173
1772535158301246500,3.59024658203125,0.000570981705095619,0.0019624833948910236,-0.0028306739404797554
1772535158311262500,3.600262451171875,-0.0001430117554264143,0.003081809962168336,-0.004531102254986763
1772535158321279200,3.610279296875,-0.001455151243135333,0.004207794554531574,-0.002910036128014326
1772535158331295200,3.620295166015625,-0.00023622238950338215,0.0027806065045297146,-0.004874916281551123
1772535158341311500,3.6303115234375,-0.001315068919211626,0.002210956299677491,-0.004489290527999401
1772535158351327500,3.640327392578125,-0.00037470675306394696,0.002898318227380514,-0.00532685499638319
1772535158361343500,3.650343505859375,0.0008396946941502392,0.002752110594883561,-0.003078614128753543
1772535158371359200,3.660359130859375,-0.0003126551164314151,0.0017808558186516166,-0.0033454629592597485
1772535158381375200,3.670375244140625,-0.0006223807577043772,0.0019313243683427572,-0.00412417110055685
1772535158391391200,3.68039111328125,-0.0001816275907913223,0.0023363912478089333,-0.003742273896932602
1772535158401407500,3.690407470703125,-0.0007632619817741215,0.0027888622134923935,-0.004049602895975113
1772535158411423500,3.700423583984375,-0.0006729807937517762,0.0032658344134688377,-0.00281975488178432
1772535158421439500,3.710439453125,-0.0011121360585093498,0.0031502533238381147,-0.0051476238295435905
1772535158431456300,3.720456298828125,-0.0009736517095007002,0.00443922309204936,-0.005073854699730873
1772535158441472300,3.73047216796875,-0.0008415589109063148,0.000996554852463305,-0.005245095584541559
1772535158451488300,3.74048828125,-0.00023542344570159912,0.002942793071269989,-0.0027776770293712616
1772535158461504500,3.75050439453125,-0.0016098808264359832,0.001663410454057157,-0.0032746228389441967
1772535158471520500,3.7605205078125,-0.0010980212828144431,0.0032826124224811792,-0.004566255956888199
1772535158481536500,3.77053662109375,-0.0022945795208215714,0.0023305322974920273,-0.0031063109636306763
1772535158491552300,3.78055224609375,-0.0005398227367550135,0.004234159830957651,-0.00490287970751524
1772535158501568300,3.790568359375,-0.0018855180824175477,0.002126800362020731,-0.0046781087294220924
1772535158511584300,3.800584228515625,0.00007643271965207532,0.002112152986228466,-0.005341236013919115
1772535158521600500,3.8106005859375,-0.0006340986583381891,0.002433596644550562,-0.0029976540245115757
1772535158531616500,3.820616455078125,-0.0006237123161554337,0.0018666095566004515,-0.0046751792542636395
1772535158541632500,3.830632568359375,0.0007795072160661221,0.0017204020405188203,-0.004130030050873756
1772535158551649300,3.840649169921875,-0.0007163903210312128,0.0038567897863686085,-0.0043622576631605625
1772535158561665300,3.850665283203125,-0.000526506919413805,0.002900981344282627,-0.0036389431916177273
1772535158571681300,3.860681396484375,0.0004213120846543461,0.0016050871927291155,-0.0043563987128436565
1772535158581697500,3.870697509765625,-0.0020754013676196337,0.00355798308737576,-0.003742273896932602
1772535158591713500,3.880713623046875,-0.0007398261222988367,0.002124936319887638,-0.0034165694378316402
1772535158601729300,3.890729248046875,-0.0009387642494402826,0.0031502533238381147,-0.0041617220267653465
1772535158611745300,3.900745361328125,-0.000014114753867033869,0.0027300063520669937,-0.004348143003880978
1772535158621761300,3.91076123046875,0.0006998787284828722,0.003692739177495241,-0.004509796854108572
1772535158631777300,3.92077734375,-0.0004996090428903699,0.001948634977452457,-0.005392102058976889
1772535158641793300,3.930793212890625,-0.0010450243717059493,0.0027944548055529594,-0.005399292800575495
1772535158651809500,3.9408095703125,0.00015925703337416053,0.00253532943315804,-0.004878644831478596
1772535158661826300,3.950826416015625,-0.0010570086305961013,0.0026724820490926504,-0.003385144053027034
1772535158671842300,3.96084228515625,-0.001404284848831594,0.002183525823056698,-0.00401524780318141
1772535158681858300,3.9708583984375,-0.00038535939529538155,0.003084739437326789,-0.005224855616688728
1772535158691874300,3.980874267578125,-0.0021547635551542044,0.0015970977256074548,-0.005221393425017595
1772535158701890600,3.990890625,-0.0003203782835043967,0.0022572954185307026,-0.004175303969532251
1772535158711906600,4.000906494140625,0.0009981527691707015,0.002895122393965721,-0.004070375580340624
1772535158721922300,4.01092236328125,-0.0016157397767528892,0.004458131734281778,-0.004960670135915279
1772535158731938300,4.020938232421875,-0.0010191916953772306,0.002499110298231244,-0.0046485476195812225
1772535158741954300,4.030954345703125,-0.0003448793722782284,0.0023555660154670477,-0.004267449490725994
1772535158751970300,4.04097021484375,-0.0008157262345775962,0.0024170849937945604,-0.0043987431563436985
1772535158761986300,4.050986328125,-0.0006828344776295125,0.0025592977181077003,-0.00344479875639081
1772535158772003300,4.06100341796875,-0.00019520970818120986,0.0013480921043083072,-0.004304733593016863
1772535158782019300,4.071019287109375,-0.0008327704854309559,0.0011475561186671257,-0.006053365301340818
1772535158792035300,4.081035400390625,-0.0019094864837825298,0.003609115956351161,-0.004061320796608925
1772535158802051300,4.09105126953125,0.0007222492713481188,0.0015672702575102448,-0.004733768757432699
1772535158812067300,4.1010673828125,-0.00227806787006557,0.0030309436842799187,-0.004876248072832823
1772535158822083600,4.11108349609375,-0.0005853627808392048,0.002290851203724742,-0.003692472819238901
1772535158832099300,4.121099365234375,-0.0010434264549985528,0.0028961875941604376,-0.0038714371621608734
1772535158842115300,4.131115234375,-0.0027742148377001286,0.0020125508308410645,-0.0037345506716519594
1772535158852131300,4.14113134765625,-0.001508414396084845,0.0028610338922590017,-0.005702893249690533
1772535158862147300,4.151147216796875,-0.00020213393145240843,0.0031041805632412434,-0.005262406077235937
1772535158872163300,4.161163330078125,-0.00025486451340839267,0.002030926523730159,-0.0033784860279411077
1772535158882179300,4.171179443359375,-0.0014050838071852922,0.002659166231751442,-0.0046940878964960575
1772535158892196400,4.1811962890625,-0.0016349145444110036,0.002347310073673725,-0.003136138431727886
1772535158902212400,4.19121240234375,-0.0013251889031380415,0.0035092474427074194,-0.003935352899134159
1772535158912228400,4.201228271484375,-0.0007693872321397066,0.0012508867075666785,-0.0037350833881646395
1772535158922244400,4.211244384765625,-0.0009888317435979843,0.002740392694249749,-0.0041220407001674175
1772535158932260400,4.22126025390625,0.0001549959706608206,0.0011486213188618422,-0.004808337427675724
1772535158942276400,4.2312763671875,-0.0020700751338154078,0.001969673903658986,-0.003168895374983549
1772535158952292400,4.241292236328125,0.00008948221511673182,0.002234924817457795,-0.004009921569377184
1772535158962308400,4.251308349609375,-0.0022836606949567795,0.0021142836194485426,-0.003840810852125287
1772535158972324400,4.261324462890625,-0.0002426139690214768,0.0023238742724061012,-0.005052815657109022
1772535158982340400,4.27134033203125,-0.0015001586871221662,0.002665824256837368,-0.0064714811742305756
1772535158992356400,4.2813564453125,-0.000952080066781491,0.0029846045654267073,-0.005498894955962896
1772535159002373400,4.291373291015625,-0.0015105449128895998,0.003335342975333333,-0.004989698529243469
1772535159012389400,4.301389404296875,0.00016964336100500077,0.0022391858510673046,-0.0044469465501606464
1772535159022405400,4.3114052734375,0.0009012137306854129,0.0021915151737630367,-0.003468500915914774
1772535159032421400,4.32142138671875,-0.0004873584839515388,0.0030277478508651257,-0.0030394657514989376
1772535159042437400,4.331437255859375,-0.0007243797881528735,0.002284725895151496,-0.004029096569865942
1772535159052453400,4.341453369140625,0.0004463458026293665,0.0019401127938181162,-0.003899400355294347
1772535159062469400,4.351469482421875,-0.0005174521938897669,0.003294330323114991,-0.004649346694350243
1772535159072485400,4.3614853515625,-0.0011536814272403717,0.0018849853659048676,-0.004203799646347761
1772535159082501400,4.37150146484375,0.0005624596378766,0.0016903083305805922,-0.0036964674945920706
1772535159092517400,4.381517333984375,-0.0010183927370235324,0.0030088394414633512,-0.0034021881874650717
1772535159102533400,4.391533447265625,-0.000016245283404714428,0.0031036478467285633,-0.003641073824837804
1772535159112549400,4.40154931640625,-0.000553404854144901,0.0012343751732259989,-0.0037731665652245283
1772535159122566400,4.41156640625,0.00012090751260984689,0.003090598387643695,-0.005058674607425928
1772535159132582400,4.42158251953125,-0.0009166600648313761,0.0020999026019126177,-0.003510046284645796
1772535159142598400,4.431598388671875,-0.00010679275874281302,0.0027212179265916348,-0.0035507925786077976
1772535159152614400,4.441614501953125,-0.0022892532870173454,0.0024919197894632816,-0.0034756914246827364
1772535159162630400,4.45163037109375,-0.0010897654574364424,0.0031073763966560364,-0.0035627768374979496
1772535159172646400,4.461646484375,0.00006151902198325843,0.002171807922422886,-0.004275971557945013
1772535159182662400,4.471662353515625,0.0004013383586425334,0.0025718146935105324,-0.0031273500062525272
1772535159192678400,4.481678466796875,-0.0012476909905672073,0.0017891116440296173,-0.003925499506294727
1772535159202694700,4.491694580078125,0.0006197175825946033,0.002261023735627532,-0.004382763989269733
1772535159212710700,4.501710693359375,-0.0012088088551536202,0.0026730147656053305,-0.0037766287568956614
1772535159222726700,4.5117265625,-0.0026410568971186876,0.002238120650872588,-0.004258926957845688
1772535159232743400,4.521743408203125,-0.0010514160385355353,0.002635730430483818,-0.0049039446748793125
1772535159242759700,4.531759765625,-0.0012602078495547175,0.003667971817776561,-0.003964115399867296
1772535159252775700,4.541775634765625,-0.0011459582019597292,0.0011171960504725575,-0.004445082042366266
1772535159262791700,4.551791748046875,-0.0011270497925579548,0.003572896821424365,-0.005604622419923544
1772535159272807700,4.5618076171875,0.000019707391402334906,0.003010703483596444,-0.0039116512052714825
1772535159282823700,4.57182373046875,-0.0003081277245655656,0.002579271560534835,-0.004397677723318338
1772535159292839400,4.58183935546875,-0.0004652542411349714,0.002359294332563877,-0.006401173770427704
1772535159302855700,4.591855712890625,-0.00210682675242424,0.002492984989657998,-0.004968659486621618
1772535159312871700,4.60187158203125,-0.0005249090609140694,0.0016247945604845881,-0.004165450111031532
1772535159322887700,4.6118876953125,-0.0008870989549905062,0.003317499766126275,-0.004577174782752991
1772535159332903700,4.621903564453125,-0.0003270361921750009,0.0020879183430224657,-0.004165450111031532
1772535159342919700,4.631919677734375,-0.0018895127577707171,0.0028844696935266256,-0.0035228293854743242
1772535159352936400,4.6419365234375,-0.0006077333819121122,0.0011683288030326366,-0.005062669049948454
1772535159362952700,4.65195263671875,-0.0023616913240402937,0.0024588967207819223,-0.0025806031189858913
1772535159372968700,4.66196875,-0.000007723167072981596,0.0026112294290214777,-0.00398701848462224
1772535159382984700,4.671984619140625,-0.0000031957933970261365,0.003355050226673484,-0.004885302856564522
1772535159393000700,4.682000732421875,-0.0003081277245655656,0.0031944618094712496,-0.003300189273431897
1772535159403016400,4.692016357421875,-0.0008586031035520136,0.0022951122373342514,-0.003052781568840146
1772535159413032400,4.702032470703125,-0.0008455536444671452,0.002834402257576585,-0.004539890680462122
1772535159423048700,4.712048583984375,-0.0006591323763132095,0.002983805723488331,-0.00404587434604764
1772535159433064700,4.722064697265625,-0.0002490055630914867,0.0014849785948172212,-0.0054453653283417225
1772535159443080700,4.732080810546875,0.0008167914929799736,0.002380333375185728,-0.0031641016248613596
1772535159453096700,4.7420966796875,-0.00010865696822293103,0.002579271560534835,-0.0049532135017216206
1772535159463113500,4.752113525390625,0.00005885586142539978,0.0017385114915668964,-0.003686880227178335
1772535159473129500,4.76212939453125,0.0002426139690214768,0.0011614045361056924,-0.004560663364827633
1772535159483145700,4.772145751953125,-0.00022690132027491927,0.0028485171496868134,-0.002870887517929077
1772535159493161700,4.78216162109375,-0.0008170577930286527,0.0018865832826122642,-0.0038277613930404186
1772535159503177700,4.792177734375,-0.001133174984715879,0.0031321437563747168,-0.004494616761803627
1772535159513193700,4.80219384765625,0.0005448827287182212,0.0027944548055529594,-0.0026141589041799307
1772535159523209500,4.81220947265625,-0.0001411475386703387,0.0022538332268595695,-0.0041249701753258705
1772535159533225500,4.8222255859375,-0.0000399474156438373,0.0022325278259813786,-0.003897269954904914
1772535159543241500,4.832241455078125,0.000020240024241502397,0.0030064424499869347,-0.004506334662437439
1772535159553257700,4.8422578125,-0.000883636821527034,0.001847967505455017,-0.004541222471743822
1772535159563273700,4.852273681640625,-0.0003336940717417747,0.0024546354543417692,-0.004456533584743738
1772535159573289700,4.862289794921875,-0.0005941512063145638,0.001957689644768834,-0.004126567859202623
1772535159583306500,4.872306396484375,-0.0005997438565827906,0.0024580976460129023,-0.004028830211609602
1772535159593322500,4.882322509765625,-0.00024501082953065634,0.0034139060880988836,-0.005025384947657585
1772535159603338800,4.8923388671875,-0.000404534162953496,0.0034165694378316402,-0.004656536970287561
1772535159613354800,4.902354736328125,0.0005917543894611299,0.0034208304714411497,-0.004159591160714626
1772535159623370800,4.912370849609375,0.00019973708549514413,0.0031816784758120775,-0.005742041394114494
1772535159633386500,4.922386474609375,-0.0017206683987751603,0.003293264890089631,-0.00555215822532773
1772535159643402500,4.932402587890625,0.00016405072528868914,0.003135872073471546,-0.0034850125666707754
1772535159653418500,4.94241845703125,-0.0001984054979402572,0.0016349145444110036,-0.003923102747648954
1772535159663434500,4.9524345703125,-0.0007992146420292556,0.0032266860362142324,-0.0036940707359462976
1772535159673450800,4.96245068359375,-0.0018402442801743746,0.0019390475936233997,-0.00544376764446497
1772535159683466800,4.972466796875,-0.00043302998528815806,0.0021315941121429205,-0.002766491612419486
1772535159693482800,4.982482666015625,0.00043010051012970507,0.0029113676864653826,-0.0046328348107635975
1772535159703499500,4.99249951171875,0.0003685815026983619,0.0015012238873168826,-0.003952131140977144
1772535159713515500,5.002515625,-0.0009816411184147,0.0013430321123450994,-0.002847185591235757
1772535159723531800,5.01253173828125,-0.00045806370326317847,0.0019651465117931366,-0.005480252671986818
1772535159733547800,5.0225478515625,-0.000027164242055732757,0.002740659052506089,-0.004052266012877226
1772535159743563800,5.032563720703125,-0.0004522047529462725,0.0028461201582103968,-0.0032767534721642733
1772535159753579500,5.04257958984375,-0.0007563377148471773,0.002656769473105669,-0.003698864486068487
1772535159763595500,5.052595458984375,-0.0006117281154729426,0.003319630166515708,-0.0038898130878806114
1772535159773611500,5.062611572265625,-0.0022021678742021322,0.0038450718857347965,-0.0037465349305421114
1772535159783627500,5.07262744140625,-0.00045593318645842373,0.0025691515766084194,-0.0035268242936581373
1772535159793643800,5.082643798828125,-0.0007829693495295942,0.0018010957865044475,-0.0052179316990077496
1772535159803659800,5.09265966796875,-0.0009531453251838684,0.0007864314829930663,-0.0027507790364325047
1772535159813675500,5.102675537109375,-0.0007510114228352904,0.00301762786693871,-0.003727360162883997
1772535159823692500,5.112692626953125,-0.0006740460521541536,0.004447745159268379,-0.004408597014844418
1772535159833708500,5.12270849609375,-0.0016319850692525506,0.002423742786049843,-0.003369963960722089
1772535159843724800,5.132724853515625,-0.0007448861724697053,0.0023869911674410105,-0.004547081422060728
1772535159853740800,5.14274072265625,-0.0000953411654336378,0.002415487077087164,-0.004057059530168772
1772535159863756500,5.152756591796875,-0.0008918926469050348,0.0017209346406161785,-0.0037020600866526365
1772535159873772500,5.1627724609375,0.00009400958515470847,0.003625627374276519,-0.005035238806158304
1772535159883788500,5.17278857421875,-0.0004191815387457609,0.002113218419253826,-0.004147074185311794
1772535159893804500,5.182804443359375,-0.0012580773327499628,0.002769953804090619,-0.004225371405482292
1772535159903820500,5.192820556640625,0.0002359560749027878,0.002689526416361332,-0.004807271994650364
1772535159913836800,5.2028369140625,-0.000603738590143621,0.0027545075863599777,-0.004576908424496651
1772535159923852800,5.212852783203125,0.00014620754518546164,0.0019345202017575502,-0.0046418895944952965
1772535159933868500,5.22286865234375,-0.001505484920926392,0.001990979304537177,-0.005586246494203806
1772535159943885600,5.232885498046875,-0.0009547432418912649,0.0021169467363506556,-0.004488491453230381
1772535159953901600,5.242901611328125,-0.0003712446487043053,0.0021853898651897907,-0.0037563887890428305
1772535159963917800,5.252917724609375,-0.0003456783015280962,0.0018021611031144857,-0.003976631909608841
1772535159973933800,5.262933837890625,-0.0007667240570299327,0.0027353328187018633,-0.005075985100120306
1772535159983949600,5.272949462890625,-0.0008889631717465818,0.004238953348249197,-0.004445881117135286
1772535159993965600,5.282965576171875,0.0009041432058438659,0.0027363980188965797,-0.004201402887701988
1772535160003981600,5.292981689453125,-0.0017608820926398039,0.0017710020765662193,-0.004601676017045975
1772535160013997600,5.30299755859375,-0.0007595335482619703,0.004381699021905661,-0.005406217183917761
1772535160024013600,5.313013671875,0.0008215851848945022,0.0016900419723242521,-0.003615241264924407
1772535160034655500,5.323655517578125,-0.0013651363551616669,0.0018932411912828684,-0.005644570104777813
1772535160044671500,5.33367138671875,-0.0002623213513288647,0.0025800704024732113,-0.003221359569579363
1772535160054688800,5.343688720703125,-0.00027616979787126184,0.0019257317762821913,-0.003897003596648574
1772535160064704800,5.353704833984375,-0.00038456046604551375,0.0030951257795095444,-0.004747617058455944
1772535160074720500,5.363720458984375,-0.000984570593573153,0.002868224401026964,-0.005380384158343077
1772535160084736500,5.373736572265625,-0.0009142631897702813,0.0015960324089974165,-0.003697799053043127
1772535160094752500,5.38375244140625,-0.0004857605672441423,0.001916410750709474,-0.0049556102603673935
1772535160104768500,5.3937685546875,-0.0022096247412264347,0.002124669961631298,-0.004767591133713722
1772535160114784800,5.40378466796875,-0.00017843178648035973,0.0026069683954119682,-0.00455773388966918
1772535160124800800,5.41380078125,-0.001377653214149177,0.002153964713215828,-0.0037926076911389828
1772535160134816800,5.423816650390625,-0.000028762138754245825,0.0020671456586569548,-0.0038005972746759653
1772535160144832500,5.43383251953125,-0.0011744539951905608,0.00293347192928195,-0.0057769292034208775
1772535160154848500,5.4438486328125,-0.0007651261985301971,0.0030245520174503326,-0.005588909611105919
1772535160164864500,5.453864501953125,0.0005669869715347886,0.0010841728653758764,-0.0055803875438869
1772535160174880500,5.463880615234375,-0.0015598133904859424,0.001139566651545465,-0.004367584362626076
1772535160184897500,5.4738974609375,-0.000494016392622143,0.002710299100726843,-0.003938815090805292
1772535160194913500,5.48391357421875,0.00009134642459684983,0.003020024625584483,-0.004762530792504549
1772535160204929000,5.493928955078125,-0.0005195827106945217,0.002383795566856861,-0.004172640852630138
1772535160214945000,5.503945068359375,-0.0007179882377386093,0.003576359013095498,-0.005092230159789324
1772535160224961000,5.5139609375,-0.00017070861940737814,0.0022775353863835335,-0.004779841285198927
1772535160234977000,5.52397705078125,0.0002633866388350725,0.002855441300198436,-0.003742806613445282
1772535160244993300,5.5339931640625,-0.0025363946333527565,0.0012610068079084158,-0.003984089009463787
1772535160255009300,5.54400927734375,-0.0005984122981317341,0.003634415799751878,-0.0025569009594619274
1772535160265025000,5.55402490234375,0.00018562232435215265,0.0023254721891134977,-0.0041068606078624725
1772535160275041000,5.564041015625,-0.0000327568814100232,0.0021702100057154894,-0.002523078816011548
1772535160285057000,5.57405712890625,-0.0027142937760800123,0.0014591459184885025,-0.004338289611041546
1772535160295073000,5.584072998046875,-0.0002055960358120501,0.003454652614891529,-0.0049436260014772415
1772535160305090300,5.59409033203125,-0.00004846953015658073,0.0028929917607456446,-0.004531102254986763
1772535160315106000,5.60410595703125,-0.0013201289111748338,0.0023422501981258392,-0.005262938793748617
1772535160325122000,5.6141220703125,-5.326322138898831e-7,0.002868490759283304,-0.004090615548193455
1772535160335138000,5.624137939453125,-0.001386441639624536,0.002894856035709381,-0.005483981221914291
1772535160345154000,5.634154052734375,-0.0009693906176835299,0.002502838848158717,-0.004476507660001516
1772535160355170000,5.644170166015625,0.0003379551344551146,0.0030032468494027853,-0.0037707698065787554
1772535160365186300,5.654186279296875,-0.0008684568456374109,0.002013616031035781,-0.005095159634947777
1772535160375202300,5.664202392578125,-0.0005328985280357301,0.002126534003764391,-0.004721251782029867
1772535160385218000,5.674218017578125,-0.0022956449538469315,0.0019539613276720047,-0.003888481529429555
1772535160395234000,5.684234130859375,-0.0014660701854154468,0.002344913315027952,-0.005894640926271677
1772535160405250000,5.69425,0.0011033476330339909,0.002201369032263756,-0.004098338540643454
1772535160415266000,5.70426611328125,0.0008333030855283141,0.0026442527305334806,-0.0051835766062140465
1772535160425283000,5.714282958984375,0.0006354302167892456,0.0023529028985649347,-0.0051596080884337425
1772535160435299000,5.724299072265625,-0.0006676545017398894,0.0029230855870991945,-0.003427221905440092
1772535160445315000,5.734315185546875,0.0010703244479373097,0.003064765827730298,-0.005468534771353006
1772535160455331000,5.7443310546875,-0.00038456046604551375,0.0023347933311015368,-0.0043737092055380344
1772535160465347000,5.75434716796875,-0.001038366463035345,0.0024738102219998837,-0.004539357963949442
1772535160475363000,5.764363037109375,-0.00042211104300804436,0.0034911378752440214,-0.004463724326342344
1772535160485379300,5.77437939453125,-0.0002388855500612408,0.002290318487212062,-0.004596349783241749
1772535160495395000,5.78439501953125,-0.0015957661671563983,0.0019430422689765692,-0.00424321461468935
1772535160505411000,5.7944111328125,0.000284159294096753,0.002040247665718198,-0.004287156742066145
1772535160515427000,5.804427001953125,0.0008295746520161629,0.003468500915914774,-0.004366252571344376
1772535160525443000,5.814443115234375,-0.00138031633105129,0.002436259761452675,-0.003852795111015439
1772535160535459000,5.824458984375,-0.00044767739018425345,0.0027262780349701643,-0.004605138208717108
1772535160545476000,5.83447607421875,-0.0006743124104104936,0.0028631645254790783,-0.0029678267892450094
1772535160555492000,5.8444921875,-0.0003888215287588537,0.002877545543015003,-0.002798982197418809
1772535160565508000,5.854508056640625,-0.0009182579233311117,0.002042910782620311,-0.0043859598226845264
1772535160575524000,5.864524169921875,-0.0007725830073468387,0.0027001791168004274,-0.004343083128333092
1772535160585540000,5.8745400390625,-0.0006799050024710596,0.0024349282030016184,-0.003882356220856309
1772535160595556000,5.88455615234375,0.0000500674286740832,0.002630670554935932,-0.003296460723504424
1772535160605572000,5.894572021484375,-0.0007121292874217033,0.003163302782922983,-0.004605670925229788
1772535160615588000,5.904588134765625,-0.001683650421909988,0.0034474621061235666,-0.003970507066696882
1772535160625604000,5.91460400390625,-0.00012996226723771542,0.0027025758754462004,-0.003932157531380653
1772535160635620000,5.9246201171875,-0.0010341054294258356,0.0038626487366855145,-0.0035627768374979496
1772535160645636000,5.934635986328125,-0.0010721886064857244,0.003838414093479514,-0.005212604999542236
1772535160655652000,5.944652099609375,-0.0017086841398850083,0.002037850907072425,-0.004848551005125046
1772535160665668000,5.954668212890625,0.00023142869758885354,0.0031135017052292824,-0.004281564150005579
1772535160675685000,5.96468505859375,-0.0008554073283448815,0.0026320021133869886,-0.0043683829717338085
1772535160685701000,5.974701171875,-0.0030834078788757324,0.0022072279825806618,-0.005365736782550812
1772535160695717000,5.984717041015625,-0.0021582257468253374,0.0021883193403482437,-0.0031310785561800003
1772535160705733000,5.994733154296875,-0.000041545314161339775,0.0030184267088770866,-0.00378994457423687
1772535160715749000,6.0047490234375,0.00011265171633567661,0.0032117723021656275,-0.003949734382331371
1772535160725765000,6.01476513671875,-0.000627707049716264,0.001847967505455017,-0.0043870252557098866
1772535160735781000,6.024781005859375,0.0004809668753296137,0.0015957661671563983,-0.0035380094777792692
1772535160745797000,6.034797119140625,-0.0012002866715192795,0.003299922915175557,-0.005423527676612139
1772535160755813000,6.044813232421875,0.0007731156656518579,0.002944657113403082,-0.004309793468564749
1772535160765829000,6.0548291015625,-0.0003153182624373585,0.002240517409518361,-0.004963599611073732
1772535160775845000,6.06484521484375,0.0003576625313144177,0.0028722193092107773,-0.004832838196307421
1772535160785861000,6.074861083984375,-0.00014940333494450897,0.003977430984377861,-0.0031553131993860006
1772535160795878100,6.084878173828125,-0.000024767397917457856,0.0027366643771529198,-0.004895955324172974
1772535160805894100,6.09489404296875,-0.0007190534961409867,0.0033396040089428425,-0.003406449221074581
1772535160815910100,6.10491015625,-0.0001613875647308305,0.0025457157753407955,-0.004731904715299606
1772535160825926100,6.114926025390625,-0.0007811051327735186,0.0013323795283213258,-0.004716458264738321
1772535160835942100,6.124942138671875,-0.0007992146420292556,0.004460528492927551,-0.006599313113838434
1772535160845958100,6.134958251953125,0.00008655273268232122,0.004670652095228434,-0.004547081422060728
1772535160855974100,6.14497412109375,-0.0006370281334966421,0.0031092404387891293,-0.00691942498087883
1772535160865990100,6.154990234375,-0.0021694109309464693,0.003081809962168336,-0.0046757119707763195
1772535160876006100,6.165006103515625,-0.0011622034944593906,0.003412308171391487,-0.004526042379438877
1772535160886022100,6.175022216796875,-0.0010402307379990816,0.0025515747256577015,-0.004801413044333458
1772535160896038100,6.1850380859375,-0.0006639260682277381,0.004461593925952911,-0.00444002216681838
1772535160906054100,6.19505419921875,-0.0009046758059412241,0.003817375050857663,-0.004311657976359129
1772535160916071200,6.2050712890625,-0.0006476807757280767,0.001454618526622653,-0.00458836043253541
1772535160926087200,6.215087158203125,-0.0002620550512801856,0.002548911375924945,-0.0032024511601775885
1772535160936103200,6.225103271484375,-0.0016373114194720984,0.002424541860818863,-0.004566255956888199
1772535160946119200,6.235119140625,-0.0012543488992378116,0.003340669209137559,-0.0033334787003695965
1772535160956135000,6.245135009765625,-0.0010183927370235324,0.002551840851083398,-0.004176901653409004
1772535160966151200,6.255151123046875,-0.00021731393644586205,0.002064748667180538,-0.0043742419220507145
1772535160976167200,6.265167236328125,-0.00014407701382879168,0.0027294738683849573,-0.004492220003157854
1772535160986183200,6.27518310546875,-0.0012844426091760397,0.0031912659760564566,-0.00484162662178278
1772535160996199200,6.28519921875,-0.0008159925346262753,0.002438922878354788,-0.004634699318557978
1772535161006215200,6.295215087890625,-0.0010018812026828527,0.0021917815320193768,-0.005884520709514618
1772535161016231200,6.305231201171875,-0.0010287790792062879,0.0017366473330184817,-0.004932706709951162
1772535161026247000,6.315246826171875,-0.0009741843095980585,0.002226402750238776,-0.0035832831636071205
1772535161036263200,6.32526318359375,-0.0018519621808081865,0.0021795309148728848,-0.0037092508282512426
1772535161046280200,6.3352802734375,0.00003488740912871435,0.004446680191904306,-0.004081028047949076
1772535161056296200,6.345296142578125,-0.0010905644157901406,0.002543585142120719,-0.00398755120113492
1772535161066312200,6.355312255859375,-0.0012871057260781527,0.0034618431236594915,-0.004565190523862839
1772535161076328000,6.365327880859375,-0.0014775217277929187,0.0024578312877565622,-0.004653075244277716
1772535161086344000,6.375343994140625,-0.0012359730899333954,0.002490588231012225,-0.0027531760279089212
1772535161096360200,6.385360107421875,-0.001392566948197782,0.0023377228062599897,-0.0031193606555461884
1772535161106376200,6.395376220703125,0.0004948153509758413,0.001898301183246076,-0.005469067487865686
1772535161116392200,6.40539208984375,-0.001246892032213509,0.0025214808993041515,-0.003153981640934944
1772535161126408200,6.415408203125,-0.0015398397808894515,0.0012290488230064511,-0.005560680292546749
1772535161136424200,6.425424072265625,-0.0018397116800770164,0.002397910226136446,-0.004282363224774599
1772535161146440000,6.43543994140625,-0.001184574095532298,0.0024652881547808647,-0.005319131538271904
1772535161156456200,6.445456298828125,-0.0006807039608247578,0.0034911378752440214,-0.004770520608872175
1772535161166472200,6.45547216796875,-0.0014314490836113691,0.003166232258081436,-0.0041542649269104
1772535161176489200,6.4654892578125,-0.0003909520455636084,0.0027355989441275597,-0.0028037759475409985
1772535161186505000,6.4755048828125,-0.001454618526622653,0.003859186777845025,-0.003233077470213175
1772535161196521000,6.48552099609375,-0.00001944107498275116,0.0017265273490920663,-0.005286640953272581
1772535161206537000,6.495536865234375,-0.0006239786162041128,0.0013347762869670987,-0.004310858901590109
1772535161216553000,6.505552978515625,-0.0007217166712507606,0.002133192028850317,-0.004415787290781736
1772535161226569000,6.51556884765625,-0.0005675196298398077,0.00304718897677958,-0.005619003437459469
1772535161236585000,6.5255849609375,-0.0016218650853261352,0.000586161739192903,-0.004789695143699646
1772535161246601200,6.535601318359375,-0.0006743124104104936,0.0029997846577316523,-0.00566986994817853
1772535161256617000,6.545616943359375,-0.00024980452144518495,0.003379018744453788,-0.00443842401728034
1772535161266633000,6.555633056640625,-0.0007906925166025758,0.003034405643120408,-0.004548412747681141
1772535161276649000,6.56564892578125,-0.0002759034978225827,0.002817624481394887,-0.005256281234323978
1772535161286665000,6.5756650390625,-0.0008740494376979768,0.002686863299459219,-0.0021225393284112215
1772535161296682000,6.585681884765625,-0.00037257623625919223,0.002552639925852418,-0.0038250982761383057
1772535161306698000,6.595697998046875,-0.0007422229973599315,0.0015622102655470371,-0.005077582783997059
1772535161316714000,6.6057138671875,-0.0016586167039349675,0.0032202943693846464,-0.0059721386060118675
1772535161326730000,6.61572998046875,-0.0014554174849763513,0.0034136399626731873,-0.005949235521256924
1772535161336746000,6.62574609375,-0.0008886968716979027,0.0022591594606637955,-0.0044381581246852875
1772535161346762000,6.635761962890625,-0.0005254416610114276,0.0036847495939582586,-0.004721251782029867
1772535161356778000,6.645778076171875,-0.0012604740913957357,0.002951315138489008,-0.0047087352722883224
1772535161366794000,6.6557939453125,-0.0005989448982290924,0.001341434195637703,-0.00307675008662045
1772535161376810000,6.66581005859375,-0.0005789712304249406,0.002398442942649126,-0.004779575392603874
1772535161386826000,6.675825927734375,-0.0014436995843425393,0.002638659905642271,-0.004749747924506664
1772535161396842000,6.685842041015625,-0.0008522115531377494,0.003234142903238535,-0.004033623728901148
1772535161406858000,6.69585791015625,-0.0007749798824079335,0.0016221314435824752,-0.003674629610031843
1772535161416874000,6.7058740234375,-0.0014484933344647288,0.002347842790186405,-0.0036341496743261814
1772535161426891000,6.71589111328125,0.0006490123341791332,0.002930808812379837,-0.004579572007060051
1772535161436907000,6.725906982421875,-0.0008889631717465818,0.0027270768769085407,-0.0041252365335822105
1772535161446923000,6.735923095703125,0.0008154599345289171,0.0023731428664177656,-0.003477022983133793
1772535161456939000,6.74593896484375,-0.0005328985280357301,0.00336090917699039,-0.0029345371294766665
1772535161466955000,6.755955078125,-0.000180029688635841,0.002132659312337637,-0.005468002520501614
1772535161476971000,6.765970947265625,-0.0011736550368368626,0.003025883575901389,-0.005528189707547426
1772535161486986800,6.77598681640625,0.00009640643111197278,0.002916427794843912,-0.004219778813421726
1772535161497003000,6.7860029296875,-0.0016564861871302128,0.002234658459201455,-0.005286374595016241
1772535161507019000,6.79601904296875,-0.00038296254933811724,0.0034085798542946577,-0.004316717851907015
1772535161517035000,6.806034912109375,-0.0032621060963720083,0.003724963404238224,-0.0046173888258636
1772535161527051000,6.816051025390625,0.0004617921367753297,0.001995772821828723,-0.005516471806913614
1772535161537067000,6.82606689453125,-0.0018226674292236567,0.002930276095867157,-0.004942294210195541
1772535161547083000,6.8360830078125,-0.00010173275222769007,0.0023070964962244034,-0.005874933209270239
1772535161557100000,6.84610009765625,-0.0008175904513336718,0.003364105010405183,-0.003961984533816576
1772535161567116000,6.856115966796875,0.0001478054327890277,0.0029678267892450094,-0.006247243378311396
1772535161577132000,6.866132080078125,-0.0014990933705121279,0.003213636577129364,-0.0035175031516700983
1772535161587148000,6.87614794921875,-0.001505751279182732,0.0019837887957692146,-0.0038842204958200455
1772535161597164000,6.8861640625,-0.00033635724685154855,0.0030312100425362587,-0.0038746329955756664
1772535161607179800,6.8961796875,-0.00023036343918647617,0.003568103304132819,-0.003519367426633835
1772535161617196000,6.906196044921875,-0.0008173241512849927,0.002813895931467414,-0.004794755019247532
1772535161627212000,6.9162119140625,-0.0012096078135073185,0.002034122357144952,-0.004222974646836519
1772535161637228000,6.92622802734375,-0.0002902845444623381,0.0028415927663445473,-0.0038365498185157776
1772535161647244000,6.936244140625,-0.0003222425002604723,0.002734267385676503,-0.006043511442840099
1772535161657260000,6.946260009765625,-0.0007936219917610288,0.0032671659719198942,-0.005271194502711296
1772535161667276000,6.956276123046875,-0.00005352953667170368,0.0031473238486796618,-0.004620318301022053
1772535161677292000,6.9662919921875,-0.0006636597099713981,0.0034671693574637175,-0.005636846646666527
1772535161687308000,6.97630810546875,-0.0007382282637991011,0.0021228056866675615,-0.004436826333403587
1772535161697325000,6.986324951171875,-0.0004242415598127991,0.0015494271647185087,-0.0033190976828336716
1772535161707341000,6.996341064453125,-0.0010120011866092682,0.0028876655269414186,-0.005080778617411852
1772535161717356800,7.006356689453125,-0.0007994809420779347,0.003299922915175557,-0.003584881080314517
1772535161727372800,7.016372802734375,-0.0011339739430695772,0.0021552962716668844,-0.0054427022114396095
1772535161737389000,7.02638916015625,-0.001669003046117723,0.002356631215661764,-0.004956941585987806
1772535161747405000,7.036405029296875,-0.0017124125733971596,0.0032589102629572153,-0.003766775131225586
1772535161757421000,7.046421142578125,-0.0012351741315796971,0.002115348819643259,-0.004293282050639391
1772535161767437000,7.05643701171875,-0.00133877107873559,0.0033478597179055214,-0.0027324033435434103
1772535161777453000,7.066453125,-0.0005448827287182212,0.0025505092926323414,-0.004319647327065468
1772535161787468800,7.07646875,-0.001315335277467966,0.0031459920573979616,-0.005313006229698658
1772535161797485000,7.086485107421875,0.0009837717516347766,0.002115348819643259,-0.0046607982367277145
1772535161807501000,7.0965009765625,-0.0007033408619463444,0.0015614113071933389,-0.0034735610242933035
1772535161817517000,7.10651708984375,-0.001460477476939559,0.0025632926262915134,-0.00282082031480968
1772535161827534000,7.1165341796875,-0.00045593318645842373,0.002092179376631975,-0.0037918086163699627
1772535161837549800,7.1265498046875,-0.0009648632840253413,0.0022535668686032295,-0.005145227070897818
1772535161847565800,7.13656591796875,-0.0002442118711769581,0.0035167040769010782,-0.004602208733558655
1772535161857582000,7.14658203125,-0.0017560884589329362,0.0025715483352541924,-0.0049217878840863705
1772535161867598000,7.15659814453125,0.0002466087171342224,0.003599528456106782,-0.004723649006336927
1772535161877614000,7.166614013671875,-0.0012500877492129803,0.0025571673177182674,-0.004405933897942305
1772535161887630000,7.176630126953125,-0.00020772656716872007,0.00316010694950819,-0.003656253917142749
1772535161897645800,7.186645751953125,-0.0005637911963276565,0.0027451864443719387,-0.003099120454862714
1772535161907661800,7.196661865234375,-0.0020000338554382324,0.0025454494170844555,-0.0043710460886359215
1772535161917677800,7.206677734375,-0.0005091963685117662,0.0015571502735838294,-0.003603257006034255
1772535161927694000,7.216694091796875,-0.0011201255256310105,0.0025534387677907944,-0.0027092336677014828
1772535161937710000,7.2267099609375,-0.0017627463676035404,0.0021281319204717875,-0.005411543417721987
1772535161947726000,7.23672607421875,-0.000966993800830096,0.0015656723408028483,-0.004021373111754656
1772535161957742800,7.246742919921875,-0.0018695390317589045,0.0022650184109807014,-0.0031585090328007936
1772535161967758800,7.2567587890625,-0.0018024274613708258,0.002371544949710369,-0.003653058083727956
1772535161977775000,7.266775146484375,0.00015339808305725455,0.0027300063520669937,-0.0031973912846297026
1772535161987791000,7.276791015625,-0.001853293739259243,0.002808303339406848,-0.004180630203336477
1772535161997807000,7.28680712890625,-0.00020506340661086142,0.0023995081428438425,-0.005164135713130236
1772535162007823000,7.296822998046875,-0.0003153182624373585,0.002531867241486907,-0.0049588060937821865
1772535162017838800,7.3068388671875,-0.000675377668812871,0.002956907730549574,-0.0039880839176476
1772535162027854800,7.316854736328125,-0.0000977380113909021,0.0018522285390645266,-0.0033068470656871796
1772535162037870800,7.326870849609375,-0.0028397287242114544,0.0011888351291418076,-0.004204332362860441
1772535162047887000,7.33688720703125,-0.000316916179144755,0.0022335932590067387,-0.005004878621548414
1772535162057903000,7.346903076171875,-0.0003105245705228299,0.0033278861083090305,-0.0038184402510523796
1772535162067919000,7.356919189453125,-0.0010186590952798724,0.0024823325220495462,-0.004326837603002787
1772535162077935000,7.36693505859375,-0.0010628675809130073,0.003926032222807407,-0.005265069659799337
1772535162087952000,7.376951904296875,-0.0025366609916090965,0.003226952161639929,-0.0052296495996415615
1772535162097968000,7.386968017578125,-0.0009326389990746975,0.0025092302821576595,-0.0037318875547498465
1772535162107984100,7.396984130859375,-0.0018820558907464147,0.0030900659039616585,-0.005400358233600855
1772535162118000000,7.407000244140625,-0.0006191849242895842,0.0021486382465809584,-0.0041004689410328865
1772535162128016000,7.417015869140625,-0.0006796387024223804,0.0031585090328007936,-0.0028477180749177933
1772535162138031900,7.427031982421875,-0.00011584750609472394,0.003239469137042761,-0.0024463797453790903
1772535162148048000,7.4370478515625,-0.0016410398529842496,0.0032863407395780087,-0.004786765668541193
1772535162158063900,7.44706396484375,-0.0016996293561533093,0.0028189560398459435,-0.004457865376025438
1772535162168080100,7.457080078125,-0.0003312972257845104,0.002511893631890416,-0.00449887802824378
1772535162178096000,7.46709619140625,-0.00261868629604578,0.002283926820382476,-0.0034288198221474886
1772535162188112100,7.477112060546875,-0.00034700988908298314,0.001990180229768157,-0.003424026072025299
1772535162198128600,7.487128662109375,-0.0010450243717059493,0.004171309061348438,-0.004864263813942671
1772535162208144600,7.49714453125,0.00036272252327762544,0.0034999263007193804,-0.004071706905961037
1772535162218160600,7.50716064453125,-0.0003150519623886794,0.001347825862467289,-0.004778243601322174
1772535162228177700,7.517177734375,0.0013651363551616669,0.0027443873696029186,-0.004336957819759846
1772535162238193700,7.527193603515625,-0.0004487426485866308,0.003251187037676573,-0.0037444045301526785
1772535162248209700,7.537209716796875,-0.0009781790431588888,0.0028274781070649624,-0.0044408212415874004
1772535162258225700,7.5472255859375,0.00044474788592197,0.0028671592008322477,-0.004375573713332415
1772535162268241700,7.55724169921875,-0.001811482128687203,0.0030072415247559547,-0.003328951308503747
1772535162278258000,7.5672578125,-0.0011446266435086727,0.0030714236199855804,-0.005258944351226091
1772535162288274000,7.57727392578125,-0.002168878447264433,0.0032487902790308,-0.004296744242310524
1772535162298289700,7.58728955078125,-0.000287088769255206,0.002871153876185417,-0.004058391321450472
1772535162308305700,7.5973056640625,-0.001365402713418007,0.00256462418474257,-0.00532578956335783
1772535162318321700,7.60732177734375,-0.0011938951211050153,0.002923884429037571,-0.005293565336614847
1772535162328337700,7.617337646484375,0.00007084008393576369,0.0029734193813055754,-0.004706604406237602
1772535162338353700,7.627353759765625,-0.0007400924805551767,0.001826395862735808,-0.004972388036549091
1772535162348370000,7.637369873046875,-0.0013904364313930273,0.0014628743520006537,-0.006405435036867857
1772535162358386000,7.647385986328125,-0.0014711301773786545,0.0028988507110625505,-0.0049468218348920345
1772535162368402700,7.657402587890625,-0.001317998394370079,0.002558232517912984,-0.004286357667297125
1772535162378418700,7.667418701171875,0.00042823629337362945,0.0033129723742604256,-0.00415453128516674
1772535162388434700,7.6774345703125,-0.001115598133765161,0.00219524372369051,-0.0041617220267653465
1772535162398451000,7.687450927734375,-0.00035952674807049334,0.0032477248460054398,-0.004307396709918976
1772535162408466700,7.697466796875,-0.0008514125947840512,0.0019387812353670597,-0.0057590859942138195
1772535162418482700,7.707482666015625,-0.0020548950415104628,0.00192200334277004,-0.003988882526755333
1772535162428498700,7.717498779296875,-0.000600809114985168,0.0023728765081614256,-0.004063451196998358
1772535162438514700,7.7275146484375,-0.0005914880894124508,0.002688727341592312,-0.004385427106171846
1772535162448530700,7.73753076171875,0.00005246427463134751,0.0017161410069093108,-0.005285841878503561
1772535162458546700,7.747546630859375,-0.0003051982494071126,0.002543318783864379,-0.0038394792936742306
1772535162468563000,7.75756298828125,-0.0008021441171877086,0.002004561247304082,-0.005370264407247305
1772535162478578700,7.76757861328125,-0.0008186557097360492,0.0032495891209691763,-0.004000334069132805
1772535162488594700,7.7775947265625,-0.000657534459605813,0.003117230022326112,-0.006391320377588272
1772535162498610700,7.787610595703125,-0.00009054747351910919,0.0025150892324745655,-0.004403004422783852
1772535162508627700,7.797627685546875,-0.0013944311067461967,0.0020596887916326523,-0.0033388049341738224
1772535162518644000,7.80764404296875,-0.000663393409922719,0.0011230550007894635,-0.004706870764493942
1772535162528659700,7.81765966796875,-0.0009784454014152288,0.002651443239301443,-0.004238154739141464
1772535162538675700,7.82767578125,-0.0015033544041216373,0.0033723609521985054,-0.005794506054371595
1772535162548691700,7.837691650390625,-0.00001997370782191865,0.001686579897068441,-0.00273133791051805
1772535162558707700,7.847707763671875,0.00023622238950338215,0.0037180392537266016,-0.0034874093253165483
1772535162568723700,7.8577236328125,-0.0009701895760372281,0.0026197514962404966,-0.003020024625584483
1772535162578739700,7.86773974609375,-0.0005789712304249406,0.0018157431622967124,-0.002782470779493451
1772535162588756000,7.877755859375,0.00014993596414569765,0.0030948594212532043,-0.003950799349695444
1772535162598771700,7.887771728515625,-0.0011230550007894635,0.003049585735425353,-0.005244030617177486
1772535162608787700,7.89778759765625,-0.0006085322820581496,0.0026373283471912146,-0.0041428133845329285
1772535162618803700,7.9078037109375,0.00012170646368758753,0.004223773255944252,-0.003909786697477102
1772535162628819700,7.91781982421875,-0.0018346516881138086,0.003524960018694401,-0.0034080471377819777
1772535162638835700,7.927835693359375,-0.000031691615731688216,0.003050118451938033,-0.003866909770295024
1772535162648852700,7.937852783203125,-0.0008804410463199019,0.00404534162953496,-0.003314570290967822
1772535162658868700,7.94786865234375,-0.0007544735562987626,0.001725462032482028,-0.002683134749531746
1772535162668884700,7.957884765625,-0.00035899411886930466,0.0028748824261128902,-0.004605937283486128
1772535162678900700,7.967900634765625,-0.0012303803814575076,0.0032173648942261934,-0.00392816262319684
1772535162688916700,7.977916748046875,-0.0011936287628486753,0.0031228226143866777,-0.004688761197030544
1772535162698932700,7.9879326171875,-0.0018453042721375823,0.0024019049014896154,-0.0029968551825731993
1772535162708948700,7.99794873046875,0.0006956176948733628,0.003213103860616684,-0.005109540652483702
1772535162718964700,8.00796484375,-0.000904409505892545,0.0029385320376604795,-0.003297259798273444
1772535162728980700,8.017980712890624,-0.0013195963110774755,0.003528422210365534,-0.004818457178771496
1772535162738996700,8.027996826171876,0.00022690132027491927,0.002552639925852418,-0.0028490496333688498
1772535162749012700,8.0380126953125,0.00002663161103555467,0.0021222729701548815,-0.003608583239838481
1772535162759028700,8.04802880859375,-0.00020213393145240843,0.0008932242053560913,-0.003326288191601634
1772535162769044700,8.058044677734374,-0.0007091998122632504,0.0024623586796224117,-0.005334311630576849
1772535162779060700,8.068060791015625,-0.00024208133982028812,0.0010817759903147817,-0.005218463949859142
1772535162789077800,8.078077880859375,0.00006151902198325843,0.003368099918588996,-0.005191832315176725
1772535162799093800,8.08809375,-0.00029294771957211196,0.002255697501823306,-0.004028830211609602
1772535162809109800,8.09810986328125,-0.00148151651956141,0.002419215627014637,-0.003516171593219042
1772535162819125800,8.108125732421875,-0.002237587934359908,0.0020716730505228043,-0.00424135010689497
1772535162829141800,8.118141845703125,-0.0014053500490263104,0.003090598387643695,-0.0034437335561960936
1772535162839157800,8.12815771484375,-0.00014194648247212172,0.0029526466969400644,-0.004003796260803938
1772535162849173800,8.138173828125,-0.0012117383303120732,0.0021515677217394114,-0.0043920851312577724
1772535162859189800,8.148189697265625,-0.0019315907265990973,0.0026849990244954824,-0.004761199466884136
1772535162869205800,8.158205810546875,-0.0007459514308720827,0.0028943235520273447,-0.0046362970024347305
1772535162879221800,8.1682216796875,-0.0004316983977332711,0.0032927324064075947,-0.005604622419923544
1772535162889237800,8.17823779296875,-0.002543052425608039,0.0025425199419260025,-0.003881557146087289
1772535162899253800,8.188253662109375,0.00011638013529591262,0.003206712193787098,-0.005142297595739365
1772535162909269800,8.198269775390624,-0.0003968109958805144,0.002285258611664176,-0.004265851341187954
1772535162919285800,8.20828564453125,-0.00022556974727194756,0.0021257351618260145,-0.00398595305159688
1772535162929302800,8.218302734375,-0.001320927869528532,0.0026666230987757444,-0.005553755909204483
1772535162939318800,8.22831884765625,-0.001005343277938664,0.002697782125324011,-0.0051992894150316715
1772535162949334800,8.238334716796874,-0.002171541564166546,0.0025481125339865685,-0.0043928842060267925
1772535162959350800,8.248350830078126,-0.0007126618875190616,0.0016170714516192675,-0.0043864925391972065
1772535162969366800,8.25836669921875,0.000300404557492584,0.002043177140876651,-0.006187055725604296
1772535162979382800,8.2683828125,-0.0005179848521947861,0.0022450448013842106,-0.002672215923666954
1772535162989398800,8.278398681640626,-0.0018698053900152445,0.0014215953415259719,-0.004832305945456028
1772535162999414800,8.288414794921875,-0.0007275756215676665,0.002691923175007105,-0.003964381758123636
1772535163009430500,8.298430419921875,-0.0006974819116294384,0.0024346618447452784,-0.005067729391157627
1772535163019446800,8.30844677734375,-0.000045273736759554595,0.0031230889726430178,-0.005563876125961542
1772535163029462800,8.318462890625,-0.0012580773327499628,0.0017725999932736158,-0.004187554586678743
1772535163039478800,8.328478759765625,-0.0005811017472296953,0.0028658276423811913,-0.004926049150526524
1772535163049494800,8.338494873046875,-0.00021784658019896597,0.003299390198662877,-0.004481833893805742
1772535163059510800,8.3485107421875,0.0006495449924841523,0.001975000137463212,-0.005102084018290043
1772535163069527600,8.358527587890626,-0.001877262257039547,0.0030652983114123344,-0.0048855687491595745
1772535163079543800,8.368543701171875,-0.0013731258222833276,0.0038341530598700047,-0.005645368713885546
1772535163089559800,8.378559814453125,-0.00023435817274730653,0.0029411951545625925,-0.004315918777137995
1772535163099575800,8.388575927734376,-0.0014317154418677092,0.002579005202278495,-0.003153981640934944
1772535163109591800,8.398591796875,-0.0012610068079084158,0.003768905531615019,-0.00455640209838748
1772535163119607800,8.40860791015625,-0.0015997608425095677,0.0030511836521327496,-0.004821919370442629
1772535163129623600,8.41862353515625,-0.0009384979493916035,0.0030916635878384113,-0.003500991500914097
1772535163139639800,8.428639892578126,-0.000300404557492584,0.003084206720814109,-0.004056793171912432
1772535163149655800,8.43865576171875,-0.0008194546680897474,0.0037286917213350534,-0.005571066867560148
1772535163159671800,8.448671875,0.0013648699969053268,0.0015901734586805105,-0.004608334042131901
1772535163169687800,8.458687744140626,-0.001062068622559309,0.001927595934830606,-0.0033968619536608458
1772535163179703800,8.468703857421875,-0.0007126618875190616,0.0020042951218783855,-0.005408347584307194
1772535163189719600,8.478719482421875,-0.00063356600003317,0.0032226911280304193,-0.004598213825374842
1772535163199735300,8.4887353515625,-0.0009305084822699428,0.001731853699311614,-0.004674113821238279
1772535163209751300,8.498751220703125,-0.0009369000908918679,0.002775546396151185,-0.003436543047428131
1772535163219768300,8.508768310546875,-0.002005093963816762,0.0036732980515807867,-0.0035422705113887787
1772535163229784300,8.518784423828125,0.00025779398856684566,0.0018586200894787908,-0.003186472225934267
1772535163239800600,8.528800537109374,-0.0008777778712101281,0.003091397462412715,-0.00424135010689497
1772535163249816300,8.53881640625,0.00047643951256759465,0.0024916534312069416,-0.0046426886692643166
1772535163259832300,8.548832275390625,0.00011345066013745964,0.003108707955107093,-0.0039087217301130295
1772535163269848300,8.558848388671874,-0.0014860439114272594,0.0027020431589335203,-0.004437359049916267
1772535163279864300,8.5688642578125,-0.0014444985426962376,0.002630936913192272,-0.004540157038718462
1772535163289880300,8.57888037109375,-0.001085770782083273,0.00296250032261014,-0.003254649229347706
1772535163299896600,8.588896484375,-0.0005193164106458426,0.002463157754391432,-0.004939098376780748
1772535163309912300,8.598912353515624,-0.0015936355339363217,0.002304965863004327,-0.004521781112998724
1772535163319928300,8.60892822265625,-0.001050350721925497,0.002127333078533411,-0.004145210143178701
1772535163329944300,8.6189443359375,-0.00021837920940015465,0.00250523560680449,-0.003765709698200226
1772535163339960300,8.628960205078124,-0.0004972121678292751,0.0033342777751386166,-0.004686098080128431
1772535163349976300,8.638976318359376,0.00123783724848181,0.0025334651581943035,-0.0028759476263076067
1772535163359993300,8.648993408203125,-0.0013614079216495156,0.003066629869863391,-0.004721784498542547
1772535163370009300,8.65900927734375,-0.0015696671325713396,0.0029859361238777637,-0.003638410707935691
1772535163380025300,8.669025390625,-0.0008932242053560913,0.00304692261852324,-0.0043830303475260735
1772535163390041300,8.679041259765626,0.0001739044237183407,0.0013760552974417806,-0.004355600103735924
1772535163400057300,8.689057373046875,0.00011611382069531828,0.0029696908313781023,-0.0041433461010456085
1772535163410073300,8.6990732421875,-0.0010833739070221782,0.0038605183362960815,-0.005524194799363613
1772535163420089600,8.709089599609374,-0.00122558674775064,0.003165166825056076,-0.003919107839465141
1772535163430105300,8.719105224609375,-0.0015297196805477142,0.0020684772171080112,-0.00390312890522182
1772535163440121300,8.729121337890625,-0.00012543488992378116,0.0012314456980675459,-0.005025651305913925
1772535163450137300,8.739137451171874,-0.000841825210954994,0.0031915323343127966,-0.0035920715890824795
1772535163460153300,8.7491533203125,-0.0008881642133928835,0.0024775387719273567,-0.005155080929398537
1772535163470169300,8.75916943359375,-0.0006500775925815105,0.0020122844725847244,-0.005301821045577526
1772535163480185300,8.769185302734375,-0.0011779161868616939,0.0017632789677008986,-0.004032824654132128
1772535163490201600,8.77920166015625,-0.0005789712304249406,0.0031137678306549788,-0.0032959282398223877
1772535163500217300,8.78921728515625,-0.0014389059506356716,0.002671949565410614,-0.004595817066729069
1772535163510234400,8.799234375,-0.00042823629337362945,0.0026487798895686865,-0.004274639766663313
1772535163520250400,8.80925048828125,-0.0006838997360318899,0.002960369922220707,-0.0051779840141534805
1772535163530266400,8.819266357421874,-0.0006585997180081904,0.0024980450980365276,-0.006136721931397915
1772535163540282400,8.829282470703125,-0.0007603325066156685,0.003908987622708082,-0.004974252078682184
1772535163550298400,8.83929833984375,-0.0005392901366576552,0.00358834327198565,-0.0038152446504682302
1772535163560314400,8.849314453125,0.00031132352887652814,0.0015675366157665849,-0.004762530792504549
1772535163570330400,8.859330322265626,-0.000978978001512587,0.001990712946280837,-0.0046549392864108086
1772535163580346400,8.869346435546875,-0.0017422399250790477,0.003930293023586273,-0.004837898537516594
1772535163590362400,8.8793623046875,-0.0006519418093375862,0.002785133896395564,-0.005425658077001572
1772535163600378400,8.88937841796875,-0.0005531385540962219,0.0025270734913647175,-0.004122573416680098
1772535163610394400,8.899394287109375,0.0011430287268012762,0.002508165081962943,-0.004522313829511404
1772535163620410400,8.909410400390625,-0.00032570460462011397,0.0018306568963453174,-0.0036013927310705185
1772535163630426400,8.91942626953125,-0.00023941817926242948,0.002822684356942773,-0.005062935408204794
1772535163640442400,8.9294423828125,-0.0007185208378359675,0.002930009737610817,-0.004926847759634256
1772535163650459400,8.93945947265625,-0.0007811051327735186,0.0017156084068119526,-0.004601143300533295
1772535163660475100,8.94947509765625,-0.0015393070643767715,0.002585396869108081,-0.0041036647744476795
1772535163670491400,8.959491455078124,0.0004114583716727793,0.002581934677436948,-0.005060805007815361
1772535163680507400,8.96950732421875,-0.0003486077766865492,0.002686330582946539,-0.00452870549634099
1772535163690523400,8.9795234375,0.00012596751912496984,0.0032682311721146107,-0.004897020757198334
1772535163700539400,8.989539306640625,-0.0010000169277191162,0.0035206989850848913,-0.0052016861736774445
1772535163710555400,8.999555419921874,-0.0006495449924841523,0.001987783471122384,-0.005277852527797222
1772535163720571400,9.0095712890625,-0.00020772656716872007,0.00281975488178432,-0.004643487744033337
1772535163730587400,9.01958740234375,-0.0006002765148878098,0.001928128651343286,-0.005287972744554281
1772535163740603400,9.029603271484374,-0.00012383698776829988,0.003209641668945551,-0.0044168527238070965
1772535163750619400,9.039619384765626,-0.0005243764026090503,0.0030149647500365973,-0.004875715356320143
1772535163760635400,9.049635498046875,0.0004271710349712521,0.003518834710121155,-0.004231230355799198
1772535163770651400,9.0596513671875,-0.0014442323008552194,0.0030836742371320724,-0.005329784471541643
1772535163780667400,9.06966748046875,-0.0007310376968234777,0.003561178920790553,-0.00589730404317379
1772535163790683400,9.079683349609375,-0.0008343683439306915,0.003543868428096175,-0.0033004553988575935
1772535163800700400,9.089700439453125,-0.001404018490575254,0.0028075044974684715,-0.005256281234323978
1772535163810716400,9.09971630859375,-0.0014708638191223145,0.0032980586402118206,-0.003820038167759776
1772535163820732400,9.109732421875,-0.002272475278005004,0.0023499734234064817,-0.004091148264706135
1772535163830748400,9.11974853515625,-0.000999750685878098,0.00236328924074769,-0.0034080471377819777
1772535163840764200,9.12976416015625,-0.0005246427026577294,0.0018961706664413214,-0.004329234827309847
1772535163850780400,9.139780517578124,0.0009760485263541341,0.002883670851588249,-0.003686880227178335
1772535163860796400,9.14979638671875,0.0009739180095493793,0.003602191573008895,-0.003724164329469204
1772535163870812400,9.1598125,-0.001344896387308836,0.0033688987605273724,-0.004554271697998047
1772535163880828400,9.169828369140625,0.0007273092633113265,0.0033920682035386562,-0.004631237126886845
1772535163890844400,9.179844482421874,-0.0009398295660503209,0.0037736992817372084,-0.0029984530992805958
1772535163900860400,9.1898603515625,0.000004793690095539205,0.004255198873579502,-0.0049247173592448235
1772535163910876200,9.199876220703125,-0.0005555353709496558,0.002516953507438302,-0.0032469260040670633
1772535163920892400,9.209892333984374,-0.0004652542411349714,0.0020458402577787638,-0.00564030883833766
1772535163930908400,9.219908447265626,-0.00013555490295402706,0.0006444850005209446,-0.00509968725964427
1772535163940924400,9.22992431640625,-0.00063383235828951,0.0015403723809868097,-0.003765976056456566
1772535163950941400,9.23994140625,-0.0009339706157334149,0.0024980450980365276,-0.0030304109677672386
1772535163960957200,9.249957275390624,-0.0015779229579493403,0.0024770060554146767,-0.004548945464193821
1772535163970973200,9.25997314453125,-0.0004564658156596124,0.0036599822342395782,-0.005285043269395828
1772535163980989400,9.269989501953125,-0.00013875069271307439,0.0020775320008397102,-0.00336170825175941
1772535163991005400,9.28000537109375,-0.00048363005043938756,0.0034346787724643946,-0.004454403184354305
1772535164001021400,9.290021484375,-0.000949150591623038,0.001588575541973114,-0.003947603516280651
1772535164011037400,9.300037353515625,-0.0021608888637274504,0.002519882982596755,-0.004546282347291708
1772535164021053400,9.310053466796875,-0.0013712616637349129,0.001639441936276853,-0.005284776911139488
1772535164031069200,9.320069091796874,-0.0011432950850576162,0.0014839133946225047,-0.004865595139563084
1772535164041085400,9.33008544921875,-0.00011691277177305892,0.00230789533816278,-0.00301736150868237
1772535164051101400,9.340101318359375,-0.0004777711001224816,0.0034788872580975294,-0.0035547874867916107
1772535164061117400,9.350117431640625,-0.0012855078093707561,0.003043993143364787,-0.004194744862616062
1772535164071133400,9.360133544921876,-0.0009345032158307731,0.0023734092246741056,-0.004324973560869694
1772535164081149400,9.3701494140625,-0.0014879080699756742,0.0036011263728141785,-0.00624165078625083
1772535164091165200,9.380165283203125,0.00032091091270558536,0.0023001721128821373,-0.004706338047981262
1772535164101182500,9.390182373046875,0.00041971419705078006,0.002743055811151862,-0.004682635888457298
1772535164111198500,9.400198486328126,-0.0008860336965881288,0.004575044382363558,-0.0030389330349862576
1772535164121214500,9.41021435546875,-0.0006775081856176257,0.002201901515945792,-0.0030807447619736195
1772535164131230500,9.42023046875,-0.0001917476038215682,0.002930276095867157,-0.005273059010505676
1772535164141246200,9.43024609375,-0.0006175870657898486,0.0015952334506437182,-0.005365204066038132
1772535164151262200,9.44026220703125,-0.0018037590198218822,0.003937750123441219,-0.004481034819036722
1772535164161278500,9.450278564453125,-0.0012088088551536202,0.0016146745765581727,-0.004998486954718828
1772535164171294500,9.46029443359375,-0.00016964336100500077,0.001561677665449679,-0.004328169394284487
1772535164181310500,9.470310546875,-0.0015755260828882456,0.0036932716611772776,-0.0033606430515646935
1772535164191326500,9.480326416015625,-0.002424808219075203,0.0019917781464755535,-0.003689543344080448
1772535164201342500,9.490342529296875,-0.00015153386630117893,0.0022828616201877594,-0.0036434705834835768
1772535164211358500,9.5003583984375,-0.00108257494866848,0.0031518512405455112,-0.003783819265663624
1772535164221374700,9.510374755859376,-0.0014274542918428779,0.0029672940727323294,-0.0046208505518734455
1772535164231390700,9.520390625,-0.001680454588495195,0.0030421288684010506,-0.004881041590124369
1772535164241406700,9.53040673828125,0.0006681871018372476,0.005374525208026171,-0.004845887888222933
1772535164251422700,9.540422607421876,0.00005299690383253619,0.00304718897677958,-0.0035326832439750433
1772535164261439500,9.550439453125,-0.0009824400767683983,0.002796585438773036,-0.004510063212364912
1772535164271455700,9.560455810546875,-0.0014828480780124664,0.0030831415206193924,-0.005934588145464659
1772535164281471700,9.5704716796875,-0.0011680624447762966,0.0027949875220656395,-0.004005128052085638
1772535164291487700,9.58048779296875,-0.0006418218254111707,0.0031824775505810976,-0.005245361942797899
1772535164301503700,9.590503662109375,-0.0008194546680897474,0.00239205127581954,-0.004483964294195175
1772535164311519700,9.600519775390625,-0.0022008363157510757,0.00245143985375762,-0.0038919434882700443
1772535164321535500,9.610535400390624,0.0007518103811889887,0.003692206460982561,-0.004815527703613043
1772535164331551500,9.620551513671876,-0.0014136058744043112,0.002368881832808256,-0.0051566786132752895
1772535164341567700,9.630567626953125,-0.0013257216196507215,0.0025390577502548695,-0.0043590618297457695
1772535164351583700,9.640583740234375,-0.0010697918478399515,0.0022927154786884785,-0.005537510849535465
1772535164361599700,9.650599853515626,-0.00046924897469580173,0.002587793627753854,-0.004289287142455578
1772535164371615700,9.66061572265625,-0.0004966795677319169,0.0032402679789811373,-0.0032613070216029882
1772535164381631500,9.670631591796875,-0.00045140579459257424,0.004066647030413151,-0.0036424053832888603
1772535164391647500,9.6806474609375,-0.0022983080707490444,0.003832821501418948,-0.0035712989047169685
1772535164401663500,9.69066357421875,-0.0009518137667328119,0.002612028270959854,-0.004879443906247616
1772535164411680800,9.7006806640625,-0.000012250540748937055,0.002275404753163457,-0.005087969359010458
1772535164421696800,9.71069677734375,-0.00023329291434492916,0.0023062974214553833,-0.003937483765184879
1772535164431712500,9.72071240234375,-0.0011760519118979573,0.004510862287133932,-0.004321777727454901
1772535164441728500,9.730728515625,-0.00004500742215896025,0.0021052288357168436,-0.002895122393965721
1772535164451744500,9.74074462890625,-0.0018540926976129413,0.0029553098138421774,-0.004339088220149279
1772535164461760800,9.7507607421875,-0.0010074737947434187,0.00213558878749609,-0.005631786771118641
1772535164471776800,9.76077685546875,-0.000008255799002654385,0.004623514134436846,-0.004910602699965239
1772535164481792800,9.770792724609375,-0.0002545981842558831,0.004310059826821089,-0.004333229269832373
1772535164491808800,9.780808837890625,0.00024234765442088246,0.0024738102219998837,-0.004589958116412163
1772535164501824500,9.790824462890624,-0.000979244359768927,0.0025683525018393993,-0.00446878420189023
1772535164511840500,9.800840576171876,-0.001017061178572476,0.0031427964568138123,-0.0049398974515497684
1772535164521856500,9.8108564453125,-0.0012389025650918484,0.0024714134633541107,-0.0039175101555883884
1772535164531872800,9.820872802734375,0.0004191815387457609,0.0022184131667017937,-0.005086104851216078
1772535164541888800,9.830888671875,-0.0013800500892102718,0.003318032482638955,-0.00461685610935092
1772535164551904800,9.84090478515625,-0.0007315703551284969,0.0020130835473537445,-0.005280249286442995
1772535164561921500,9.850921630859375,-0.0009952232940122485,0.002130528911948204,-0.004144677426666021
1772535164571937500,9.8609375,-0.00030839405371807516,0.0030162963084876537,-0.0041404166258871555
1772535164581953800,9.870953857421876,-0.0014908375451341271,0.0031582426745444536,-0.0049521480686962605
1772535164591969800,9.8809697265625,-0.001073786523193121,0.003667971817776561,-0.004132160916924477
1772535164601985800,9.89098583984375,-0.0006511429091915488,0.0031784826423972845,-0.0031105722300708294
1772535164612001500,9.90100146484375,-0.00130947632715106,0.0034045851789414883,-0.0024522386956959963
1772535164622017500,9.911017578125,0.00003968110104324296,0.0019084211671724916,-0.005824333056807518
1772535164632033500,9.921033447265625,-0.00043542683124542236,0.002061819192022085,-0.005277319811284542
1772535164642049500,9.931049560546874,-0.0020128171890974045,0.0016476977616548538,-0.004523112904280424
1772535164652065800,9.941065673828126,-0.0006293049664236605,0.0026612968649715185,-0.004984638653695583
1772535164662081800,9.951081787109375,-0.0009033442474901676,0.001811748486943543,-0.004206462763249874
1772535164672097800,9.961097900390625,-0.0003933488915208727,0.002138784620910883,-0.0046876962296664715
1772535164682113500,9.971113525390624,-0.0005850964807905257,0.002695385366678238,-0.004494350403547287
1772535164692129500,9.981129638671876,-0.001458080718293786,0.0011283813510090113,-0.004150004126131535
1772535164702145500,9.9911455078125,0.00015046859334688634,0.0019915117882192135,-0.00427091121673584
1772535164712162800,10.001162841796875,-0.0010921623324975371,0.0029140308033674955,-0.0038629150949418545
1772535164722178800,10.0111787109375,0.00013928332191426307,0.003778226673603058,-0.0036005936563014984
1772535164732194600,10.021194580078125,-0.0006253102328628302,0.002691656816750765,-0.004769188817590475
1772535164742210600,10.03121044921875,0.0005494101205840707,0.002291117561981082,-0.004370513837784529
1772535164752226600,10.0412265625,-0.0015813850332051516,0.0026522420812398195,-0.0033840788528323174
1772535164762242600,10.05124267578125,0.0004474110610317439,0.0015699334908276796,-0.004416320007294416
1772535164772258800,10.0612587890625,-0.0007062703371047974,0.0028543761000037193,-0.005121791269630194
1772535164782274800,10.07127490234375,-0.0008644621120765805,0.0018034926615655422,-0.003952929750084877
1772535164792290600,10.08129052734375,-0.0011323761427775025,0.0028762139845639467,-0.0046541402116417885
1772535164802306600,10.091306640625,-0.00008921589324017987,0.00321949552744627,-0.004048271104693413
1772535164812322600,10.101322509765625,-0.0004932174342684448,0.0018788601737469435,-0.004221642855554819
1772535164822338600,10.111338623046874,-0.001490571303293109,0.0028778119012713432,-0.005084507167339325
1772535164832354600,10.1213544921875,0.0003091930120717734,0.003644269658252597,-0.006368417292833328
1772535164842370800,10.131370849609375,-0.000316916179144755,0.0028796761762350798,-0.004966795444488525
1772535164852386800,10.14138671875,0.0004540689697023481,0.002615490462630987,-0.0034703651908785105
1772535164862403600,10.151403564453124,-0.0021465078461915255,0.0024860608391463757,-0.004782504867762327
1772535164872419600,10.161419677734376,-0.0005374259199015796,0.0025891251862049103,-0.004427505191415548
1772535164882435600,10.171435546875,-0.0005036037764512002,0.0036794233601540327,-0.003832022426649928
1772535164892451800,10.181451904296875,-0.001764077926054597,0.0027630296535789967,-0.005279982928186655
1772535164902467800,10.1914677734375,-0.0003448793722782284,0.001630120910704136,-0.0046509443782269955
1772535164912483600,10.201483642578125,-0.0008010788587853312,0.002432797569781542,-0.002502306131646037
1772535164922499600,10.21149951171875,0.00046578687033616006,0.0017587515758350492,-0.0038631814531981945
1772535164932515600,10.221515625,-0.0008034756756387651,0.0023457121569663286,-0.004305266309529543
1772535164942531600,10.231531494140626,-0.0012202603975310922,0.0026759442407637835,-0.004514324478805065
1772535164952547600,10.241547607421875,0.00034700988908298314,0.002885801251977682,-0.004415254574269056
1772535164962563800,10.251563720703125,-0.0015632755821570754,0.0021438447292894125,-0.006105829495936632
1772535164972579800,10.261579833984374,-0.0007134608458727598,0.002659432590007782,-0.0039867521263659
1772535164982595600,10.271595703125,-0.00063383235828951,0.0017992316279560328,-0.0038810246624052525
1772535164992611600,10.281611572265625,-0.0030277478508651257,0.000245543458731845,-0.006222209427505732
1772535165002627600,10.291627685546874,-0.00003435477628954686,0.003090864745900035,-0.004618720151484013
1772535165012643600,10.3016435546875,-0.002064482541754842,0.0011520835105329752,-0.003686613868921995
1772535165022660600,10.31166064453125,-0.00199284334667027,0.002653839997947216,-0.00427091121673584
1772535165032676600,10.321676513671875,-0.0016160061350092292,0.001511610229499638,-0.003534547286108136
1772535165042692600,10.331692626953124,-0.0012836436508223414,0.002365685999393463,-0.005037901923060417
1772535165052708600,10.34170849609375,-0.00061279337387532,0.0016410398529842496,-0.005416336935013533
1772535165062724600,10.351724609375,-0.0011611381778493524,0.0031816784758120775,-0.004131628200411797
1772535165072740600,10.36174072265625,-0.0010713896481320262,0.0026820695493370295,-0.004318581894040108
1772535165082756900,10.3717568359375,0.00007483482477255166,0.0033662356436252594,-0.0054759918712079525
1772535165092772600,10.381772705078125,-0.000532632227987051,0.002728142309933901,-0.0041121868416666985
1772535165102788600,10.39178857421875,-0.0010974886827170849,0.0020117517560720444,-0.0041159153915941715
1772535165112804600,10.4018046875,-0.0011696603614836931,0.004194478504359722,-0.0049135321751236916
1772535165122820600,10.411820556640626,-0.0007901599165052176,0.0035116442013531923,-0.0049737198278307915
1772535165132836600,10.421836669921875,0.000015180017726379447,0.0007302387384697795,-0.0030567762441933155
1772535165142852600,10.4318525390625,0.0008293083519674838,0.002263953210785985,-0.005048021674156189
1772535165152868900,10.441868896484374,-0.0004889564006589353,0.002910302486270666,-0.005176386330276728
1772535165162884600,10.451884521484375,-0.0003251719754189253,0.0034786208998411894,-0.004509796854108572
1772535165172901600,10.461901611328125,0.00032384038786403835,0.00341603672131896,-0.00458596320822835
1772535165182917600,10.471917724609375,-0.0010831075487658381,0.0029973878990858793,-0.004833903629332781
1772535165192933600,10.48193359375,-0.0018098842119798064,0.003340935567393899,-0.00487358495593071
1772535165202948900,10.491948974609375,-0.0009739180095493793,0.004057592246681452,-0.004352404270321131
1772535165212964900,10.50196484375,-0.0004082625964656472,0.0034141724463552237,-0.004855741746723652
1772535165222980900,10.51198095703125,-0.0006202502408996224,0.0027896612882614136,-0.004358529578894377
1772535165232996900,10.521996826171875,-0.00047377636656165123,0.003296993440017104,-0.0032929987646639347
1772535165243012900,10.532012939453125,-0.0013318468118086457,0.0018423747969791293,-0.004816326778382063
1772535165253028900,10.54202880859375,-0.0005494101205840707,0.00398755120113492,-0.003811249742284417
1772535165263044900,10.552044921875,-0.0009145294898189604,0.0019627497531473637,-0.0046208505518734455
1772535165273060900,10.562060791015625,-0.002682868391275406,0.001115864492021501,-0.004834169987589121
1772535165283076900,10.572076904296875,-0.00101120222825557,0.0024282701779156923,-0.006067479960620403
1772535165293092900,10.5820927734375,-0.0007174555794335902,0.0028328043408691883,-0.0049196574836969376
1772535165303108900,10.59210888671875,-0.0009717874927446246,0.004027498420327902,-0.00552179804071784
1772535165313124900,10.602124755859375,-0.000050600061513250694,0.002531334524974227,-0.0043806335888803005
1772535165323140900,10.612140869140624,-0.0014000238152220845,0.003465837799012661,-0.0032083101104944944
1772535165333158000,10.622157958984374,-0.0007448861724697053,0.002852511825039983,-0.0035081820096820593
1772535165343174000,10.632173828125,0.00016005597717594355,0.0030626351945102215,-0.0038663772866129875
1772535165353190000,10.64218994140625,-0.0011289139511063695,0.0017113472567871213,-0.005654956214129925
1772535165363206000,10.652205810546874,-0.0003856257244478911,0.001936384360305965,-0.003769171889871359
1772535165373222000,10.662221923828126,-0.00020825919636990875,0.004564125556498766,-0.005536445416510105
1772535165383238000,10.67223779296875,-0.0016559535870328546,0.0009914948605000973,-0.005023520905524492
1772535165393254000,10.68225390625,-0.0012841762509196997,0.001321194227784872,-0.00430047232657671
1772535165403270000,10.692269775390624,-0.0005091963685117662,0.003466104157269001,-0.004467719234526157
1772535165413286000,10.702285888671875,-0.0009843043517321348,0.0023350596893578768,-0.004735632799565792
1772535165423302000,10.712302001953125,0.0005888249143026769,0.00270630419254303,-0.0046546729281544685
1772535165433318000,10.72231787109375,-0.0021582257468253374,0.0027417242527008057,-0.003946005832403898
1772535165443334000,10.732333984375,-0.0006668555433861911,0.0032431974541395903,-0.004508199170231819
1772535165453350000,10.742349853515625,-0.0011598066193982959,0.0026530411560088396,-0.0025774072855710983
1772535165463366000,10.752365966796875,-0.0002926813904196024,0.0027944548055529594,-0.004196875728666782
1772535165473381600,10.762381591796874,-0.0002969424531329423,0.003102582646533847,-0.005525526590645313
1772535165483399000,10.77239892578125,-0.0008759136544540524,0.00376064982265234,-0.0029792783316224813
1772535165493415000,10.782414794921875,-0.0007725830073468387,0.002263686852529645,-0.004567321389913559
1772535165503431000,10.792430908203125,-0.00043356261448934674,0.003094326937571168,-0.004071706905961037
1772535165513447000,10.802447021484374,-0.00010679275874281302,0.003397660795599222,-0.004467186518013477
1772535165523462700,10.812462646484375,-0.00036272252327762544,0.00413482403382659,-0.004208060912787914
1772535165533479000,10.82247900390625,-0.00029534456552937627,0.002025067573413253,-0.0046240463852882385
1772535165543495000,10.832494873046874,-0.00017896443023346364,0.0019212043844163418,-0.004744155332446098
1772535165553511000,10.842510986328126,-0.001213336130604148,0.003102049930021167,-0.003893807763233781
1772535165563527000,10.85252685546875,-0.0021840583067387342,0.002240251051262021,-0.003492469433695078
1772535165573543000,10.86254296875,0.00012010856153210625,0.0028810077346861362,-0.003926032222807407
1772535165583559000,10.872558837890624,-0.001549959764815867,0.0016972325975075364,-0.005799565929919481
1772535165593574700,10.88257470703125,-0.0017755294684320688,0.002555569401010871,-0.0030988543294370174
1772535165603591000,10.8925908203125,-0.0010692591313272715,0.0026282735634595156,-0.004655472002923489
1772535165613607000,10.90260693359375,-0.001210406655445695,0.0036818201187998056,-0.0020847225096076727
1772535165623623000,10.912622802734376,0.0010306433541700244,0.0060088904574513435,0.0006207828409969807
1772535165633639000,10.922638916015625,0.0012895026011392474,0.0027537085115909576,-0.0030269487760961056
1772535165643655700,10.93265576171875,0.00010705907334340736,0.0029001825023442507,-0.002246909076347947
1772535165653672000,10.942671875,-0.0009025452891364694,0.0030131004750728607,-0.0032354744616895914
1772535165663688000,10.95268798828125,0.00038163099088706076,0.00195156445261091,-0.007040865253657103
1772535165673704000,10.962703857421875,-0.0005819007055833936,0.0016703346045687795,-0.006750314496457577
1772535165683720000,10.972719970703125,-0.0007949535502120852,0.002037584548816085,-0.005310875829309225
1772535165693736000,10.98273583984375,0.000046339002437889576,0.0026908579748123884,-0.005278118886053562
1772535165703751700,10.992751708984375,-0.0019342538435012102,0.0019177423091605306,-0.004216050263494253
1772535165713767700,11.002767578125,0.0009243832319043577,0.00140987744089216,-0.004947886802256107
1772535165723784000,11.012783935546874,-0.0007928230334073305,0.0024471788201481104,-0.004594219382852316
1772535165733800000,11.022800048828126,-0.0006498112925328314,0.0022599585354328156,-0.0037444045301526785
1772535165743816000,11.03281591796875,-0.00014540860138367862,0.0024711471050977707,-0.005131645128130913
