time,seconds_elapsed,z,y,x
1772535333953047000,0.272047119140625,-0.05246272683143616,-0.15459194779396057,-0.26204732060432434
1772535333962979300,0.281979248046875,-0.09400681406259537,-0.19600287079811096,-0.2439383566379547
1772535333972919000,0.2919189453125,-0.12702903151512146,-0.252460241317749,-0.20252743363380432
1772535333982840300,0.30184033203125,-0.1451379954814911,-0.3003957271575928,-0.15033100545406342
1772535333992772400,0.3117724609375,-0.1440727710723877,-0.3206351399421692,-0.0981345921754837
1772535334002703000,0.321703125,-0.12489857524633408,-0.2972000241279602,-0.047003407031297684
1772535334012635000,0.331634765625,-0.10252867639064789,-0.2450035959482193,-0.0011983871227130294
1772535334022589400,0.34158935546875,-0.08868064731359482,-0.19706811010837555,0.03288906812667847
1772535334032530200,0.3515302734375,-0.08122401684522629,-0.15033100545406342,0.050998032093048096
1772535334042444500,0.361444580078125,-0.0801587849855423,-0.10239552706480026,0.05312849581241608
1772535334052374500,0.37137451171875,-0.08761541545391083,-0.047003407031297684,0.042476166039705276
1772535334062300000,0.3812998046875,-0.10039821267127991,-0.010785484686493874,0.013714875094592571
1772535334072228000,0.39122802734375,-0.111050546169281,-0.021437814459204674,-0.031024912372231483
1772535334082161700,0.40116162109375,-0.111050546169281,-0.06298190355300903,-0.07896039634943008
1772535334092092000,0.411091796875,-0.09400681406259537,-0.10772168636322021,-0.12156971544027328
1772535334102025700,0.421025634765625,-0.07163692265748978,-0.16630950570106506,-0.15459194779396057
1772535334111957500,0.43095751953125,-0.03861469775438309,-0.23967742919921875,-0.16950520873069763
1772535334121890600,0.440890625,0.0018641578499227762,-0.28228676319122314,-0.15672241151332855
1772535334131822800,0.45082275390625,0.03488638252019882,-0.23222079873085022,-0.1311568170785904
1772535334141756700,0.460756591796875,0.04979964345693588,-0.1290263533592224,-0.11730878800153732
1772535334151656000,0.470656005859375,0.04873441159725189,-0.05978620424866676,-0.1194392517209053
1772535334161588700,0.480588623046875,0.03914731368422508,-0.005459319334477186,-0.11837401986122131
1772535334171521800,0.490521728515625,0.05512581020593643,0.12236864119768143,-0.08109086751937866
1772535334181478100,0.50047802734375,0.12849372625350952,0.3077192008495331,0.0009320789249613881
1772535334191418000,0.510418212890625,0.25206077098846436,0.4716319143772125,0.11704248189926147
1772535334201359000,0.520359130859375,0.3884105980396271,0.5824161767959595,0.24700090289115906
1772535334211299600,0.530299560546875,0.5258256793022156,0.6154384016990662,0.36417654156684875
1772535334221222000,0.540221923828125,0.6589797735214233,0.5451329946517944,0.4524577260017395
1772535334231155000,0.550155029296875,0.7706961035728455,0.39719876646995544,0.4929365813732147
1772535334241083000,0.560082763671875,0.8367405533790588,0.21717438101768494,0.5003932118415833
1772535334251014000,0.570013916015625,0.8516538143157959,0.040345702320337296,0.4982627332210541
1772535334260939800,0.579939697265625,0.8122401833534241,-0.11198262125253677,0.4854799509048462
1772535334270868700,0.58986865234375,0.7270215153694153,-0.2460688352584839,0.4631100594997406
1772535334280801300,0.59980126953125,0.6280879974365234,-0.33661362528800964,0.43647924065589905
1772535334290731800,0.609731689453125,0.5599130988121033,-0.3302222490310669,0.421565979719162
1772535334300679200,0.61967919921875,0.5524564981460571,-0.2141118347644806,0.3780245780944824
1772535334310611200,0.629611083984375,0.5854787230491638,-0.019307348877191544,0.251261830329895
1772535334320532200,0.6395322265625,0.6259575486183167,0.08188978582620621,0.14899946749210358
1772535334330463500,0.64946337890625,0.6408708095550537,0.17456506192684174,0.07017222791910172
1772535334340400400,0.659400390625,0.6014571785926819,0.39506828784942627,-0.058720968663692474
1772535334350332000,0.669331787109375,0.5162385702133179,0.670830488204956,-0.2226337045431137
1772535334360261400,0.679261474609375,0.40119338035583496,0.9488562941551208,-0.406919002532959
1772535334370192600,0.689192626953125,0.312779039144516,1.1809439659118652,-0.5933347940444946
1772535334380130000,0.699130126953125,0.3106485903263092,1.3258156776428223,-0.721162736415863
1772535334390062000,0.70906201171875,0.39054104685783386,1.4355345964431763,-0.7659025192260742
1772535334399982300,0.718982421875,0.5013253092765808,1.4919919967651367,-0.7818810343742371
1772535334409913300,0.728913330078125,0.5886744260787964,1.4387303590774536,-0.7935985922813416
1772535334419850200,0.738850341796875,0.6440665125846863,1.313032865524292,-0.7669677734375
1772535334429781800,0.74878173828125,0.6696321368217468,1.152182698249817,-0.6689663529396057
1772535334439694300,0.7586943359375,0.6589797735214233,0.970160961151123,-0.49533334374427795
1772535334449623800,0.768623779296875,0.6227618455886841,0.7965279817581177,-0.28441721200942993
1772535334459586600,0.778586669921875,0.5940005779266357,0.6420692205429077,-0.07896039634943008
1772535334469519600,0.78851953125,0.5961310267448425,0.47908854484558105,0.09893351793289185
1772535334479419400,0.79841943359375,0.6280879974365234,0.32050198316574097,0.25978371500968933
1772535334489349000,0.80834912109375,0.6440665125846863,0.2097177505493164,0.40452224016189575
1772535334499306000,0.818305908203125,0.6057181358337402,0.11597724258899689,0.5142412185668945
1772535334509238300,0.82823828125,0.5204994678497314,0.022236740216612816,0.5643072128295898
1772535334519179800,0.8381796875,0.41504141688346863,-0.037416309118270874,0.5536548495292664
1772535334529113000,0.848113037109375,0.3117138147354126,-0.066177599132061,0.49080610275268555
1772535334539033600,0.85803369140625,0.22436471283435822,-0.10133028775453568,0.3790898025035858
1772535334548965600,0.867965576171875,0.17003782093524933,-0.15459194779396057,0.2533923089504242
1772535334558894800,0.877894775390625,0.16577689349651337,-0.16524426639080048,0.16178226470947266
1772535334568826600,0.88782666015625,0.1956034153699875,-0.11304785311222076,0.10852061212062836
1772535334578770200,0.897770263671875,0.2254299372434616,-0.06511236727237701,0.058454662561416626
1772535334588703200,0.907703125,0.24034319818019867,-0.020372580736875534,0.004127778112888336
1772535334598601500,0.9176015625,0.2360822707414627,0.008388710208237171,-0.036351077258586884
1772535334608531000,0.927531005859375,0.22010377049446106,-0.013981183059513569,-0.048068638890981674
1772535334618497000,0.9374970703125,0.19986434280872345,-0.029959678649902344,-0.011850717477500439
1772535334628430000,0.94743017578125,0.17642922699451447,0.013714875094592571,0.061650361865758896
1772535334638357500,0.957357421875,0.13808083534240723,0.13941237330436707,0.1468690037727356
1772535334648290000,0.9672900390625,0.0773625448346138,0.2651098668575287,0.21823962032794952
1772535334658199000,0.977198974609375,-0.0034620072692632675,0.29919731616973877,0.2629793882369995
1772535334668129300,0.98712939453125,-0.09187635034322739,0.24487043917179108,0.2832188308238983
1772535334678090500,0.997090576171875,-0.16857312619686127,0.14793424308300018,0.2949363887310028
1772535334688023800,1.00702392578125,-0.21650861203670502,0.14899946749210358,0.2736317217350006
1772535334697948200,1.0169482421875,-0.21544337272644043,0.038215234875679016,0.11171631515026093
1772535334707880700,1.026880615234375,-0.2069215178489685,-0.299330472946167,-0.13435252010822296
1772535334717806800,1.036806884765625,-0.2601831555366516,-0.44846311211586,-0.2460688352584839
1772535334727738600,1.046738525390625,-0.3656412363052368,-0.38667958974838257,-0.16950520873069763
1772535334737681400,1.056681396484375,-0.43701183795928955,-0.25139498710632324,0.05312849581241608
1772535334747614200,1.0666142578125,-0.4189028739929199,-0.14820054173469543,0.34393709897994995
1772535334757533400,1.076533447265625,-0.345401793718338,-0.22795987129211426,0.5983946323394775
1772535334767465000,1.08646484375,-0.2740311920642853,-0.467637300491333,0.7230269312858582
1772535334777408300,1.096408203125,-0.20159535109996796,-0.7840114831924438,0.6772218942642212
1772535334787341000,1.106341064453125,-0.13022473454475403,-1.08640456199646,0.4343487620353699
1772535334797265700,1.116265625,-0.07163692265748978,-1.3090382814407349,-0.006524552125483751
1772535334807197700,1.12619775390625,-0.04926702752709389,-1.4548419713974,-0.46124589443206787
1772535334817129200,1.136129150390625,-0.0801587849855423,-1.4038439989089966,-0.7275541424751282
1772535334827061000,1.14606103515625,-0.17283405363559723,-1.1929278373718262,-0.7754896283149719
1772535334846919000,1.1659189453125,-0.3656412363052368,-0.5933347940444946,-0.45485448837280273
1772535334856854800,1.175854736328125,-0.391206830739975,-0.3376788794994354,-0.29187384247779846
1772535334866786600,1.18578662109375,-0.386945903301239,-0.26950395107269287,-0.15352670848369598
1772535334876722000,1.195721923828125,-0.39333727955818176,-0.22582940757274628,-0.006524552125483751
1772535334886654000,1.205654052734375,-0.42422905564308167,-0.18854624032974243,0.13089050352573395
1772535334896598000,1.215597900390625,-0.43807709217071533,-0.2577863931655884,0.24380521476268768
1772535334906531300,1.22553125,-0.4306204617023468,-0.41863659024238586,0.3151758313179016
1772535334916446000,1.235446044921875,-0.41570720076560974,-0.5794867873191833,0.3513937294483185
1772535334926377500,1.24537744140625,-0.40505486726760864,-0.6572487950325012,0.37482887506484985
1772535334936291300,1.255291259765625,-0.40505486726760864,-0.6838796138763428,0.3991960883140564
1772535334946220800,1.265220703125,-0.40718531608581543,-0.6945319175720215,0.4311530590057373
1772535334956158000,1.275157958984375,-0.4018591642379761,-0.6860100626945496,0.45778387784957886
1772535334966088400,1.28508837890625,-0.39227205514907837,-0.6849448084831238,0.45565342903137207
1772535334976001000,1.2950009765625,-0.3975982367992401,-0.6881405115127563,0.3940030634403229
1772535334985929700,1.3049296875,-0.42529428005218506,-0.6721620559692383,0.25871846079826355
1772535334995918800,1.3149189453125,-0.46896883845329285,-0.61250901222229,0.06484606117010117
1772535335005853700,1.324853759765625,-0.5254262089729309,-0.5464645624160767,-0.14287437498569489
1772535335015747800,1.334747802734375,-0.5785546898841858,-0.5315513014793396,-0.31211328506469727
1772535335025678300,1.34467822265625,-0.6328815817832947,-0.5485950112342834,-0.41011470556259155
1772535335035612200,1.354612060546875,-0.6914693713188171,-0.597595751285553,-0.4388760030269623
1772535335045543200,1.364543212890625,-0.7415353655815125,-0.6380745768547058,-0.4239627420902252
1772535335055510800,1.3745107421875,-0.7639052271842957,-0.6189003586769104,-0.40904948115348816
1772535335065445400,1.3844453125,-0.7596443295478821,-0.5549864172935486,-0.4388760030269623
1772535335075340000,1.394340087890625,-0.7351439595222473,-0.45272403955459595,-0.5006595253944397
1772535335085270800,1.404270751953125,-0.6999912261962891,-0.3067871034145355,-0.5432688593864441
1772535335095219500,1.414219482421875,-0.6786866188049316,-0.15672241151332855,-0.5432688593864441
1772535335105152000,1.424152099609375,-0.6669690012931824,-0.051264338195323944,-0.48255056142807007
1772535335115101200,1.43410107421875,-0.6477948427200317,0.027562905102968216,-0.36963585019111633
1772535335125035300,1.44403515625,-0.6105116605758667,0.09680305421352386,-0.24819929897785187
1772535335134931000,1.453930908203125,-0.5476629137992859,0.14899946749210358,-0.17802706360816956
1772535335144861200,1.463861083984375,-0.4529903531074524,0.19267402589321136,-0.172700896859169
1772535335154817500,1.473817626953125,-0.3432713449001312,0.24700090289115906,-0.1940055638551712
1772535335164750600,1.48375048828125,-0.25592222809791565,0.29174068570137024,-0.1950708031654358
1772535335174658000,1.493657958984375,-0.2069215178489685,0.31304535269737244,-0.151396244764328
1772535335184588500,1.503588623046875,-0.18881255388259888,0.316241055727005,-0.06404713541269302
1772535335194526200,1.513526123046875,-0.1856168508529663,0.2960016131401062,0.058454662561416626
1772535335204457200,1.523457275390625,-0.17709499597549438,0.2725664973258972,0.1894783228635788
1772535335214410000,1.533409912109375,-0.16111649572849274,0.24593567848205566,0.2736317217350006
1772535335224343300,1.54334326171875,-0.13661614060401917,0.19480448961257935,0.2821536064147949
1772535335234274000,1.553274169921875,-0.1014634445309639,0.10532491654157639,0.2416747361421585
1772535335244206800,1.563206787109375,-0.04074516147375107,0.012649642303586006,0.19373925030231476
1772535335254135300,1.57313525390625,0.030625449493527412,-0.021437814459204674,0.1692388951778412
1772535335264067600,1.583067626953125,0.08694964647293091,0.022236740216612816,0.1564560979604721
1772535335274001200,1.593001220703125,0.12210233509540558,0.10106398165225983,0.13408620655536652
1772535335283933700,1.60293359375,0.1423417627811432,0.15965180099010468,0.09041165560483932
1772535335293874000,1.6128740234375,0.15512455999851227,0.18415215611457825,0.033954303711652756
1772535335303807200,1.62280712890625,0.17003782093524933,0.1553908735513687,-0.026763979345560074
1772535335313767000,1.632766845703125,0.20945143699645996,0.0829550251364708,-0.08428656309843063
1772535335323702800,1.642702880859375,0.26484355330467224,0.033954303711652756,-0.11517832428216934
1772535335333590800,1.6525908203125,0.32556185126304626,0.0925421193242073,-0.09174319356679916
1772535335343522000,1.66252197265625,0.38201919198036194,0.21504391729831696,-0.00226362026296556
1772535335353459700,1.672459716796875,0.40438908338546753,0.2118482142686844,0.08082455396652222
1772535335363391500,1.6823916015625,0.377758264541626,0.052063263952732086,0.11171631515026093
1772535335373336300,1.69233642578125,0.3117138147354126,-0.1205044835805893,0.13834713399410248
1772535335383269400,1.702269287109375,0.23927797377109528,-0.24819929897785187,0.19693495333194733
1772535335393190000,1.71218994140625,0.16897258162498474,-0.3621792197227478,0.251261830329895
1772535335403121700,1.72212158203125,0.10292813926935196,-0.4388760030269623,0.2651098668575287
1772535335413052700,1.732052734375,0.05299534276127815,-0.38774481415748596,0.24380521476268768
1772535335422984400,1.741984375,0.04873441159725189,-0.16098333895206451,0.20226112008094788
1772535335432914700,1.751914794921875,0.11358047276735306,0.18308693170547485,0.1468690037727356
1772535335442846200,1.76184619140625,0.2552564740180969,0.524893581867218,0.09786828607320786
1772535335452789800,1.771789794921875,0.4480636417865753,0.7912018299102783,0.055258963257074356
1772535335462722800,1.781722900390625,0.6206313967704773,0.9445953965187073,-0.010785484686493874
1772535335472649500,1.7916494140625,0.7216953635215759,0.9861394762992859,-0.11198262125253677
1772535335482581800,1.801581787109375,0.7525871396064758,0.9424648880958557,-0.23115555942058563
1772535335492488700,1.81148876953125,0.7398043274879456,0.8604419827461243,-0.3334179222583771
1772535335502418400,1.82141845703125,0.7003906965255737,0.7475273013114929,-0.3941362202167511
1772535335512371700,1.831371826171875,0.6493926644325256,0.6079817414283752,-0.39733192324638367
1772535335522303700,1.8413037109375,0.6014571785926819,0.48761042952537537,-0.3515268862247467
1772535335532241000,1.851240966796875,0.5801525115966797,0.4226312041282654,-0.2769605815410614
1772535335542173400,1.86117333984375,0.5812177658081055,0.41956865787506104,-0.1844184696674347
1772535335552097300,1.87109716796875,0.5769568085670471,0.44926202297210693,-0.10346075892448425
1772535335562029000,1.881029052734375,0.5396736860275269,0.4822842478752136,-0.040612008422613144
1772535335571940600,1.890940673828125,0.4736292362213135,0.4929365813732147,-0.0033288532868027687
1772535335581870300,1.900870361328125,0.3841496706008911,0.45991435647010803,0.010519175790250301
1772535335591824000,1.910823974609375,0.29573532938957214,0.3801550269126892,0.019041040912270546
1772535335601756200,1.920756103515625,0.22223423421382904,0.27895790338516235,0.024367205798625946
1772535335611690500,1.9306904296875,0.1742987483739853,0.17349982261657715,0.013714875094592571
1772535335621622800,1.940622802734375,0.15405932068824768,0.09147688746452332,-0.013981183059513569
1772535335631555000,1.95055517578125,0.15938548743724823,0.08082455396652222,-0.05232957378029823
1772535335641487400,1.9604873046875,0.19240771234035492,0.13834713399410248,-0.10559122264385223
1772535335651395600,1.9703955078125,0.24566936492919922,0.20226112008094788,-0.1822880059480667
1772535335661325600,1.98032568359375,0.30425718426704407,0.255522757768631,-0.2556559145450592
1772535335671286800,1.990286865234375,0.3639102280139923,0.2960016131401062,-0.299330472946167
1772535335681219800,2.0002197265625,0.41184571385383606,0.30984964966773987,-0.3174394369125366
1772535335691150800,2.01015087890625,0.4523245692253113,0.29919731616973877,-0.31424373388290405
1772535335701083600,2.020083740234375,0.4938686490058899,0.2842840552330017,-0.29400432109832764
1772535335711005700,2.030005615234375,0.5354127287864685,0.2938711643218994,-0.24713405966758728
1772535335720937500,2.0399375,0.5822830200195312,0.33435001969337463,-0.172700896859169
1772535335730874400,2.049874267578125,0.6355446577072144,0.39826399087905884,-0.067242830991745
1772535335740806700,2.059806640625,0.6812165379524231,0.4418053925037384,0.055258963257074356
1772535335750741200,2.0697412109375,0.6993255019187927,0.3929378390312195,0.1788259893655777
1772535335760673800,2.079673828125,0.689738392829895,0.24487043917179108,0.2853493094444275
1772535335770602800,2.089602783203125,0.6408708095550537,0.06378082931041718,0.3481980562210083
1772535335780535000,2.09953515625,0.5364779829978943,-0.07363422960042953,0.34393709897994995
1772535335790475300,2.109475341796875,0.39160630106925964,-0.1737661361694336,0.27043604850769043
1772535335800408300,2.119408203125,0.23501703143119812,-0.252460241317749,0.16284750401973724
1772535335810338000,2.129338134765625,0.098667211830616,-0.3099828064441681,0.07549838721752167
1772535335820270600,2.1392705078125,-0.0002663082559593022,-0.3717663288116455,0.028628136962652206
1772535335830200600,2.14920068359375,-0.07483261823654175,-0.41011470556259155,0.030758604407310486
1772535335840132900,2.1591328125,-0.11744193732738495,-0.3408745527267456,0.08828118443489075
1772535335850062600,2.1690625,-0.1334204375743866,-0.18548369407653809,0.1788259893655777
1772535335859994600,2.17899462890625,-0.13874660432338715,-0.03209014609456062,0.25978371500968933
1772535335869900800,2.18890087890625,-0.14939893782138824,0.09147688746452332,0.30984964966773987
1772535335879830300,2.198830322265625,-0.17389929294586182,0.20758728682994843,0.32156720757484436
1772535335889784600,2.20878466796875,-0.21437814831733704,0.3045234978199005,0.2864145338535309
1772535335899716600,2.218716552734375,-0.2591179311275482,0.3801550269126892,0.2118482142686844
1772535335919556000,2.23855615234375,-0.3251623809337616,0.5142412185668945,0.09041165560483932
1772535335929516800,2.248516845703125,-0.3443365693092346,0.44500109553337097,0.005193010903894901
1772535335939449600,2.25844970703125,-0.36031508445739746,0.3780245780944824,-0.09067796170711517
1772535335949380400,2.26838037109375,-0.3667064607143402,0.39613354206085205,-0.16950520873069763
1772535335959313200,2.278313232421875,-0.36031508445739746,0.40785109996795654,-0.26311254501342773
1772535335969241600,2.28824169921875,-0.3539236783981323,0.32369768619537354,-0.37922295928001404
1772535335979174000,2.298173828125,-0.36244553327560425,0.14047759771347046,-0.48361578583717346
1772535335989106400,2.3081064453125,-0.4018591642379761,-0.11411308497190475,-0.5912043452262878
1772535335999038700,2.318038818359375,-0.4540555775165558,-0.3632444739341736,-0.7094451785087585
1772535336008970800,2.327970703125,-0.49240395426750183,-0.5081161260604858,-0.8031857013702393
1772535336018903000,2.337903076171875,-0.5041215419769287,-0.529420793056488,-0.8296833634376526
1772535336028833000,2.3478330078125,-0.49027350544929504,-0.4889419674873352,-0.7637720704078674
1772535336038765000,2.35776513671875,-0.4764254689216614,-0.4569849669933319,-0.5858781337738037
1772535336048709000,2.367709228515625,-0.4604469835758209,-0.3856143653392792,-0.30252617597579956
1772535336058642400,2.377642333984375,-0.39440253376960754,-0.27376487851142883,-0.013981183059513569
1772535336068565000,2.38756494140625,-0.2953358590602875,-0.191741943359375,0.16284750401973724
1772535336078497000,2.3974970703125,-0.28681400418281555,-0.060851436108350754,0.30984964966773987
1772535336088432600,2.4074326171875,-0.3145100474357605,-0.066177599132061,0.4119788706302643
1772535336098365000,2.417364990234375,-0.302792489528656,-0.28015628457069397,0.43860968947410583
1772535336108265700,2.427265625,-0.24207420647144318,-0.5326164960861206,0.4343487620353699
1772535336118195200,2.4371953125,-0.1749645173549652,-0.7169018387794495,0.4439358711242676
1772535336128156400,2.447156494140625,-0.1440727710723877,-0.8477923274040222,0.46630576252937317
1772535336138089000,2.4570888671875,-0.15792079269886017,-0.9489894509315491,0.4929365813732147
1772535336148042200,2.467042236328125,-0.19307348132133484,-0.9820116758346558,0.5302197337150574
1772535336157976800,2.476976806640625,-0.22396524250507355,-0.8882712125778198,0.5611115097999573
1772535336167882000,2.486882080078125,-0.2527265250682831,-0.7094451785087585,0.5525896549224854
1772535336177813800,2.496813720703125,-0.2910749316215515,-0.5539211630821228,0.4822842478752136
1772535336187758600,2.506758544921875,-0.3432713449001312,-0.4889419674873352,0.35245898365974426
1772535336197691600,2.516691650390625,-0.4125114977359772,-0.49426811933517456,0.18734785914421082
1772535336207592700,2.5265927734375,-0.48814302682876587,-0.5123770833015442,0.03288906812667847
1772535336217522400,2.5365224609375,-0.5435351729393005,-0.5230293869972229,-0.08002562820911407
1772535336227454200,2.5464541015625,-0.5806851387023926,-0.5251598954200745,-0.1396786868572235
1772535336237384200,2.55638427734375,-0.615837812423706,-0.4985290467739105,-0.1737661361694336
1772535336247300600,2.566300537109375,-0.6488600373268127,-0.44100648164749146,-0.2046578973531723
1772535336257229300,2.576229248046875,-0.6754909157752991,-0.3504616618156433,-0.22902509570121765
1772535336267182300,2.586182373046875,-0.684012770652771,-0.23009033501148224,-0.23009033501148224
1772535336277113300,2.59611328125,-0.6701647043228149,-0.0981345921754837,-0.2057231217622757
1772535336287045400,2.60604541015625,-0.6360772848129272,0.010519175790250301,-0.16417904198169708
1772535336296976400,2.615976318359375,-0.5881417989730835,0.08188978582620621,-0.12689588963985443
1772535336306913800,2.625913818359375,-0.540339469909668,0.10958584398031235,-0.10133028775453568
1772535336316845800,2.635845703125,-0.5019910335540771,0.10852061212062836,-0.08109086751937866
1772535336326803000,2.645802978515625,-0.4615122079849243,0.1138467788696289,-0.07150376588106155
1772535336336737300,2.6557373046875,-0.41570720076560974,0.13302096724510193,-0.07043853402137756
1772535336346669300,2.66566943359375,-0.36244553327560425,0.12236864119768143,-0.07469946891069412
1772535336356603400,2.675603271484375,-0.29959678649902344,0.061650361865758896,-0.0778951644897461
1772535336366526700,2.685526611328125,-0.2388785034418106,-0.025698747485876083,-0.07576470077037811
1772535336376459800,2.695459716796875,-0.19307348132133484,-0.09387365728616714,-0.07363422960042953
1772535336386384400,2.70538427734375,-0.16218173503875732,-0.11624355614185333,-0.066177599132061
1772535336396316700,2.715316650390625,-0.14194230735301971,-0.08854749798774719,-0.048068638890981674
1772535336406251300,2.725251220703125,-0.11637670546770096,-0.004394086077809334,-0.021437814459204674
1772535336416183800,2.735183837890625,-0.08655018359422684,0.10106398165225983,-0.009720250964164734
1772535336426114600,2.745114501953125,-0.05352795869112015,0.20332635939121246,-0.021437814459204674
1772535336436046800,2.755046875,-0.017310036346316338,0.31304535269737244,-0.044872939586639404
1772535336445993200,2.7649931640625,0.019973119720816612,0.4236964285373688,-0.07363422960042953
1772535336455927000,2.774927001953125,0.04873441159725189,0.4758928418159485,-0.10346075892448425
1772535336465847000,2.784846923828125,0.07203638553619385,0.43541398644447327,-0.13541774451732635
1772535336475779300,2.794779296875,0.08375394344329834,0.30345824360847473,-0.15778763592243195
1772535336485709800,2.804709716796875,0.09121058136224747,0.18521739542484283,-0.13541774451732635
1772535336495641900,2.814641845703125,0.12316756695508957,0.21610915660858154,-0.016111649572849274
1772535336505574700,2.82457470703125,0.183885857462883,0.27789267897605896,0.16178226470947266
1772535336515507000,2.8345068359375,0.23927797377109528,0.20332635939121246,0.2736317217350006
1772535336525435600,2.844435546875,0.2595174014568329,0.028628136962652206,0.3055887222290039
1772535336535367400,2.854367431640625,0.24566936492919922,-0.12263495475053787,0.3045234978199005
1772535336545317000,2.864317138671875,0.22969086468219757,-0.2343512624502182,0.2938711643218994
1772535336555250700,2.874250732421875,0.2467346042394638,-0.3291569948196411,0.2661750912666321
1772535336565162500,2.88416259765625,0.30532240867614746,-0.37709248065948486,0.22995717823505402
1772535336575094000,2.894093994140625,0.40438908338546753,-0.29506954550743103,0.2203700840473175
1772535336585027300,2.90402734375,0.5322170257568359,-0.060851436108350754,0.24700090289115906
1772535336594959000,2.913958984375,0.6886731386184692,0.24700090289115906,0.29067546129226685
1772535336604902400,2.92390234375,0.8559147119522095,0.5216978788375854,0.32050198316574097
1772535336614835500,2.93383544921875,1.0071778297424316,0.6804175972938538,0.31198012828826904
1772535336624758500,2.943758544921875,1.1168968677520752,0.7059831619262695,0.2608489394187927
1772535336634690600,2.953690673828125,1.149919033050537,0.6228950023651123,0.1575213372707367
1772535336644633300,2.96363330078125,1.0860050916671753,0.44606631994247437,0.014780107885599136
1772535336654566400,2.97356640625,0.951785683631897,0.21717438101768494,-0.1290263533592224
1772535336664460500,2.98346044921875,0.7856093645095825,-0.010785484686493874,-0.25139498710632324
1772535336674389500,2.993389404296875,0.630218505859375,-0.2013290375471115,-0.34620073437690735
1772535336684353500,3.003353515625,0.5130428671836853,-0.35685306787490845,-0.4037233293056488
1772535336694286300,3.013286376953125,0.41504141688346863,-0.4175713360309601,-0.39733192324638367
1772535336704213200,3.023213134765625,0.3234313726425171,-0.3440702557563782,-0.3440702557563782
1772535336714145300,3.033145263671875,0.24353890120983124,-0.191741943359375,-0.27163442969322205
1772535336724079000,3.0430791015625,0.1956034153699875,0.005193010903894901,-0.1950708031654358
1772535336734011100,3.05301123046875,0.1828206181526184,0.23528334498405457,-0.11517832428216934
1772535336743943000,3.06294287109375,0.20092958211898804,0.47908854484558105,-0.047003407031297684
1772535336753875200,3.072875244140625,0.21903854608535767,0.6804175972938538,-0.017176883295178413
1772535336763800600,3.082800537109375,0.2041252851486206,0.824224054813385,-0.037416309118270874
1772535336773731800,3.09273193359375,0.16790735721588135,0.9137036204338074,-0.10772168636322021
1772535336783665400,3.10266552734375,0.13808083534240723,0.9073122143745422,-0.22050324082374573
1772535336793597200,3.11259716796875,0.13488513231277466,0.8284850120544434,-0.34726595878601074
1772535336803531000,3.122531005859375,0.15405932068824768,0.7326140403747559,-0.45272403955459595
1772535336813462800,3.132462890625,0.183885857462883,0.6452649235725403,-0.5155727863311768
1772535336823398400,3.1423984375,0.21264714002609253,0.5824161767959595,-0.536877453327179
1772535336833330700,3.15233056640625,0.23501703143119812,0.5430025458335876,-0.5240946412086487
1772535336843267600,3.162267578125,0.2488650679588318,0.5376763939857483,-0.47509393095970154
1772535336853200400,3.172200439453125,0.2488650679588318,0.5664376616477966,-0.39839714765548706
1772535336863125000,3.182125,0.2467346042394638,0.610112190246582,-0.3067871034145355
1772535336873056800,3.192056884765625,0.24460414052009583,0.6463301181793213,-0.21624229848384857
1772535336882991400,3.201991455078125,0.2488650679588318,0.670830488204956,-0.12689588963985443
1772535336892923400,3.21192333984375,0.2605826258659363,0.6687000393867493,-0.03209014609456062
1772535336902854400,3.2218544921875,0.2808220684528351,0.6207645535469055,0.06484606117010117
1772535336912786400,3.231786376953125,0.3095833361148834,0.5408720970153809,0.1681736707687378
1772535336922692600,3.241692626953125,0.331953227519989,0.4545882046222687,0.2640446424484253
1772535336932621800,3.251621826171875,0.32875755429267883,0.3577851355075836,0.32263246178627014
1772535336942577200,3.2615771484375,0.28401774168014526,0.24913136661052704,0.3258281648159027
1772535336952509200,3.27150927734375,0.19773387908935547,0.15326039493083954,0.2864145338535309
1772535336962444000,3.281444091796875,0.08588441461324692,0.10106398165225983,0.22569625079631805
1772535336972376300,3.291376220703125,-0.0375494658946991,0.08402025699615479,0.15112993121147156
1772535336982319400,3.3013193359375,-0.14939893782138824,0.08188978582620621,0.08402025699615479
1772535336992253000,3.3112529296875,-0.2495308369398117,0.12876003980636597,0.05312849581241608
1772535337002152400,3.32115234375,-0.35179319977760315,0.20439158380031586,0.058454662561416626
1772535337012082400,3.33108251953125,-0.4540555775165558,0.27043604850769043,0.08508548885583878
1772535337022032400,3.341032470703125,-0.5232957005500793,0.3386109471321106,0.13408620655536652
1772535337031964400,3.35096435546875,-0.531817615032196,0.4226312041282654,0.19054356217384338
1772535337041909000,3.360908935546875,-0.48068639636039734,0.4940018057823181,0.2416747361421585
1772535337051842300,3.37084228515625,-0.38588064908981323,0.5312849879264832,0.28854498267173767
1772535337061766000,3.380765869140625,-0.2623136341571808,0.5408720970153809,0.34074142575263977
1772535337071698200,3.3906982421875,-0.12489857524633408,0.5685681104660034,0.40452224016189575
1772535337081626000,3.400626220703125,0.015712186694145203,0.6612433791160583,0.4982627332210541
1772535337091558100,3.41055810546875,0.1529940962791443,0.8039846420288086,0.594133734703064
1772535337101500400,3.42050048828125,0.2595174014568329,0.9126383662223816,0.6473953723907471
1772535337111433500,3.43043359375,0.2797568142414093,0.894529402256012,0.6484606266021729
1772535337121353500,3.440353515625,0.21051667630672455,0.7230269312858582,0.5930684804916382
1772535337131285000,3.450284912109375,0.08162347972393036,0.4035901725292206,0.46737098693847656
1772535337141221000,3.46022119140625,-0.06204982474446297,-0.040612008422613144,0.28108835220336914
1772535337151153200,3.470153076171875,-0.1983996480703354,-0.5262250900268555,0.07017222791910172
1772535337161083000,3.480082763671875,-0.30705341696739197,-0.9415328502655029,-0.11624355614185333
1772535337171014700,3.4900146484375,-0.36244553327560425,-1.2270152568817139,-0.24287313222885132
1772535337180910300,3.499910400390625,-0.36244553327560425,-1.371886968612671,-0.2790910601615906
1772535337190838500,3.509838623046875,-0.32835808396339417,-1.3356690406799316,-0.19933173060417175
1772535337200810000,3.51981005859375,-0.2804225981235504,-1.1428618431091309,-0.013981183059513569
1772535337210742500,3.529742431640625,-0.23568280041217804,-0.8935973644256592,0.21504391729831696
1772535337220687400,3.539687255859375,-0.22076953947544098,-0.6892057657241821,0.4119788706302643
1772535337230621200,3.54962109375,-0.24846559762954712,-0.5677692294120789,0.5280892848968506
1772535337240518400,3.559518310546875,-0.3059881925582886,-0.49639859795570374,0.5515244007110596
1772535337250448600,3.56944873046875,-0.3805544972419739,-0.48255056142807007,0.48761042952537537
1772535337260402200,3.579402099609375,-0.45831650495529175,-0.5571168661117554,0.3513937294483185
1772535337270334700,3.589334716796875,-0.5105129480361938,-0.6934667229652405,0.1671084314584732
1772535337280246000,3.59924609375,-0.5200999975204468,-0.8403357267379761,-0.024633513763546944
1772535337290176300,3.60917626953125,-0.5062519907951355,-0.9425980448722839,-0.1822880059480667
1772535337300130800,3.619130859375,-0.5030562877655029,-0.9894683361053467,-0.27056917548179626
1772535337310063600,3.629063720703125,-0.516904354095459,-1.0075773000717163,-0.28015628457069397
1772535337319999500,3.63899951171875,-0.5286219120025635,-1.0097078084945679,-0.2247641682624817
1772535337329932500,3.6489326171875,-0.540339469909668,-1.018229603767395,-0.1418091505765915
1772535337339862000,3.658862060546875,-0.5679023265838623,-1.0331429243087769,-0.047003407031297684
1772535337349794800,3.668794921875,-0.6179683208465576,-1.0246210098266602,0.060585130006074905
1772535337359706600,3.67870654296875,-0.7053174376487732,-0.9937292337417603,0.17349982261657715
1772535337369637400,3.688637451171875,-0.8054493069648743,-0.979881227016449,0.2619141638278961
1772535337379569400,3.6985693359375,-0.8938636779785156,-1.0033164024353027,0.2938711643218994
1772535337389500200,3.708500244140625,-0.9620385766029358,-1.0459256172180176,0.2736317217350006
1772535337399439400,3.718439453125,-1.0035827159881592,-1.0704259872436523,0.22889193892478943
1772535337409371000,3.728370849609375,-1.0259525775909424,-1.0533822774887085,0.16178226470947266
1772535337419296800,3.738296875,-1.0398006439208984,-1.0075773000717163,0.060585130006074905
1772535337429227800,3.748227783203125,-1.0334092378616333,-0.9351414442062378,-0.061916667968034744
1772535337439165200,3.758165283203125,-1.0046478509902954,-0.825422465801239,-0.16417904198169708
1772535337449097000,3.768096923828125,-0.9503210186958313,-0.7158365845680237,-0.20785360038280487
1772535337459057000,3.778056884765625,-0.8672328591346741,-0.6157047152519226,-0.17589659988880157
1772535337468991500,3.787991455078125,-0.7745575904846191,-0.5464645624160767,-0.09174319356679916
1772535337478893800,3.797893798828125,-0.6893389225006104,-0.5464645624160767,-0.008655018173158169
1772535337488825000,3.8078251953125,-0.6019898056983948,-0.5965304970741272,0.044606633484363556
1772535337498751000,3.8177509765625,-0.5190348029136658,-0.6689663529396057,0.0712374597787857
1772535337508682000,3.827681884765625,-0.44766417145729065,-0.7382065057754517,0.0829550251364708
1772535337518616300,3.8376162109375,-0.3805544972419739,-0.789337694644928,0.11065108329057693
1772535337528547600,3.847547607421875,-0.3230319023132324,-0.8169005513191223,0.15326039493083954
1772535337538489000,3.857489013671875,-0.2633788585662842,-0.8445966243743896,0.19586972892284393
1772535337548421000,3.867421142578125,-0.20479105412960052,-0.8765535950660706,0.25765323638916016
1772535337558372900,3.877372802734375,-0.1547250896692276,-0.8893364071846008,0.3929378390312195
1772535337568307200,3.88730712890625,-0.1334204375743866,-0.8659012913703918,0.6047860383987427
1772535337578205700,3.897205810546875,-0.11637670546770096,-0.8531184792518616,0.8657681345939636
1772535337588136200,3.90713623046875,-0.132355198264122,-0.8371400237083435,1.1223561763763428
1772535337598071600,3.917071533203125,-0.22716094553470612,-0.8147701025009155,1.2959891557693481
1772535337608002800,3.9270029296875,-0.3134448230266571,-0.7137061357498169,1.3588378429412842
1772535337617963800,3.9369638671875,-0.3155752718448639,-0.5262250900268555,1.3045109510421753
1772535337627897900,3.94689794921875,-0.22503048181533813,-0.3536573648452759,1.1564435958862305
1772535337637830000,3.956829833984375,-0.06631075590848923,-0.15778763592243195,0.9872047305107117
1772535337647764000,3.966763916015625,0.1295589655637741,0.058454662561416626,0.8423330187797546
1772535337657683500,3.976683349609375,0.32556185126304626,0.24060951173305511,0.6900047063827515
1772535337667616000,3.986615966796875,0.4821510910987854,0.34074142575263977,0.4971975088119507
1772535337677544200,3.996544189453125,0.5876091718673706,0.3055887222290039,0.251261830329895
1772535337687476200,4.006476318359375,0.6589797735214233,0.1575213372707367,-0.007589785382151604
1772535337697427000,4.016427001953125,0.6854774355888367,-0.04593817517161369,-0.24713405966758728
1772535337707360800,4.02636083984375,0.6547188758850098,-0.26204732060432434,-0.45378926396369934
1772535337717276000,4.03627587890625,0.584413468837738,-0.35898351669311523,-0.6199656128883362
1772535337727208000,4.0462080078125,0.5194342732429504,-0.2450035959482193,-0.7573806643486023
1772535337737150500,4.056150390625,0.5354127287864685,0.08615072071552277,-0.8733579516410828
1772535337747083500,4.06608349609375,0.6387403607368469,0.5653724074363708,-0.9425980448722839
1772535337757009700,4.076009765625,0.7770875096321106,1.1042472124099731,-0.9607070088386536
1772535337766942000,4.08594189453125,0.8985240459442139,1.5484493970870972,-0.9447285532951355
1772535337776851500,4.0958515625,0.9698946475982666,1.7911893129348755,-0.9170324802398682
1772535337786781700,4.10578173828125,0.989068865776062,1.8391247987747192,-0.887205958366394
1772535337796742000,4.115741943359375,0.9603075981140137,1.763493299484253,-0.8424661755561829
1772535337806675000,4.125675048828125,0.8857412338256836,1.5921238660812378,-0.7754896283149719
1772535337816603400,4.135603271484375,0.7898702621459961,1.3002500534057617,-0.6625749468803406
1772535337826536200,4.1455361328125,0.7025212049484253,0.9818785190582275,-0.48468104004859924
1772535337836471300,4.15547119140625,0.6579145193099976,0.7123745679855347,-0.28228676319122314
1772535337846404000,4.165404052734375,0.6653711795806885,0.47908854484558105,-0.11837401986122131
1772535337856327200,4.1753271484375,0.7099778056144714,0.2725664973258972,-0.016111649572849274
1772535337866259200,4.18525927734375,0.7611089944839478,0.13834713399410248,0.06378082931041718
1772535337876199700,4.19519970703125,0.7845441102981567,0.1362166702747345,0.13728190958499908
1772535337886132500,4.205132568359375,0.760043740272522,0.2011958807706833,0.17456506192684174
1772535337896051200,4.21505126953125,0.6929340958595276,0.2661750912666321,0.15965180099010468
1772535337905982500,4.224982421875,0.5971962809562683,0.33221954107284546,0.1031944528222084
1772535337915919400,4.23491943359375,0.48641201853752136,0.3822855055332184,0.026497671380639076
1772535337925851400,4.244851318359375,0.36923640966415405,0.4035901725292206,-0.028894444927573204
1772535337935782000,4.254781982421875,0.26484355330467224,0.41850343346595764,-0.066177599132061
1772535337945713700,4.264713623046875,0.19986434280872345,0.4524577260017395,-0.12689588963985443
1772535337955652400,4.27465234375,0.16897258162498474,0.5142412185668945,-0.22050324082374573
1772535337965585000,4.2845849609375,0.15512455999851227,0.5824161767959595,-0.32276561856269836
1772535337975515600,4.294515625,0.15512455999851227,0.6431344151496887,-0.40159285068511963
1772535337985448000,4.304447998046875,0.1742987483739853,0.6985265612602234,-0.4292888939380646
1772535337995376600,4.314376708984375,0.21051667630672455,0.7304835319519043,-0.3952014446258545
1772535338005308700,4.32430859375,0.2605826258659363,0.7251573801040649,-0.2854824364185333
1772535338015238000,4.33423779296875,0.3244965970516205,0.678287148475647,-0.0991998240351677
1772535338025169700,4.344169677734375,0.3979976773262024,0.6335473656654358,0.1255643367767334
1772535338035103500,4.354103515625,0.4693683087825775,0.6314168572425842,0.34180665016174316
1772535338045035500,4.364035400390625,0.5364779829978943,0.6484606266021729,0.5078498721122742
1772535338054965800,4.3739658203125,0.5971962809562683,0.6580476760864258,0.6058512926101685
1772535338064897300,4.383897216796875,0.6259575486183167,0.6239602565765381,0.6378082633018494
1772535338074832100,4.39383203125,0.5971962809562683,0.5387415885925293,0.6186341047286987
1772535338084764200,4.40376416015625,0.5247604250907898,0.4226312041282654,0.5738942623138428
1772535338094697200,4.413697265625,0.41397619247436523,0.28961023688316345,0.5131760239601135
1772535338104629200,4.423629150390625,0.2712349593639374,0.18415215611457825,0.4418053925037384
1772535338114533000,4.433533203125,0.12529803812503815,0.13302096724510193,0.3567199110984802
1772535338124462300,4.44346240234375,-0.0077229393646121025,0.1564560979604721,0.25765323638916016
1772535338134426600,4.453426513671875,-0.11531147360801697,0.2736317217350006,0.1564560979604721
1772535338144359400,4.463359375,-0.18881255388259888,0.46737098693847656,0.061650361865758896
1772535338154287000,4.473287109375,-0.23355233669281006,0.6804175972938538,-0.025698747485876083
1772535338164172800,4.4831728515625,-0.27616167068481445,0.8742899894714355,-0.0981345921754837
1772535338184082200,4.503082275390625,-0.36138030886650085,1.1404651403427124,-0.151396244764328
1772535338194019300,4.513019287109375,-0.3560541272163391,1.1500521898269653,-0.1631138026714325
1772535338203943700,4.522943603515625,-0.3155752718448639,1.0658987760543823,-0.1716356724500656
1772535338213879600,4.532879638671875,-0.26763978600502014,0.9371387362480164,-0.14820054173469543
1772535338223808500,4.54280859375,-0.21331290900707245,0.7816147208213806,-0.08854749798774719
1772535338233743600,4.55274365234375,-0.1451379954814911,0.585611879825592,0.0030625448562204838
1772535338243688200,4.562688232421875,-0.08122401684522629,0.339676171541214,0.10958584398031235
1772535338253624300,4.572624267578125,-0.05991935729980469,0.042476166039705276,0.17030413448810577
1772535338263544600,4.582544677734375,-0.10359390825033188,-0.28441721200942993,0.14154283702373505
1772535338273479200,4.592479248046875,-0.19520394504070282,-0.6061176061630249,0.027562905102968216
1772535338283405300,4.6024052734375,-0.3038577139377594,-0.8669665455818176,-0.1290263533592224
1772535338293339000,4.6123388671875,-0.42742475867271423,-1.0501866340637207,-0.28015628457069397
1772535338303244000,4.622244140625,-0.554054319858551,-1.1662969589233398,-0.4122451841831207
1772535338313174800,4.6321748046875,-0.6701647043228149,-1.1812102794647217,-0.5070509314537048
1772535338323133200,4.64213330078125,-0.769231379032135,-1.0874698162078857,-0.5358121991157532
1772535338333066800,4.652066650390625,-0.8576457500457764,-0.8989235162734985,-0.505985677242279
1772535338343008800,4.6620087890625,-0.9194292426109314,-0.6284874677658081,-0.43035414814949036
1772535338352943000,4.671943115234375,-0.9215596914291382,-0.31530898809432983,-0.3302222490310669
1772535338362859000,4.68185888671875,-0.8672328591346741,-0.033155377954244614,-0.2535254657268524
1772535338372791600,4.69179150390625,-0.7639052271842957,0.13834713399410248,-0.2354165017604828
1772535338382723600,4.7017236328125,-0.6083812117576599,0.18734785914421082,-0.2769605815410614
1772535338392656000,4.71165576171875,-0.4082505702972412,0.18415215611457825,-0.3440702557563782
1772535338402596400,4.721596435546875,-0.16750788688659668,0.1671084314584732,-0.406919002532959
1772535338412529700,4.73152978515625,0.0773625448346138,0.18734785914421082,-0.4452674090862274
1772535338422451500,4.741451416015625,0.2999962568283081,0.23741380870342255,-0.43141937255859375
1772535338432383500,4.751383544921875,0.4693683087825775,0.297066867351532,-0.3728315532207489
1772535338442329000,4.7613291015625,0.5663045048713684,0.3577851355075836,-0.29506954550743103
1772535338452262700,4.7712626953125,0.5822830200195312,0.400394469499588,-0.2141118347644806
1772535338462189800,4.78118994140625,0.5247604250907898,0.41743817925453186,-0.1524614691734314
1772535338472122600,4.79112255859375,0.40332385897636414,0.4035901725292206,-0.1205044835805893
1772535338482045700,4.801045654296875,0.23501703143119812,0.3801550269126892,-0.1087869256734848
1772535338491977500,4.8109775390625,0.06045197322964668,0.3588503897190094,-0.09493889659643173
1772535338501890600,4.820890625,-0.08548495173454285,0.3173062801361084,-0.07043853402137756
1772535338511820500,4.830820556640625,-0.20479105412960052,0.23954427242279053,-0.06404713541269302
1772535338521775600,4.840775634765625,-0.3038577139377594,0.12449911236763,-0.08854749798774719
1772535338531708200,4.850708251953125,-0.3890763521194458,-0.006524552125483751,-0.12689588963985443
1772535338541636900,4.860636962890625,-0.4444684684276581,-0.15885287523269653,-0.15459194779396057
1772535338551569200,4.870569091796875,-0.475360244512558,-0.3217003643512726,-0.16737474501132965
1772535338561512400,4.880512451171875,-0.49240395426750183,-0.4665720760822296,-0.17909230291843414
1772535338571445800,4.89044580078125,-0.49240395426750183,-0.5773562788963318,-0.18974463641643524
1772535338581369900,4.900369873046875,-0.47962117195129395,-0.644465982913971,-0.19080986082553864
1772535338591302100,4.91030224609375,-0.4540555775165558,-0.644465982913971,-0.1716356724500656
1772535338611147000,4.93014697265625,-0.4007939398288727,-0.48468104004859924,-0.09174319356679916
1772535338621071600,4.940071533203125,-0.3762935698032379,-0.39946237206459045,-0.05978620424866676
1772535338631001600,4.950001708984375,-0.33901041746139526,-0.3440702557563782,-0.053394805639982224
1772535338640939300,4.959939208984375,-0.3059881925582886,-0.3334179222583771,-0.06830807030200958
1772535338650870000,4.9698701171875,-0.28894445300102234,-0.3632444739341736,-0.09387365728616714
1772535338660799000,4.979799072265625,-0.2953358590602875,-0.41863659024238586,-0.11730878800153732
1772535338670729700,4.989729736328125,-0.31983622908592224,-0.48361578583717346,-0.1194392517209053
1772535338680665900,4.999665771484375,-0.34114086627960205,-0.5422036051750183,-0.09387365728616714
1772535338690596900,5.009596923828125,-0.3432713449001312,-0.5709648728370667,-0.060851436108350754
1772535338700526000,5.019526123046875,-0.3240971565246582,-0.5741605758666992,-0.040612008422613144
1772535338710456800,5.029456787109375,-0.28574874997138977,-0.5326164960861206,-0.028894444927573204
1772535338720393000,5.03939306640625,-0.23674803972244263,-0.44313693046569824,-0.013981183059513569
1772535338730324500,5.049324462890625,-0.1877473145723343,-0.3408745527267456,0.004127778112888336
1772535338740254700,5.059254638671875,-0.13981182873249054,-0.2247641682624817,0.044606633484363556
1772535338750186000,5.06918603515625,-0.08122401684522629,-0.09493889659643173,0.10958584398031235
1772535338760140800,5.079140869140625,0.0061250897124409676,0.021171506494283676,0.1884130984544754
1772535338770074600,5.08907470703125,0.13701559603214264,0.16497796773910522,0.2832188308238983
1772535338780015900,5.099015869140625,0.3223661482334137,0.42795735597610474,0.42795735597610474
1772535338789950200,5.1089501953125,0.5204994678497314,0.7315487861633301,0.5802856683731079
1772535338799875600,5.11887548828125,0.6600450277328491,0.8657681345939636,0.6378082633018494
1772535338809809200,5.12880908203125,0.7110430598258972,0.8114412426948547,0.5930684804916382
1772535338819733500,5.1387333984375,0.7003906965255737,0.6985265612602234,0.4854799509048462
1772535338829666000,5.148666015625,0.6483274698257446,0.5557853579521179,0.3471328020095825
1772535338839609300,5.158609375,0.5588479042053223,0.4035901725292206,0.19800019264221191
1772535338849543000,5.16854296875,0.4384765326976776,0.2981320917606354,0.07336792349815369
1772535338859463000,5.178462890625,0.33621418476104736,0.28002312779426575,0.001997311832383275
1772535338869395200,5.188395263671875,0.30638766288757324,0.3588503897190094,-0.020372580736875534
1772535338879327200,5.1983271484375,0.3628450036048889,0.5067846179008484,-0.012915950268507004
1772535338889259500,5.208259521484375,0.4714987576007843,0.6740261912345886,0.0009320789249613881
1772535338899192300,5.2181923828125,0.5801525115966797,0.8125064969062805,0.0009320789249613881
1772535338909124600,5.22812451171875,0.6493926644325256,0.8870728015899658,-0.015046416781842709
1772535338919054600,5.2380546875,0.6632407307624817,0.8870728015899658,-0.04593817517161369
1772535338928986600,5.247986572265625,0.6174356937408447,0.8157021999359131,-0.08854749798774719
1772535338938925800,5.25792578125,0.5343475341796875,0.6814828515052795,-0.15033100545406342
1772535338948858600,5.267858642578125,0.4406070113182068,0.49932798743247986,-0.21943800151348114
1772535338958787800,5.277787841796875,0.3458012640476227,0.2842840552330017,-0.27056917548179626
1772535338968720100,5.28772021484375,0.2573869228363037,0.06271559745073318,-0.2886781394481659
1772535338978653700,5.29765380859375,0.17642922699451447,-0.14607007801532745,-0.2673735022544861
1772535338988586200,5.307586181640625,0.12210233509540558,-0.3195699155330658,-0.20039696991443634
1772535338998509800,5.317509765625,0.11784140020608902,-0.4058537781238556,-0.10772168636322021
1772535339008441300,5.32744140625,0.16471165418624878,-0.3749620318412781,-0.017176883295178413
1772535339018384400,5.33738427734375,0.24566936492919922,-0.23648172616958618,0.058454662561416626
1772535339028317200,5.347317138671875,0.3458012640476227,-0.015046416781842709,0.11065108329057693
1772535339038237400,5.357237548828125,0.4480636417865753,0.24593567848205566,0.14047759771347046
1772535339048169200,5.367169189453125,0.5290213227272034,0.49187135696411133,0.15326039493083954
1772535339058102300,5.377102294921875,0.5588479042053223,0.6687000393867493,0.12130340933799744
1772535339068034000,5.387033935546875,0.5247604250907898,0.7347444891929626,0.041410934180021286
1772535339077964000,5.396964111328125,0.4384765326976776,0.7272878289222717,-0.058720968663692474
1772535339087895600,5.4068955078125,0.32662707567214966,0.716635525226593,-0.16417904198169708
1772535339097842200,5.41684228515625,0.22436471283435822,0.7272878289222717,-0.2652430236339569
1772535339107775200,5.426775146484375,0.15832026302814484,0.7496577501296997,-0.3621792197227478
1772535339117694200,5.436694091796875,0.1306242048740387,0.7613753080368042,-0.46231111884117126
1772535339127606500,5.4466064453125,0.13808083534240723,0.7507229447364807,-0.5485950112342834
1772535339147506200,5.466506103515625,0.19666863977909088,0.6495258212089539,-0.6306179761886597
1772535339157441000,5.47644091796875,0.22862564027309418,0.5973294377326965,-0.5848129391670227
1772535339167354400,5.486354248046875,0.2669740319252014,0.5515244007110596,-0.467637300491333
1772535339177287000,5.496286865234375,0.312779039144516,0.5142412185668945,-0.2982652485370636
1772535339187223800,5.506223876953125,0.3564535975456238,0.4748276174068451,-0.11198262125253677
1772535339197156900,5.516156982421875,0.39160630106925964,0.4311530590057373,0.060585130006074905
1772535339207099400,5.526099365234375,0.42356327176094055,0.36524176597595215,0.18202169239521027
1772535339217033200,5.536033203125,0.4374113082885742,0.26937079429626465,0.23315288126468658
1772535339226949000,5.54594921875,0.41504141688346863,0.16391272842884064,0.22676147520542145
1772535339236881200,5.555881103515625,0.3511274456977844,0.037150003015995026,0.2001306563615799
1772535339246820000,5.565820068359375,0.27443066239356995,-0.12370018661022186,0.1671084314584732
1772535339256753000,5.5757529296875,0.2062557488679886,-0.31317850947380066,0.11171631515026093
1772535339266680000,5.58568017578125,0.1423417627811432,-0.4985290467739105,0.024367205798625946
1772535339276612400,5.5956123046875,0.07310161739587784,-0.6082480549812317,-0.08535179495811462
1772535339286547200,5.605547119140625,-0.017310036346316338,-0.5954652428627014,-0.1716356724500656
1772535339296479700,5.615479736328125,-0.13555090129375458,-0.4665720760822296,-0.20252743363380432
1772535339306379800,5.6253798828125,-0.2580527067184448,-0.23115555942058563,-0.18122276663780212
1772535339316309000,5.63530908203125,-0.34114086627960205,0.040345702320337296,-0.12796111404895782
1772535339326274800,5.64527490234375,-0.36138030886650085,0.2949363887310028,-0.058720968663692474
1772535339336207600,5.65520751953125,-0.3155752718448639,0.48867565393447876,0.020106272771954536
1772535339346139000,5.665138916015625,-0.21437814831733704,0.6079817414283752,0.11171631515026093
1772535339356071700,5.67507177734375,-0.07483261823654175,0.6623086333274841,0.22995717823505402
1772535339365993700,5.68499365234375,0.05938674136996269,0.6655043363571167,0.3492632806301117
1772535339375925500,5.694925537109375,0.1615159511566162,0.6133078932762146,0.4226312041282654
1772535339385859300,5.704859375,0.22116900980472565,0.509980320930481,0.4439358711242676
1772535339395791400,5.714791259765625,0.22862564027309418,0.39613354206085205,0.4226312041282654
1772535339405726500,5.7247265625,0.17962491512298584,0.2619141638278961,0.35458943247795105
1772535339415658800,5.73465869140625,0.07949301600456238,0.057389430701732635,0.2416747361421585
1772535339425596400,5.744596435546875,-0.06631075590848923,-0.2439383566379547,0.08828118443489075
1772535339435529200,5.754529296875,-0.23355233669281006,-0.598660945892334,-0.06404713541269302
1772535339445453600,5.76445361328125,-0.39227205514907837,-0.9127715229988098,-0.16737474501132965
1772535339455385600,5.774385498046875,-0.5232957005500793,-1.1449923515319824,-0.20359265804290771
1772535339465293800,5.7842939453125,-0.6073159575462341,-1.2685593366622925,-0.16524426639080048
1772535339475223300,5.794223388671875,-0.6264901757240295,-1.233406662940979,-0.043807707726955414
1772535339485190000,5.80418994140625,-0.5710980296134949,-1.0171643495559692,0.14260807633399963
1772535339495123200,5.814123291015625,-0.4742949903011322,-0.682814359664917,0.3386109471321106
1772535339505048000,5.824048095703125,-0.38161972165107727,-0.3323526978492737,0.48015379905700684
1772535339514980400,5.83398046875,-0.3145100474357605,-0.07256899774074554,0.5302197337150574
1772535339524914200,5.8439140625,-0.28681400418281555,0.050998032093048096,0.47908854484558105
1772535339534846700,5.8538466796875,-0.302792489528656,0.060585130006074905,0.34393709897994995
1772535339544749000,5.8637490234375,-0.3581846058368683,-0.031024912372231483,0.16284750401973724
1772535339554678800,5.8736787109375,-0.42742475867271423,-0.19706811010837555,0.001997311832383275
1772535339564638500,5.883638427734375,-0.46683835983276367,-0.3707011044025421,-0.08641702681779861
1772535339574571000,5.893571044921875,-0.43594661355018616,-0.5006595253944397,-0.10985215753316879
1772535339584502800,5.903502685546875,-0.3379451632499695,-0.6263570189476013,-0.1087869256734848
1772535339594435300,5.913435302734375,-0.21011722087860107,-0.7776201367378235,-0.09280842542648315
1772535339604378400,5.92337841796875,-0.08122401684522629,-0.919162929058075,-0.048068638890981674
1772535339614312000,5.93331201171875,0.024234050884842873,-1.0437952280044556,0.023301972076296806
1772535339624210000,5.9432099609375,0.08375394344329834,-1.1535142660140991,0.1031944528222084
1772535339634140000,5.953139892578125,0.08162347972393036,-1.2376675605773926,0.1575213372707367
1772535339644095500,5.963095458984375,0.012516488321125507,-1.3005163669586182,0.17243459820747375
1772535339654028000,5.973028076171875,-0.11424624174833298,-1.3399299383163452,0.17243459820747375
1772535339663955700,5.982955810546875,-0.27509641647338867,-1.310103416442871,0.1788259893655777
1772535339673887700,5.9928876953125,-0.4412727653980255,-1.1907973289489746,0.18521739542484283
1772535339683822300,6.002822265625,-0.5870765447616577,-1.0203601121902466,0.16497796773910522
1772535339693754600,6.012754638671875,-0.6999912261962891,-0.8477923274040222,0.09786828607320786
1772535339703685000,6.02268505859375,-0.7734923362731934,-0.696662425994873,-0.011850717477500439
1772535339713617400,6.032617431640625,-0.8022536039352417,-0.5485950112342834,-0.1396786868572235
1772535339723556600,6.042556640625,-0.7894708514213562,-0.4037233293056488,-0.2684387266635895
1772535339733489400,6.052489501953125,-0.7489919662475586,-0.299330472946167,-0.38987529277801514
1772535339743419000,6.0624189453125,-0.6967955231666565,-0.2354165017604828,-0.49639859795570374
1772535339753351200,6.07235107421875,-0.6488600373268127,-0.18548369407653809,-0.5720301270484924
1772535339763292700,6.082292724609375,-0.6051855087280273,-0.13328728079795837,-0.6007914543151855
1772535339773226000,6.09222607421875,-0.576424241065979,-0.08854749798774719,-0.5933347940444946
1772535339783124000,6.1021240234375,-0.5636414289474487,-0.06937330216169357,-0.5624430179595947
1772535339793054000,6.112053955078125,-0.5593804717063904,-0.067242830991745,-0.5187684893608093
1772535339803006000,6.122005859375,-0.5657718777656555,-0.07896039634943008,-0.47296345233917236
1772535339812938000,6.13193798828125,-0.5838808417320251,-0.11730878800153732,-0.4335498511791229
1772535339822849800,6.141849853515625,-0.6041202545166016,-0.17589659988880157,-0.3920057415962219
1772535339832779800,6.15177978515625,-0.6062507629394531,-0.23648172616958618,-0.33554840087890625
1772535339842718700,6.16171875,-0.5860112905502319,-0.29400432109832764,-0.26311254501342773
1772535339852649700,6.171649658203125,-0.5455324649810791,-0.3483312129974365,-0.1844184696674347
1772535339862574800,6.181574951171875,-0.49133872985839844,-0.38348388671875,-0.10772168636322021
1772535339872505000,6.191505126953125,-0.433816134929657,-0.3824186623096466,-0.037416309118270874
1772535339882440400,6.2014404296875,-0.36351075768470764,-0.32383084297180176,0.025432437658309937
1772535339892371500,6.211371337890625,-0.2687050402164459,-0.20665520429611206,0.07549838721752167
1772535339902312400,6.2213125,-0.15792079269886017,-0.04913387447595596,0.12236864119768143
1772535339912244200,6.231244140625,-0.04607132822275162,0.1255643367767334,0.16284750401973724
1772535339922177000,6.241177001953125,0.06457975506782532,0.3268933892250061,0.19373925030231476
1772535339932109000,6.251109130859375,0.20838621258735657,0.6069164872169495,0.251261830329895
1772535339942058800,6.261058837890625,0.3766930401325226,0.8817466497421265,0.31411057710647583
1772535339951992600,6.27099267578125,0.5162385702133179,0.9840090274810791,0.3087844252586365
1772535339961923300,6.28092333984375,0.5854787230491638,0.8955946564674377,0.22782671451568604
1772535339971857000,6.29085693359375,0.5716306567192078,0.7081136703491211,0.11597724258899689
1772535339981791700,6.300791748046875,0.47895538806915283,0.4940018057823181,0.020106272771954536
1772535339991725300,6.310725341796875,0.3340837061405182,0.2715012729167938,-0.05659050494432449
1772535340001628000,6.3206279296875,0.1956034153699875,0.08721595257520676,-0.11091738939285278
1772535340011558700,6.33055859375,0.11038476973772049,0.019041040912270546,-0.12796111404895782
1772535340021510400,6.340510498046875,0.09760197252035141,0.08828118443489075,-0.10985215753316879
1772535340031443200,6.350443115234375,0.1625811904668808,0.25658801198005676,-0.07043853402137756
1772535340041388500,6.360388427734375,0.29786577820777893,0.47695809602737427,-0.029959678649902344
1772535340051322400,6.370322265625,0.481085866689682,0.679352343082428,0.0009320789249613881
1772535340061239600,6.380239501953125,0.6493926644325256,0.8103760480880737,0.005193010903894901
1772535340071171800,6.390171875,0.7568480372428894,0.862572431564331,-0.019307348877191544
1772535340081103000,6.40010302734375,0.7994573712348938,0.8295502066612244,-0.058720968663692474
1772535340091035400,6.410035400390625,0.797326922416687,0.7347444891929626,-0.09387365728616714
1772535340100966000,6.4199658203125,0.7579132914543152,0.595198929309845,-0.10346075892448425
1772535340110898000,6.42989794921875,0.7046516537666321,0.4343487620353699,-0.08428656309843063
1772535340120831700,6.439831787109375,0.6589797735214233,0.2715012729167938,-0.04913387447595596
1772535340130763800,6.449763671875,0.6174356937408447,0.13195574283599854,-0.004394086077809334
1772535340140713700,6.459713623046875,0.5940005779266357,0.024367205798625946,0.04673709720373154
1772535340150647800,6.469647705078125,0.6142399907112122,-0.034220609813928604,0.0925421193242073
1772535340170489300,6.4894892578125,0.7898702621459961,0.048867564648389816,0.17669552564620972
1772535340180456000,6.4994560546875,0.8750889301300049,0.16497796773910522,0.22569625079631805
1772535340190391000,6.50939111328125,0.9155677556991577,0.2874797582626343,0.28108835220336914
1772535340200287500,6.51928759765625,0.9081111550331116,0.39826399087905884,0.3268933892250061
1772535340210218500,6.529218505859375,0.8516538143157959,0.464175283908844,0.34180665016174316
1772535340220166700,6.539166748046875,0.7611089944839478,0.4631100594997406,0.31198012828826904
1772535340230099500,6.549099365234375,0.6483274698257446,0.40998154878616333,0.2523270845413208
1772535340240027600,6.559027587890625,0.5194342732429504,0.3194367587566376,0.18415215611457825
1772535340249960200,6.568960205078125,0.3948020040988922,0.22356578707695007,0.13834713399410248
1772535340259880000,6.5788798828125,0.30532240867614746,0.16604319214820862,0.14154283702373505
1772535340269811200,6.588811279296875,0.2584521770477295,0.2214353084564209,0.18734785914421082
1772535340279743200,6.5987431640625,0.23395180702209473,0.4322183132171631,0.23741380870342255
1772535340289674500,6.608674560546875,0.20732097327709198,0.740070641040802,0.27043604850769043
1772535340299606800,6.618606689453125,0.18708154559135437,1.05098557472229,0.2853493094444275
1772535340309538000,6.6285380859375,0.19240771234035492,1.299184799194336,0.2981320917606354
1772535340319476200,6.638476318359375,0.24034319818019867,1.4792091846466064,0.3194367587566376
1772535340329408300,6.648408203125,0.31703996658325195,1.5931891202926636,0.34074142575263977
1772535340339343000,6.658343017578125,0.38947582244873047,1.6155589818954468,0.35565468668937683
1772535340349275400,6.668275390625,0.4310199022293091,1.5399274826049805,0.36311131715774536
1772535340359199700,6.67819970703125,0.43528082966804504,1.3982515335083008,0.3503285050392151
1772535340369131300,6.68813134765625,0.41291093826293945,1.2118357419967651,0.31198012828826904
1772535340379064600,6.698064697265625,0.3852148950099945,0.993596076965332,0.24060951173305511
1772535340388996000,6.70799609375,0.354323148727417,0.7698971629142761,0.1362166702747345
1772535340398930400,6.717930419921875,0.31917044520378113,0.5472634434700012,0.010519175790250301
1772535340408862500,6.727862548828125,0.28401774168014526,0.30345824360847473,-0.11624355614185333
1772535340418790400,6.737790283203125,0.24460414052009583,0.027562905102968216,-0.20785360038280487
1772535340428722000,6.747721923828125,0.19134248793125153,-0.2332860380411148,-0.23967742919921875
1772535340438660000,6.75766015625,0.11677616834640503,-0.4473978579044342,-0.22156846523284912
1772535340448592100,6.767592041015625,0.03808208182454109,-0.5837476849555969,-0.16524426639080048
1772535340458527200,6.77752734375,-0.026897134259343147,-0.6039870977401733,-0.06937330216169357
1772535340468459800,6.787459716796875,-0.08122401684522629,-0.4793548583984375,0.050998032093048096
1772535340478386400,6.797386474609375,-0.1334204375743866,-0.25139498710632324,0.14793424308300018
1772535340488318200,6.807318115234375,-0.1749645173549652,-0.027829213067889214,0.18095645308494568
1772535340498248200,6.817248291015625,-0.17816022038459778,0.16178226470947266,0.18308693170547485
1772535340508180000,6.827179931640625,-0.10998530685901642,0.35565468668937683,0.2118482142686844
1772535340518112000,6.837112060546875,0.014646953903138638,0.5302197337150574,0.26724034547805786
1772535340528043800,6.847043701171875,0.15618979930877686,0.6505910754203796,0.316241055727005
1772535340537981400,6.8569814453125,0.26271310448646545,0.7059831619262695,0.3386109471321106
1772535340547913700,6.866913818359375,0.2999962568283081,0.6868090033531189,0.3194367587566376
1772535340557845200,6.87684521484375,0.26484355330467224,0.570698618888855,0.23954427242279053
1772535340567777300,6.88677734375,0.1625811904668808,0.3375457227230072,0.0829550251364708
1772535340577706000,6.8967060546875,0.002929390873759985,-0.009720250964164734,-0.12689588963985443
1772535340587638000,6.906637939453125,-0.18029068410396576,-0.3856143653392792,-0.32489606738090515
1772535340597549300,6.91654931640625,-0.3539236783981323,-0.7126408815383911,-0.4569849669933319
1772535340607479000,6.92647900390625,-0.49986058473587036,-0.9841421842575073,-0.5240946412086487
1772535340617439500,6.936439453125,-0.6030550599098206,-1.1876016855239868,-0.5208989381790161
1772535340627372500,6.94637255859375,-0.6286206245422363,-1.2909293174743652,-0.43141937255859375
1772535340637298000,6.9562978515625,-0.5892069935798645,-1.2696245908737183,-0.2876129150390625
1772535340647230000,6.96622998046875,-0.5147738456726074,-1.1034482717514038,-0.12583065032958984
1772535340657165300,6.976165283203125,-0.41357672214508057,-0.8158353567123413,0.024367205798625946
1772535340667097900,6.986097900390625,-0.32090145349502563,-0.5208989381790161,0.11704248189926147
1772535340677009400,6.996009521484375,-0.26657456159591675,-0.32596129179000854,0.13195574283599854
1772535340686939600,7.005939697265625,-0.23142187297344208,-0.2343512624502182,0.08188978582620621
1772535340696887600,7.015887451171875,-0.1877473145723343,-0.23115555942058563,-0.004394086077809334
1772535340706819600,7.025819580078125,-0.1334204375743866,-0.2897433936595917,-0.08641702681779861
1772535340716749000,7.0357490234375,-0.07483261823654175,-0.3920057415962219,-0.13541774451732635
1772535340726680800,7.045680908203125,-0.026897134259343147,-0.5304860472679138,-0.1300915777683258
1772535340736620300,7.055620361328125,0.002929390873759985,-0.6934667229652405,-0.08961272984743118
1772535340746552800,7.065552734375,0.022103585302829742,-0.8701622486114502,-0.047003407031297684
1772535340756480000,7.07547998046875,0.03808208182454109,-1.0459256172180176,-0.033155377954244614
1772535340766412000,7.085412109375,0.03488638252019882,-1.1971887350082397,-0.057655736804008484
1772535340776358100,7.095358154296875,-0.022636201232671738,-1.2973207235336304,-0.11411308497190475
1772535340786291700,7.105291748046875,-0.14726845920085907,-1.340995192527771,-0.1716356724500656
1772535340796236500,7.115236572265625,-0.30811864137649536,-1.3282123804092407,-0.19826649129390717
1772535340806171100,7.125171142578125,-0.4519250988960266,-1.2664289474487305,-0.19613602757453918
1772535340816074000,7.135073974609375,-0.5487281680107117,-1.141796588897705,-0.20252743363380432
1772535340826005500,7.145005615234375,-0.5934679508209229,-0.95644611120224,-0.23754696547985077
1772535340835944000,7.15494384765625,-0.6051855087280273,-0.7563154697418213,-0.29080861806869507
1772535340845876200,7.164876220703125,-0.6019898056983948,-0.5645735263824463,-0.3334179222583771
1772535340855804400,7.174804443359375,-0.5977289080619812,-0.4058537781238556,-0.3493964374065399
1772535340865736200,7.184736083984375,-0.599859356880188,-0.3089175820350647,-0.34513550996780396
1772535340875667500,7.19466748046875,-0.6041202545166016,-0.26950395107269287,-0.32489606738090515
1772535340885599200,7.20459912109375,-0.6030550599098206,-0.24819929897785187,-0.29293906688690186
1772535340895541500,7.21454150390625,-0.5945332050323486,-0.22795987129211426,-0.24713405966758728
1772535340905474000,7.22447412109375,-0.5732285380363464,-0.2141118347644806,-0.19613602757453918
1772535340915369700,7.23436962890625,-0.532882809638977,-0.21091613173484802,-0.1311568170785904
1772535340925299000,7.244298828125,-0.47003406286239624,-0.23115555942058563,-0.066177599132061
1772535340935259000,7.2542587890625,-0.40292438864707947,-0.28228676319122314,-0.011850717477500439
1772535340945191200,7.264191162109375,-0.345401793718338,-0.36750540137290955,0.020106272771954536
1772535340955101700,7.274101806640625,-0.30811864137649536,-0.49639859795570374,0.027562905102968216
1772535340965031700,7.28403173828125,-0.29959678649902344,-0.6529878377914429,0.014780107885599136
1772535340975001900,7.294001953125,-0.326227605342865,-0.8051829934120178,-0.0033288532868027687
1772535340984936000,7.30393603515625,-0.3784240186214447,-0.9042496681213379,-0.013981183059513569
1772535340994830000,7.313830078125,-0.433816134929657,-0.9223586320877075,-0.012915950268507004
1772535341004760000,7.323760009765625,-0.4615122079849243,-0.8712274432182312,0.006258244160562754
1772535341014695400,7.3336953125,-0.46896883845329285,-0.7840114831924438,0.038215234875679016
1772535341024626000,7.3436259765625,-0.4764254689216614,-0.6700315475463867,0.058454662561416626
1772535341034559700,7.353559814453125,-0.4870778024196625,-0.5400731563568115,0.044606633484363556
1772535341054420200,7.373420166015625,-0.4508598744869232,-0.13754820823669434,-0.03848154470324516
1772535341064351000,7.38335107421875,-0.3805544972419739,0.13089050352573395,-0.08428656309843063
1772535341074287000,7.393287109375,-0.2740311920642853,0.38548120856285095,-0.12263495475053787
1772535341084218400,7.40321826171875,-0.13448566198349,0.6399387121200562,-0.12476541846990585
1772535341094150700,7.413150634765625,0.05086487531661987,0.954182505607605,-0.06404713541269302
1772535341104082200,7.423082275390625,0.27549588680267334,1.2491189241409302,0.028628136962652206
1772535341114032000,7.4330322265625,0.46617260575294495,1.4195561408996582,0.06910699605941772
1772535341123965400,7.44296533203125,0.5567173957824707,1.450447916984558,0.015845341607928276
1772535341133921300,7.45292138671875,0.560978353023529,1.3993167877197266,-0.10133028775453568
1772535341143857000,7.46285693359375,0.5023905038833618,1.2725540399551392,-0.23861220479011536
1772535341153763300,7.472763427734375,0.36071452498435974,0.9946613311767578,-0.39094051718711853
1772535341163695900,7.48269580078125,0.11571093648672104,0.5461982488632202,-0.5539211630821228
1772535341173641000,7.492640869140625,-0.17922545969486237,0.044606633484363556,-0.6710968017578125
1772535341183574800,7.50257470703125,-0.42316383123397827,-0.3291569948196411,-0.6955971717834473
1772535341193497600,7.51249755859375,-0.5561847686767578,-0.5027899742126465,-0.6540530920028687
1772535341203430400,7.522430419921875,-0.599859356880188,-0.5304860472679138,-0.5912043452262878
1772535341213367300,7.5323671875,-0.5572500228881836,-0.4282236695289612,-0.5177032351493835
1772535341223300400,7.54230029296875,-0.45725128054618835,-0.2354165017604828,-0.4591154456138611
1772535341233225200,7.55222509765625,-0.3571193814277649,-0.0555252730846405,-0.45165881514549255
1772535341243157500,7.562157470703125,-0.31131434440612793,0.017975807189941406,-0.4921376705169678
1772535341253086200,7.572086181640625,-0.3251623809337616,-0.016111649572849274,-0.5315513014793396
1772535341263018200,7.582018310546875,-0.38161972165107727,-0.10346075892448425,-0.5432688593864441
1772535341272953600,7.59195361328125,-0.475360244512558,-0.24074266850948334,-0.5272903442382812
1772535341282886000,7.601885986328125,-0.5604457259178162,-0.4154408872127533,-0.46124589443206787
1772535341292813800,7.611813720703125,-0.5742937326431274,-0.5560516119003296,-0.3536573648452759
1772535341302745900,7.621745849609375,-0.4955996572971344,-0.6338136196136475,-0.24180789291858673
1772535341312677400,7.631677490234375,-0.34007564187049866,-0.6423355340957642,-0.14500483870506287
1772535341322609200,7.641609130859375,-0.13981182873249054,-0.551790714263916,-0.058720968663692474
1772535341332545500,7.651545654296875,0.06884068250656128,-0.3632444739341736,0.019041040912270546
1772535341342477800,7.661477783203125,0.25206077098846436,-0.08854749798774719,0.08508548885583878
1772535341352412700,7.67141259765625,0.39373674988746643,0.2214353084564209,0.12449911236763
1772535341362345200,7.68134521484375,0.4714987576007843,0.4961322844028473,0.12876003980636597
1772535341372282400,7.691282470703125,0.4608464241027832,0.7049179673194885,0.08402025699615479
1772535341382215400,7.70121533203125,0.3884105980396271,0.847659170627594,0.001997311832383275
1772535341392145400,7.7111455078125,0.29680055379867554,0.9105079174041748,-0.1087869256734848
1772535341402078200,7.721078125,0.2169080674648285,0.8881380558013916,-0.22050324082374573
1772535341411999000,7.7309990234375,0.17536398768424988,0.8284850120544434,-0.299330472946167
1772535341421930500,7.740930419921875,0.19027724862098694,0.7571143507957458,-0.32383084297180176
1772535341431860500,7.750860595703125,0.2563216984272003,0.6697652339935303,-0.30359140038490295
1772535341441791700,7.760791748046875,0.3564535975456238,0.5589810013771057,-0.2439383566379547
1772535341451708700,7.770708740234375,0.46510738134384155,0.4396749436855316,-0.14820054173469543
1772535341461638700,7.780638671875,0.5673697590827942,0.34500235319137573,-0.025698747485876083
1772535341471592400,7.790592529296875,0.6493926644325256,0.2960016131401062,0.10745538026094437
1772535341481524700,7.800524658203125,0.7014559507369995,0.2842840552330017,0.23741380870342255
1772535341491454200,7.8104541015625,0.7153039574623108,0.2981320917606354,0.3460675776004791
1772535341501386000,7.820385986328125,0.713173508644104,0.32369768619537354,0.41623979806900024
1772535341511300600,7.830300537109375,0.7216953635215759,0.34393709897994995,0.4503272473812103
1772535341521230800,7.84023095703125,0.7408695816993713,0.3460675776004791,0.4620448350906372
1772535341531183900,7.850183837890625,0.7696308493614197,0.3173062801361084,0.45565342903137207
1772535341541116400,7.860116455078125,0.7930659651756287,0.24487043917179108,0.42689213156700134
1772535341551043600,7.870043701171875,0.7898702621459961,0.13834713399410248,0.38548120856285095
1772535341560975600,7.8799755859375,0.7419347763061523,0.023301972076296806,0.3268933892250061
1772535341570902500,7.889902587890625,0.6419360637664795,-0.1087869256734848,0.24380521476268768
1772535341580834000,7.899833984375,0.4906729757785797,-0.2641777992248535,0.11597724258899689
1772535341590769400,7.909769287109375,0.30638766288757324,-0.4175713360309601,-0.0555252730846405
1772535341600701200,7.919701171875,0.09760197252035141,-0.5358121991157532,-0.24074266850948334
1772535341610637300,7.92963720703125,-0.12383333593606949,-0.6039870977401733,-0.40798425674438477
1772535341620569600,7.939569580078125,-0.35179319977760315,-0.6263570189476013,-0.536877453327179
1772535341630505000,7.9495048828125,-0.5732285380363464,-0.6071828007698059,-0.6252917647361755
1772535341640437500,7.9594375,-0.7617747783660889,-0.5581821203231812,-0.6774882078170776
1772535341650363600,7.96936376953125,-0.8896027207374573,-0.5081161260604858,-0.6998580694198608
1772535341660295700,7.979295654296875,-0.9343425035476685,-0.4559197425842285,-0.6998580694198608
1772535341670232000,7.989232177734375,-0.8725590109825134,-0.39839714765548706,-0.6955971717834473
1772535341680164600,7.99916455078125,-0.7170349955558777,-0.32596129179000854,-0.6721620559692383
1772535341690092000,8.009092041015625,-0.5137086510658264,-0.19600287079811096,-0.6061176061630249
1772535341700024000,8.019024169921876,-0.2942706346511841,0.027562905102968216,-0.48681148886680603
1772535341709969000,8.028968994140625,-0.07270215451717377,0.32263246178627014,-0.32596129179000854
1772535341719902200,8.038902099609375,0.10292813926935196,0.5994598865509033,-0.1716356724500656
1772535341739760600,8.0587607421875,0.270169734954834,0.9467258453369141,-0.09706936031579971
1772535341749702000,8.068701904296875,0.26484355330467224,0.9509868025779724,-0.2130466103553772
1772535341759635200,8.07863525390625,0.19773387908935547,0.8167673945426941,-0.43141937255859375
1772535341769548500,8.088548583984375,0.07523208111524582,0.5185021758079529,-0.720097541809082
1772535341779479800,8.098479736328125,-0.11424624174833298,0.10852061212062836,-1.018229603767395
1772535341789412400,8.108412353515625,-0.3379451632499695,-0.31850466132164,-1.24086332321167
1772535341799343900,8.11834375,-0.5264914035797119,-0.6572487950325012,-1.3154296875
1772535341809288200,8.1282880859375,-0.6435338854789734,-0.8840102553367615,-1.2270152568817139
1772535341819221000,8.138220947265625,-0.6946650743484497,-0.9852073788642883,-0.979881227016449
1772535341829119500,8.148119384765625,-0.6754909157752991,-0.9095758199691772,-0.5773562788963318
1772535341839049000,8.158049072265625,-0.5817503929138184,-0.6764229536056519,-0.07576470077037811
1772535341848994800,8.167994873046876,-0.4402075409889221,-0.3845491111278534,0.4194355010986328
1772535341858925800,8.17792578125,-0.283618301153183,-0.14607007801532745,0.8231588006019592
1772535341868885800,8.1878857421875,-0.1334204375743866,-0.04274247586727142,1.0935949087142944
1772535341878819800,8.19781982421875,-0.0077229393646121025,-0.043807707726955414,1.2650973796844482
1772535341888737000,8.207737060546876,0.07203638553619385,-0.10559122264385223,1.3716206550598145
1772535341898669300,8.21766943359375,0.10825430601835251,-0.22582940757274628,1.4120994806289673
1772535341908611800,8.22761181640625,0.12742850184440613,-0.37815773487091064,1.404642939567566
1772535341918545200,8.237545166015625,0.14766792953014374,-0.5347470045089722,1.3705554008483887
1772535341928468700,8.24746875,0.16045072674751282,-0.6945319175720215,1.2959891557693481
1772535341938401000,8.257401123046876,0.15938548743724823,-0.8627055883407593,1.158574104309082
1772535341948304100,8.26730419921875,0.13381989300251007,-1.0246210098266602,0.955247700214386
1772535341958233300,8.2772333984375,0.09014534205198288,-1.1545794010162354,0.7251573801040649
1772535341968201000,8.287200927734375,0.027429750189185143,-1.2493852376937866,0.5067846179008484
1772535341978134300,8.29713427734375,-0.06418029218912125,-1.3207558393478394,0.30984964966773987
1772535341988059100,8.30705908203125,-0.1856168508529663,-1.378278374671936,0.15219517052173615
1772535341997991400,8.316991455078124,-0.31983622908592224,-1.4132978916168213,0.024367205798625946
1772535342007902700,8.32690283203125,-0.4551208019256592,-1.4420591592788696,-0.09706936031579971
1772535342017833000,8.3368330078125,-0.5934679508209229,-1.4697552919387817,-0.19826649129390717
1772535342027770600,8.3467705078125,-0.7276872992515564,-1.4463201761245728,-0.2577863931655884
1772535342037701600,8.35670166015625,-0.8374063372612,-1.3282123804092407,-0.28335198760032654
1772535342047653400,8.3666533203125,-0.8981245756149292,-1.1620360612869263,-0.29293906688690186
1772535342057586400,8.37658642578125,-0.9055812358856201,-0.9873378872871399,-0.29187384247779846
1772535342067519000,8.38651904296875,-0.8704285621643066,-0.8073135018348694,-0.29400432109832764
1772535342077452000,8.3964521484375,-0.8033188581466675,-0.6284874677658081,-0.2961347699165344
1772535342087357400,8.406357421875,-0.7170349955558777,-0.45378926396369934,-0.3003957271575928
1772535342097287700,8.41628759765625,-0.6328815817832947,-0.2886781394481659,-0.30359140038490295
1772535342107251000,8.4262509765625,-0.5710980296134949,-0.13328728079795837,-0.30146095156669617
1772535342117184500,8.4361845703125,-0.5508586168289185,0.001997311832383275,-0.29293906688690186
1772535342127116500,8.446116455078124,-0.5689675807952881,0.08508548885583878,-0.2854824364185333
1772535342137049900,8.4560498046875,-0.5945332050323486,0.1362166702747345,-0.28228676319122314
1772535342146966300,8.46596630859375,-0.5860112905502319,0.15326039493083954,-0.27269965410232544
1772535342156897800,8.475897705078125,-0.5211652517318726,0.1138467788696289,-0.22902509570121765
1772535342166808600,8.48580859375,-0.42742475867271423,0.042476166039705276,-0.13541774451732635
1772535342176738300,8.49573828125,-0.36351075768470764,-0.053394805639982224,0.006258244160562754
1772535342186677200,8.50567724609375,-0.31770575046539307,-0.17696183919906616,0.1671084314584732
1772535342196608000,8.51560791015625,-0.23035664856433868,-0.24926452338695526,0.3055887222290039
1772535342206557400,8.525557373046874,-0.1451379954814911,-0.2343512624502182,0.4098483920097351
1772535342216490000,8.535489990234375,-0.08335448056459427,-0.15778763592243195,0.4748276174068451
1772535342226408200,8.545408203125,-0.05139749497175217,-0.029959678649902344,0.5003932118415833
1772535342236339200,8.555339111328125,-0.029027599841356277,0.09680305421352386,0.4982627332210541
1772535342246268400,8.565268310546875,-0.0002663082559593022,0.20758728682994843,0.4865451753139496
1772535342256199200,8.57519921875,0.03595161437988281,0.335415244102478,0.4748276174068451
1772535342266138400,8.585138427734375,0.07416684925556183,0.5078498721122742,0.46630576252937317
1772535342276070100,8.595070068359375,0.12636326253414154,0.6889394521713257,0.47056668996810913
1772535342286029000,8.605029052734375,0.21903854608535767,0.8785509467124939,0.4971975088119507
1772535342295963400,8.61496337890625,0.35858407616615295,1.0573769807815552,0.5504591464996338
1772535342305866500,8.624866455078125,0.4938686490058899,1.1010514497756958,0.5834813714027405
1772535342315797800,8.6347978515625,0.5524564981460571,0.9509868025779724,0.5589810013771057
1772535342325732900,8.64473291015625,0.5300865769386292,0.6910699009895325,0.5057193636894226
1772535342335664600,8.65466455078125,0.461911678314209,0.4226312041282654,0.46630576252937317
1772535342345610200,8.6646103515625,0.37136685848236084,0.15432563424110413,0.44606631994247437
1772535342355543600,8.67454345703125,0.2808220684528351,-0.09706936031579971,0.41410934925079346
1772535342365472300,8.68447216796875,0.22329947352409363,-0.28335198760032654,0.35458943247795105
1772535342375405000,8.694405029296876,0.22436471283435822,-0.3824186623096466,0.2746969759464264
1772535342385348400,8.704348388671875,0.27443066239356995,-0.38987529277801514,0.18628261983394623
1772535342395282200,8.7142822265625,0.3575188219547272,-0.2652430236339569,0.09680305421352386
1772535342405207800,8.724207763671876,0.4597811996936798,-0.00226362026296556,0.022236740216612816
1772535342415140900,8.734140869140624,0.5577826499938965,0.3471328020095825,-0.012915950268507004
1772535342425073700,8.74407373046875,0.6557840704917908,0.6037208437919617,-0.061916667968034744
1772535342435006500,8.75400634765625,0.736608624458313,0.740070641040802,-0.16737474501132965
1772535342444979000,8.76397900390625,0.773891806602478,0.8199630975723267,-0.2897433936595917
1772535342454915800,8.773915771484376,0.760043740272522,0.8519201278686523,-0.39094051718711853
1772535342464804000,8.78380419921875,0.7163692116737366,0.809310793876648,-0.4687025249004364
1772535342474736000,8.793736083984374,0.6579145193099976,0.6761566400527954,-0.5272903442382812
1772535342484667600,8.803667724609374,0.5961310267448425,0.5067846179008484,-0.5549864172935486
1772535342494599700,8.813599609375,0.546065092086792,0.3801550269126892,-0.5390079021453857
1772535342504524000,8.82352392578125,0.5162385702133179,0.29067546129226685,-0.48681148886680603
1772535342514455300,8.833455322265625,0.49599912762641907,0.22889193892478943,-0.4058537781238556
1772535342524402200,8.843402099609374,0.46723783016204834,0.2640446424484253,-0.2865476906299591
1772535342534334700,8.853334716796875,0.4288894534111023,0.37482887506484985,-0.1418091505765915
1772535342544259300,8.86325927734375,0.40438908338546753,0.44819679856300354,-0.047003407031297684
1772535342554191400,8.87319140625,0.3649754524230957,0.46630576252937317,-0.004394086077809334
1772535342564122400,8.883122314453125,0.29573532938957214,0.41850343346595764,0.009453942999243736
1772535342574054100,8.89305419921875,0.19986434280872345,0.36524176597595215,0.020106272771954536
1772535342583980300,8.902980224609376,0.0880148783326149,0.3897421360015869,0.07017222791910172
1772535342593911600,8.91291162109375,-0.04500609636306763,0.27043604850769043,0.1031944528222084
1772535342603857000,8.92285693359375,-0.16324695944786072,-0.06511236727237701,0.059519894421100616
1772535342613789700,8.932789794921876,-0.2175738513469696,-0.4335498511791229,-0.011850717477500439
1772535342623708700,8.942708740234375,-0.20266057550907135,-0.6892057657241821,-0.0555252730846405
1772535342633640000,8.952639892578125,-0.12809427082538605,-0.8158353567123413,-0.07256899774074554
1772535342643567600,8.962567626953126,-0.023701434955000877,-0.8350095152854919,-0.07469946891069412
1772535342653498400,8.972498291015626,0.09547150880098343,-0.7616416215896606,-0.07043853402137756
1772535342663444200,8.9824443359375,0.22436471283435822,-0.5965304970741272,-0.057655736804008484
1772535342673376800,8.992376708984375,0.3426055610179901,-0.3408745527267456,-0.03954677656292915
1772535342683325400,9.002325439453125,0.4288894534111023,-0.022503048181533813,-0.010785484686493874
1772535342693259500,9.012259521484374,0.461911678314209,0.292805939912796,0.020106272771954536
1772535342703152400,9.02215234375,0.46617260575294495,0.5057193636894226,0.043541401624679565
1772535342713082000,9.03208203125,0.4608464241027832,0.5760247707366943,0.035019535571336746
1772535342723034000,9.0420341796875,0.44380271434783936,0.511045515537262,0.011584409512579441
1772535342732966100,9.051966064453126,0.41504141688346863,0.3567199110984802,0.009453942999243736
1772535342742890200,9.06189013671875,0.36923640966415405,0.17563030123710632,0.044606633484363556
1772535342752821500,9.071821533203124,0.312779039144516,0.017975807189941406,0.11065108329057693
1772535342762758400,9.08175830078125,0.26271310448646545,-0.08322133123874664,0.19160878658294678
1772535342772690200,9.091690185546875,0.23501703143119812,-0.10665645450353622,0.2725664973258972
1772535342782620000,9.101619873046875,0.21264714002609253,-0.07043853402137756,0.34393709897994995
1772535342792551400,9.111551513671875,0.15938548743724823,0.015845341607928276,0.4130440950393677
1772535342802471200,9.12147119140625,0.07416684925556183,0.10532491654157639,0.48015379905700684
1772535342812401400,9.1314013671875,-0.0077229393646121025,0.1990654170513153,0.5323501825332642
1772535342822349000,9.14134912109375,-0.06098458915948868,0.32476291060447693,0.5525896549224854
1772535342832281000,9.151281005859374,-0.08761541545391083,0.44713157415390015,0.5216978788375854
1772535342842186200,9.161186279296874,-0.10678961127996445,0.5078498721122742,0.43647924065589905
1772535342852115500,9.171115478515626,-0.12702903151512146,0.4940018057823181,0.31411057710647583
1772535342862083300,9.181083251953124,-0.14726845920085907,0.40678587555885315,0.2001306563615799
1772535342872016600,9.1910166015625,-0.1749645173549652,0.2853493094444275,0.13728190958499908
1772535342881940700,9.200940673828125,-0.19946488738059998,0.17349982261657715,0.15006470680236816
1772535342891873300,9.210873291015625,-0.19520394504070282,0.0829550251364708,0.23315288126468658
1772535342901807900,9.220807861328124,-0.14939893782138824,0.061650361865758896,0.3705679476261139
1772535342911740700,9.23074072265625,-0.07163692265748978,0.12662957608699799,0.5302197337150574
1772535342921642800,9.240642822265626,-0.005592473316937685,0.19160878658294678,0.6410039663314819
1772535342931572200,9.250572265625,0.017842652276158333,0.20545682311058044,0.6676347851753235
1772535342941531000,9.26053076171875,0.012516488321125507,0.24380521476268768,0.6399387121200562
1772535342951463400,9.27046337890625,-0.010918638668954372,0.3588503897190094,0.571763813495636
1772535342961404000,9.28040380859375,-0.04713656008243561,0.48974087834358215,0.43754446506500244
1772535342971337200,9.290337158203124,-0.10998530685901642,0.5888075828552246,0.20226112008094788
1772535342981258500,9.300258544921874,-0.21118244528770447,0.7059831619262695,-0.12689588963985443
1772535342991190500,9.3101904296875,-0.33048853278160095,0.8465939164161682,-0.4772244095802307
1772535343001093400,9.32009326171875,-0.43701183795928955,0.9488562941551208,-0.7392717003822327
1772535343011022600,9.330022705078125,-0.5286219120025635,1.0266183614730835,-0.6604444980621338
1772535343020985000,9.339985107421874,-0.5796199440956116,0.6963961124420166,-0.3110480308532715
1772535343030917600,9.349917724609375,-0.4742949903011322,-0.013981183059513569,-0.12263495475053787
1772535343040863000,9.359863037109376,-0.283618301153183,-0.5102466344833374,-0.010785484686493874
1772535343050796500,9.369796630859375,-0.16857312619686127,-0.7850767374038696,0.1575213372707367
1772535343060714500,9.379714599609375,-0.17070358991622925,-0.8967930674552917,0.34180665016174316
1772535343070646800,9.389646728515626,-0.24846559762954712,-0.8243572115898132,0.4854799509048462
1772535343080580400,9.399580322265624,-0.3123795986175537,-0.6487269401550293,0.5696333646774292
1772535343090512600,9.4095126953125,-0.3347494900226593,-0.49426811933517456,0.594133734703064
1772535343100443600,9.419443603515624,-0.37416309118270874,-0.39094051718711853,0.5845466256141663
