time,seconds_elapsed,z,y,x
1772534286944341000,0.041341064453125,0.0609552338719368,-0.004014674574136734,-0.04044771194458008
1772534286954357000,0.05135693359375,0.06233421713113785,-0.06008779630064964,0.03191889449954033
1772534286964373800,0.061373779296875,0.055440276861190796,-0.08706889301538467,0.08263755589723587
1772534286974389800,0.0713896484375,0.03575312718749046,-0.07024384289979935,0.10457801073789597
1772534286984407000,0.081406982421875,0.019384348765015602,-0.026939600706100464,0.10804270207881927
1772534286994423000,0.091423095703125,-0.00507518881931901,0.006196249276399612,0.09509947150945663
1772534287004439800,0.101439697265625,-0.023769987747073174,0.015211531892418861,0.06904090940952301
1772534287014455800,0.111455810546875,-0.03902670368552208,0.03283553197979927,0.039777036756277084
1772534287024472800,0.121472900390625,-0.0542454719543457,0.0737583339214325,0.01650061272084713
1772534287034488800,0.13148876953125,-0.07492971420288086,0.10341103374958038,0.015378623269498348
1772534287044504800,0.1415048828125,-0.08750142902135849,0.13044282793998718,0.03533315286040306
1772534287054521900,0.15152197265625,-0.0965266153216362,0.14454692602157593,0.055030688643455505
1772534287064537900,0.161537841796875,-0.1122850701212883,0.07802224159240723,0.07191700488328934
1772534287074555000,0.171554931640625,-0.1258070170879364,0.01549601461738348,0.10261286050081253
1772534287084571000,0.18157080078125,-0.13635632395744324,-0.002309712814167142,0.13698095083236694
1772534287094588000,0.191587890625,-0.1337280422449112,0.0020980851259082556,0.16004125773906708
1772534287104603600,0.201603759765625,-0.12288206070661545,-0.009583071805536747,0.15985670685768127
1772534287114621000,0.211620849609375,-0.11033064126968384,-0.03323384001851082,0.13270504772663116
1772534287124637000,0.221636962890625,-0.1024162620306015,-0.013953087851405144,0.0995582789182663
1772534287134653700,0.23165380859375,-0.09881460666656494,0.05205753818154335,0.07483189553022385
1772534287144669700,0.241669677734375,-0.09582547098398209,0.10176117718219757,0.04595256969332695
1772534287154687000,0.25168701171875,-0.08493667095899582,0.12329734116792679,0.00032629771158099174
1772534287164703000,0.261702880859375,-0.0646231472492218,0.10567912459373474,-0.041907697916030884
1772534287174719700,0.2717197265625,-0.03737181797623634,0.09661638736724854,-0.060522664338350296
1772534287184735700,0.28173583984375,-0.015560261905193329,0.10675477981567383,-0.0801331177353859
1772534287194751700,0.291751708984375,-0.016608748584985733,0.1369630992412567,-0.08136030286550522
1772534287204769000,0.30176904296875,-0.03380411118268967,0.17540426552295685,-0.03949635103344917
1772534287214784800,0.31178466796875,-0.051673389971256256,0.1538020372390747,-0.026461774483323097
1772534287224801800,0.3218017578125,-0.06661458313465118,0.0997176319360733,-0.018424293026328087
1772534287234817800,0.33181787109375,-0.07273905724287033,0.08882956951856613,0.07234501838684082
1772534287244834800,0.341834716796875,-0.06105177849531174,0.06924690306186676,0.169854536652565
1772534287254850800,0.351850830078125,-0.024511609226465225,0.04133245348930359,0.22176460921764374
1772534287264867800,0.361867919921875,0.013136504217982292,-0.026760656386613846,0.24984145164489746
1772534287274883800,0.3718837890625,0.017147226259112358,-0.02937774546444416,0.2567046582698822
1772534287284900900,0.38190087890625,0.0019439647439867258,0.010230825282633305,0.2701324224472046
1772534287294916900,0.391916748046875,-0.014274686574935913,0.04732546582818031,0.30974242091178894
1772534287304934000,0.401933837890625,-0.01985999383032322,0.05383487418293953,0.34548720717430115
1772534287314949600,0.41194970703125,-0.013125392608344555,0.020153874531388283,0.37701770663261414
1772534287324967000,0.421966796875,-0.011269438080489635,-0.03155822306871414,0.394176185131073
1772534287334983000,0.43198291015625,-0.0049984934739768505,-0.0361228808760643,0.3881973922252655
1772534287344999700,0.441999755859375,-0.00613552937284112,0.008902693167328835,0.3675747811794281
1772534287355015700,0.452015625,-0.001911489525809884,-0.020157190039753914,0.34954705834388733
1772534287365032200,0.4620322265625,-0.003350332845002413,-0.020502831786870956,0.3405452370643616
1772534287375049500,0.472049560546875,-0.011398405767977238,0.011122206225991249,0.3224155008792877
1772534287385065200,0.482065185546875,-0.019944539293646812,0.02062901481986046,0.3071782886981964
1772534287395082200,0.492082275390625,-0.002065941458567977,0.002213787753134966,0.27693700790405273
1772534287405098200,0.50209814453125,0.03024178184568882,-0.03292006626725197,0.2390603870153427
1772534287415115300,0.512115234375,0.06128145754337311,-0.05544454976916313,0.19090403616428375
1772534287425131300,0.52213134765625,0.08630505204200745,-0.06445296108722687,0.12673942744731903
1772534287435148300,0.532148193359375,0.09363646805286407,-0.06210245192050934,0.06461667269468307
1772534287445164300,0.542164306640625,0.08470748364925385,-0.06989031285047531,0.013386442326009274
1772534287455181300,0.552181396484375,0.05906657502055168,-0.03648681938648224,-0.034896399825811386
1772534287465197300,0.562197265625,0.02962033450603485,-0.029922369867563248,-0.07311628758907318
1772534287475214300,0.57221435546875,0.005209267605096102,-0.01669285073876381,-0.12380503118038177
1772534287485230000,0.58222998046875,-0.004691103007644415,-0.0008308024844154716,-0.180873841047287
1772534287495247400,0.592247314453125,-0.00044389383401721716,0.021776504814624786,-0.21470370888710022
1772534287505263400,0.602263427734375,0.013704149052500725,0.015861624851822853,-0.2174781858921051
1772534287515279400,0.612279296875,0.03288690000772476,0.003145997179672122,-0.18859434127807617
1772534287525296000,0.622296142578125,0.054259903728961945,-0.027247490361332893,-0.1461936980485916
1772534287535312100,0.63231201171875,0.06726224720478058,-0.05693774297833443,-0.10845750570297241
1772534287545329400,0.642329345703125,0.07217611372470856,-0.07208462059497833,-0.06833464652299881
1772534287555345400,0.652345458984375,0.06885968148708344,-0.07201378047466278,-0.045695383101701736
1772534287565362200,0.662362060546875,0.06135283410549164,-0.04380352422595024,-0.03572244942188263
1772534287575378200,0.672378173828125,0.03924034163355827,-0.020219631493091583,-0.014416094869375229
1772534287585395500,0.6823955078125,0.014777072705328465,-0.026772689074277878,0.004081957042217255
1772534287595411200,0.6924111328125,-0.001769413473084569,-0.03627458214759827,0.009454884566366673
1772534287605428200,0.70242822265625,-0.004159866366535425,-0.032484106719493866,0.013365469872951508
1772534287615444200,0.7124443359375,-0.0035297630820423365,-0.028938371688127518,0.004329364746809006
1772534287625461200,0.722461181640625,0.0016825082711875439,-0.008961306884884834,-0.008189819753170013
1772534287635477200,0.732477294921875,0.009981184266507626,0.018664196133613586,-0.02009308524429798
1772534287645494300,0.742494384765625,0.019828621298074722,0.01229485310614109,-0.030252376571297646
1772534287655510300,0.75251025390625,0.025734180584549904,0.005130949895828962,-0.029243571683764458
1772534287665526300,0.7625263671875,0.025901030749082565,-0.006909174844622612,-0.02004089020192623
1772534287675543300,0.772543212890625,0.02483949437737465,-0.01659242808818817,-0.008009261451661587
1772534287685559300,0.782559326171875,0.0220849197357893,-0.024009086191654205,-0.010085927322506905
1772534287695576000,0.792576171875,0.024511858820915222,-0.014315979555249214,-0.012905150651931763
1772534287705592000,0.802592041015625,0.02427763305604458,-0.016040418297052383,-0.011239474639296532
1772534287715609300,0.812609375,0.015850326046347618,-0.014078467153012753,-0.0019863215275108814
1772534287725625300,0.822625244140625,0.004109712317585945,-0.019894201308488846,0.009114336222410202
1772534287735642000,0.83264208984375,-0.00792244914919138,-0.03063446283340454,0.013929331675171852
1772534287745658000,0.842658203125,-0.018885815516114235,-0.02940380945801735,0.014716755598783493
1772534287755675400,0.85267529296875,-0.02703562006354332,-0.008288404904305935,0.009201349690556526
1772534287765691400,0.86269140625,-0.03279617056250572,0.015630735084414482,0.0012474202085286379
1772534287775708200,0.872708251953125,-0.03801357001066208,0.020833486691117287,-0.0060773384757339954
1772534287785724200,0.88272412109375,-0.03810225799679756,0.021763741970062256,-0.009089633822441101
1772534287795740400,0.892740478515625,-0.040408555418252945,0.02371291071176529,-0.012340554967522621
1772534287805757200,0.902757080078125,-0.03875439614057541,0.02483615279197693,-0.01780170202255249
1772534287815773200,0.912773193359375,-0.03131831809878349,0.01990770734846592,-0.027219438925385475
1772534287825790200,0.922790283203125,-0.02279340662062168,0.013303026556968689,-0.03209049254655838
1772534287835806500,0.932806396484375,-0.014887012541294098,0.015452731400728226,-0.03357760235667229
1772534287845823200,0.9428232421875,-0.01456050481647253,0.01571352407336235,-0.025350574404001236
1772534287855839200,0.952839111328125,-0.012274447828531265,0.015183822251856327,-0.012963414192199707
1772534287865856300,0.962856201171875,-0.0022397306747734547,-0.0025420705787837505,0.0039405496791005135
1772534287875872300,0.972872314453125,0.008705861866474152,-0.024481456726789474,0.012392090633511543
1772534287885889300,0.98288916015625,0.01935344748198986,-0.02777438797056675,0.01604514569044113
1772534287895905300,0.9929052734375,0.028600741177797318,-0.012622334994375706,0.007592538371682167
1772534287905922000,1.002922119140625,0.027848131954669952,-0.003316633403301239,-0.004153069108724594
1772534287915938000,1.01293798828125,0.018539585173130035,0.013530789874494076,-0.011597403325140476
1772534287925955300,1.022955322265625,0.005627583246678114,0.02694355510175228,-0.017666282132267952
1772534287935971300,1.032971435546875,-0.0054285298101603985,0.034970588982105255,-0.02157686837017536
1772534287945988000,1.042988037109375,-0.012952761724591255,0.022939858958125114,-0.01728012040257454
1772534287956004000,1.053004150390625,-0.019822917878627777,0.014492576941847801,-0.0027195531874895096
1772534287966020400,1.063020263671875,-0.023071840405464172,0.01200469397008419,0.0007400254253298044
1772534287976037400,1.073037353515625,-0.025962168350815773,0.025316506624221802,0.00972659606486559
1772534287986053000,1.08305322265625,-0.020533444359898567,0.0287482813000679,0.016464252024888992
1772534287996070100,1.093070068359375,-0.009848575107753277,0.010279526002705097,0.014262350276112556
1772534288006086400,1.10308642578125,-0.0013905817177146673,-0.005185033194720745,0.017118802294135094
1772534288016103200,1.113103271484375,0.0026342535857111216,-0.0027740737423300743,0.024006003513932228
1772534288026119200,1.123119140625,0.0007781008607707918,-0.00671795941889286,0.02533857524394989
1772534288036136200,1.13313623046875,-0.0038014708552509546,-0.004447348415851593,0.02269219234585762
1772534288046152400,1.14315234375,-0.008371791802346706,0.011888658627867699,0.019005917012691498
1772534288056169200,1.153169189453125,-0.010341199114918709,0.014649025164544582,0.014965369366109371
1772534288066185200,1.163185302734375,-0.007351394277065992,-0.0027712315786629915,0.012719912454485893
1772534288076201200,1.173201171875,-0.005083979107439518,-0.003445544047281146,0.014162546023726463
1772534288086218200,1.18321826171875,-0.006028471514582634,-0.0017265999922528863,0.012324569746851921
1772534288096234200,1.193234130859375,-0.00747962761670351,0.007500987034291029,0.011218026280403137
1772534288106251300,1.203251220703125,-0.010570830665528774,0.00676072109490633,0.01160559244453907
1772534288116267300,1.213267333984375,-0.016614342108368874,0.00023331353440880775,0.010108096525073051
1772534288126284300,1.2232841796875,-0.014751660637557507,0.001316441921517253,0.01101616770029068
1772534288136300300,1.23330029296875,-0.015603340230882168,0.013630633242428303,0.0032338788732886314
1772534288146317300,1.2433173828125,-0.01330909226089716,0.023104889318346977,-1.9837170839309692e-7
1772534288156333300,1.253333251953125,-0.014455849304795265,0.014992902055382729,-0.0022508357651531696
1772534288166350300,1.263350341796875,-0.013078326359391212,0.007654322311282158,0.0019259268883615732
1772534288176366300,1.273366455078125,-0.015318578109145164,0.003108305623754859,0.005679119843989611
1772534288186383400,1.28338330078125,-0.01768193393945694,0.011628269217908382,0.011340800672769547
1772534288196399000,1.293399169921875,-0.020854556933045387,0.01615883968770504,0.015103047713637352
1772534288206416400,1.30341650390625,-0.018668238073587418,0.012298294343054295,0.026908714324235916
1772534288216432400,1.313432373046875,-0.012778391130268574,-0.003758169710636139,0.03296500816941261
1772534288226449200,1.32344921875,-0.0067727635614573956,-0.01955641247332096,0.03292752802371979
1772534288236465200,1.333465087890625,-0.005686992779374123,-0.017045050859451294,0.02637162245810032
1772534288246481200,1.343481201171875,-0.007914792746305466,-0.006015423219650984,0.015902267768979073
1772534288256498400,1.35349853515625,-0.011366782709956169,0.0005884172860532999,0.006525544449687004
1772534288266514200,1.36351416015625,-0.015188353136181831,-0.0011776708997786045,-0.0012722560204565525
1772534288276531200,1.37353125,-0.01727600395679474,-0.0065239667892456055,-0.008263319730758667
1772534288286547200,1.383547119140625,-0.016483644023537636,-0.008436476811766624,-0.011274099349975586
1772534288296564200,1.393564208984375,-0.010260635055601597,-0.009838630445301533,-0.019008982926607132
1772534288306580200,1.403580322265625,-0.009845714084804058,-0.0019460865296423435,-0.030637940391898155
1772534288316597200,1.41359716796875,-0.008173519745469093,0.004488041624426842,-0.035557325929403305
1772534288326613200,1.42361328125,-0.0034572514705359936,0.005668963771313429,-0.04000275954604149
1772534288336630300,1.43363037109375,-0.004158994182944298,-0.006815402768552303,-0.03728153929114342
1772534288346646300,1.443646240234375,-0.006323021370917559,-0.018489936366677284,-0.031191740185022354
1772534288356663300,1.453663330078125,-0.012527387589216232,-0.011949478648602962,-0.020255470648407936
1772534288366679000,1.463678955078125,-0.01668950729072094,-0.012028631754219532,-0.010711636394262314
1772534288376695000,1.473695068359375,-0.017629070207476616,-0.009722068905830383,-0.006935806944966316
1772534288386712000,1.483712158203125,-0.016238434240221977,-0.007818111218512058,-0.00024108728393912315
1772534288396728000,1.49372802734375,-0.014034401625394821,-0.009801900014281273,0.00240982323884964
1772534288406744800,1.503744873046875,-0.012577987276017666,-0.011597858741879463,0.0035814186558127403
1772534288416760800,1.5137607421875,-0.009851177223026752,-0.008212714456021786,0.00369992945343256
1772534288426778000,1.523778076171875,-0.007353395689278841,-0.005209033377468586,-0.0008788476698100567
1772534288436794000,1.533794189453125,-0.00366012379527092,-0.003644959069788456,-0.009232385084033012
1772534288446811000,1.543810791015625,-0.0046394383534789085,0.008001754991710186,-0.01324889063835144
1772534288456827000,1.553826904296875,-0.009424872696399689,0.0026450722943991423,-0.01529686152935028
1772534288466844000,1.563843994140625,-0.006689272355288267,-0.004064595326781273,-0.008854145184159279
1772534288476860200,1.573860107421875,-0.0036047990433871746,-0.022060107439756393,-0.004750745836645365
1772534288486876000,1.5838759765625,-0.005244440399110317,-0.030550509691238403,-0.0023124231956899166
1772534288496893000,1.593892822265625,-0.004916338715702295,-0.02180681936442852,-0.005882923025637865
1772534288506909000,1.603908935546875,-0.005101428367197514,-0.013822929933667183,-0.017679927870631218
1772534288516926000,1.613926025390625,-0.006289198528975248,-0.013105207122862339,-0.02599618025124073
1772534288526942000,1.62394189453125,-0.011578631587326527,0.0006380628328770399,-0.03525613248348236
1772534288536959000,1.633958984375,-0.014911310747265816,0.007425662130117416,-0.04195345193147659
1772534288546975000,1.64397509765625,-0.01674044132232666,0.005978941917419434,-0.04859556257724762
1772534288556992000,1.653991943359375,-0.014073019847273827,0.0017378581687808037,-0.04751139134168625
1772534288567008000,1.664008056640625,-0.01221486646682024,-0.003240717574954033,-0.043744683265686035
1772534288577025000,1.67402490234375,-0.014361906796693802,0.00002964399755001068,-0.032782845199108124
1772534288587041000,1.684041015625,-0.014414570294320583,-0.00016128388233482838,-0.02445227839052677
1772534288597058000,1.69405810546875,-0.014336006715893745,0.0025996151380240917,-0.02179497666656971
1772534288607074000,1.704073974609375,-0.014174619689583778,0.013339078053832054,-0.021825069561600685
1772534288617090800,1.7140908203125,-0.009255761280655861,0.011138774454593658,-0.021899372339248657
1772534288627106800,1.72410693359375,-0.003879034426063299,0.008652271702885628,-0.02227947860956192
1772534288637122800,1.734122802734375,-0.0022161565721035004,0.009127911180257797,-0.017804568633437157
1772534288647140000,1.74414013671875,-0.005001494660973549,0.0037360279820859432,-0.008100070059299469
1772534288657156000,1.754156005859375,-0.004692567978054285,-0.0067264665849506855,-0.0013068788684904575
1772534288667172900,1.7641728515625,-0.0021053070668131113,-0.012574052438139915,0.0044937534257769585
1772534288677188900,1.77418896484375,0.00238451617769897,-0.01217830739915371,0.008388093672692776
1772534288687206100,1.7842060546875,0.007546921726316214,-0.018467769026756287,-0.0012047472409904003
1772534288697222000,1.794221923828125,0.012968318536877632,-0.0161990225315094,-0.007847202941775322
1772534288707239000,1.804239013671875,0.01045908685773611,-0.00997112039476633,-0.013698166236281395
1772534288717255000,1.8142548828125,0.007354906760156155,-0.0034652845934033394,-0.020454606041312218
1772534288727272000,1.82427197265625,0.009920862503349781,-0.0001336531713604927,-0.02485787495970726
1772534288737288000,1.834287841796875,0.008449199609458447,0.002954282332211733,-0.02570076659321785
1772534288747305000,1.844304931640625,0.007547120563685894,0.0009841211140155792,-0.029315676540136337
1772534288757321000,1.854321044921875,0.005797423422336578,0.0034464795608073473,-0.03378499299287796
1772534288767337000,1.8643369140625,-0.0013963044621050358,0.01057361625134945,-0.034418560564517975
1772534288777354000,1.87435400390625,-0.009387118741869926,0.010382400825619698,-0.026424286887049675
1772534288787370000,1.884369873046875,-0.011596147902309895,0.007409567013382912,-0.015261441469192505
1772534288797387000,1.894386962890625,-0.014954128302633762,0.0037679607048630714,-0.004177630878984928
1772534288807402800,1.90440283203125,-0.016169462352991104,0.005147436633706093,0.003651663428172469
1772534288817420000,1.914419921875,-0.011072969064116478,0.0017931852489709854,0.005955830216407776
1772534288827436000,1.92443603515625,-0.004747096449136734,0.0015071660745888948,0.008093215525150299
1772534288837452800,1.934452880859375,-0.0012748667504638433,0.00029489491134881973,0.004097408149391413
1772534288847468800,1.94446875,-0.003727039322257042,0.006775119341909885,-0.0006380230188369751
1772534288857486000,1.954486083984375,-0.006172087509185076,0.008518957532942295,-0.0010665259324014187
1772534288867502000,1.964502197265625,-0.005998109932988882,0.006056838668882847,-0.0007723262533545494
1772534288877518800,1.974518798828125,-0.003705661278218031,-0.00353719899430871,-0.0042237830348312855
1772534288887534800,1.984534912109375,0.0006364876171573997,-0.01100083440542221,-0.008329708129167557
1772534288897551000,1.994551025390625,0.011061431840062141,-0.017948221415281296,-0.012697823345661163
1772534288907567900,2.00456787109375,0.015749260783195496,-0.008137893863022327,-0.01908022351562977
1772534288917584000,2.014583984375,0.010924412868916988,0.0005131184589117765,-0.025982871651649475
1772534288927601000,2.024600830078125,0.0032366658560931683,0.007489269133657217,-0.025386855006217957
1772534288937617200,2.0346171875,-0.005349365528672934,0.010218210518360138,-0.020378248766064644
1772534288947634000,2.044634033203125,-0.009907969273626804,0.010939836502075195,-0.012005729600787163
1772534288957650000,2.05464990234375,-0.006790473125874996,0.0005766781978309155,-0.0057345167733728886
1772534288967667000,2.0646669921875,-0.005900177638977766,-0.002023282228037715,-0.005077516194432974
1772534288977683000,2.074682861328125,-0.01515226624906063,0.002667609602212906,-0.004825048614293337
1772534288987700000,2.084699951171875,-0.02349574863910675,0.0034703488927334547,-0.0016622128896415234
1772534288997716000,2.094716064453125,-0.025751711800694466,0.00531378947198391,0.0015511573292315006
1772534289007733000,2.10473291015625,-0.025007490068674088,-0.0026044619735330343,0.006165213417261839
1772534289017749000,2.1147490234375,-0.020352285355329514,-0.005891068838536739,0.004260520450770855
1772534289027765000,2.124764892578125,-0.01616852544248104,-0.007021266035735607,0.00004693632945418358
1772534289037782000,2.134781982421875,-0.019397607073187828,-0.0031756616663187742,-0.007205650210380554
1772534289047798000,2.144798095703125,-0.020785650238394737,0.012068218551576138,-0.01228243112564087
1772534289057815000,2.15481494140625,-0.026508251205086708,0.0234881192445755,-0.013964483514428139
1772534289067831000,2.1648310546875,-0.02288462221622467,0.010621647350490093,-0.004236619919538498
1772534289077848000,2.17484814453125,-0.01849520020186901,-0.002722387434914708,0.006594988517463207
1772534289087863800,2.18486376953125,-0.015939494594931602,-0.01759621500968933,0.012023968622088432
1772534289097881000,2.194881103515625,-0.015762927010655403,-0.017904875800013542,0.010808235965669155
1772534289107897000,2.20489697265625,-0.01914108172059059,-0.00877818651497364,-0.0015507577918469906
1772534289117913900,2.214913818359375,-0.024872204288840294,0.0010083976667374372,-0.017739050090312958
1772534289127929900,2.224929931640625,-0.02392631396651268,0.001559818396344781,-0.035678837448358536
1772534289137947000,2.23494677734375,-0.020339569076895714,-0.0003254334442317486,-0.05081064999103546
1772534289147963100,2.244963134765625,-0.015194211155176163,0.009917857125401497,-0.0636429488658905
1772534289157979100,2.254979248046875,-0.008463072590529919,0.01487719640135765,-0.07135041058063507
1772534289167996000,2.264995849609375,-0.0024864717852324247,0.016872048377990723,-0.06909464299678802
1772534289178012000,2.275011962890625,0.0024491646327078342,0.006784527562558651,-0.05393353849649429
1772534289188029000,2.28502880859375,0.0040754941292107105,-0.007093423046171665,-0.03282260149717331
1772534289198045000,2.295044921875,0.0030421880073845387,-0.022471047937870026,0.0005862223915755749
1772534289208062000,2.30506201171875,-0.002100314013659954,-0.028331447392702103,0.038122355937957764
1772534289218078000,2.315077880859375,-0.006968572270125151,-0.03880752623081207,0.07080067694187164
1772534289228095000,2.325094970703125,-0.011670046485960484,-0.04757670685648918,0.09792036563158035
1772534289238111000,2.335111083984375,-0.013626937754452229,-0.04680865257978439,0.10662037879228592
1772534289248128000,2.3451279296875,-0.01815997064113617,-0.054121263325214386,0.1164909228682518
1772534289258144000,2.35514404296875,-0.020491035655140877,-0.055912505835294724,0.12284602969884872
1772534289268161000,2.3651611328125,-0.01876930147409439,-0.049948275089263916,0.11316490173339844
1772534289278177000,2.375177001953125,-0.019632432609796524,-0.04267757758498192,0.09030565619468689
1772534289288193000,2.385193115234375,-0.01753206178545952,-0.03125300258398056,0.07250434905290604
1772534289298209800,2.395209716796875,-0.012746892869472504,-0.02259453386068344,0.04576355218887329
1772534289308225800,2.405225830078125,-0.013850446790456772,-0.017240114510059357,0.02185070514678955
1772534289318243000,2.4152431640625,-0.011991560459136963,-0.014356177300214767,-0.0016069505363702774
1772534289328259000,2.425259033203125,-0.01493961364030838,-0.008975407108664513,-0.02079695649445057
1772534289338275800,2.43527587890625,-0.0144261559471488,-0.00449037691578269,-0.030693527311086655
1772534289348291800,2.445291748046875,-0.012341762892901897,-0.0032899596262723207,-0.03352520987391472
1772534289358309000,2.45530908203125,-0.008921731263399124,-0.014006786048412323,-0.028678787872195244
1772534289368325400,2.465325439453125,-0.0018896579276770353,-0.026269644498825073,-0.019862385466694832
1772534289378342400,2.47534228515625,-0.0027378746308386326,-0.03654571995139122,-0.01449078880250454
1772534289388358400,2.4853583984375,-0.007836030796170235,-0.034884992986917496,-0.0009408257901668549
1772534289398375200,2.495375244140625,-0.014104579575359821,-0.03593214601278305,0.011423165909945965
1772534289408391400,2.505391357421875,-0.014928960241377354,-0.03659043833613396,0.02046979032456875
1772534289418407400,2.515407470703125,-0.01848268322646618,-0.03101724199950695,0.025280257686972618
1772534289428424400,2.525424560546875,-0.018577026203274727,-0.01794370450079441,0.02154923602938652
1772534289438440400,2.5354404296875,-0.019719522446393967,-0.00897231511771679,0.020210199058055878
1772534289448457500,2.54545751953125,-0.019387423992156982,-0.0057012541219592094,0.020596889778971672
1772534289458473500,2.555473388671875,-0.016102947294712067,-0.011058202013373375,0.023564184084534645
1772534289468490200,2.565490234375,-0.010202581994235516,-0.015346898697316647,0.02675744891166687
1772534289478506200,2.57550634765625,-0.0036216448061168194,-0.013335678726434708,0.023368043825030327
1772534289488523500,2.5855234375,0.00002089387271553278,-0.011230758391320705,0.01631239801645279
1772534289498539500,2.59553955078125,0.006918214727193117,-0.007122832350432873,0.000743824290111661
1772534289508556300,2.605556396484375,0.012980367988348007,0.0014657620340585709,-0.01196744479238987
1772534289518572300,2.615572265625,0.015632610768079758,0.004014406818896532,-0.013481451198458672
1772534289528588300,2.62558837890625,0.016137216240167618,-0.002410072134807706,-0.009902368299663067
1772534289538605600,2.63560546875,0.016402199864387512,-0.007603769190609455,-0.012017451226711273
1772534289548621300,2.645621337890625,0.010311216115951538,-0.003942643757909536,-0.008866861462593079
1772534289558638300,2.655638427734375,0.0003070514649152756,-0.00048293103463947773,-0.010928946547210217
1772534289568654300,2.665654296875,-0.007017507683485746,0.0007585473358631134,-0.013500691391527653
1772534289578671400,2.67567138671875,-0.007565320003777742,0.009495047852396965,-0.016118578612804413
1772534289588687400,2.685687255859375,-0.006616302765905857,0.012948842719197273,-0.012622514739632607
1772534289598704400,2.695704345703125,-0.000603417691309005,-0.00064073596149683,-0.002006090246140957
1772534289608720400,2.705720458984375,0.0007836265722289681,-0.012439782731235027,0.00853143259882927
1772534289618737400,2.7157373046875,-0.00027338205836713314,-0.01597273163497448,0.021518336609005928
1772534289628753400,2.72575341796875,-0.010254446417093277,-0.005519830156117678,0.02960030362010002
1772534289638770400,2.7357705078125,-0.01445078942924738,0.0009785490110516548,0.030657311901450157
1772534289648786400,2.745786376953125,-0.012801691889762878,0.005291726440191269,0.031913191080093384
1772534289658802200,2.75580224609375,-0.011979574337601662,0.007140493020415306,0.026317356154322624
1772534289668819500,2.7658193359375,-0.009884600527584553,-0.004002364818006754,0.02164045162498951
1772534289678835500,2.77583544921875,-0.007099732756614685,-0.005613311193883419,0.02554917335510254
1772534289688852200,2.785852294921875,-0.005227530375123024,-0.0018894297536462545,0.023098796606063843
1772534289698868200,2.7958681640625,-0.001988593954592943,0.008100087754428387,0.017153022810816765
1772534289708885500,2.805885498046875,0.00532710924744606,0.011166018433868885,0.012400347739458084
1772534289718901500,2.815901611328125,0.008319702930748463,0.010128450579941273,0.003006578888744116
1772534289728918300,2.825918212890625,0.006758690811693668,0.011901890859007835,0.0024543723557144403
1772534289738934300,2.835934326171875,0.0025271945632994175,0.011820131912827492,0.009447567164897919
1772534289748951600,2.84595166015625,-0.0031350841745734215,0.009959589689970016,0.015700533986091614
1772534289758967300,2.85596728515625,-0.009338918142020702,0.004952047951519489,0.02024015784263611
1772534289768984300,2.865984375,-0.006653781980276108,0.0022087530232965946,0.022038184106349945
1772534289779000300,2.876000244140625,-0.006543260533362627,0.005081238690763712,0.015857253223657608
1772534289789016600,2.8860166015625,-0.011790755204856396,0.006089960224926472,0.013674262911081314
1772534289799033300,2.896033447265625,-0.016108805313706398,0.0069211320951581,0.012914728373289108
1772534289809049300,2.90604931640625,-0.016395362094044685,0.00494588166475296,0.010721088387072086
1772534289819066400,2.91606640625,-0.019418582320213318,0.0077395373955369,0.006884538568556309
1772534289829082400,2.926082275390625,-0.02341539040207863,0.010919822379946709,0.0010667976457625628
1772534289839099400,2.936099365234375,-0.02974306046962738,0.007501921150833368,-0.0024062306620180607
1772534289849115400,2.946115478515625,-0.034444600343704224,0.009274322539567947,-0.004401743412017822
1772534289859132400,2.95613232421875,-0.031505003571510315,0.008270577527582645,-0.004083229228854179
1772534289869148400,2.9661484375,-0.02908099815249443,0.014686597511172295,-0.003422226756811142
1772534289879165400,2.97616552734375,-0.027865799143910408,0.01778438687324524,-0.003865376580506563
1772534289889181400,2.986181396484375,-0.024609612300992012,0.012775376439094543,0.0014450247399508953
1772534289899197400,2.996197509765625,-0.024619199335575104,0.010116210207343102,0.005043221637606621
1772534289909214500,3.00621435546875,-0.022942012175917625,0.012800770811736584,0.009516076184809208
1772534289919230500,3.01623046875,-0.018651926890015602,0.008604694157838821,0.008448148146271706
1772534289929247500,3.02624755859375,-0.015742888674139977,0.0008576628752052784,0.0012524854391813278
1772534289939263200,3.03626318359375,-0.01479853130877018,-0.006579214707016945,-0.006348442751914263
1772534289949280300,3.0462802734375,-0.01566499099135399,-0.0008574378443881869,-0.012136686593294144
1772534289959296500,3.056296630859375,-0.018757455050945282,0.00641592126339674,-0.01837620697915554
1772534289969313300,3.066313232421875,-0.020139168947935104,0.014140316285192966,-0.02230243943631649
1772534289979329300,3.076329345703125,-0.016370262950658798,0.015102782286703587,-0.025389842689037323
1772534289989346300,3.08634619140625,-0.01371382549405098,0.005143221467733383,-0.0249618086963892
1772534289999362600,3.096362548828125,-0.006845533847808838,-0.0026997877284884453,-0.022182533517479897
1772534290009379300,3.10637939453125,-0.0034647169522941113,-0.0015633542789146304,-0.018759772181510925
1772534290019395300,3.116395263671875,-0.002436736598610878,-0.0000560050830245018,-0.01625506952404976
1772534290029412400,3.126412353515625,-0.004687907174229622,0.006057729944586754,-0.009117264300584793
1772534290039428400,3.136428466796875,-0.007256792858242989,0.0015998645685613155,-0.0036404733546078205
1772534290049444400,3.1464443359375,-0.00622508255764842,-0.003677554428577423,-0.0026971842162311077
1772534290059461400,3.15646142578125,-0.004917736630886793,0.0018173458520323038,-0.005953164771199226
1772534290069477400,3.166477294921875,-0.004516333807259798,0.005292374640703201,-0.009229447692632675
1772534290079494400,3.176494384765625,-0.0016108250711113214,0.0038324298802763224,-0.011569833382964134
1772534290089510400,3.186510498046875,-0.003479896578937769,0.00906394049525261,-0.011584416031837463
1772534290099527400,3.19652734375,-0.005756632890552282,0.01316441036760807,-0.006834668107330799
1772534290109543400,3.20654345703125,-0.004081372637301683,0.018514806404709816,-0.001131374854594469
1772534290119560400,3.216560546875,-0.002668566070497036,0.016345396637916565,0.002936337376013398
1772534290129576400,3.226576416015625,0.0006734348717145622,0.009976547211408615,0.008258399553596973
1772534290139593500,3.236593505859375,0.002431653905659914,-0.005394686013460159,0.010479209944605827
1772534290149609200,3.246609130859375,0.007725819014012814,-0.013638912700116634,0.008121445775032043
1772534290159625200,3.256625244140625,0.010364745743572712,-0.006324540823698044,-0.0007013408467173576
1772534290169642500,3.266642578125,0.006202157586812973,-0.0004103307146579027,-0.01399683952331543
1772534290179658500,3.276658447265625,0.003515560645610094,0.003994537517428398,-0.027617311105132103
1772534290189675300,3.28667529296875,0.0030794674530625343,0.008712385781109333,-0.037106551229953766
1772534290199691300,3.296691162109375,0.003201174084097147,0.01300114020705223,-0.041252829134464264
1772534290209708500,3.30670849609375,0.008042401634156704,0.0028516920283436775,-0.03485977649688721
1772534290219724500,3.316724609375,0.013473385944962502,-0.004437912721186876,-0.029865816235542297
1772534290229741300,3.3267412109375,0.015331939794123173,-0.00007247994653880596,-0.021446965634822845
1772534290239757300,3.33675732421875,0.0129324309527874,-0.00476923119276762,-0.013190101832151413
1772534290249774300,3.3467744140625,0.010020134039223194,-0.0009387803729623556,-0.005986920557916164
1772534290259790300,3.356790283203125,0.0030181503389030695,-0.0007100148359313607,-0.0002653850242495537
1772534290269807400,3.366807373046875,-0.0015813952777534723,-0.0011291963746771216,0.006838330999016762
1772534290279823400,3.3768232421875,-0.0021795411594212055,-0.0006460989825427532,0.011653592810034752
1772534290289839400,3.38683935546875,-0.0013550282455980778,-0.001998685533180833,0.009353957138955593
1772534290299856400,3.3968564453125,0.0010042662033811212,-0.004773166961967945,0.005548832472413778
1772534290309872400,3.406872314453125,0.00006710004527121782,-0.003736065700650215,0.0020236046984791756
1772534290319889400,3.416889404296875,0.0008103883010335267,-0.005048205144703388,-0.004812197294086218
1772534290329905200,3.4269052734375,0.003595390822738409,-0.001519041252322495,-0.012274511158466339
1772534290339922400,3.43692236328125,0.005430308636277914,-0.005835493095219135,-0.020568659529089928
1772534290349938400,3.4469384765625,0.004743277560919523,-0.0014574857195839286,-0.027498269453644753
1772534290359955200,3.456955078125,0.002932328497990966,-0.0025334027595818043,-0.03316148370504379
1772534290369971000,3.466970947265625,0.003641461255028844,0.0010077983606606722,-0.03489672765135765
1772534290379988000,3.476988037109375,0.003808707697317004,0.0042153093963861465,-0.033478591591119766
1772534290390004000,3.48700390625,0.0057412306778132915,-0.005560314282774925,-0.026780078187584877
1772534290400020000,3.49702001953125,0.004335880279541016,-0.0183514766395092,-0.02083643525838852
1772534290410037000,3.507037109375,0.005979051813483238,-0.02503088302910328,-0.013200356625020504
1772534290420053000,3.517052978515625,0.007119950372725725,-0.02546284906566143,-0.01552183460444212
1772534290430070000,3.527070068359375,0.009161794558167458,-0.01758706569671631,-0.019416172057390213
1772534290440085800,3.537085693359375,0.013765068724751472,-0.020158614963293076,-0.01741134375333786
1772534290450103000,3.54710302734375,0.010821476578712463,-0.016957145184278488,-0.016675513237714767
1772534290460119000,3.557119140625,0.004597136750817299,-0.008376440964639187,-0.010206162929534912
1772534290470135800,3.5671357421875,-0.0067418706603348255,-0.0019047139212489128,-0.008730972185730934
1772534290480151800,3.57715185546875,-0.016452021896839142,-0.0006498323054984212,-0.0039809574373066425
1772534290490169000,3.587169189453125,-0.022207245230674744,-0.002974296920001507,0.005380983464419842
1772534290500185000,3.59718505859375,-0.019148871302604675,-0.01439792662858963,0.011769108474254608
1772534290510201900,3.607201904296875,-0.013979943469166756,-0.017802678048610687,0.014845062047243118
1772534290520217900,3.6172177734375,-0.011456332169473171,-0.011216680519282818,0.012374980375170708
1772534290530233900,3.62723388671875,-0.011058122850954533,-0.008481327444314957,0.004196611698716879
1772534290540251100,3.637251220703125,-0.008837312459945679,-0.005871163681149483,-0.0028522429056465626
1772534290550267000,3.647266845703125,-0.00917486846446991,-0.008587878197431564,-0.008787229657173157
1772534290560284000,3.657283935546875,-0.009387122467160225,-0.007899983786046505,-0.012079696170985699
1772534290570300000,3.6672998046875,-0.005651639308780432,-0.01232506800442934,-0.014361092820763588
1772534290580317000,3.67731689453125,0.001062988885678351,-0.016230326145887375,-0.022101838141679764
1772534290590333000,3.6873330078125,-0.00005367485573515296,-0.011069737374782562,-0.023065902292728424
1772534290600350000,3.697349853515625,0.00022835389245301485,-0.01563439518213272,-0.019640011712908745
1772534290610366000,3.707365966796875,-0.004533977247774601,-0.016846604645252228,-0.018504105508327484
1772534290620383000,3.717383056640625,-0.009500506334006786,-0.015815161168575287,-0.017791444435715675
1772534290630399000,3.72739892578125,-0.011122304946184158,-0.0068521881476044655,-0.021553760394454002
1772534290640415000,3.7374150390625,-0.009368613362312317,-0.011889290995895863,-0.025773806497454643
1772534290650431700,3.747431640625,-0.004611672833561897,-0.010758345946669579,-0.031435951590538025
1772534290660448000,3.757447998046875,-0.0048383078537881374,-0.0007363382028415799,-0.027963725849986076
1772534290670465000,3.767465087890625,-0.005482128821313381,-0.0007343170000240207,-0.020626578480005264
1772534290680481000,3.77748095703125,-0.006760712713003159,-0.0050068264827132225,-0.010757170617580414
1772534290690497800,3.787497802734375,-0.00773243373259902,-0.009227832779288292,-0.003999999258667231
1772534290700514000,3.79751416015625,-0.013063283637166023,-0.011561294086277485,0.006557570770382881
1772534290710531000,3.807531005859375,-0.02160264179110527,-0.011326182633638382,0.015731029212474823
1772534290720547000,3.817547119140625,-0.030774034559726715,-0.0076092081144452095,0.021997181698679924
1772534290730563800,3.827563720703125,-0.03819912672042847,-0.0013497269246727228,0.025690115988254547
1772534290740579800,3.837579833984375,-0.039329107850790024,-0.0010474581504240632,0.027649404481053352
1772534290750596000,3.84759619140625,-0.036394502967596054,0.0031396837439388037,0.025332655757665634
1772534290760612900,3.85761279296875,-0.022731689736247063,0.003601475851610303,0.0203152596950531
1772534290770628900,3.86762890625,-0.015475373715162277,-0.004518935456871986,0.01177237369120121
1772534290780646000,3.87764599609375,-0.010072886012494564,-0.0042030843906104565,0.0014694023411720991
1772534290790662100,3.887662109375,-0.009077128022909164,0.007144711911678314,-0.007544603198766708
1772534290800679000,3.897678955078125,-0.009050230495631695,0.01777844876050949,-0.015512248501181602
1772534290810695000,3.90769482421875,-0.009294976480305195,0.01754428818821907,-0.019906992092728615
1772534290820712000,3.9177119140625,-0.01016982551664114,0.00782135408371687,-0.024833306670188904
1772534290830728000,3.92772802734375,-0.013595382682979107,0.007861588150262833,-0.02274732105433941
1772534290840745000,3.937744873046875,-0.016632983461022377,-0.0019598829094320536,-0.01396954245865345
1772534290850761000,3.947760986328125,-0.01593942940235138,0.0008589944336563349,-0.004328701179474592
1772534290860777700,3.95777783203125,-0.018633482977747917,0.0010017398744821548,-0.001734782475978136
1772534290870794000,3.9677939453125,-0.021318549290299416,-0.0001463701482862234,0.001428321236744523
1772534290880810000,3.97781005859375,-0.024558817967772484,0.0036936416290700436,0.006144779734313488
1772534290890827000,3.987826904296875,-0.024231446906924248,0.005358055233955383,0.00530129112303257
1772534290900843000,3.997843017578125,-0.024898037314414978,0.01002870686352253,-0.0014857752248644829
1772534290910860000,4.007860107421875,-0.02593826875090599,0.018293146044015884,-0.005590238142758608
1772534290920876000,4.0178759765625,-0.027693023905158043,0.02735082432627678,-0.007700261194258928
1772534290930893000,4.02789306640625,-0.027213122695684433,0.015970302745699883,-0.0061479066498577595
1772534290940908800,4.03790869140625,-0.018692338839173317,0.020389284938573837,0.0019422441255301237
1772534290950926000,4.047926025390625,-0.013240117579698563,0.0025137781631201506,0.010941133834421635
1772534290960942000,4.057942138671875,-0.004851692356169224,-0.012274222448468208,0.01755988784134388
1772534290970958800,4.067958740234375,0.0008237040601670742,-0.009171843528747559,0.017645440995693207
1772534290980974800,4.077974853515625,-0.001934798201546073,0.0026086491998285055,0.012570520862936974
1772534290990990800,4.087990966796875,-0.002472685882821679,0.00789564661681652,0.004864324349910021
1772534291001008000,4.098008056640625,-0.0014966374728828669,0.007443707436323166,-0.004799222107976675
1772534291011024000,4.10802392578125,-0.00119617092423141,0.01051989383995533,-0.006555101368576288
1772534291021041000,4.118041015625,-0.00008776329923421144,0.008711607195436954,-0.009667538106441498
1772534291031057000,4.128056884765625,0.002929531969130039,0.008219867944717407,-0.009882921352982521
1772534291041074000,4.138073974609375,0.0035881316289305687,-0.00013047433458268642,-0.007581684272736311
1772534291051090000,4.14808984375,0.003187259193509817,-0.004830608144402504,-0.007127015385776758
1772534291061107000,4.15810693359375,-0.003165178932249546,0.004474210552871227,-0.011587010696530342
1772534291071123000,4.168123046875,-0.010941008105874062,0.010114341042935848,-0.012722386047244072
1772534291081140000,4.178139892578125,-0.021055694669485092,0.012721043080091476,-0.012369250878691673
1772534291091156000,4.188156005859375,-0.024950169026851654,0.019678525626659393,-0.009431381709873676
1772534291101173000,4.198173095703125,-0.02642103284597397,0.019390903413295746,-0.004894953221082687
1772534291111189000,4.20818896484375,-0.024710485711693764,0.014307196252048016,0.0023965153377503157
1772534291121204700,4.218204833984375,-0.01727866753935814,0.012569749727845192,0.002486530225723982
1772534291131222000,4.228221923828125,-0.015651410445570946,0.008989067748188972,-0.0009351656772196293
1772534291141238000,4.238238037109375,-0.011514987796545029,0.013676231727004051,-0.0062324595637619495
1772534291151254800,4.2482548828125,-0.008781852200627327,0.013873983174562454,-0.016058925539255142
1772534291161270800,4.258270751953125,-0.005787127651274204,0.017305998131632805,-0.024424713104963303
1772534291171288000,4.2682880859375,-0.004077777732163668,0.03163091838359833,-0.026939403265714645
1772534291181304000,4.278303955078125,-0.0023014491889625788,0.023013193160295486,-0.02130415290594101
1772534291191320800,4.28832080078125,0.0021709981374442577,0.006915547885000706,-0.01788938231766224
1772534291201336800,4.2983369140625,0.006419538985937834,0.0056870318949222565,-0.011792074888944626
1772534291211354000,4.30835400390625,0.01190012414008379,0.0009702933020889759,-0.007704723160713911
1772534291221369900,4.318369873046875,0.016470640897750854,-0.007250885013490915,-0.008989166468381882
1772534291231385900,4.3283857421875,0.01742957904934883,-0.006745787337422371,-0.00823409203439951
1772534291241403000,4.33840283203125,0.013000208884477615,-0.005610748194158077,-0.0031687598675489426
1772534291251419100,4.348419189453125,0.008932695724070072,-0.0035486831329762936,-0.004560727160423994
1772534291261436000,4.358435791015625,0.0076391990296542645,-0.0010700791608542204,-0.0063759381882846355
1772534291271452000,4.368451904296875,0.002323663793504238,0.00479542650282383,-0.012490956112742424
1772534291281469000,4.378468994140625,-0.0008707978413440287,0.006021812092512846,-0.020494287833571434
1772534291291485200,4.388485107421875,-0.0010621468536555767,0.006714157294481993,-0.028957946226000786
1772534291301502000,4.398501953125,-0.0010501625947654247,0.009858286008238792,-0.031293004751205444
1772534291311518000,4.40851806640625,-0.002849527867510915,0.008715847507119179,-0.026684271171689034
1772534291321535000,4.418534912109375,-0.003123833565041423,0.0029205428436398506,-0.021177120506763458
1772534291331551000,4.428551025390625,-0.005624338053166866,-0.003063016338273883,-0.015464581549167633
1772534291341567000,4.43856689453125,-0.008957816287875175,-0.0030137477442622185,-0.014445124194025993
1772534291351584000,4.448583984375,-0.012258809059858322,0.000281329732388258,-0.011704456061124802
1772534291361600000,4.45860009765625,-0.01483967900276184,0.0018225009553134441,-0.008658865466713905
1772534291371617000,4.468616943359375,-0.01597977802157402,0.004447745159268379,-0.0018739309161901474
1772534291381633000,4.478633056640625,-0.015904143452644348,0.009066731669008732,0.002382865874096751
1772534291391650000,4.488650146484375,-0.010984552092850208,0.005265930667519569,0.004990965593606234
1772534291401666000,4.498666015625,-0.004694698844105005,-0.002453508088365197,-0.00023575453087687492
1772534291411682800,4.508682861328125,0.003490127855911851,0.00004682643339037895,-0.005213333759456873
1772534291421699000,4.518698974609375,0.010241773910820484,0.008933261968195438,-0.015401257202029228
1772534291431715800,4.5287158203125,0.014251294545829296,0.017232676967978477,-0.02091706171631813
1772534291441731800,4.53873193359375,0.014439580030739307,0.012452304363250732,-0.02098177745938301
1772534291451747800,4.548747802734375,0.009698355570435524,0.0018325175624340773,-0.018139386549592018
1772534291461765000,4.55876513671875,0.01135936938226223,-0.00551461149007082,-0.012227967381477356
1772534291471781000,4.568781005859375,0.01196204125881195,-0.015261265449225903,-0.006059820298105478
1772534291481798000,4.5787978515625,0.01898772642016411,-0.020776405930519104,-0.006888330448418856
1772534291491814000,4.58881396484375,0.019641267135739326,-0.015282470732927322,-0.010361890308558941
1772534291501831200,4.5988310546875,0.017868665978312492,-0.0036473863292485476,-0.0138405105099082
1772534291511847000,4.608846923828125,0.012245136313140392,-0.01351015456020832,-0.016303403303027153
1772534291521864000,4.618864013671875,0.006088973022997379,-0.014255305752158165,-0.015600329264998436
1772534291531880000,4.6288798828125,0.0020563476718962193,-0.017208589240908623,-0.016018910333514214
1772534291541897000,4.63889697265625,-0.0020593013614416122,-0.011572275310754776,-0.019995544105768204
1772534291551913000,4.648912841796875,-0.0024909996427595615,-0.008718598634004593,-0.022234462201595306
1772534291561929000,4.658928955078125,-0.0044079432263970375,-0.0010841145412996411,-0.02141367644071579
1772534291571946000,4.668946044921875,-0.006248254328966141,0.0002589796204119921,-0.017499826848506927
1772534291581962000,4.6789619140625,-0.0062514496967196465,-0.00806579552590847,-0.007588340900838375
1772534291591979000,4.68897900390625,-0.0091316569596529,-0.013418149203062057,0.0018475016113370657
1772534291601995000,4.6989951171875,-0.013852642849087715,-0.011900147423148155,0.00406165374442935
1772534291612012000,4.709011962890625,-0.01652459241449833,-0.00339434458874166,0.001496766461059451
1772534291622027800,4.71902783203125,-0.016134439036250114,-0.002599923638626933,0.0009518836159259081
1772534291632045000,4.729045166015625,-0.009353832341730595,-0.0020619856659322977,-0.005162933375686407
1772534291642061000,4.73906103515625,-0.002940142061561346,-0.0019876835867762566,-0.010831737890839577
1772534291652077800,4.749077880859375,0.00149635155685246,-0.004470669664442539,-0.018292518332600594
1772534291662093800,4.75909375,0.008429092355072498,-0.005108496639877558,-0.022930946201086044
1772534291672110000,4.769110107421875,0.01211557351052761,0.0030735917389392853,-0.034749120473861694
1772534291682127000,4.779127197265625,0.020550070330500603,0.0054485984146595,-0.03862562030553818
1772534291692142800,4.789142822265625,0.02665490284562111,0.0029073485638946295,-0.04174850881099701
1772534291702160000,4.799159912109375,0.029594233259558678,-0.00580891128629446,-0.04193253442645073
1772534291712175900,4.80917578125,0.030015012249350548,-0.010799224488437176,-0.037031520158052444
1772534291722193000,4.81919287109375,0.031202781945466995,-0.018281642347574234,-0.028660936281085014
1772534291732209000,4.829208984375,0.030164547264575958,-0.018665729090571404,-0.019773300737142563
1772534291742226000,4.839225830078125,0.0306636244058609,-0.016377009451389313,-0.008419713005423546
1772534291752242000,4.849241943359375,0.02489868365228176,-0.01937347836792469,-0.0004803016781806946
1772534291762259000,4.859259033203125,0.0197776909917593,-0.018077850341796875,0.0074961320497095585
1772534291772275000,4.86927490234375,0.01292384322732687,-0.0132889524102211,0.008943763561546803
1772534291782292000,4.8792919921875,0.007574351504445076,-0.0112412478774786,0.011353658512234688
1772534291792308000,4.889307861328125,0.008677172474563122,-0.012092359364032745,0.010384787805378437
1772534291802324000,4.899323974609375,0.013834916055202484,-0.012034834362566471,0.008528564125299454
1772534291812341000,4.909341064453125,0.019034532830119133,-0.020414935424923897,0.003353722160682082
1772534291822357000,4.91935693359375,0.021496625617146492,-0.014788209460675716,-0.003126281313598156
1772534291832373800,4.929373779296875,0.018681330606341362,-0.008563107810914516,-0.006743587087839842
1772534291842390000,4.93939013671875,0.01046015229076147,-0.005308991298079491,-0.00909649021923542
1772534291852407000,4.949406982421875,0.0044318209402263165,-0.009092526510357857,-0.009164665825664997
1772534291862423000,4.959423095703125,0.0015617322642356157,-0.013986351899802685,-0.010571347549557686
1772534291872439800,4.969439697265625,0.00038801119080744684,-0.015097259543836117,-0.011436543427407742
1772534291882456000,4.9794560546875,-0.0016280016861855984,-0.016788100823760033,-0.014972155913710594
1772534291892472000,4.98947216796875,0.0012295028427615762,-0.023849694058299065,-0.019203586503863335
1772534291902488800,4.99948876953125,-0.002311435993760824,-0.016872745007276535,-0.02368648536503315
1772534291912504800,5.0095048828125,-0.010254712775349617,-0.007465684786438942,-0.027485350146889687
1772534291922522000,5.019522216796875,-0.01406729407608509,-0.0044089085422456264,-0.031033745035529137
1772534291932538000,5.0295380859375,-0.015912597998976707,-0.004961797967553139,-0.03286493569612503
1772534291942555000,5.039554931640625,-0.009400371462106705,-0.0032331403344869614,-0.034517426043748856
1772534291952571000,5.04957080078125,-0.0040908269584178925,-0.007008603308349848,-0.027588680386543274
1772534291962588200,5.059588134765625,-0.00065987667767331,-0.013544533401727676,-0.01678849756717682
1772534291972604200,5.069604248046875,0.0014823032543063164,-0.017342139035463333,-0.00454694451764226
1772534291982621000,5.079620849609375,0.004224293865263462,-0.014560999348759651,0.005859090946614742
1772534291992637000,5.089636962890625,0.004237543325871229,-0.011274147778749466,0.01584254950284958
1772534292002653000,5.09965283203125,0.0057379682548344135,-0.014216940850019455,0.023803535848855972
1772534292012670000,5.109669921875,0.009577580727636814,-0.01309287827461958,0.022594859823584557
1772534292022686000,5.11968603515625,0.013091620989143848,-0.008258707821369171,0.023003922775387764
1772534292032703000,5.129702880859375,0.014506693929433823,-0.005839866120368242,0.02300272323191166
1772534292042719000,5.139718994140625,0.014285117387771606,-0.005460099317133427,0.019846610724925995
1772534292052736000,5.149736083984375,0.014377262443304062,-0.0021743089891970158,0.014617228880524635
1772534292062752000,5.159751953125,0.010715415701270103,0.004451902583241463,0.009935658425092697
1772534292072769000,5.16976904296875,0.009688501246273518,0.0033315932378172874,0.0053555527701973915
1772534292082784800,5.17978466796875,0.008632024750113487,0.002727854996919632,0.003381617832928896
1772534292092802000,5.189802001953125,0.005433169659227133,0.001230667345225811,0.004241153132170439
1772534292102818000,5.199818115234375,0.0015878311824053526,-0.0031563579104840755,0.011283082887530327
1772534292112834000,5.209833984375,-0.0029640437569469213,-0.006114580202847719,0.018056035041809082
1772534292122850800,5.219850830078125,-0.003478033933788538,-0.006099400110542774,0.018782813102006912
1772534292132866800,5.22986669921875,-0.0013006320223212242,-0.008190147578716278,0.015804331749677658
1772534292142884000,5.239884033203125,0.0011135234963148832,-0.0052907634526491165,0.013494838029146194
1772534292152900000,5.249900146484375,-0.0003508816007524729,0.00044722133316099644,0.00986940972507
1772534292162916900,5.259916748046875,-0.0008020211244001985,0.0002956874668598175,0.011218034662306309
1772534292172932900,5.269932861328125,-0.003300931304693222,-0.003494543954730034,0.012210661545395851
1772534292184202000,5.281201904296875,-0.007344941608607769,0.000843745656311512,0.013086840510368347
1772534292194218000,5.291218017578125,-0.008614138700067997,-0.00011142715811729431,0.011361047625541687
1772534292204234000,5.30123388671875,-0.0031490661203861237,-0.0027578447479754686,0.013887319713830948
1772534292214251000,5.3112509765625,0.002731459680944681,-0.011344408616423607,0.01589667610824108
1772534292224267000,5.32126708984375,0.0073138936422765255,-0.017883088439702988,0.014966502785682678
1772534292234284000,5.331283935546875,0.005228638648986816,-0.012286189943552017,0.01110092457383871
1772534292244299800,5.3412998046875,0.0026638158597052097,-0.00399591401219368,0.005335912574082613
1772534292254317000,5.351317138671875,0.00037269838503561914,0.0027352257166057825,0.00393482344225049
1772534292264333000,5.3613330078125,0.0027877851389348507,0.003327104030176997,0.00020440085791051388
1772534292274349800,5.371349853515625,0.003639730392023921,0.0012879215646535158,0.00004594260826706886
1772534292284365800,5.38136572265625,0.007472285069525242,0.0021763520780950785,0.002152503002434969
1772534292294383000,5.391383056640625,0.008164841681718826,-0.008535271510481834,-0.00034540891647338867
1772534292304399000,5.401399169921875,0.007292922120541334,-0.009459122084081173,0.0015028247144073248
1772534292314415000,5.4114150390625,0.003453443292528391,-0.00829478818923235,0.00792290735989809
1772534292324432000,5.421431884765625,-0.0031932087149471045,-0.008786139078438282,0.01187443919479847
1772534292334447900,5.43144775390625,-0.01214462611824274,-0.004006030969321728,0.013545572757720947
1772534292344465000,5.44146484375,-0.017846252769231796,-0.0015770656755194068,0.013762686401605606
1772534292354481000,5.45148095703125,-0.0183463953435421,-0.0076802317053079605,0.018522022292017937
1772534292364498000,5.461497802734375,-0.012779722921550274,-0.02242336794734001,0.019211648032069206
1772534292374513400,5.471513427734375,-0.010103246197104454,-0.01567544974386692,0.01820284314453602
1772534292384530400,5.481530517578125,-0.011832434684038162,-0.005717156454920769,0.008960073813796043
1772534292394546400,5.49154638671875,-0.014175217598676682,0.006963751278817654,-0.003376753069460392
1772534292404563500,5.5015634765625,-0.015128297731280327,0.010564181953668594,-0.012496279552578926
1772534292414579500,5.511579345703125,-0.0167139433324337,0.005005365703254938,-0.01523427665233612
1772534292424595500,5.521595458984375,-0.015548944473266602,-0.003553476883098483,-0.014069011434912682
1772534292434612500,5.531612548828125,-0.009834067896008492,-0.007764467038214207,-0.012784568592905998
1772534292444628500,5.54162841796875,-0.005897182039916515,-0.012110832147300243,-0.01269155740737915
1772534292454645500,5.5516455078125,-0.002529348246753216,-0.01662542298436165,-0.010931741446256638
1772534292464661200,5.5616611328125,-0.0011242653708904982,-0.0214431993663311,-0.011796202510595322
1772534292474678500,5.571678466796875,-0.0007362426840700209,-0.020869553089141846,-0.021386513486504555
1772534292484694500,5.581694580078125,-0.0027956655248999596,-0.022713342681527138,-0.030454574152827263
1772534292494711300,5.591711181640625,-0.0031996669713407755,-0.020850462839007378,-0.041482988744974136
1772534292504727300,5.601727294921875,-0.005715555045753717,-0.006208053324371576,-0.05264722928404808
1772534292514743600,5.61174365234375,-0.006880954373627901,-0.01055220142006874,-0.05545793101191521
1772534292525386500,5.622386474609375,-0.00637655146420002,-0.021655984222888947,-0.061994124203920364
1772534292535402500,5.632402587890625,-0.008284971117973328,-0.014781000092625618,-0.06351186335086823
1772534292545419500,5.64241943359375,-0.012554551474750042,-0.012721044942736626,-0.06540670245885849
1772534292555435500,5.652435546875,-0.008227981626987457,-0.01994951441884041,-0.059651609510183334
1772534292565452500,5.66245263671875,-0.004540568217635155,-0.014948630705475807,-0.054180942475795746
1772534292575468500,5.672468505859375,-0.002073481911793351,-0.014524392783641815,-0.04471706971526146
1772534292585485600,5.682485595703125,0.0007004665094427764,-0.014982989057898521,-0.03492648899555206
1772534292595501300,5.692501220703125,-0.001849110471084714,-0.014312179759144783,-0.02789241448044777
1772534292605518600,5.7025185546875,-0.008899830281734467,-0.0009614876471459866,-0.014331597834825516
1772534292615534600,5.71253466796875,-0.017114216461777687,-0.004328414797782898,-0.0015307157300412655
1772534292625551400,5.72255126953125,-0.022441605105996132,-0.016297725960612297,0.003711982863023877
1772534292635567400,5.7325673828125,-0.029384199529886246,-0.017162354663014412,0.013305222615599632
1772534292645583400,5.742583251953125,-0.03863655403256416,-0.013651509769260883,0.025889191776514053
1772534292655600600,5.7526005859375,-0.04777885228395462,-0.005488000810146332,0.03237365558743477
1772534292665616600,5.76261669921875,-0.04668642207980156,-0.00020801741629838943,0.038611575961112976
1772534292675633400,5.77263330078125,-0.03956333175301552,-0.006639305967837572,0.037805505096912384
1772534292685649400,5.7826494140625,-0.02658761292695999,-0.01135922595858574,0.033174268901348114
1772534292695666400,5.79266650390625,-0.012354216538369656,-0.014554728753864765,0.024164659902453423
1772534292705682400,5.802682373046875,-0.0019969167187809944,-0.011700619012117386,0.008768127299845219
1772534292715699500,5.812699462890625,0.007830414921045303,0.0012033958919346333,-0.006709631998091936
1772534292725715500,5.822715576171875,0.0069891223683953285,0.007471678778529167,-0.011142730712890625
1772534292735732500,5.832732421875,0.006682058796286583,0.002651954535394907,-0.00619191350415349
1772534292745748500,5.84274853515625,0.0024084842298179865,-0.003258931217715144,0.002837800420820713
1772534292755764500,5.852764404296875,-0.007924513891339302,-0.0038407277315855026,0.013291971758008003
1772534292765781500,5.862781494140625,-0.01971512660384178,-0.004313172772526741,0.025157686322927475
1772534292775797200,5.87279736328125,-0.026344267651438713,0.0016988471616059542,0.03241533413529396
1772534292785814500,5.882814453125,-0.03325144201517105,0.0033159188460558653,0.03529873862862587
1772534292795830500,5.89283056640625,-0.04011334478855133,0.005571433342993259,0.03639063611626625
1772534292805847300,5.902847412109375,-0.047359004616737366,0.011075387708842754,0.03240467980504036
1772534292815863300,5.91286328125,-0.0550706572830677,0.013394140638411045,0.030641602352261543
1772534292825880600,5.922880615234375,-0.061757322400808334,0.019441913813352585,0.03019578941166401
1772534292835896600,5.932896484375,-0.06980772316455841,0.0302731916308403,0.04072852432727814
1772534292845913300,5.942913330078125,-0.06547342985868454,0.019625341519713402,0.05320649966597557
1772534292855929300,5.952929443359375,-0.056512489914894104,0.005118100438266993,0.06390288472175598
1772534292865945600,5.962945556640625,-0.045686740428209305,0.0005739487241953611,0.06927181780338287
1772534292875962400,5.97296240234375,-0.039939239621162415,0.002994703594595194,0.06837712973356247
1772534292885978400,5.982978271484375,-0.034340474754571915,0.009418514557182789,0.06289953738451004
1772534292895995400,5.992995361328125,-0.031473781913518906,0.02044244110584259,0.04834875836968422
1772534292906011600,6.00301171875,-0.031063655391335487,0.02212529256939888,0.0317455492913723
1772534292916028400,6.0130283203125,-0.02464377135038376,0.019061962142586708,0.01563282497227192
1772534292926044400,6.02304443359375,-0.019097207114100456,0.01629919931292534,-0.002826342824846506
1772534292936061400,6.0330615234375,-0.007924780249595642,0.007408131845295429,-0.020695287734270096
1772534292946077400,6.043077392578125,0.0038248200435191393,0.007940764538943768,-0.03678637370467186
1772534292956094500,6.053094482421875,0.011837939731776714,0.011623996309936047,-0.047258391976356506
1772534292966110500,6.0631103515625,0.010977472178637981,0.016468552872538567,-0.047372374683618546
1772534292976126500,6.07312646484375,0.002920876257121563,0.020308978855609894,-0.042006902396678925
1772534292986143200,6.083143310546875,-0.012750228866934776,0.017424508929252625,-0.02765486016869545
1772534292996159500,6.093159423828125,-0.028640111908316612,0.016625620424747467,-0.016275305300951004
1772534293006176500,6.103176513671875,-0.0417652353644371,0.025581296533346176,-0.012557798996567726
1772534293016192500,6.113192626953125,-0.04698922485113144,0.035907190293073654,-0.006876810919493437
1772534293026209300,6.123209228515625,-0.042031221091747284,0.042170945554971695,0.00009534461423754692
1772534293036225500,6.1332255859375,-0.033784203231334686,0.041651200503110886,0.011472901329398155
1772534293046242600,6.14324267578125,-0.026872504502534866,0.029627028852701187,0.028440698981285095
1772534293056258600,6.153258544921875,-0.022681953385472298,0.019131263718008995,0.047099269926548004
1772534293066274300,6.1632744140625,-0.02269393764436245,0.01608407497406006,0.05295902490615845
1772534293076291600,6.17329150390625,-0.025626346468925476,0.01944691315293312,0.04798903316259384
1772534293086307600,6.1833076171875,-0.028156882151961327,0.02569735236465931,0.041568417102098465
1772534293096324400,6.193324462890625,-0.022145794704556465,0.026640865951776505,0.03198150545358658
1772534293106340400,6.20334033203125,-0.016713211312890053,0.023114841431379318,0.026183802634477615
1772534293116357600,6.213357666015625,-0.008880256675183773,0.012866117991507053,0.019024627283215523
1772534293126373600,6.22337353515625,-0.005540918558835983,0.004965317901223898,0.004344751127064228
1772534293136390400,6.233390380859375,-0.0075235748663544655,0.011981785297393799,-0.006221141200512648
1772534293146406400,6.243406494140625,-0.012071721255779266,0.022261055186390877,-0.01749403588473797
1772534293156423700,6.253423583984375,-0.015004525892436504,0.020443791523575783,-0.024537166580557823
1772534293166439400,6.263439453125,-0.015046070329844952,0.019053887575864792,-0.026944663375616074
1772534293176455400,6.273455322265625,-0.013004627078771591,0.006251296028494835,-0.027167968451976776
1772534293186472400,6.283472412109375,-0.009256494231522083,-0.009008350782096386,-0.03202051296830177
1772534293196488400,6.293488525390625,-0.011559728533029556,-0.008487312123179436,-0.03653976693749428
1772534293206505500,6.30350537109375,-0.016899632290005684,0.006756355985999107,-0.04087725654244423
1772534293216521500,6.313521484375,-0.01688598096370697,0.017664188519120216,-0.04310612380504608
1772534293226538500,6.32353857421875,-0.013800176791846752,0.01155143417418003,-0.04279959574341774
1772534293236554500,6.333554443359375,-0.005515684373676777,0.006924419663846493,-0.037723809480667114
1772534293246571500,6.343571533203125,0.0030535690020769835,0.0042841616086661816,-0.03708997368812561
1772534293256587500,6.35358740234375,0.011386998929083347,0.004577132873237133,-0.034073811024427414
1772534293266603500,6.363603515625,0.014176660217344761,0.011824926361441612,-0.032961405813694
1772534293276620300,6.373620361328125,0.01655273325741291,0.008339397609233856,-0.030359234660863876
1772534293286636300,6.38363623046875,0.017917603254318237,-0.00004343409091234207,-0.03146764263510704
1772534293296653600,6.393653564453125,0.017053740099072456,-0.004226191435009241,-0.03363285958766937
1772534293306669600,6.403669677734375,0.02019440568983555,-0.006461382377892733,-0.03708910942077637
1772534293316686300,6.413686279296875,0.021633444353938103,-0.002205675235018134,-0.04072925075888634
1772534293326702300,6.423702392578125,0.021208936348557472,0.0003964994102716446,-0.04310718923807144
1772534293336719600,6.4337197265625,0.022084785625338554,0.004708504304289818,-0.04017018899321556
1772534293346735400,6.4437353515625,0.020584892481565475,-0.0038104155100882053,-0.038386937230825424
1772534293356752400,6.45375244140625,0.020150600001215935,-0.012061215937137604,-0.035361919552087784
1772534293366769400,6.463769287109375,0.016299135982990265,-0.006551402620971203,-0.028260599821805954
1772534293376785200,6.47378515625,0.006324863992631435,-0.002723271958529949,-0.025593508034944534
1772534293386802200,6.48380224609375,-0.00022864248603582382,0.0019063674844801426,-0.02490534819662571
1772534293396818200,6.493818115234375,-0.005188039503991604,0.01010714191943407,-0.022617105394601822
1772534293406835200,6.503835205078125,-0.011432886123657227,0.015081659890711308,-0.017050566151738167
1772534293416851200,6.513851318359375,-0.007670181803405285,0.01773080974817276,-0.010911899618804455
1772534293426868200,6.5238681640625,-0.0008474296191707253,0.007192948833107948,-0.0017780563794076443
1772534293436884200,6.53388427734375,0.008386282250285149,-0.009644088335335255,0.005308881402015686
1772534293446901200,6.5439013671875,0.013342957943677902,-0.012194330804049969,0.009321732446551323
1772534293456917200,6.553917236328125,0.009422850795090199,-0.006993173621594906,0.013434652239084244
1772534293466934300,6.563934326171875,0.002481321804225445,-0.004726291634142399,0.014410434290766716
1772534293476950300,6.5739501953125,0.001998956548050046,-0.00483327079564333,0.016550350934267044
1772534293486966300,6.58396630859375,0.006936723832041025,-0.006349408533424139,0.014977488666772842
1772534293496983300,6.5939833984375,0.0137529531493783,-0.005369921214878559,0.012627646327018738
1772534293506999300,6.603999267578125,0.020133621990680695,-0.003814102616161108,0.004037087317556143
1772534293517016000,6.61401611328125,0.024327831342816353,-0.002191273495554924,-0.011470763944089413
1772534293527032000,6.624031982421875,0.030595049262046814,-0.0058693652972579,-0.02243499830365181
1772534293537049300,6.63404931640625,0.035402920097112656,-0.010234265588223934,-0.029810955747961998
1772534293547065300,6.6440654296875,0.03496616333723068,-0.01424232218414545,-0.027580292895436287
1772534293557082000,6.65408203125,0.02916952408850193,-0.01738513633608818,-0.023072360083460808
1772534293567098000,6.66409814453125,0.02273133210837841,-0.024620944634079933,-0.013495899736881256
1772534293577114400,6.6741142578125,0.010403166525065899,-0.02562166377902031,-0.007751600816845894
1772534293587131100,6.684131103515625,-0.00030833337223157287,-0.016275033354759216,-0.0038988059386610985
1772534293597147100,6.694147216796875,-0.0057889921590685844,-0.00976698100566864,-0.0059799253940582275
1772534293607164200,6.7041640625,-0.007010051980614662,-0.013328160159289837,-0.011675894260406494
1772534293617180400,6.714180419921875,-0.009577271528542042,-0.026208151131868362,-0.010500441305339336
1772534293627197200,6.724197265625,-0.008097353391349316,-0.03041035309433937,-0.010579537600278854
1772534293637213200,6.734213134765625,-0.003664919873699546,-0.03137693926692009,-0.009293364360928535
1772534293647230200,6.744230224609375,0.0008089242037385702,-0.026162467896938324,-0.011705920100212097
1772534293657246500,6.75424658203125,0.00793094839900732,-0.02331433817744255,-0.016702210530638695
1772534293667262200,6.76426220703125,0.01289508119225502,-0.017796270549297333,-0.013531452044844627
1772534293677279200,6.774279296875,0.018320007249712944,-0.010368243791162968,-0.009128513745963573
1772534293687295200,6.784295166015625,0.025535043329000473,-0.010474237613379955,-0.003159570973366499
1772534293697312300,6.794312255859375,0.027301456779241562,-0.006953437812626362,0.005596162285655737
1772534293707328300,6.804328369140625,0.02697841450572014,-0.010931934230029583,0.00836664903908968
1772534293717345300,6.81434521484375,0.027546463534235954,-0.009024064987897873,0.0061090923845767975
1772534293727361300,6.824361328125,0.024345077574253082,-0.008189430460333824,0.00304193003103137
1772534293737378300,6.83437841796875,0.025047551840543747,-0.007324988953769207,-0.0037059206515550613
1772534293747394300,6.844394287109375,0.020530298352241516,-0.005383011884987354,-0.0100426459684968
1772534293757411300,6.854411376953125,0.011796526610851288,0.004691379144787788,-0.010044042021036148
1772534293767427300,6.86442724609375,0.008451596833765507,-0.0007374746492132545,-0.0003322926349937916
1772534293777443000,6.874443115234375,0.000870709540322423,-0.01518385298550129,0.012806877493858337
1772534293787460400,6.88446044921875,-0.005675340536981821,-0.021642817184329033,0.021516747772693634
1772534293797476400,6.894476318359375,-0.011184489354491234,-0.018509402871131897,0.026139330118894577
1772534293807493000,6.9044931640625,-0.016602957621216774,-0.013125289231538773,0.028216328471899033
1772534293817509000,6.914509033203125,-0.01817169040441513,-0.008622191846370697,0.026645196601748466
1772534293827526400,6.9245263671875,-0.0178140290081501,-0.003192805452272296,0.02377483993768692
1772534293837542400,6.93454248046875,-0.01839020475745201,0.0007649597246199846,0.01862175762653351
1772534293847559200,6.94455908203125,-0.01831457018852234,0.009276955388486385,0.0189871434122324
1772534293857575200,6.9545751953125,-0.017636530101299286,0.008635583333671093,0.021316874772310257
1772534293867591200,6.964591064453125,-0.016503620892763138,0.0038267129566520452,0.0314619205892086
1772534293877608200,6.974608154296875,-0.01705462858080864,-0.006897386629134417,0.036587439477443695
1772534293887624200,6.984624267578125,-0.00902040395885706,-0.01147749088704586,0.039057791233062744
1772534293897641200,6.99464111328125,0.0003450679359957576,-0.013087392784655094,0.03331741318106651
1772534293907657200,7.0046572265625,0.011973761022090912,-0.01640143059194088,0.022494591772556305
1772534293917674200,7.01467431640625,0.016525637358427048,-0.016156399622559547,0.005130512174218893
1772534293927690200,7.024690185546875,0.01762392558157444,-0.007694206200540066,-0.011797870509326458
1772534293937707300,7.034707275390625,0.01395035907626152,0.004703322425484657,-0.02513497695326805
1772534293947723300,7.04472314453125,0.01166563294827938,0.004400786943733692,-0.027677498757839203
1772534293957740300,7.054740234375,0.01148101408034563,-0.004009292460978031,-0.020828852429986
1772534293967756300,7.06475634765625,0.01196251343935728,-0.013129288330674171,-0.0100579634308815
1772534293977772300,7.074772216796875,0.008405457250773907,-0.018061891198158264,-0.001170323695987463
1772534293987789000,7.0847890625,0.004004050977528095,-0.013907092623412609,0.004004997201263905
1772534293997805300,7.094805419921875,-0.0007797168218530715,-0.013240115717053413,0.00580735644325614
1772534294007822300,7.104822265625,-0.003384821116924286,-0.011636625975370407,0.004961004015058279
1772534294017838300,7.11483837890625,-0.009329130873084068,-0.008043365553021431,0.005942779593169689
1772534294027855000,7.124855224609375,-0.016033638268709183,-0.000004081288352608681,0.012265389785170555
1772534294037871400,7.134871337890625,-0.019326701760292053,-0.0001783550251275301,0.017678331583738327
1772534294047888400,7.144888427734375,-0.024520399048924446,-0.0026012989692389965,0.02568698860704899
1772534294057904000,7.154904052734375,-0.021845921874046326,-0.00889068003743887,0.033997517079114914
1772534294067920100,7.164920166015625,-0.020218996331095695,-0.013076636008918285,0.036775991320610046
1772534294077937400,7.1749375,-0.01780869998037815,-0.008977705612778664,0.03262905031442642
1772534294087953400,7.184953369140625,-0.0165394376963377,0.005359422415494919,0.029202628880739212
1772534294097970200,7.19497021484375,-0.016782384365797043,0.008052491582930088,0.023335479199886322
1772534294107986200,7.204986083984375,-0.013617482036352158,0.0056894682347774506,0.01791275292634964
1772534294118003500,7.21500341796875,-0.013252566568553448,0.004059349186718464,0.013173595070838928
1772534294128019500,7.22501953125,-0.010283940471708775,0.002034281613305211,0.009656092151999474
1772534294138036200,7.2350361328125,-0.00709473667666316,0.0059766811318695545,0.0031320778653025627
1772534294148052200,7.24505224609375,-0.0044768499210476875,0.00822092592716217,0.005412010010331869
1772534294158068200,7.255068115234375,-0.0006645346293225884,0.01002894714474678,0.008777447044849396
1772534294168085200,7.265085205078125,0.0005384152173064649,0.0014852597378194332,0.015050522051751614
1772534294178101200,7.275101318359375,-0.00038343999767675996,-0.00782015174627304,0.020947430282831192
1772534294188118300,7.2851181640625,-0.005829338449984789,-0.010383976623415947,0.026634877547621727
1772534294198134300,7.29513427734375,-0.011960730887949467,-0.008199100382626057,0.02237434685230255
1772534294208151300,7.3051513671875,-0.022199785336852074,0.0037092245183885098,0.011329686269164085
1772534294218167300,7.315167236328125,-0.029244182631373405,0.011182382702827454,0.002932540839537978
1772534294228184300,7.325184326171875,-0.030188005417585373,0.006239023059606552,0.002816959749907255
1772534294238200000,7.335199951171875,-0.026076488196849823,-0.000853934558108449,0.006872290745377541
1772534294248216000,7.345216064453125,-0.02299094945192337,-0.0015932280803099275,0.01168755255639553
1772534294258233300,7.3552333984375,-0.019439488649368286,0.0012853594962507486,0.01092522032558918
1772534294268249300,7.365249267578125,-0.020452022552490234,0.006646568886935711,0.01218383014202118
1772534294278266000,7.37526611328125,-0.01968136988580227,0.011521547101438046,0.014979951083660126
1772534294288282000,7.3852822265625,-0.01620168425142765,0.009451738558709621,0.01717386208474636
1772534294298299400,7.39529931640625,-0.00909636914730072,0.005947919096797705,0.016936305910348892
1772534294308315400,7.4053154296875,-0.005725339520722628,-0.0028293277136981487,0.015884891152381897
1772534294318332200,7.415332275390625,-0.0018421169370412827,-0.0010480006458237767,0.010671419091522694
1772534294328348200,7.42534814453125,-0.003949476405978203,-0.0013199093518778682,-0.0002858908846974373
1772534294338364400,7.435364501953125,-0.006504181306809187,0.005068051628768444,-0.010807305574417114
1772534294348381200,7.445381103515625,-0.013748778961598873,0.007917101494967937,-0.014800716191530228
1772534294358397200,7.455397216796875,-0.017148302868008614,0.009389829821884632,-0.015615910291671753
1772534294368414500,7.46541455078125,-0.020707085728645325,0.014691383577883244,-0.01017880067229271
1772534294378430500,7.475430419921875,-0.02126794494688511,0.007254607975482941,-0.0004193834029138088
1772534294388447500,7.485447509765625,-0.02338382788002491,0.0006044290494173765,0.01129106804728508
1772534294398463500,7.49546337890625,-0.02549884468317032,0.001799840945750475,0.018196050077676773
1772534294408480500,7.50548046875,-0.035117119550704956,0.004502682946622372,0.03123035840690136
1772534294418496300,7.515496337890625,-0.04610398784279823,0.015538657084107399,0.036796361207962036
1772534294428513500,7.525513427734375,-0.051283568143844604,0.02487090602517128,0.038300514221191406
1772534294438529500,7.535529541015625,-0.051512137055397034,0.02406616136431694,0.0431765653192997
1772534294448545500,7.545545654296875,-0.04657330363988876,0.014340296387672424,0.05052183195948601
1772534294458562300,7.555562255859375,-0.046641282737255096,0.010200456716120243,0.0630081295967102
1772534294468578600,7.56557861328125,-0.046864453703165054,0.0144495302811265,0.07471805065870285
1772534294478595600,7.575595703125,-0.049231138080358505,0.01654912158846855,0.08224301040172577
1772534294488611600,7.585611572265625,-0.04716452583670616,0.018426118418574333,0.07997852563858032
1772534294498628400,7.59562841796875,-0.04355241358280182,0.021271809935569763,0.0696142315864563
1772534294508644600,7.60564453125,-0.0408698134124279,0.018105577677488327,0.05338386073708534
1772534294518661400,7.615661376953125,-0.03535107523202896,0.019331205636262894,0.03688038885593414
1772534294528677400,7.625677490234375,-0.0345662422478199,0.017514929175376892,0.01832028664648533
1772534294538693400,7.635693359375,-0.0349380224943161,0.016719792038202286,0.0006688553839921951
1772534294548710400,7.64571044921875,-0.03416783735156059,0.020521987229585648,-0.01902814954519272
1772534294558726700,7.6557265625,-0.03215768188238144,0.021592596545815468,-0.032973796129226685
1772534294568743400,7.665743408203125,-0.031413592398166656,0.026873910799622536,-0.04358036816120148
1772534294578759400,7.675759521484375,-0.02714034542441368,0.02269008569419384,-0.04130037501454353
1772534294588776400,7.6857763671875,-0.024030571803450584,0.011283233761787415,-0.040881458669900894
1772534294598792400,7.69579248046875,-0.022637343034148216,0.004343855660408735,-0.04069889336824417
1772534294608809500,7.7058095703125,-0.02349754422903061,0.0011379425413906574,-0.040653619915246964
1772534294618825500,7.715825439453125,-0.02464217133820057,0.009782747365534306,-0.04846334084868431
1772534294628841500,7.725841552734375,-0.023576106876134872,0.020032454282045364,-0.053422678261995316
1772534294638858500,7.7358583984375,-0.023661063984036446,0.028223440051078796,-0.0555550679564476
1772534294648874500,7.74587451171875,-0.021494315937161446,0.023048117756843567,-0.0487392395734787
1772534294658891500,7.7558916015625,-0.017259489744901657,0.016351822763681412,-0.04408496990799904
1772534294668907500,7.765907470703125,-0.012273253872990608,0.01201433315873146,-0.0395011380314827
1772534294678924500,7.775924560546875,-0.0071059903129935265,0.009342795237898827,-0.04062279313802719
1772534294688940500,7.7859404296875,-0.003913393244147301,0.010538820177316666,-0.04140975698828697
1772534294698957600,7.79595751953125,-0.000503747898619622,0.020700911059975624,-0.04050774499773979
1772534294708973300,7.805973388671875,-0.005753903649747372,0.029907457530498505,-0.03742220625281334
1772534294718989300,7.8159892578125,-0.010730220004916191,0.0290080476552248,-0.03510851785540581
1772534294729006600,7.826006591796875,-0.01523522287607193,0.030709007754921913,-0.03248557075858116
1772534294739022600,7.836022705078125,-0.01694796234369278,0.023943163454532623,-0.025089647620916367
1772534294749039400,7.846039306640625,-0.014702118933200836,0.023308532312512398,-0.02300572395324707
1772534294759055400,7.856055419921875,-0.013826810754835606,0.02278231456875801,-0.02178964763879776
1772534294769072600,7.86607275390625,-0.010599326342344284,0.024622824043035507,-0.020414924249053
1772534294779088400,7.87608837890625,-0.014735608361661434,0.030196286737918854,-0.01804644986987114
1772534294789105400,7.88610546875,-0.015673307701945305,0.03034302592277527,-0.011767515912652016
1772534294799121400,7.896121337890625,-0.014157973229885101,0.022206250578165054,-0.00642174668610096
1772534294809137400,7.906137451171875,-0.011352065950632095,0.013485196977853775,-0.0072254883125424385
1772534294819154400,7.916154541015625,-0.009577869437634945,0.018245946615934372,-0.012394150719046593
1772534294829170400,7.92617041015625,-0.012539304792881012,0.029466109350323677,-0.019795341417193413
1772534294839187500,7.9361875,-0.011025494895875454,0.035307612270116806,-0.028399817645549774
1772534294849203500,7.946203369140625,-0.01356348767876625,0.03961101174354553,-0.031594812870025635
1772534294859220500,7.956220458984375,-0.011684161610901356,0.0383547767996788,-0.041723813861608505
1772534294869236500,7.966236572265625,-0.012931851670145988,0.0315229706466198,-0.04143166542053223
1772534294879253500,7.97625341796875,-0.013411490246653557,0.02692766860127449,-0.0419139564037323
1772534294889269200,7.986269287109375,-0.013180861249566078,0.032544005662202835,-0.048803556710481644
1772534294899285500,7.996285400390625,-0.012748626992106438,0.033491045236587524,-0.050617437809705734
1772534294909302500,8.006302490234376,-0.015277030877768993,0.046799663454294205,-0.05304544419050217
1772534294919318500,8.016318603515625,-0.02284526452422142,0.05306989327073097,-0.054201461374759674
1772534294929335300,8.026335205078125,-0.027512455359101295,0.042368777096271515,-0.03469380363821983
1772534294939351600,8.0363515625,-0.02723635546863079,0.0180800911039114,-0.017129920423030853
1772534294949368600,8.04636865234375,-0.027508530765771866,0.007691899314522743,-0.0007370985113084316
1772534294959384300,8.05638427734375,-0.028946442529559135,0.005724215880036354,0.012975056655704975
1772534294969401300,8.0664013671875,-0.029723020270466805,0.003403270384296775,0.01670428179204464
1772534294979417600,8.07641748046875,-0.026569437235593796,0.0019040533807128668,0.009346100501716137
1772534294989433600,8.08643359375,-0.02088119089603424,0.008818951435387135,-0.0013875039294362068
1772534294999450400,8.096450439453125,-0.017851175740361214,0.01954294554889202,-0.018244121223688126
1772534295009466400,8.10646630859375,-0.012062262743711472,0.024148350581526756,-0.025505496188998222
1772534295019483600,8.116483642578125,-0.004445559810847044,0.018272968009114265,-0.029160743579268456
1772534295029499600,8.126499755859374,0.0028882534243166447,0.012900573201477528,-0.029860621318221092
1772534295039516400,8.136516357421876,0.009809080511331558,0.0073273335583508015,-0.037453100085258484
1772534295049532400,8.146532470703125,0.01267304364591837,0.011730337515473366,-0.04574085772037506
1772534295059548400,8.15654833984375,0.016324441879987717,0.021841377019882202,-0.05318726226687431
1772534295069565400,8.1665654296875,0.015690341591835022,0.026384729892015457,-0.05352335423231125
1772534295079581400,8.17658154296875,0.02074967510998249,0.018431037664413452,-0.039549604058265686
1772534295089598500,8.186598388671875,0.024977710098028183,0.005175418220460415,-0.026743529364466667
1772534295099614500,8.196614501953125,0.030281463637948036,0.008591311052441597,-0.019062241539359093
1772534295109631500,8.206631591796874,0.03071875497698784,0.015679046511650085,-0.01886410266160965
1772534295119647500,8.2166474609375,0.031088002026081085,0.020208142697811127,-0.022884009405970573
1772534295129664500,8.22666455078125,0.02919316291809082,0.027351807802915573,-0.03206286206841469
1772534295139680500,8.236680419921875,0.0279096532613039,0.03117811121046543,-0.031238745898008347
1772534295149696300,8.2466962890625,0.02663479745388031,0.026693349704146385,-0.02229904755949974
1772534295159713500,8.256713623046876,0.02621454931795597,0.01718434877693653,-0.003957589156925678
1772534295169729500,8.2667294921875,0.027363436296582222,0.007472067140042782,0.009212806820869446
1772534295179746300,8.276746337890625,0.02889195829629898,0.008297136053442955,0.010044913738965988
1772534295189762300,8.28676220703125,0.02329186163842678,0.017101814970374107,0.007063239347189665
1772534295199779600,8.296779541015624,0.022765688598155975,0.024032996967434883,0.001900633331388235
1772534295209795600,8.306795654296875,0.020885230973362923,0.021522967144846916,0.0003219114150851965
1772534295219812400,8.316812255859375,0.02013329230248928,0.02215411327779293,0.0028829339426010847
1772534295229828400,8.326828369140625,0.01633828692138195,0.02257835492491722,0.012113982811570168
1772534295239844600,8.3368447265625,0.01654793880879879,0.014101862907409668,0.019607793539762497
1772534295249861400,8.346861328125,0.017531977966427803,0.0007197454106062651,0.022710641846060753
1772534295259877400,8.35687744140625,0.019466565921902657,-0.003511895891278982,0.022195782512426376
1772534295269894400,8.366894287109375,0.022406430914998055,0.00030095200054347515,0.01232024934142828
1772534295279910700,8.37691064453125,0.022836264222860336,0.008491769433021545,0.0006923559121787548
1772534295289927400,8.386927490234376,0.02629491128027439,0.014421297237277031,-0.008221777155995369
1772534295299943400,8.396943359375,0.028726443648338318,0.009851068258285522,-0.014500778168439865
1772534295309960400,8.40696044921875,0.0333813838660717,0.007485382258892059,-0.01633862592279911
1772534295319976400,8.4169765625,0.038973089307546616,0.011347622610628605,-0.014059357345104218
1772534295329992400,8.426992431640626,0.03953608125448227,0.014903740957379341,-0.013190099969506264
1772534295340009500,8.437009521484375,0.037014804780483246,0.014236187562346458,-0.014185532927513123
1772534295350025500,8.447025390625,0.033329255878925323,0.008534892462193966,-0.015362916514277458
1772534295360042500,8.45704248046875,0.02507605589926243,0.012138927355408669,-0.0108818169683218
1772534295370058000,8.46705810546875,0.015353386290371418,0.016384271904826164,-0.0030467966571450233
1772534295380075000,8.477074951171875,0.010350770317018032,0.009970356710255146,-0.0011984286829829216
1772534295390091300,8.48709130859375,0.0069922576658427715,0.01815211959183216,-0.0032996628433465958
1772534295400108000,8.49710791015625,-0.00014901021495461464,0.02624528296291828,-0.0015425062738358974
1772534295410124000,8.5071240234375,-0.007880433462560177,0.02376295067369938,0.0013542138040065765
1772534295420140000,8.51714013671875,-0.011751805432140827,0.016886238008737564,0.007479153573513031
1772534295430157300,8.5271572265625,-0.015607795678079128,0.006961168721318245,0.009901564568281174
1772534295440173000,8.537173095703125,-0.02011592872440815,0.0055292085744440556,0.014899186789989471
1772534295450190000,8.547190185546874,-0.024431848898530006,0.007645888719707727,0.01580119878053665
1772534295460206000,8.5572060546875,-0.03175999969244003,0.01085866428911686,0.010777611285448074
1772534295470223000,8.56722314453125,-0.03173363581299782,0.014073099941015244,0.0036877437960356474
1772534295480239000,8.577239013671875,-0.030551852658391,0.018742214888334274,-0.0015793289057910442
1772534295490255000,8.587255126953124,-0.03037155792117119,0.01998910680413246,0.00015092664398252964
1772534295500272000,8.597272216796876,-0.025370603427290916,0.01012461632490158,0.003119480097666383
1772534295510288100,8.6072880859375,-0.016328638419508934,0.001678933622315526,0.0016286426689475775
1772534295520305200,8.61730517578125,-0.005829394795000553,-0.004443059675395489,0.003200976410880685
1772534295530321200,8.627321044921874,0.005612077657133341,-0.009523039683699608,0.0010480768978595734
1772534295540338000,8.637337890625,0.017125848680734634,-0.00803804025053978,-0.005152951925992966
1772534295550354000,8.64735400390625,0.021761346608400345,-0.0017540456028655171,-0.014692660421133041
1772534295560371200,8.65737109375,0.023787951096892357,0.014933056198060513,-0.022373158484697342
1772534295570387200,8.66738720703125,0.024431103840470314,0.017806606367230415,-0.026893608272075653
1772534295580403200,8.6774033203125,0.028254805132746696,0.004863704554736614,-0.026424024254083633
1772534295590420000,8.687419921875,0.03126870095729828,0.000653513241559267,-0.025606967508792877
1772534295600436000,8.69743603515625,0.03362034261226654,-0.0011924667051061988,-0.03104574792087078
1772534295610453200,8.707453369140625,0.03508375212550163,-0.0014350806595757604,-0.02935357578098774
1772534295620469000,8.717468994140624,0.034344322979450226,-0.0001427105162292719,-0.028499890118837357
1772534295630486000,8.727486083984376,0.03087182343006134,0.00712638720870018,-0.028480447828769684
1772534295640502000,8.737501953125,0.02196594700217247,0.011345100589096546,-0.023322971537709236
1772534295650519000,8.74751904296875,0.01612457074224949,0.013599999248981476,-0.007828966714441776
1772534295660535000,8.75753515625,0.0077220238745212555,-0.0031207785941660404,0.011643275618553162
1772534295670551000,8.767551025390626,0.00015944562619552016,-0.009439927525818348,0.030011098831892014
1772534295680568000,8.777568115234375,-0.006371689029037952,-0.0100781861692667,0.03952523693442345
1772534295690584000,8.787583984375,-0.001222466817125678,0.013023937121033669,0.04356765002012253
1772534295700601000,8.79760107421875,-0.003928361926227808,-0.0015471996739506721,0.047281019389629364
1772534295710617000,8.8076171875,-0.005459679756313562,0.009819970466196537,0.03952988609671593
1772534295720633900,8.8176337890625,-0.0015413712244480848,0.007299022749066353,0.03467600792646408
1772534295730650000,8.827650146484375,-0.0023070299066603184,0.007131775841116905,0.02878243289887905
1772534295740666000,8.837666015625,-0.0022959127090871334,0.013291462324559689,0.017383374273777008
1772534295750683100,8.84768310546875,0.0009155931184068322,0.010045601986348629,0.003280871082097292
1772534295760699100,8.85769921875,0.006440183147788048,0.003490168834105134,-0.013582924380898476
1772534295770716200,8.867716064453125,0.011899396777153015,0.011221591383218765,-0.02497486211359501
1772534295780732200,8.877732177734375,0.01621125265955925,0.01820233091711998,-0.034236468374729156
1772534295790749200,8.887749267578124,0.015539071522653103,0.021124085411429405,-0.03659230098128319
1772534295800765000,8.897764892578126,0.01416348572820425,0.018311070278286934,-0.030629688873887062
1772534295810782200,8.9077822265625,0.013001814484596252,0.018361669033765793,-0.021578935906291008
1772534295820798200,8.917798095703125,0.010689524002373219,0.016956094652414322,-0.017505763098597527
1772534295830814200,8.927814208984374,0.01196091715246439,0.004991843365132809,-0.010828951373696327
1772534295840831000,8.9378310546875,0.009761951863765717,0.0030277834739536047,-0.0021228203549981117
1772534295850847000,8.947846923828125,0.0073845479637384415,0.0006045734044164419,0.000823700800538063
1772534295860864300,8.9578642578125,-0.000016584934201091528,-0.006332613527774811,0.002456696704030037
1772534295870880000,8.9678798828125,-0.010986411944031715,-0.0015911217778921127,0.007660247385501862
1772534295880897000,8.97789697265625,-0.02550729550421238,0.0033186001237481833,0.007210968993604183
1772534295890913000,8.9879130859375,-0.03511757776141167,-0.002019972773268819,0.0037238262593746185
1772534295900929000,8.997928955078125,-0.03811376169323921,-0.006526326760649681,-0.0018606996163725853
1772534295910946000,9.007946044921875,-0.03749111667275429,-0.002735849702730775,-0.012087770737707615
1772534295920962000,9.017962158203124,-0.034532345831394196,-0.0004712007939815521,-0.02158965729176998
1772534295930979000,9.02797900390625,-0.025515682995319366,0.005166977643966675,-0.027518920600414276
1772534295940995000,9.0379951171875,-0.01599089242517948,0.00015488755889236927,-0.03154747560620308
1772534295951012000,9.04801220703125,-0.0044088042341172695,-0.0005284796934574842,-0.030538134276866913
1772534295961028000,9.058028076171874,0.0005040005780756474,0.0003328279126435518,-0.027862798422574997
1772534295971045000,9.068045166015626,0.0012547456426545978,0.0024441820569336414,-0.02385181188583374
1772534295981060900,9.078060791015625,0.005304009187966585,-0.005702120251953602,-0.020809609442949295
1772534295991077000,9.0880771484375,0.007539200130850077,-0.006741285789757967,-0.02228207141160965
1772534296001094100,9.09809423828125,0.009474590420722961,0.003918323665857315,-0.02223154343664646
1772534296011110100,9.108110107421876,0.016970589756965637,-0.0024764591362327337,-0.02251570113003254
1772534296021127000,9.118126953125,0.02717575989663601,-0.0111042195931077,-0.018316902220249176
1772534296031143200,9.12814306640625,0.030656777322292328,-0.009410715661942959,-0.011950083076953888
1772534296041160200,9.13816015625,0.030594058334827423,-0.0057093314826488495,-0.007696609944105148
1772534296051176200,9.14817626953125,0.025957761332392693,-0.010052680969238281,-0.004273649305105209
1772534296061192000,9.15819189453125,0.021862221881747246,-0.00917369406670332,0.0019785163458436728
1772534296071209200,9.168209228515625,0.018801717087626457,-0.0038484372198581696,0.0035154265351593494
1772534296081225200,9.17822509765625,0.01670341193675995,-0.005343003198504448,-0.0012606866657733917
1772534296091242000,9.188241943359374,0.014519087970256805,-0.0007748830830678344,-0.008495429530739784
1772534296101258000,9.198258056640626,0.0139414481818676,0.007588508538901806,-0.012173255905508995
1772534296111275300,9.208275146484375,0.009932326152920723,0.011827461421489716,-0.01268298551440239
1772534296121291300,9.218291259765625,0.008809410966932774,0.005655915476381779,-0.007912872359156609
1772534296131308000,9.22830810546875,0.008105270564556122,-0.004120815545320511,0.002613271586596966
1772534296141324000,9.238323974609376,0.006229200400412083,-0.010940701700747013,0.011767497286200523
1772534296151340000,9.248340087890625,0.003593736095353961,-0.010717527940869331,0.01601550541818142
1772534296161357000,9.258357177734375,0.0035570464096963406,-0.009977518580853939,0.015354981645941734
1772534296171373000,9.268373046875,0.003404180984944105,-0.006772937253117561,0.01268542930483818
1772534296182016300,9.279016357421876,0.004036149010062218,-0.005252005532383919,0.003247985150665045
1772534296192032000,9.289031982421875,0.0019581506494432688,-0.006910601630806923,-0.0019172816537320614
1772534296202049000,9.299049072265625,0.0015376375522464514,0.00032973429188132286,-0.007108581252396107
1772534296212065000,9.30906494140625,0.004126694984734058,0.006118708290159702,-0.0029955273494124413
1772534296222081300,9.319081298828126,0.0056497566401958466,0.0016414027195423841,0.007907453924417496
1772534296232098000,9.32909814453125,0.0119225038215518,-0.008179187774658203,0.019986813887953758
1772534296242114000,9.339114013671875,0.013797368854284286,-0.0103613818064332,0.021595098078250885
1772534296252131000,9.349131103515624,0.01479332521557808,-0.005908597260713577,0.020995687693357468
1772534296262147000,9.35914697265625,0.015287607908248901,0.0008840614464133978,0.017920535057783127
1772534296272164000,9.3691640625,0.014286523684859276,0.006957747973501682,0.015690937638282776
1772534296282180000,9.37918017578125,0.018375542014837265,0.008139392361044884,0.014365483075380325
1772534296292196000,9.389196044921874,0.023327959701418877,0.004380444064736366,0.013300212100148201
1772534296302213000,9.399213134765626,0.02389601245522499,0.009111816063523293,0.012386747635900974
1772534296312229000,9.40922900390625,0.02642867900431156,0.0063423942774534225,0.013787304051220417
1772534296322246100,9.41924609375,0.02388022281229496,0.0021667624823749065,0.014727214351296425
1772534296332262100,9.42926220703125,0.022065823897719383,0.0017653843387961388,0.015711767598986626
1772534296342279200,9.439279052734374,0.019956868141889572,0.0016119866631925106,0.01339242048561573
1772534296352295200,9.449295166015625,0.014808710664510727,0.006408605724573135,0.011514624580740929
1772534296362311200,9.459311279296875,0.014058498665690422,0.010027841664850712,0.004526490345597267
1772534296372328000,9.469327880859375,0.016764597967267036,0.001653182553127408,-0.0006145345978438854
1772534296382344400,9.479344482421874,0.0114249587059021,0.0035309770610183477,-0.0029719648882746696
1772534296392361700,9.48936181640625,0.006694791838526726,0.006586218252778053,0.0064251236617565155
1772534296402377700,9.499377685546875,0.0018046954646706581,-0.0018863622099161148,0.016237273812294006
1772534296412394500,9.50939453125,-0.0031498544849455357,-0.008523596450686455,0.024006254971027374
1772534296422410500,9.519410400390624,-0.006606637500226498,-0.004127515945583582,0.030403433367609978
1772534296432427500,9.529427490234376,-0.010626615025103092,0.003842095611616969,0.027821436524391174
1772534296442443500,9.539443603515625,-0.011955266818404198,0.013672621920704842,0.02159310132265091
1772534296452459500,9.54945947265625,-0.010993332602083683,0.016054818406701088,0.021373923867940903
1772534296462476500,9.5594765625,-0.009801499545574188,0.013052044436335564,0.021985318511724472
1772534296472492800,9.569492919921874,-0.008339423686265945,0.006321970373392105,0.02811271697282791
1772534296482509600,9.579509521484376,-0.004887026734650135,-0.003010829910635948,0.029988769441843033
1772534296492525600,9.589525634765625,-0.0039406102150678635,-0.0025861801113933325,0.029027707874774933
1772534296502542600,9.59954248046875,-0.005013331770896912,0.0005467624869197607,0.024631362408399582
1772534296512558600,9.60955859375,-0.006682402919977903,0.004348220303654671,0.014552430249750614
1772534296523200500,9.620200439453125,-0.01032267790287733,0.011054325848817825,0.0017319731414318085
1772534296533217800,9.6302177734375,-0.013524862937629223,0.010902524925768375,-0.0051565589383244514
1772534296543233500,9.640233642578124,-0.016176434233784676,0.015393292531371117,-0.018207252025604248
1772534296553250600,9.65025048828125,-0.01621291972696781,0.013439064845442772,-0.03324639052152634
1772534296563266600,9.6602666015625,-0.014626218937337399,0.018534816801548004,-0.04209472984075546
1772534296573283600,9.67028369140625,-0.011859727092087269,0.00521368533372879,-0.04340020939707756
1772534296583299600,9.680299560546874,-0.012755059637129307,0.0057619125582277775,-0.04725223779678345
1772534296593316600,9.690316650390624,-0.015771357342600822,0.005793338175863028,-0.047115352004766464
1772534296603332600,9.70033251953125,-0.023299792781472206,0.00463254377245903,-0.03944895789027214
1772534296613348600,9.7103486328125,-0.028045279905200005,-0.004321802873164415,-0.03053721971809864
1772534296623365600,9.72036572265625,-0.024631185457110405,-0.02645592950284481,-0.024282438680529594
1772534296633381600,9.730381591796874,-0.027893289923667908,0.010084770619869232,-0.0213116817176342
1772534296643398400,9.7403984375,-0.029637254774570465,0.00872813630849123,-0.017649978399276733
1772534296653414400,9.750414306640625,-0.025787655264139175,0.00033545028418302536,-0.015388420782983303
1772534296663431700,9.760431640625,-0.02488791011273861,0.001876744208857417,-0.01542663387954235
1772534296673447700,9.77044775390625,-0.028670132160186768,0.016004281118512154,-0.0126526840031147
1772534296683464400,9.78046435546875,-0.02697715535759926,0.002279250882565975,-0.007420910522341728
1772534296693480400,9.79048046875,-0.021117135882377625,0.0056137945502996445,-0.0035502719692885876
1772534296703496700,9.80049658203125,-0.0047962861135602,-0.006270848214626312,0.0014187197666615248
1772534296713513700,9.810513671875,0.0071069784462451935,-0.0049643018282949924,-0.00224339310079813
1772534296723529500,9.820529541015626,0.0095022302120924,0.0025057026650756598,-0.010062973946332932
1772534296733546500,9.83054638671875,0.011356855742633343,0.01433839276432991,-0.019351813942193985
1772534296743562800,9.840562744140625,0.011384273879230022,0.004384253174066544,-0.02247222140431404
1772534296753579500,9.85057958984375,0.007392461411654949,0.006662853993475437,-0.026093322783708572
1772534296763595500,9.860595458984376,0.003817707998678088,0.013035205192863941,-0.028061406686902046
1772534296773611500,9.870611572265625,0.007031344808638096,0.006119774654507637,-0.029939735308289528
1772534296783628800,9.88062890625,0.010076671838760376,0.007701877038925886,-0.029884345829486847
1772534296793644500,9.89064453125,0.013098826631903648,-0.005164652597159147,-0.03190302103757858
1772534296803661600,9.90066162109375,0.009728923439979553,-0.0037713698111474514,-0.031000535935163498
1772534296813677600,9.910677490234375,0.009132109582424164,-0.003014232963323593,-0.026422560214996338
1772534296823694600,9.920694580078125,0.0015270528383553028,-0.003580380231142044,-0.026566503569483757
1772534296833710600,9.930710693359375,-0.0032341463956981897,0.0008521850686520338,-0.023802675306797028
1772534296843726600,9.9407265625,-0.007442076224833727,0.0015809487085789442,-0.025017205625772476
1772534296853743600,9.95074365234375,-0.008388831280171871,0.0028371617663651705,-0.03099307231605053
1772534296863759600,9.960759521484375,-0.013803699985146523,0.006260265596210957,-0.03524041920900345
1772534296873776600,9.970776611328125,-0.021298101171851158,0.010868599638342857,-0.03475918620824814
1772534296883792600,9.980792724609374,-0.02352064475417137,0.003193492768332362,-0.030301185324788094
1772534296893809700,9.9908095703125,-0.02183646149933338,-0.00044198823161423206,-0.02762710489332676
1772534296903825400,10.000825439453125,-0.01326786819845438,-0.011643263511359692,-0.025776617228984833
1772534296913841400,10.01084130859375,-0.008578573353588581,-0.010657894425094128,-0.026201125234365463
1772534296923858700,10.020858642578125,-0.0025284679140895605,-0.0052515119314193726,-0.034476835280656815
1772534296933874700,10.030874755859376,-0.003816904965788126,0.0017451443709433079,-0.04024604335427284
1772534296943891500,10.040891357421875,-0.005140701308846474,0.00801174622029066,-0.04216810315847397
1772534296953907500,10.050907470703125,-0.002586463699117303,0.00004596472717821598,-0.0375099703669548
1772534296963924700,10.0609248046875,-0.0001861491473391652,-0.007429240271449089,-0.02992290072143078
1772534296973940700,10.070940673828124,0.000647420238237828,-0.008790381252765656,-0.02445090189576149
1772534296983956500,10.08095654296875,0.003172761294990778,-0.005574041046202183,-0.015897225588560104
1772534296993973500,10.090973388671875,0.007548601366579533,-0.005999614484608173,-0.011140021495521069
1772534297003989800,10.10098974609375,0.009102346375584602,-0.006438955664634705,-0.005318404175341129
1772534297014006500,10.111006591796874,0.013837446458637714,-0.009522097185254097,0.0046221106313169
1772534297024022500,10.1210224609375,0.01814652793109417,-0.021558351814746857,0.010194946080446243
1772534297034039600,10.13103955078125,0.02092633582651615,-0.020766060799360275,0.009899601340293884
1772534297044055800,10.141055908203125,0.017881011590361595,-0.011158174835145473,0.0025924197398126125
1772534297054071600,10.151071533203124,0.011616172268986702,-0.0014866030542179942,-0.004793563392013311
1772534297064088600,10.161088623046876,0.006480532698333263,0.007040838710963726,-0.014321023598313332
1772534297074104600,10.1711044921875,-0.00023409118875861168,0.008659078739583492,-0.017651043832302094
1772534297084121600,10.18112158203125,-0.002181663177907467,0.0062404777854681015,-0.020545631647109985
1772534297094137600,10.1911376953125,0.0033657012972980738,-0.0014944076538085938,-0.021210357546806335
1772534297104154600,10.201154541015624,0.006632264703512192,-0.005777959246188402,-0.021753570064902306
1772534297114170600,10.211170654296875,0.009469596669077873,-0.008198239840567112,-0.022226281464099884
1772534297124187400,10.2211875,0.010482261888682842,-0.008951607160270214,-0.02282828837633133
1772534297134203600,10.23120361328125,0.012649009935557842,-0.007515097968280315,-0.02578306570649147
1772534297144219600,10.2412197265625,0.015918780118227005,-0.006576599553227425,-0.03354132920503616
1772534297154236700,10.251236572265626,0.019932696595788002,-0.009479179047048092,-0.03862743452191353
1772534297164252400,10.26125244140625,0.0223234836012125,0.0011198748834431171,-0.04807879403233528
1772534297174269700,10.271269775390625,0.024395156651735306,-0.013394620269536972,-0.04874671623110771
1772534297184285700,10.28128564453125,0.027331629768013954,-0.008097467944025993,-0.041961055248975754
1772534297194302500,10.291302490234376,0.02442825213074684,-0.012743618339300156,-0.03638892248272896
1772534297204318500,10.301318359375,0.013237638399004936,-0.009097957983613014,-0.03178190439939499
1772534297214334500,10.31133447265625,-0.0000182453659363091,-0.0019257990643382072,-0.018240798264741898
1772534297224351700,10.321351806640624,-0.008536968380212784,-0.0023056890349835157,-0.00023003481328487396
1772534297234367500,10.331367431640626,-0.008420854806900024,-0.014142640866339207,0.023576760664582253
1772534297244384500,10.341384521484375,-0.003047709818929434,-0.040533024817705154,0.05111495032906532
1772534297254400500,10.351400390625,0.007976445369422436,-0.0568893626332283,0.08225449919700623
1772534297264417500,10.36141748046875,0.018547121435403824,-0.06307748705148697,0.10376452654600143
1772534297274433500,10.37143359375,0.019468575716018677,-0.04562712460756302,0.1023610457777977
1772534297284449500,10.381449462890625,0.003810141235589981,-0.0435919314622879,0.08591586351394653
1772534297294466600,10.391466552734375,-0.009091010317206383,-0.016111303120851517,0.05888637155294418
1772534297304482800,10.40148291015625,-0.02707715891301632,0.015098684467375278,0.025108404457569122
1772534297314499600,10.41149951171875,-0.024954618886113167,0.020946985110640526,0.0030694161541759968
1772534297324515600,10.421515625,-0.013965742662549019,0.01684223860502243,-0.01473316177725792
1772534297334532600,10.43153271484375,0.0032838177867233753,-0.003582877106964588,-0.011299548670649529
1772534297344548600,10.441548583984375,0.023380298167467117,-0.017566602677106857,0.008352981880307198
1772534297354564600,10.451564697265624,0.02976416051387787,-0.030240319669246674,0.03224872797727585
1772534297364581600,10.46158154296875,0.027471443638205528,-0.03423871099948883,0.0536661371588707
1772534297374597600,10.47159765625,0.020525120198726654,-0.039430275559425354,0.06866133213043213
1772534297384614700,10.48161474609375,0.01407361775636673,-0.037078335881233215,0.07875843346118927
1772534297394630700,10.491630615234374,0.0026566465385258198,-0.029779674485325813,0.08728667348623276
1772534297404647700,10.501647705078126,-0.011514042504131794,-0.03164231404662132,0.08858418464660645
1772534297414663700,10.51166357421875,-0.02174084633588791,-0.02590852603316307,0.08853012323379517
1772534297424679400,10.521679443359375,-0.030574876815080643,-0.016755424439907074,0.0906258150935173
1772534297434696700,10.53169677734375,-0.033000752329826355,-0.014472829177975655,0.08939463645219803
1772534297444712700,10.541712646484376,-0.034234464168548584,-0.020336803048849106,0.08495873957872391
1772534297454729500,10.5517294921875,-0.03206638619303703,-0.018998032435774803,0.09591205418109894
1772534297464745500,10.561745361328125,-0.02785572223365307,-0.041526347398757935,0.11215926706790924
1772534297474762800,10.5717626953125,-0.02660856395959854,-0.06783198565244675,0.11314836144447327
1772534297484778800,10.58177880859375,-0.021092429757118225,-0.06374069303274155,0.10336345434188843
1772534297494794500,10.59179443359375,-0.022004297003149986,-0.06392046064138412,0.07409850507974625
1772534297504811500,10.6018115234375,-0.03307386487722397,-0.050540003925561905,0.057415809482336044
1772534297514827800,10.611827880859375,-0.05376875400543213,-0.0307156965136528,0.04427657276391983
1772534297524844500,10.621844482421874,-0.06397305428981781,-0.024522824212908745,0.03614367917180061
1772534297534860500,10.631860595703126,-0.06732624024152756,-0.03502979129552841,0.012998675927519798
1772534297544877600,10.641877685546875,-0.07345611602067947,-0.0254424549639225,0.003429747186601162
1772534297554893800,10.651893798828125,-0.07287927716970444,-0.0453525111079216,0.028200872242450714
1772534297564909800,10.661909912109374,-0.08786194771528244,-0.047348715364933014,0.07956845313310623
1772534297574926600,10.671926513671876,-0.10442227870225906,-0.03901754692196846,0.1304801106452942
1772534297584942600,10.681942626953125,-0.10511642694473267,-0.06717154383659363,0.15572060644626617
1772534297594959600,10.691959716796875,-0.09431544691324234,-0.09451395273208618,0.14679741859436035
1772534297604975600,10.7019755859375,-0.0892934575676918,-0.08531066030263901,0.13684484362602234
1772534297614992600,10.71199267578125,-0.0805865228176117,-0.06138642132282257,0.12525716423988342
1772534297625008600,10.722008544921875,-0.06770386546850204,-0.041512250900268555,0.10874010622501373
1772534297635024600,10.732024658203125,-0.04380252957344055,-0.027836652472615242,0.07973934710025787
1772534297645041700,10.742041748046875,-0.02106453850865364,-0.02381017990410328,0.03424197807908058
1772534297655057700,10.7520576171875,-0.013342170044779778,-0.010473603382706642,-0.01750590279698372
1772534297665074700,10.76207470703125,-0.020610054954886436,0.01490507647395134,-0.06142131984233856
1772534297675090400,10.77209033203125,-0.04547572135925293,0.03230244293808937,-0.0811859741806984
1772534297685107700,10.782107666015625,-0.08200237900018692,0.026045938953757286,-0.07879970222711563
1772534297695123700,10.792123779296874,-0.11393260955810547,0.011159934103488922,-0.07456687837839127
1772534297705139700,10.8021396484375,-0.11798576265573502,0.00959188025444746,-0.05716941878199577
1772534297715156500,10.812156494140625,-0.10584200918674469,0.014821795746684074,-0.04573806747794151
1772534297725172500,10.82217236328125,-0.08836134523153305,0.00572462473064661,-0.04373132437467575
1772534297735189800,10.832189697265624,-0.07112137228250504,0.005019419826567173,-0.0653173103928566
1772534297745205800,10.842205810546876,-0.06178513169288635,0.016496844589710236,-0.08451550453901291
1772534297755222500,10.852222412109375,-0.06777431070804596,0.038398683071136475,-0.10164709389209747
1772534297765238500,10.862238525390625,-0.07182478159666061,0.047434501349925995,-0.12291955202817917
1772534297775254800,10.8722548828125,-0.06137959659099579,0.04763636738061905,-0.1373906433582306
1772534297785271600,10.882271484375,-0.05635913833975792,0.047987330704927444,-0.12414553761482239
1772534297795287600,10.89228759765625,-0.05738871544599533,0.035412948578596115,-0.0886799618601799
1772534297805304600,10.9023046875,-0.08115961402654648,0.014486901462078094,-0.0450003407895565
1772534297815320800,10.91232080078125,-0.12367112189531326,0.0006901279557496309,0.006160582881420851
1772534297825336600,10.922336669921876,-0.12979687750339508,-0.019986044615507126,0.04010891541838646
1772534297835353600,10.932353515625,-0.11202266812324524,-0.040259093046188354,0.045322321355342865
1772534297845369600,10.94236962890625,-0.0831436812877655,-0.03201324865221977,0.018956555053591728
1772534297855386600,10.95238671875,-0.056782376021146774,-0.009323914535343647,-0.011854356154799461
1772534297865402600,10.962402587890624,-0.0496574230492115,0.019210156053304672,-0.037178028374910355
1772534297875419600,10.972419677734376,-0.042330797761678696,0.03401440382003784,-0.06750024855136871
1772534297885435600,10.982435546875,-0.03655581176280975,0.03439740091562271,-0.10648058354854584
1772534297895451600,10.99245166015625,-0.03678058460354805,0.0344698391854763,-0.13340194523334503
1772534297905468700,11.00246875,-0.0339251346886158,0.04234137013554573,-0.14456912875175476
1772534297915484700,11.012484619140626,-0.019756050780415535,0.038574595004320145,-0.15105046331882477
1772534297925501700,11.022501708984375,-0.005089941900223494,0.030957918614149094,-0.1314091980457306
1772534297935517400,11.032517333984375,0.00046967287198640406,0.01060098223388195,-0.10041666775941849
1772534297945534700,11.04253466796875,0.007319166325032711,-0.015521092340350151,-0.07625124603509903
1772534297955550700,11.05255078125,0.012295016087591648,-0.02374999225139618,-0.05604663863778114
1772534297965566700,11.062566650390625,0.022232813760638237,-0.029641252011060715,-0.06222112849354744
1772534297975583500,11.07258349609375,0.02587255649268627,-0.029519012197852135,-0.08396343886852264
1772534297985599500,11.082599609375,0.015388689935207367,-0.012835393659770489,-0.08634477853775024
1772534297995616800,11.09261669921875,-0.00784845557063818,0.004482610616832972,-0.07917767763137817
1772534298005632500,11.102632568359375,-0.031064553186297417,0.00721024489030242,-0.07554008066654205
1772534298015649500,11.1126494140625,-0.03787451982498169,0.004436030052602291,-0.0695575550198555
1772534298025665500,11.12266552734375,-0.04034741595387459,0.007909154519438744,-0.05197547376155853
1772534298035681800,11.132681884765624,-0.03546317666769028,0.003101350273936987,-0.026638958603143692
1772534298045698600,11.142698486328126,-0.03079252690076828,-0.005570967216044664,0.0007324768230319023
1772534298055714600,11.152714599609375,-0.02845979481935501,-0.028946658596396446,0.019276795908808708
1772534298065731600,11.162731689453125,-0.026866957545280457,-0.033150989562273026,0.014094285666942596
1772534298075747800,11.172747802734374,-0.02273041382431984,-0.01801960915327072,-0.009483061730861664
1772534298085764600,11.1827646484375,-0.017177918925881386,-0.009810024872422218,-0.03713313862681389
1772534298095780600,11.192780517578125,-0.011139732785522938,-0.014828752726316452,-0.06191065534949303
1772534298105796600,11.202796630859375,-0.009646022692322731,-0.02454955317080021,-0.06818340718746185
1772534298115813600,11.212813720703124,-0.007164489943534136,-0.02197960391640663,-0.04361868277192116
1772534298125829600,11.22282958984375,0.0007288602646440268,-0.029869643971323967,-0.02162204496562481
1772534298135846700,11.2328466796875,0.011178039014339447,-0.044127143919467926,0.009715902619063854
1772534298145862700,11.242862548828125,0.030476100742816925,-0.06933680921792984,0.042437635362148285
1772534298155878700,11.252878662109374,0.03856625035405159,-0.10935933142900467,0.07019762694835663
1772534298165895700,11.262895751953126,0.05856338143348694,-0.17420564591884613,0.18018512427806854
1772534298175911700,11.27291162109375,0.08832819759845734,-0.19114388525485992,0.20807188749313354
1772534298185928700,11.2829287109375,0.0906267985701561,-0.17455002665519714,0.20969584584236145
1772534298195944400,11.2929443359375,0.0488860122859478,-0.08906842023134232,0.15152494609355927
1772534298205961700,11.302961669921874,0.01921207085251808,-0.04678352177143097,0.08943941444158554
1772534298215977700,11.312977783203126,0.0026293653063476086,-0.012202108278870583,0.041697993874549866
1772534298225993700,11.32299365234375,-0.012333826161921024,0.020388562232255936,0.00968782790005207
1772534298236010500,11.333010498046875,-0.021986454725265503,-0.0003582609351724386,-0.0016780109144747257
1772534298246026500,11.343026611328124,-0.013040530495345592,0.010807136073708534,-0.01864272728562355
1772534298256043800,11.353043701171876,-0.0050214859656989574,0.0030751805752515793,-0.036126915365457535
1772534298266059500,11.3630595703125,0.00941421464085579,0.014303199015557766,-0.06290129572153091
1772534298276076500,11.37307666015625,0.024652821943163872,0.05568499490618706,-0.09381366521120071
1772534298286092500,11.383092529296874,0.04366247355937958,0.05208477005362511,-0.09849125146865845
