time,seconds_elapsed,z,y,x
1772535201012352000,0.04735205078125,-0.9995269775390625,-0.0182647705078125,0.0132904052734375
1772535201022368000,0.057367919921875,-0.998992919921875,-0.0172119140625,0.0128173828125
1772535201032384000,0.067384033203125,-0.999481201171875,-0.0176239013671875,0.014404296875
1772535201042400000,0.07739990234375,-0.998016357421875,-0.0187835693359375,0.0142364501953125
1772535201052416000,0.087416015625,-0.9998779296875,-0.020111083984375,0.0137939453125
1772535201062432000,0.097431884765625,-0.9991455078125,-0.018829345703125,0.013397216796875
1772535201072448000,0.107447998046875,-0.998992919921875,-0.0179595947265625,0.0135345458984375
1772535201082464000,0.117464111328125,-1.0004119873046875,-0.0178375244140625,0.0139312744140625
1772535201092480000,0.12747998046875,-0.9990692138671875,-0.0171356201171875,0.013427734375
1772535201102496000,0.13749609375,-0.9995574951171875,-0.0188751220703125,0.0128936767578125
1772535201112512000,0.147511962890625,-0.9994964599609375,-0.0179443359375,0.0140838623046875
1772535201122528000,0.157528076171875,-0.9996795654296875,-0.0183258056640625,0.0138397216796875
1772535201132544000,0.1675439453125,-0.999908447265625,-0.01788330078125,0.01312255859375
1772535201142560000,0.17756005859375,-0.9991607666015625,-0.018798828125,0.012969970703125
1772535201152576000,0.187575927734375,-0.9999237060546875,-0.0174407958984375,0.0141754150390625
1772535201162592000,0.197592041015625,-0.9992218017578125,-0.0186309814453125,0.0141754150390625
1772535201172608000,0.20760791015625,-0.998809814453125,-0.0177001953125,0.013885498046875
1772535201182623700,0.217623779296875,-0.9996490478515625,-0.017913818359375,0.0149688720703125
1772535201192640000,0.227639892578125,-0.998687744140625,-0.0183563232421875,0.013214111328125
1772535201202656000,0.237656005859375,-1.0011749267578125,-0.0177154541015625,0.01397705078125
1772535201212672000,0.247672119140625,-0.999847412109375,-0.0169830322265625,0.0133209228515625
1772535201222688000,0.25768798828125,-1.000274658203125,-0.017303466796875,0.014862060546875
1772535201232704000,0.2677041015625,-0.997802734375,-0.0183258056640625,0.014801025390625
1772535201242720500,0.277720458984375,-0.9989776611328125,-0.0179595947265625,0.013458251953125
1772535201252736500,0.287736572265625,-0.9989471435546875,-0.0186614990234375,0.0145111083984375
1772535201262752500,0.29775244140625,-0.998565673828125,-0.019744873046875,0.0140228271484375
1772535201272768500,0.3077685546875,-0.9990997314453125,-0.018280029296875,0.013702392578125
1772535201282784500,0.317784423828125,-0.99951171875,-0.0185394287109375,0.014251708984375
1772535201292800800,0.32780078125,-0.9993133544921875,-0.018524169921875,0.01483154296875
1772535201302816500,0.33781640625,-0.99896240234375,-0.0178985595703125,0.013641357421875
1772535201312832500,0.34783251953125,-0.9989166259765625,-0.0172576904296875,0.0142669677734375
1772535201322848500,0.3578486328125,-0.9997100830078125,-0.01910400390625,0.0131683349609375
1772535201332864500,0.367864501953125,-0.99945068359375,-0.0189361572265625,0.014129638671875
1772535201342880500,0.377880615234375,-0.999053955078125,-0.01806640625,0.01385498046875
1772535201352896500,0.387896484375,-0.999053955078125,-0.0176849365234375,0.012115478515625
1772535201362912800,0.397912841796875,-0.9996185302734375,-0.01995849609375,0.0141143798828125
1772535201372928500,0.407928466796875,-0.999755859375,-0.017822265625,0.0135345458984375
1772535201382944500,0.417944580078125,-0.99981689453125,-0.018768310546875,0.013763427734375
1772535201392960500,0.42796044921875,-0.9993133544921875,-0.018218994140625,0.012969970703125
1772535201402976500,0.4379765625,-1.0008087158203125,-0.017913818359375,0.0144805908203125
1772535201412992500,0.447992431640625,-1.0009613037109375,-0.0172882080078125,0.013519287109375
1772535201423008800,0.4580087890625,-0.9997406005859375,-0.0168914794921875,0.0139312744140625
1772535201433024800,0.468024658203125,-0.998291015625,-0.0175323486328125,0.0141754150390625
1772535201443040500,0.47804052734375,-0.9995574951171875,-0.017303466796875,0.01397705078125
1772535201453056500,0.488056396484375,-0.9987335205078125,-0.01715087890625,0.013916015625
1772535201463072500,0.498072509765625,-0.998504638671875,-0.018768310546875,0.0146331787109375
1772535201473088500,0.508088623046875,-0.9996795654296875,-0.01824951171875,0.0137481689453125
1772535201483104500,0.5181044921875,-0.9991607666015625,-0.01788330078125,0.01275634765625
1772535201493120800,0.528120849609375,-0.99896240234375,-0.0181121826171875,0.01373291015625
1772535201503136500,0.538136474609375,-0.9988250732421875,-0.0170135498046875,0.0125885009765625
1772535201513152500,0.548152587890625,-0.9994354248046875,-0.017242431640625,0.0145111083984375
1772535201523168500,0.55816845703125,-0.999298095703125,-0.0179901123046875,0.01318359375
1772535201533184500,0.5681845703125,-0.99896240234375,-0.0178680419921875,0.0137939453125
1772535201543200500,0.578200439453125,-1.00018310546875,-0.0191497802734375,0.0124969482421875
1772535201553216500,0.588216552734375,-0.999786376953125,-0.018310546875,0.013916015625
1772535201563232800,0.598232666015625,-1,-0.018096923828125,0.0151824951171875
1772535201573248500,0.60824853515625,-0.9999847412109375,-0.0196685791015625,0.01422119140625
1772535201583264500,0.618264404296875,-0.9988250732421875,-0.0187225341796875,0.013427734375
1772535201593280500,0.628280517578125,-0.999298095703125,-0.01739501953125,0.0142364501953125
1772535201603297500,0.638297607421875,-0.999664306640625,-0.017303466796875,0.014434814453125
1772535201613313800,0.648313720703125,-0.9981536865234375,-0.0167999267578125,0.0125732421875
1772535201623329500,0.65832958984375,-0.9994964599609375,-0.0176849365234375,0.014068603515625
1772535201633345500,0.668345458984375,-0.99969482421875,-0.019622802734375,0.014556884765625
1772535201643361500,0.678361572265625,-1.000091552734375,-0.0186309814453125,0.014068603515625
1772535201653377500,0.68837744140625,-0.999664306640625,-0.018218994140625,0.0138092041015625
1772535201663393500,0.6983935546875,-1.0002288818359375,-0.019195556640625,0.0136566162109375
1772535201673409500,0.708409423828125,-0.9992828369140625,-0.0180206298828125,0.01336669921875
1772535201683425800,0.71842578125,-0.9995574951171875,-0.017242431640625,0.014434814453125
1772535201693441500,0.728441650390625,-0.998565673828125,-0.0181884765625,0.0131072998046875
1772535201703457500,0.73845751953125,-0.9991912841796875,-0.0171661376953125,0.015106201171875
1772535201713473500,0.7484736328125,-0.999481201171875,-0.018218994140625,0.013885498046875
1772535201723489500,0.758489501953125,-0.9992523193359375,-0.01788330078125,0.0130462646484375
1772535201733505500,0.768505615234375,-0.99932861328125,-0.018218994140625,0.0138702392578125
1772535201743521500,0.778521484375,-0.9996795654296875,-0.0175628662109375,0.013275146484375
1772535201753537500,0.78853759765625,-0.999908447265625,-0.018280029296875,0.0129852294921875
1772535201763553500,0.798553466796875,-0.998931884765625,-0.0178375244140625,0.0139617919921875
1772535201773569500,0.808569580078125,-0.99951171875,-0.0167388916015625,0.01568603515625
1772535201783585500,0.81858544921875,-0.9993438720703125,-0.017730712890625,0.0136566162109375
1772535201793601500,0.8286015625,-0.9993133544921875,-0.0185699462890625,0.0133209228515625
1772535201803617500,0.838617431640625,-0.999755859375,-0.0181732177734375,0.013458251953125
1772535201813633800,0.8486337890625,-0.99853515625,-0.0177459716796875,0.01373291015625
1772535201823649500,0.8586494140625,-0.997833251953125,-0.01690673828125,0.0152587890625
1772535201833665500,0.86866552734375,-0.9998626708984375,-0.0183868408203125,0.01336669921875
1772535201843681500,0.878681640625,-0.9996337890625,-0.0193328857421875,0.0134429931640625
1772535201853697500,0.888697509765625,-0.99908447265625,-0.0184326171875,0.01361083984375
1772535201863713500,0.898713623046875,-0.9996185302734375,-0.01824951171875,0.013427734375
1772535201873729500,0.9087294921875,-1.0000457763671875,-0.01904296875,0.014617919921875
1772535201883745800,0.918745849609375,-0.9992828369140625,-0.018096923828125,0.0146484375
1772535201893761500,0.928761474609375,-0.9994049072265625,-0.0183258056640625,0.015167236328125
1772535201903777500,0.938777587890625,-1.0007171630859375,-0.0184783935546875,0.0144500732421875
1772535201913793500,0.94879345703125,-0.9997100830078125,-0.0175018310546875,0.0136260986328125
1772535201923809500,0.9588095703125,-1.0008697509765625,-0.01806640625,0.0139617919921875
1772535201933825500,0.968825439453125,-0.9998931884765625,-0.0171661376953125,0.014862060546875
1772535201943841500,0.978841552734375,-0.999481201171875,-0.017974853515625,0.0136260986328125
1772535201953857500,0.988857421875,-0.9989776611328125,-0.018310546875,0.014739990234375
1772535201963873500,0.99887353515625,-0.9994659423828125,-0.018157958984375,0.0136566162109375
1772535201973889500,1.0088896484375,-1.00018310546875,-0.01812744140625,0.0121002197265625
1772535201983906600,1.018906494140625,-1.000244140625,-0.01763916015625,0.0130462646484375
1772535201993922600,1.028922607421875,-0.999298095703125,-0.0186920166015625,0.0138092041015625
1772535202003938600,1.0389384765625,-0.9995269775390625,-0.0186767578125,0.0131072998046875
1772535202013954600,1.04895458984375,-1.001220703125,-0.0186004638671875,0.01361083984375
1772535202023970600,1.058970458984375,-0.9991607666015625,-0.01666259765625,0.0131988525390625
1772535202033986600,1.068986572265625,-0.9990997314453125,-0.0182952880859375,0.014373779296875
1772535202044002600,1.07900244140625,-0.9984130859375,-0.0182952880859375,0.013946533203125
1772535202054018600,1.0890185546875,-0.998443603515625,-0.0186004638671875,0.0133056640625
1772535202064034600,1.09903466796875,-0.999298095703125,-0.016815185546875,0.0146026611328125
1772535202074050600,1.109050537109375,-0.99932861328125,-0.0182952880859375,0.0135650634765625
1772535202084066600,1.119066650390625,-0.999267578125,-0.0188751220703125,0.01287841796875
1772535202094082600,1.12908251953125,-0.9998626708984375,-0.0168609619140625,0.014251708984375
1772535202104098600,1.1390986328125,-1.0001220703125,-0.0181732177734375,0.01220703125
1772535202114114600,1.149114501953125,-0.99969482421875,-0.0182952880859375,0.014404296875
1772535202124130600,1.159130615234375,-0.999725341796875,-0.0179901123046875,0.0147857666015625
1772535202134146600,1.169146484375,-0.9994354248046875,-0.01812744140625,0.0138397216796875
1772535202144162600,1.17916259765625,-0.9994659423828125,-0.0186614990234375,0.0144500732421875
1772535202154178600,1.189178466796875,-1.0001983642578125,-0.0182647705078125,0.0147705078125
1772535202164194600,1.199194580078125,-1.000396728515625,-0.0180206298828125,0.014892578125
1772535202174210600,1.20921044921875,-0.9994354248046875,-0.0188751220703125,0.0145263671875
1772535202184226600,1.2192265625,-0.99853515625,-0.0184173583984375,0.0135955810546875
1772535202194242600,1.22924267578125,-0.9996795654296875,-0.0176849365234375,0.0132904052734375
1772535202204258600,1.239258544921875,-1.00048828125,-0.017578125,0.0141754150390625
1772535202214274600,1.249274658203125,-0.999847412109375,-0.0196533203125,0.0133209228515625
1772535202224290600,1.25929052734375,-0.9990081787109375,-0.018280029296875,0.014617919921875
1772535202234306600,1.269306640625,-1.0003509521484375,-0.0177764892578125,0.0144500732421875
1772535202244323300,1.2793232421875,-0.9994049072265625,-0.0178985595703125,0.0136871337890625
1772535202254339300,1.28933935546875,-0.99853515625,-0.01751708984375,0.0140380859375
1772535202264355000,1.29935498046875,-0.999542236328125,-0.01727294921875,0.0136566162109375
1772535202274371000,1.30937109375,-0.9989776611328125,-0.0184173583984375,0.014373779296875
1772535202284387000,1.319386962890625,-0.9994964599609375,-0.0185089111328125,0.01507568359375
1772535202294403000,1.329403076171875,-0.9990081787109375,-0.017333984375,0.0137939453125
1772535202304419300,1.33941943359375,-0.99810791015625,-0.0178680419921875,0.0133514404296875
1772535202314435300,1.349435302734375,-0.9995269775390625,-0.0189056396484375,0.014617919921875
1772535202324451300,1.359451416015625,-1.000518798828125,-0.0184173583984375,0.015411376953125
1772535202334467000,1.369467041015625,-0.99908447265625,-0.0186309814453125,0.012603759765625
1772535202344483000,1.379483154296875,-0.999725341796875,-0.0173797607421875,0.0134735107421875
1772535202354499000,1.3894990234375,-1.000091552734375,-0.018096923828125,0.0142669677734375
1772535202364515300,1.399515380859375,-0.99853515625,-0.019500732421875,0.0131378173828125
1772535202374532000,1.409531982421875,-0.9995574951171875,-0.0180816650390625,0.013336181640625
1772535202384548000,1.419548095703125,-1.0008697509765625,-0.0174560546875,0.0146026611328125
1772535202394564000,1.429564208984375,-0.9975738525390625,-0.0190277099609375,0.01409912109375
1772535202404580000,1.439580078125,-0.9994049072265625,-0.0185089111328125,0.01361083984375
1772535202414596000,1.44959619140625,-0.99920654296875,-0.0171356201171875,0.013671875
1772535202424612400,1.4596123046875,-0.9984130859375,-0.01788330078125,0.0146942138671875
1772535202434628400,1.46962841796875,-1.0003662109375,-0.0180206298828125,0.013885498046875
1772535202444644000,1.47964404296875,-1.0002288818359375,-0.017547607421875,0.0131072998046875
1772535202454660000,1.48966015625,-0.9999237060546875,-0.017303466796875,0.0139923095703125
1772535202464676000,1.499676025390625,-0.9988250732421875,-0.01788330078125,0.0145721435546875
1772535202474692000,1.509692138671875,-0.9987640380859375,-0.016998291015625,0.013824462890625
1772535202484708000,1.5197080078125,-0.9980926513671875,-0.0185546875,0.014129638671875
1772535202494724400,1.529724365234375,-1.000152587890625,-0.0180816650390625,0.0129547119140625
1772535202504740400,1.539740234375,-1.0001373291015625,-0.0172882080078125,0.01446533203125
1772535202514756000,1.549756103515625,-0.9997406005859375,-0.0185394287109375,0.013641357421875
1772535202524772000,1.559772216796875,-0.9998779296875,-0.0188751220703125,0.0131072998046875
1772535202534788000,1.5697880859375,-0.999908447265625,-0.01708984375,0.0125274658203125
1772535202544804000,1.57980419921875,-0.9991302490234375,-0.0173492431640625,0.013580322265625
1772535202554820400,1.5898203125,-0.9990997314453125,-0.0179901123046875,0.012603759765625
1772535202564836400,1.59983642578125,-0.9989013671875,-0.0188446044921875,0.0141754150390625
1772535202574852400,1.609852294921875,-0.999267578125,-0.0184173583984375,0.0143280029296875
1772535202584868000,1.6198681640625,-0.99981689453125,-0.0200653076171875,0.0135040283203125
1772535202594884000,1.629884033203125,-0.9980010986328125,-0.0174560546875,0.0139007568359375
1772535202604900000,1.639900146484375,-0.9991912841796875,-0.017822265625,0.0153045654296875
1772535202614916000,1.649916015625,-0.9987640380859375,-0.018341064453125,0.01385498046875
1772535202624932400,1.659932373046875,-0.9981231689453125,-0.01837158203125,0.013671875
1772535202634948400,1.6699482421875,-1.0001068115234375,-0.0182647705078125,0.0138397216796875
1772535202644964000,1.679964111328125,-1.0000152587890625,-0.0179595947265625,0.0137786865234375
1772535202654980000,1.68997998046875,-0.998809814453125,-0.0192108154296875,0.0144195556640625
1772535202664996000,1.69999609375,-0.9991912841796875,-0.0180206298828125,0.014251708984375
1772535202675012000,1.71001220703125,-0.998992919921875,-0.0174713134765625,0.014251708984375
1772535202685028000,1.720028076171875,-0.99932861328125,-0.0174560546875,0.0138397216796875
1772535202695044400,1.73004443359375,-0.9985198974609375,-0.0191192626953125,0.0143280029296875
1772535202705060400,1.740060302734375,-0.9996795654296875,-0.0176544189453125,0.0141448974609375
1772535202715076000,1.750076171875,-1.0003204345703125,-0.017608642578125,0.0139312744140625
1772535202725092000,1.760092041015625,-0.9992828369140625,-0.017547607421875,0.013153076171875
1772535202735108000,1.770108154296875,-0.997833251953125,-0.019683837890625,0.0131072998046875
1772535202745124000,1.7801240234375,-0.9997711181640625,-0.0181121826171875,0.01483154296875
1772535202755140400,1.790140380859375,-0.999114990234375,-0.017547607421875,0.01397705078125
1772535202765156400,1.80015625,-0.9990234375,-0.0172271728515625,0.0139617919921875
1772535202775172400,1.81017236328125,-0.999847412109375,-0.0174407958984375,0.01318359375
1772535202785189000,1.820189208984375,-0.99969482421875,-0.0184326171875,0.012786865234375
1772535202795205000,1.830205078125,-0.99908447265625,-0.01812744140625,0.013671875
1772535202805221000,1.84022119140625,-1.0000762939453125,-0.0180206298828125,0.01300048828125
1772535202815237400,1.8502373046875,-0.998931884765625,-0.01837158203125,0.0142974853515625
1772535202825253400,1.86025341796875,-0.999237060546875,-0.01898193359375,0.014556884765625
1772535202835269000,1.87026904296875,-1.000885009765625,-0.0181121826171875,0.0134735107421875
1772535202845285000,1.88028515625,-0.999053955078125,-0.0174560546875,0.0128173828125
1772535202855301000,1.890301025390625,-1.000640869140625,-0.0181884765625,0.0145263671875
1772535202865317000,1.900317138671875,-0.999542236328125,-0.0184173583984375,0.01275634765625
1772535202875333000,1.9103330078125,-0.9993896484375,-0.018798828125,0.013641357421875
1772535202885349400,1.920349365234375,-1,-0.019317626953125,0.0142974853515625
1772535202895365000,1.930365234375,-0.999603271484375,-0.0188140869140625,0.0133056640625
1772535202905381000,1.940381103515625,-0.998809814453125,-0.01812744140625,0.01416015625
1772535202915397000,1.950397216796875,-0.9994964599609375,-0.018280029296875,0.0129547119140625
1772535202925413000,1.9604130859375,-0.999664306640625,-0.0168304443359375,0.0137176513671875
1772535202935429000,1.97042919921875,-0.9995574951171875,-0.0178375244140625,0.0153350830078125
1772535202945445400,1.9804453125,-0.99945068359375,-0.01788330078125,0.01361083984375
1772535202955461400,1.99046142578125,-1.000244140625,-0.017852783203125,0.0136566162109375
1772535202965477000,2.00047705078125,-0.99993896484375,-0.017852783203125,0.0131683349609375
1772535202975493000,2.0104931640625,-0.998443603515625,-0.0183563232421875,0.0128936767578125
1772535202985509000,2.020509033203125,-0.999359130859375,-0.0173797607421875,0.0136260986328125
1772535202995525000,2.030525146484375,-0.9993133544921875,-0.0174560546875,0.013702392578125
1772535203005541000,2.040541015625,-0.9986114501953125,-0.01898193359375,0.0136566162109375
1772535203015557400,2.050557373046875,-1.0002288818359375,-0.016876220703125,0.0137939453125
1772535203025573400,2.060573486328125,-0.9993896484375,-0.018310546875,0.01251220703125
1772535203035589000,2.070589111328125,-0.9989013671875,-0.0188140869140625,0.012969970703125
1772535203045605000,2.080605224609375,-1.000701904296875,-0.0179443359375,0.013458251953125
1772535203055621000,2.09062109375,-0.9979400634765625,-0.01751708984375,0.0140838623046875
1772535203065637000,2.10063720703125,-0.9999847412109375,-0.0181732177734375,0.0152587890625
1772535203075653000,2.110653076171875,-0.999176025390625,-0.017333984375,0.014495849609375
1772535203085669400,2.12066943359375,-0.99835205078125,-0.0177764892578125,0.0138702392578125
1772535203095685000,2.13068505859375,-0.99969482421875,-0.017425537109375,0.014404296875
1772535203105701000,2.140701171875,-0.9993438720703125,-0.018035888671875,0.0146636962890625
1772535203115717000,2.150717041015625,-0.9990997314453125,-0.0169525146484375,0.01361083984375
1772535203125733000,2.160733154296875,-0.9991607666015625,-0.0186920166015625,0.0135498046875
1772535203135749000,2.1707490234375,-0.99798583984375,-0.0182647705078125,0.013671875
1772535203145765400,2.180765380859375,-1.00006103515625,-0.0177154541015625,0.0134124755859375
1772535203155781400,2.190781494140625,-0.998992919921875,-0.018341064453125,0.0146484375
1772535203165797000,2.200797119140625,-0.9989776611328125,-0.0184783935546875,0.013519287109375
1772535203175813000,2.210813232421875,-0.99932861328125,-0.0178070068359375,0.0132293701171875
1772535203185829000,2.2208291015625,-0.99945068359375,-0.018280029296875,0.0142822265625
1772535203195845000,2.23084521484375,-0.9998779296875,-0.01934814453125,0.014251708984375
1772535203205861000,2.240861083984375,-0.9993743896484375,-0.018646240234375,0.0131378173828125
1772535203215878100,2.250878173828125,-1.0003509521484375,-0.017852783203125,0.014556884765625
1772535203225894100,2.26089404296875,-0.9990234375,-0.0182342529296875,0.0136871337890625
1772535203235910100,2.27091015625,-0.9993133544921875,-0.0185089111328125,0.014251708984375
1772535203245925600,2.280925537109375,-0.9987335205078125,-0.0171356201171875,0.0140380859375
1772535203255941600,2.290941650390625,-0.9990386962890625,-0.0179290771484375,0.0133819580078125
1772535203265957600,2.30095751953125,-1.000335693359375,-0.0189666748046875,0.0146636962890625
1772535203275974000,2.310973876953125,-1.0006866455078125,-0.0178070068359375,0.0128326416015625
1772535203285990000,2.320989990234375,-1.0009918212890625,-0.0184478759765625,0.0143280029296875
1772535203296005600,2.331005615234375,-1.000579833984375,-0.01800537109375,0.012939453125
1772535203306021600,2.341021728515625,-0.9998321533203125,-0.017730712890625,0.0136566162109375
1772535203316037600,2.35103759765625,-1.0008544921875,-0.0186614990234375,0.0141448974609375
1772535203326053600,2.3610537109375,-0.99932861328125,-0.017852783203125,0.0138702392578125
1772535203336069600,2.371069580078125,-1.0005340576171875,-0.018310546875,0.0142364501953125
1772535203346086000,2.3810859375,-0.99847412109375,-0.017578125,0.0139923095703125
1772535203356101600,2.3911015625,-0.99853515625,-0.0181121826171875,0.01470947265625
1772535203366117600,2.40111767578125,-0.9989013671875,-0.0191192626953125,0.0140380859375
1772535203376133600,2.411133544921875,-0.9995880126953125,-0.0175628662109375,0.01336669921875
1772535203386149600,2.421149658203125,-0.9993743896484375,-0.0171356201171875,0.0147857666015625
1772535203396165600,2.43116552734375,-0.99945068359375,-0.018310546875,0.013519287109375
1772535203406181600,2.441181640625,-0.9996337890625,-0.0185089111328125,0.0138702392578125
1772535203416198000,2.451197998046875,-0.999420166015625,-0.0185546875,0.014068603515625
1772535203426213600,2.461213623046875,-0.99853515625,-0.01763916015625,0.013519287109375
1772535203436229600,2.471229736328125,-1.001220703125,-0.0172119140625,0.0135650634765625
1772535203446245600,2.48124560546875,-0.99945068359375,-0.0173492431640625,0.0146331787109375
1772535203456261600,2.49126171875,-0.998626708984375,-0.0169830322265625,0.0142059326171875
1772535203466277600,2.501277587890625,-0.9993133544921875,-0.0185394287109375,0.0139923095703125
1772535203476294000,2.5112939453125,-0.9998321533203125,-0.017669677734375,0.0129547119140625
1772535203486310000,2.521309814453125,-0.9989166259765625,-0.0181427001953125,0.0126190185546875
1772535203496325600,2.53132568359375,-0.998748779296875,-0.0189666748046875,0.013702392578125
1772535203506341600,2.541341552734375,-1,-0.0181732177734375,0.0143280029296875
1772535203516357600,2.551357666015625,-0.999114990234375,-0.0176544189453125,0.0150146484375
1772535203526373600,2.56137353515625,-0.9982452392578125,-0.0185546875,0.013031005859375
1772535203536389600,2.5713896484375,-0.999481201171875,-0.019195556640625,0.01348876953125
1772535203546406000,2.581406005859375,-0.998443603515625,-0.0167694091796875,0.0142059326171875
1772535203556421600,2.591421630859375,-0.9987335205078125,-0.018096923828125,0.013641357421875
1772535203566437600,2.601437744140625,-0.999786376953125,-0.0195159912109375,0.0133819580078125
1772535203576453600,2.61145361328125,-0.9989471435546875,-0.0177459716796875,0.0142364501953125
1772535203586469600,2.6214697265625,-1.00030517578125,-0.0174560546875,0.014434814453125
1772535203596485600,2.631485595703125,-0.99871826171875,-0.0180511474609375,0.0139923095703125
1772535203606501600,2.641501708984375,-0.9988250732421875,-0.018035888671875,0.01263427734375
1772535203616518000,2.651517822265625,-0.99774169921875,-0.0174102783203125,0.013458251953125
1772535203626533600,2.66153369140625,-0.99932861328125,-0.018310546875,0.013427734375
1772535203636549600,2.671549560546875,-1.0001373291015625,-0.0203704833984375,0.01312255859375
1772535203646566700,2.681566650390625,-0.9998016357421875,-0.018402099609375,0.014312744140625
1772535203656582700,2.691582763671875,-1.00030517578125,-0.018341064453125,0.01416015625
1772535203666599000,2.701598876953125,-0.9990997314453125,-0.0181732177734375,0.01422119140625
1772535203676614700,2.71161474609375,-0.99957275390625,-0.0184783935546875,0.0144195556640625
1772535203686630700,2.721630615234375,-0.998748779296875,-0.0183258056640625,0.0137786865234375
1772535203696646700,2.731646728515625,-0.999237060546875,-0.018798828125,0.0131988525390625
1772535203706662700,2.74166259765625,-0.9988555908203125,-0.0181884765625,0.013427734375
1772535203716678700,2.7516787109375,-0.999603271484375,-0.017120361328125,0.0141143798828125
1772535203726694700,2.761694580078125,-0.998992919921875,-0.018707275390625,0.014892578125
1772535203736711000,2.7717109375,-0.99981689453125,-0.0181427001953125,0.0144500732421875
1772535203746726700,2.7817265625,-0.999481201171875,-0.0176849365234375,0.0131072998046875
1772535203756742700,2.79174267578125,-0.999542236328125,-0.0184783935546875,0.01324462890625
1772535203766758700,2.801758544921875,-1.000213623046875,-0.0184478759765625,0.0131378173828125
1772535203776774700,2.811774658203125,-0.9999847412109375,-0.01678466796875,0.01416015625
1772535203786790700,2.821790771484375,-0.9992828369140625,-0.0184173583984375,0.014312744140625
1772535203796806700,2.831806640625,-0.9993438720703125,-0.018402099609375,0.0139617919921875
1772535203806822700,2.84182275390625,-1.0002899169921875,-0.017364501953125,0.0145263671875
1772535203816838700,2.851838623046875,-0.9979095458984375,-0.0192413330078125,0.013275146484375
1772535203826854700,2.861854736328125,-0.9989471435546875,-0.01751708984375,0.014556884765625
1772535203836870700,2.87187060546875,-0.998565673828125,-0.018035888671875,0.0136871337890625
1772535203846886700,2.88188671875,-0.9996337890625,-0.0189361572265625,0.01416015625
1772535203856902700,2.891902587890625,-0.9994964599609375,-0.0187835693359375,0.0139007568359375
1772535203866919000,2.9019189453125,-0.999969482421875,-0.0184173583984375,0.0139007568359375
1772535203876934700,2.9119345703125,-1.00030517578125,-0.0183868408203125,0.0154266357421875
1772535203886950700,2.92195068359375,-0.9989776611328125,-0.017822265625,0.0141448974609375
1772535203896966700,2.931966552734375,-1.0005035400390625,-0.01788330078125,0.0131988525390625
1772535203906982700,2.941982666015625,-1.0001220703125,-0.0184326171875,0.01519775390625
1772535203916998700,2.95199853515625,-0.999359130859375,-0.018402099609375,0.0129547119140625
1772535203927014700,2.9620146484375,-0.998779296875,-0.0164794921875,0.0135650634765625
1772535203937031000,2.972031005859375,-0.999237060546875,-0.0181427001953125,0.0142822265625
1772535203947046700,2.982046630859375,-1.000396728515625,-0.0191192626953125,0.0135955810546875
1772535203957062700,2.992062744140625,-0.9983673095703125,-0.017120361328125,0.0137939453125
1772535203967078700,3.00207861328125,-0.9990081787109375,-0.0179595947265625,0.0136871337890625
1772535203977094700,3.0120947265625,-0.99951171875,-0.0184478759765625,0.01373291015625
1772535203987110700,3.022110595703125,-0.9992828369140625,-0.0183258056640625,0.01312255859375
1772535203997126700,3.032126708984375,-0.9985809326171875,-0.0177459716796875,0.0142364501953125
1772535204007142700,3.042142578125,-0.9994354248046875,-0.01824951171875,0.013336181640625
1772535204017158700,3.05215869140625,-0.9990386962890625,-0.0177154541015625,0.0142974853515625
1772535204027174700,3.062174560546875,-0.99896240234375,-0.0179290771484375,0.0140838623046875
1772535204037190700,3.072190673828125,-0.9993133544921875,-0.0184173583984375,0.0130615234375
1772535204047206700,3.08220654296875,-0.9991455078125,-0.018035888671875,0.0146484375
1772535204057222700,3.09222265625,-1.000518798828125,-0.0172119140625,0.0125885009765625
1772535204067238700,3.10223876953125,-0.9990386962890625,-0.017364501953125,0.0135040283203125
1772535204077254700,3.112254638671875,-0.999542236328125,-0.0193328857421875,0.0141754150390625
1772535204087270700,3.122270751953125,-0.999969482421875,-0.0178985595703125,0.0135955810546875
1772535204097286700,3.13228662109375,-0.99871826171875,-0.0179595947265625,0.014892578125
1772535204107302700,3.142302734375,-0.9979248046875,-0.0178680419921875,0.014129638671875
1772535204117318700,3.152318603515625,-0.9993133544921875,-0.017364501953125,0.013641357421875
1772535204127335700,3.162335693359375,-0.998931884765625,-0.017791748046875,0.0140838623046875
1772535204137351700,3.1723515625,-0.99981689453125,-0.018890380859375,0.0147705078125
1772535204147367700,3.18236767578125,-0.9987335205078125,-0.0185699462890625,0.0127716064453125
1772535204157383700,3.1923837890625,-0.9980316162109375,-0.0169830322265625,0.0134735107421875
1772535204167399700,3.202399658203125,-0.999420166015625,-0.01702880859375,0.01507568359375
1772535204177415700,3.212415771484375,-0.9998321533203125,-0.017822265625,0.0142059326171875
1772535204187431700,3.222431640625,-0.998687744140625,-0.0189056396484375,0.01373291015625
1772535204197447700,3.23244775390625,-0.9995574951171875,-0.0182952880859375,0.0139312744140625
1772535204207463700,3.242463623046875,-0.999359130859375,-0.0186614990234375,0.0138397216796875
1772535204217479700,3.252479736328125,-0.9989013671875,-0.0174407958984375,0.0144195556640625
1772535204227495700,3.26249560546875,-1.0002288818359375,-0.0178985595703125,0.013214111328125
1772535204237511400,3.272511474609375,-0.9998779296875,-0.0169677734375,0.0126495361328125
1772535204247527400,3.28252734375,-0.999908447265625,-0.0175628662109375,0.0141754150390625
1772535204257543400,3.29254345703125,-0.9997406005859375,-0.0172882080078125,0.0139617919921875
1772535204267559400,3.302559326171875,-1.000335693359375,-0.0180511474609375,0.01416015625
1772535204277575400,3.312575439453125,-1,-0.0188140869140625,0.0150909423828125
1772535204287591400,3.32259130859375,-0.9993743896484375,-0.0184326171875,0.01397705078125
1772535204297607400,3.332607421875,-1.0005950927734375,-0.0186614990234375,0.013519287109375
1772535204307623400,3.34262353515625,-0.9985504150390625,-0.0180816650390625,0.0147552490234375
1772535204317639400,3.352639404296875,-0.999420166015625,-0.017120361328125,0.013458251953125
1772535204327655700,3.36265576171875,-0.9987335205078125,-0.0178985595703125,0.0138702392578125
1772535204337671400,3.37267138671875,-0.9991455078125,-0.018157958984375,0.013916015625
1772535204347687400,3.3826875,-1.000030517578125,-0.0196075439453125,0.0137176513671875
1772535204357703400,3.392703369140625,-0.99884033203125,-0.0175933837890625,0.014862060546875
1772535204367719400,3.402719482421875,-1.000030517578125,-0.017822265625,0.0140533447265625
1772535204377735400,3.4127353515625,-0.999298095703125,-0.0186309814453125,0.013671875
1772535204387751400,3.42275146484375,-1.0009307861328125,-0.0166778564453125,0.0140533447265625
1772535204397767400,3.432767333984375,-1.0008544921875,-0.019012451171875,0.014495849609375
1772535204407783400,3.442783447265625,-0.999542236328125,-0.0178985595703125,0.0136871337890625
1772535204417799400,3.45279931640625,-1.0009613037109375,-0.01824951171875,0.013946533203125
1772535204427815400,3.4628154296875,-1.0005035400390625,-0.01727294921875,0.0147247314453125
1772535204437831400,3.47283154296875,-0.9993438720703125,-0.017608642578125,0.0140838623046875
1772535204447847400,3.482847412109375,-1.0013427734375,-0.01824951171875,0.0147552490234375
1772535204457863400,3.492863525390625,-1.0001220703125,-0.0186614990234375,0.014129638671875
1772535204467879400,3.50287939453125,-0.9998321533203125,-0.0180206298828125,0.0131683349609375
1772535204477895400,3.5128955078125,-0.9992828369140625,-0.0187835693359375,0.013763427734375
1772535204487911400,3.522911376953125,-0.9995269775390625,-0.0189971923828125,0.01373291015625
1772535204497927400,3.532927490234375,-0.9998931884765625,-0.017852783203125,0.0139617919921875
1772535204507943400,3.542943359375,-0.99945068359375,-0.0185089111328125,0.0138702392578125
1772535204517959400,3.55295947265625,-0.999298095703125,-0.0190582275390625,0.014404296875
1772535204527975400,3.562975341796875,-0.9996185302734375,-0.018524169921875,0.013336181640625
1772535204537991400,3.572991455078125,-0.9983062744140625,-0.017669677734375,0.0128326416015625
1772535204548007400,3.58300732421875,-0.9991912841796875,-0.0191497802734375,0.0126953125
1772535204558023400,3.5930234375,-1.000213623046875,-0.017791748046875,0.013580322265625
1772535204568039400,3.603039306640625,-0.9989166259765625,-0.017120361328125,0.013153076171875
1772535204578056400,3.613056396484375,-0.9977569580078125,-0.0185394287109375,0.012664794921875
1772535204588072400,3.623072509765625,-0.9987640380859375,-0.017791748046875,0.0137176513671875
1772535204598088400,3.63308837890625,-0.9999237060546875,-0.0180511474609375,0.012969970703125
1772535204608104400,3.6431044921875,-0.9994964599609375,-0.0189208984375,0.01275634765625
1772535204618120400,3.653120361328125,-1.000579833984375,-0.0191802978515625,0.013153076171875
1772535204628136400,3.663136474609375,-1.0002899169921875,-0.0200042724609375,0.0135040283203125
1772535204638152400,3.67315234375,-1.00006103515625,-0.018096923828125,0.0139007568359375
1772535204648168400,3.68316845703125,-0.99951171875,-0.017974853515625,0.013641357421875
1772535204658184400,3.693184326171875,-0.9992523193359375,-0.017578125,0.0140533447265625
1772535204668200400,3.703200439453125,-0.9993896484375,-0.0174102783203125,0.015533447265625
1772535204678216400,3.713216552734375,-1.000030517578125,-0.01708984375,0.0143280029296875
1772535204688232400,3.723232421875,-0.999542236328125,-0.0171966552734375,0.013519287109375
1772535204698248400,3.73324853515625,-0.9991302490234375,-0.0190887451171875,0.013519287109375
1772535204708264400,3.743264404296875,-1.0007171630859375,-0.018218994140625,0.0130462646484375
1772535204718280400,3.753280517578125,-0.999908447265625,-0.0170440673828125,0.0133819580078125
1772535204728296400,3.76329638671875,-1.0003814697265625,-0.018218994140625,0.0143890380859375
1772535204738312400,3.7733125,-0.998504638671875,-0.0184173583984375,0.014129638671875
1772535204748328400,3.783328369140625,-0.997711181640625,-0.01824951171875,0.01348876953125
1772535204758344400,3.793344482421875,-1.000762939453125,-0.0189971923828125,0.0137939453125
1772535204768360400,3.8033603515625,-1.000091552734375,-0.0189056396484375,0.014495849609375
1772535204778376400,3.81337646484375,-1.001434326171875,-0.01837158203125,0.0127105712890625
1772535204788392400,3.823392333984375,-1.0001983642578125,-0.017974853515625,0.0137481689453125
1772535204798408400,3.833408447265625,-0.999603271484375,-0.018157958984375,0.0139617919921875
1772535204808424400,3.843424560546875,-0.9993743896484375,-0.0190277099609375,0.0136871337890625
1772535204818440400,3.8534404296875,-0.999847412109375,-0.0177764892578125,0.014007568359375
1772535204828456400,3.86345654296875,-0.9987945556640625,-0.0182647705078125,0.0131378173828125
1772535204838472400,3.873472412109375,-0.999481201171875,-0.0186004638671875,0.014556884765625
1772535204848488400,3.883488525390625,-0.9981689453125,-0.0171356201171875,0.013397216796875
1772535204858504400,3.89350439453125,-1.001068115234375,-0.0184478759765625,0.01397705078125
1772535204868520400,3.9035205078125,-0.9998931884765625,-0.0181427001953125,0.0132904052734375
1772535204878536400,3.913536376953125,-0.9994964599609375,-0.017578125,0.013031005859375
1772535204888552400,3.923552490234375,-0.9996337890625,-0.017242431640625,0.0136260986328125
1772535204898568400,3.933568359375,-0.9997100830078125,-0.0176849365234375,0.0142974853515625
1772535204908584400,3.94358447265625,-0.9996337890625,-0.0178680419921875,0.01361083984375
1772535204918600400,3.953600341796875,-0.99853515625,-0.0185699462890625,0.014373779296875
1772535204928616400,3.963616455078125,-0.9995269775390625,-0.017791748046875,0.0136871337890625
1772535204938632400,3.973632568359375,-0.998992919921875,-0.01788330078125,0.0135040283203125
1772535204948648400,3.9836484375,-0.998931884765625,-0.018798828125,0.0140380859375
1772535204958664400,3.99366455078125,-0.999176025390625,-0.0167083740234375,0.0141448974609375
1772535204968680400,4.003680419921875,-0.9980621337890625,-0.018646240234375,0.0134124755859375
1772535204978696400,4.013696533203125,-0.9999847412109375,-0.0176544189453125,0.0140838623046875
1772535204988712400,4.02371240234375,-0.9997406005859375,-0.01806640625,0.0137481689453125
1772535204998728400,4.033728515625,-0.999420166015625,-0.01922607421875,0.013885498046875
1772535205008744400,4.043744384765625,-0.9992523193359375,-0.018951416015625,0.0137176513671875
1772535205018760400,4.053760498046875,-0.9989166259765625,-0.01763916015625,0.0138702392578125
1772535205028776400,4.0637763671875,-0.998382568359375,-0.01739501953125,0.0139923095703125
1772535205038792400,4.07379248046875,-0.999755859375,-0.0177154541015625,0.013641357421875
1772535205048808400,4.083808349609375,-0.999481201171875,-0.01800537109375,0.0135498046875
1772535205058824400,4.093824462890625,-0.9989776611328125,-0.016876220703125,0.013214111328125
1772535205068841500,4.103841552734375,-0.999542236328125,-0.019134521484375,0.0123748779296875
1772535205078857500,4.113857421875,-0.999267578125,-0.0181121826171875,0.0133514404296875
1772535205088873500,4.12387353515625,-0.99951171875,-0.017547607421875,0.0149078369140625
1772535205098889500,4.133889404296875,-0.9999847412109375,-0.018829345703125,0.0137939453125
1772535205108905500,4.143905517578125,-1.0006866455078125,-0.017669677734375,0.0134429931640625
1772535205118921500,4.15392138671875,-0.9995574951171875,-0.0182647705078125,0.013519287109375
1772535205128937500,4.1639375,-0.999237060546875,-0.018280029296875,0.013885498046875
1772535205138953500,4.173953369140625,-0.99957275390625,-0.0182952880859375,0.0132293701171875
1772535205148969500,4.183969482421875,-1.000152587890625,-0.017364501953125,0.0134735107421875
1772535205158985500,4.1939853515625,-0.9981689453125,-0.01904296875,0.0129852294921875
1772535205169001200,4.204001220703125,-0.998382568359375,-0.0175018310546875,0.014129638671875
1772535205179017500,4.214017578125,-1.000213623046875,-0.0182647705078125,0.013458251953125
1772535205189033500,4.224033447265625,-0.9988555908203125,-0.0179901123046875,0.013641357421875
1772535205199049500,4.234049560546875,-0.99951171875,-0.0179290771484375,0.0140380859375
1772535205209065500,4.2440654296875,-0.998260498046875,-0.018310546875,0.0129547119140625
1772535205219081500,4.25408154296875,-0.9988555908203125,-0.0173797607421875,0.0131072998046875
1772535205229097500,4.264097412109375,-0.9991912841796875,-0.0179443359375,0.013458251953125
1772535205239113700,4.27411376953125,-0.999847412109375,-0.018890380859375,0.01434326171875
1772535205249129700,4.284129638671875,-0.99993896484375,-0.0185089111328125,0.014251708984375
1772535205259145700,4.294145751953125,-1.0000457763671875,-0.01873779296875,0.0144805908203125
1772535205269161700,4.30416162109375,-0.9996490478515625,-0.0177154541015625,0.013214111328125
1772535205279178000,4.314177978515625,-0.999114990234375,-0.017303466796875,0.013885498046875
1772535205289194000,4.324194091796875,-0.99957275390625,-0.0177001953125,0.014068603515625
1772535205299209700,4.334209716796875,-0.9997406005859375,-0.018402099609375,0.0135955810546875
1772535205309225700,4.344225830078125,-0.9984283447265625,-0.0179443359375,0.0136566162109375
1772535205319241700,4.35424169921875,-0.9994354248046875,-0.0181121826171875,0.0137786865234375
1772535205329257700,4.3642578125,-1.000091552734375,-0.018951416015625,0.0146331787109375
1772535205339274000,4.37427392578125,-0.9995574951171875,-0.0187835693359375,0.012908935546875
1772535205349290000,4.3842900390625,-0.998748779296875,-0.0177001953125,0.01348876953125
1772535205359306000,4.394305908203125,-0.99981689453125,-0.019500732421875,0.013336181640625
1772535205369321700,4.40432177734375,-0.9998931884765625,-0.0179595947265625,0.014617919921875
1772535205379337700,4.414337646484375,-0.9991302490234375,-0.0187835693359375,0.0144195556640625
1772535205389353700,4.424353759765625,-1.000152587890625,-0.0178680419921875,0.013427734375
1772535205399369700,4.43436962890625,-1,-0.0180206298828125,0.014068603515625
1772535205409386000,4.444385986328125,-0.9983062744140625,-0.0186767578125,0.013824462890625
1772535205419402000,4.454402099609375,-1.000244140625,-0.0166778564453125,0.014007568359375
1772535205429417700,4.464417724609375,-0.9991302490234375,-0.01727294921875,0.01434326171875
1772535205439433700,4.474433837890625,-1.00006103515625,-0.0182952880859375,0.012603759765625
1772535205449449700,4.48444970703125,-1.0008697509765625,-0.0177001953125,0.013214111328125
1772535205459465700,4.4944658203125,-0.9998779296875,-0.0186309814453125,0.013092041015625
1772535205469481700,4.504481689453125,-0.9987030029296875,-0.0188446044921875,0.0130767822265625
1772535205479498000,4.514498046875,-0.9990692138671875,-0.01861572265625,0.0126190185546875
1772535205489514000,4.524513916015625,-1.00079345703125,-0.01934814453125,0.0126800537109375
1772535205499529700,4.53452978515625,-0.9986114501953125,-0.018035888671875,0.0134735107421875
1772535205509545700,4.544545654296875,-0.9998779296875,-0.01708984375,0.0139312744140625
1772535205519561700,4.554561767578125,-0.9998016357421875,-0.01788330078125,0.013397216796875
1772535205529577700,4.56457763671875,-0.9989776611328125,-0.0190277099609375,0.0132293701171875
1772535205539595000,4.574594970703125,-1.000244140625,-0.017547607421875,0.0128936767578125
1772535205549610800,4.58461083984375,-0.9997100830078125,-0.0181732177734375,0.0131378173828125
1772535205559626800,4.594626708984375,-1.000091552734375,-0.0185394287109375,0.0140838623046875
1772535205569642800,4.604642822265625,-1.0012664794921875,-0.016815185546875,0.0140838623046875
1772535205579658800,4.61465869140625,-0.999267578125,-0.01873779296875,0.0133056640625
1772535205589674800,4.6246748046875,-1.000152587890625,-0.018157958984375,0.014862060546875
1772535205599691000,4.63469091796875,-0.9998931884765625,-0.01788330078125,0.01416015625
1772535205609706800,4.644706787109375,-0.9998321533203125,-0.0182037353515625,0.0141448974609375
1772535205619722800,4.65472265625,-0.9994049072265625,-0.017852783203125,0.0145416259765625
1772535205629738800,4.66473876953125,-0.9991912841796875,-0.0188446044921875,0.014129638671875
1772535205639754800,4.674754638671875,-0.9998626708984375,-0.0180511474609375,0.013885498046875
1772535205649770800,4.684770751953125,-1.000640869140625,-0.01837158203125,0.014404296875
1772535205659786800,4.694786865234375,-1.0001983642578125,-0.0172882080078125,0.013824462890625
1772535205669803000,4.704802978515625,-1.0013580322265625,-0.016387939453125,0.0139923095703125
1772535205679818800,4.71481884765625,-0.9993133544921875,-0.016754150390625,0.0145721435546875
1772535205689834800,4.724834716796875,-1.000091552734375,-0.01861572265625,0.01324462890625
1772535205699850800,4.734850830078125,-0.9992523193359375,-0.016387939453125,0.014434814453125
1772535205709866800,4.74486669921875,-0.9987030029296875,-0.0178985595703125,0.0134124755859375
1772535205719882800,4.7548828125,-0.999847412109375,-0.0188140869140625,0.013275146484375
1772535205729899000,4.76489892578125,-0.9985504150390625,-0.018524169921875,0.014404296875
1772535205739915000,4.7749150390625,-0.999786376953125,-0.0175628662109375,0.0149078369140625
1772535205749930800,4.7849306640625,-0.99920654296875,-0.018096923828125,0.0136871337890625
1772535205759946800,4.79494677734375,-0.9987640380859375,-0.0174713134765625,0.0140533447265625
1772535205769962800,4.804962646484375,-1.0009765625,-0.017730712890625,0.0135955810546875
1772535205779978800,4.814978759765625,-0.9993133544921875,-0.0178070068359375,0.013458251953125
1772535205789994800,4.824994873046875,-0.9996490478515625,-0.018646240234375,0.0142822265625
1772535205800011000,4.835010986328125,-1.0002593994140625,-0.0180511474609375,0.0135955810546875
1772535205810027000,4.845027099609375,-0.99957275390625,-0.01806640625,0.0145263671875
1772535205820042800,4.855042724609375,-0.997833251953125,-0.0178375244140625,0.014190673828125
1772535205830058800,4.865058837890625,-0.999176025390625,-0.017333984375,0.0140838623046875
1772535205840074800,4.87507470703125,-0.9996490478515625,-0.0174407958984375,0.0144195556640625
1772535205850090800,4.8850908203125,-0.999786376953125,-0.017852783203125,0.0144805908203125
1772535205860106800,4.895106689453125,-1.0004119873046875,-0.0188140869140625,0.013519287109375
1772535205870123000,4.905123046875,-0.99896240234375,-0.018768310546875,0.0125885009765625
1772535205880138800,4.915138671875,-1.0005950927734375,-0.0189971923828125,0.0132904052734375
1772535205890154800,4.92515478515625,-0.9993896484375,-0.0186004638671875,0.013641357421875
1772535205900170800,4.935170654296875,-0.9998779296875,-0.0172271728515625,0.0120391845703125
1772535205910186800,4.945186767578125,-0.99920654296875,-0.01702880859375,0.0137939453125
1772535205920202800,4.95520263671875,-0.998779296875,-0.0179595947265625,0.014434814453125
1772535205930218800,4.96521875,-0.999725341796875,-0.0185699462890625,0.0138092041015625
1772535205940235000,4.975235107421875,-1.0001678466796875,-0.018096923828125,0.013580322265625
1772535205950250800,4.985250732421875,-0.99908447265625,-0.01849365234375,0.014434814453125
1772535205960266800,4.995266845703125,-0.9992218017578125,-0.0170440673828125,0.014007568359375
1772535205970282800,5.00528271484375,-0.9999542236328125,-0.017822265625,0.0135955810546875
1772535205980298800,5.015298828125,-0.99957275390625,-0.0184173583984375,0.013397216796875
1772535205990314800,5.025314697265625,-0.998046875,-0.0177459716796875,0.0140838623046875
1772535206000331000,5.0353310546875,-0.999298095703125,-0.0182037353515625,0.014434814453125
1772535206010347000,5.045346923828125,-0.9986724853515625,-0.019287109375,0.013519287109375
1772535206020362800,5.05536279296875,-1.0004119873046875,-0.0185546875,0.013427734375
1772535206030378800,5.065378662109375,-1.000946044921875,-0.0180816650390625,0.0132904052734375
1772535206040395800,5.075395751953125,-0.9989166259765625,-0.0185699462890625,0.0131988525390625
1772535206050411800,5.085411865234375,-0.9994049072265625,-0.017791748046875,0.0137481689453125
1772535206060428000,5.095427978515625,-0.998016357421875,-0.019134521484375,0.0129547119140625
1772535206070443800,5.10544384765625,-1.000579833984375,-0.018035888671875,0.0137786865234375
1772535206080459800,5.115459716796875,-1.00042724609375,-0.0179901123046875,0.0139617919921875
1772535206090475800,5.125475830078125,-1.0001983642578125,-0.0190582275390625,0.0134735107421875
1772535206100491800,5.13549169921875,-0.999420166015625,-0.0176849365234375,0.0137939453125
1772535206110507800,5.1455078125,-0.9995574951171875,-0.0179290771484375,0.01312255859375
1772535206120524000,5.15552392578125,-0.9994659423828125,-0.0185089111328125,0.01446533203125
1772535206130539800,5.165539794921875,-0.998382568359375,-0.01751708984375,0.0135040283203125
1772535206140555800,5.1755556640625,-1.000732421875,-0.0171356201171875,0.0147857666015625
1772535206150571800,5.18557177734375,-0.9998931884765625,-0.016326904296875,0.012237548828125
1772535206160587800,5.195587890625,-0.9994049072265625,-0.0174407958984375,0.0132293701171875
1772535206170603800,5.205603759765625,-0.999053955078125,-0.017791748046875,0.0143280029296875
1772535206180619800,5.215619873046875,-0.997955322265625,-0.0179443359375,0.0153045654296875
1772535206190636000,5.225635986328125,-0.997802734375,-0.017852783203125,0.0140228271484375
1772535206200651800,5.23565185546875,-0.9987335205078125,-0.01812744140625,0.012908935546875
1772535206210667800,5.245667724609375,-0.9986114501953125,-0.01763916015625,0.0142822265625
1772535206220683800,5.255683837890625,-0.9992828369140625,-0.0179595947265625,0.014801025390625
1772535206230699800,5.26569970703125,-1.0006103515625,-0.018035888671875,0.0133819580078125
1772535206240716000,5.275716064453125,-0.9998626708984375,-0.018890380859375,0.0141754150390625
1772535206250732000,5.28573193359375,-0.999267578125,-0.0186004638671875,0.01409912109375
1772535206260748000,5.295748046875,-0.9987640380859375,-0.018402099609375,0.0141448974609375
1772535206270763800,5.305763671875,-0.9986114501953125,-0.0181121826171875,0.0138397216796875
1772535206281331000,5.3163310546875,-0.999053955078125,-0.01776123046875,0.0143585205078125
1772535206292048000,5.3270478515625,-0.998779296875,-0.01751708984375,0.0132598876953125
1772535206302063900,5.33706396484375,-0.9998779296875,-0.017669677734375,0.01397705078125
1772535206312080000,5.347079833984375,-1.000762939453125,-0.0186309814453125,0.0145721435546875
1772535206322095900,5.357095947265625,-0.9994659423828125,-0.017852783203125,0.013671875
1772535206332112000,5.36711181640625,-0.9989776611328125,-0.0185699462890625,0.014556884765625
1772535206342128000,5.377128173828125,-1.0002899169921875,-0.019287109375,0.01361083984375
1772535206352144100,5.38714404296875,-0.9992828369140625,-0.017608642578125,0.01318359375
1772535206362159900,5.397159912109375,-0.9994354248046875,-0.018096923828125,0.0143280029296875
1772535206372176000,5.40717578125,-0.998809814453125,-0.018157958984375,0.0139007568359375
1772535206382191900,5.41719189453125,-1.000213623046875,-0.017669677734375,0.0145721435546875
1772535206392208000,5.427207763671875,-1.0001983642578125,-0.0182647705078125,0.013275146484375
1772535206402223900,5.437223876953125,-0.9997100830078125,-0.0184173583984375,0.0142669677734375
1772535206412240100,5.447240234375,-0.9996185302734375,-0.0169677734375,0.0127105712890625
1772535206422255900,5.457255859375,-0.999603271484375,-0.01776123046875,0.014617919921875
1772535206432272000,5.46727197265625,-0.9997100830078125,-0.0184326171875,0.0136260986328125
1772535206442287900,5.477287841796875,-0.9990386962890625,-0.0175323486328125,0.0131378173828125
1772535206452304000,5.487303955078125,-0.9992523193359375,-0.0170745849609375,0.01312255859375
1772535206462319900,5.49731982421875,-0.9994659423828125,-0.0186004638671875,0.0146942138671875
1772535206472336100,5.507336181640625,-0.998992919921875,-0.0184173583984375,0.0145416259765625
1772535206482352000,5.51735205078125,-0.99920654296875,-0.0175018310546875,0.0149383544921875
1772535206492368000,5.527367919921875,-0.9996490478515625,-0.0178070068359375,0.0144195556640625
1772535206502383900,5.5373837890625,-0.999481201171875,-0.0186614990234375,0.01336669921875
1772535206512400000,5.54739990234375,-0.9998779296875,-0.01861572265625,0.013885498046875
1772535206522415900,5.557415771484375,-0.9991607666015625,-0.0186004638671875,0.0135955810546875
1772535206532433200,5.56743310546875,-0.9998321533203125,-0.0175933837890625,0.013031005859375
1772535206542449000,5.577448974609375,-0.999603271484375,-0.0173797607421875,0.0128936767578125
1772535206552465000,5.58746484375,-0.9976959228515625,-0.01824951171875,0.0142974853515625
1772535206562481000,5.59748095703125,-0.998809814453125,-0.0181427001953125,0.01324462890625
1772535206572497000,5.607496826171875,-0.999847412109375,-0.017059326171875,0.0131072998046875
1772535206582513000,5.617512939453125,-0.999908447265625,-0.017852783203125,0.015228271484375
1772535206592529000,5.62752880859375,-0.9991912841796875,-0.01849365234375,0.013885498046875
1772535206602545000,5.637544921875,-0.999542236328125,-0.017730712890625,0.0145416259765625
1772535206612561000,5.647560791015625,-0.9997406005859375,-0.0181884765625,0.0145111083984375
1772535206622577000,5.657576904296875,-0.99945068359375,-0.01873779296875,0.0136566162109375
1772535206633219000,5.668218994140625,-1.0001220703125,-0.0176544189453125,0.0140380859375
1772535206643235000,5.678235107421875,-0.9991607666015625,-0.0196075439453125,0.0135040283203125
1772535206653250800,5.688250732421875,-0.999664306640625,-0.0179443359375,0.014739990234375
1772535206663266800,5.698266845703125,-1.0006103515625,-0.018646240234375,0.0135040283203125
1772535206673282800,5.70828271484375,-0.9999847412109375,-0.01812744140625,0.013641357421875
1772535206683298800,5.718298828125,-0.9988250732421875,-0.018096923828125,0.0136566162109375
1772535206693315000,5.728315185546875,-0.99932861328125,-0.0172119140625,0.0124664306640625
1772535206703331000,5.7383310546875,-0.998565673828125,-0.0181732177734375,0.0136871337890625
1772535206713347000,5.74834716796875,-1.000335693359375,-0.0182037353515625,0.01263427734375
1772535206723362800,5.75836279296875,-1.0000457763671875,-0.016937255859375,0.0139923095703125
1772535206733378800,5.76837890625,-0.99822998046875,-0.0181732177734375,0.0139617919921875
1772535206743394800,5.778394775390625,-0.9988861083984375,-0.017425537109375,0.014739990234375
1772535206753411000,5.7884111328125,-1.00067138671875,-0.0172882080078125,0.0125579833984375
1772535206763427000,5.798427001953125,-0.9997711181640625,-0.018218994140625,0.01373291015625
1772535206773443000,5.808443115234375,-1.0000762939453125,-0.01824951171875,0.014068603515625
1772535206783459000,5.818458984375,-0.99884033203125,-0.0181427001953125,0.012420654296875
1772535206793474800,5.828474853515625,-0.9978485107421875,-0.017913818359375,0.0131683349609375
1772535206803490800,5.83849072265625,-0.999114990234375,-0.0169525146484375,0.0147552490234375
1772535206813506800,5.8485068359375,-0.9984283447265625,-0.0171966552734375,0.01312255859375
1772535206823523000,5.858523193359375,-1.0003662109375,-0.0185546875,0.01458740234375
1772535206833539000,5.8685390625,-1.0000762939453125,-0.0181884765625,0.0133056640625
1772535206843555000,5.87855517578125,-0.9999237060546875,-0.0186309814453125,0.013885498046875
1772535206853570800,5.88857080078125,-0.999359130859375,-0.0179290771484375,0.014404296875
1772535206863586800,5.8985869140625,-1.0003509521484375,-0.018463134765625,0.0141448974609375
1772535206873602800,5.908602783203125,-1.000732421875,-0.0176239013671875,0.0147857666015625
1772535206883618800,5.918618896484375,-0.999755859375,-0.0173797607421875,0.0140380859375
1772535206893635000,5.928635009765625,-0.999786376953125,-0.019012451171875,0.013580322265625
1772535206903651000,5.938651123046875,-1.000091552734375,-0.01776123046875,0.0133819580078125
1772535206913667000,5.9486669921875,-0.99951171875,-0.017120361328125,0.013427734375
1772535206923682800,5.958682861328125,-0.999053955078125,-0.01611328125,0.01300048828125
1772535206933698800,5.96869873046875,-1.0011749267578125,-0.0184326171875,0.01397705078125
1772535206943714800,5.97871484375,-0.9991455078125,-0.017822265625,0.013641357421875
1772535206953730800,5.988730712890625,-1.0005950927734375,-0.0171966552734375,0.013946533203125
1772535206963747000,5.9987470703125,-1.00048828125,-0.0177764892578125,0.014068603515625
1772535206973763000,6.00876318359375,-0.9987335205078125,-0.0174713134765625,0.013336181640625
1772535206983779000,6.018779052734375,-1.0007171630859375,-0.0176239013671875,0.0145111083984375
1772535206993795800,6.0287958984375,-1.0000457763671875,-0.018402099609375,0.0150604248046875
1772535207003811800,6.038811767578125,-1.0004119873046875,-0.0183563232421875,0.0128936767578125
1772535207013828000,6.048828125,-1.0005035400390625,-0.0182647705078125,0.014678955078125
1772535207023844000,6.058843994140625,-0.999420166015625,-0.018157958984375,0.0144195556640625
1772535207033860000,6.068860107421875,-1.0004119873046875,-0.0184326171875,0.013702392578125
1772535207043875800,6.078875732421875,-0.99920654296875,-0.0178070068359375,0.013671875
1772535207053891800,6.088891845703125,-0.9991302490234375,-0.018890380859375,0.01312255859375
1772535207063907800,6.098907958984375,-0.9996795654296875,-0.017822265625,0.0134429931640625
1772535207073923800,6.108923828125,-0.99945068359375,-0.018341064453125,0.014434814453125
1772535207083940000,6.118940185546875,-0.9992828369140625,-0.01824951171875,0.0147247314453125
1772535207093956000,6.1289560546875,-0.9991455078125,-0.016845703125,0.0140228271484375
1772535207103971800,6.138971923828125,-0.997894287109375,-0.018280029296875,0.0128326416015625
1772535207113987800,6.14898779296875,-0.99859619140625,-0.01776123046875,0.013092041015625
1772535207124003800,6.15900390625,-0.999755859375,-0.0173187255859375,0.01385498046875
1772535207134019800,6.169019775390625,-1.0008087158203125,-0.0174102783203125,0.0128936767578125
1772535207144036000,6.1790361328125,-1.0004730224609375,-0.017425537109375,0.0140533447265625
1772535207154052000,6.189052001953125,-0.999786376953125,-0.017578125,0.0136566162109375
1772535207164068000,6.199068115234375,-0.99847412109375,-0.0174560546875,0.014373779296875
1772535207174083800,6.209083740234375,-1.0007781982421875,-0.0183868408203125,0.0140228271484375
1772535207184099800,6.219099853515625,-0.9994049072265625,-0.017852783203125,0.0139312744140625
1772535207194115800,6.22911572265625,-1.000457763671875,-0.0178680419921875,0.013916015625
1772535207204131800,6.2391318359375,-0.9984893798828125,-0.0177764892578125,0.0146331787109375
1772535207214148000,6.249148193359375,-0.99896240234375,-0.018798828125,0.0145111083984375
1772535207224164000,6.2591640625,-0.99969482421875,-0.018280029296875,0.014129638671875
1772535207234180000,6.26918017578125,-0.9997100830078125,-0.01812744140625,0.0132293701171875
1772535207244195800,6.27919580078125,-0.9991455078125,-0.018280029296875,0.013031005859375
1772535207254211800,6.2892119140625,-1.0000152587890625,-0.0171966552734375,0.0145721435546875
1772535207264227800,6.299227783203125,-0.9997406005859375,-0.018768310546875,0.0147857666015625
1772535207274244000,6.309244140625,-0.9991912841796875,-0.017242431640625,0.014495849609375
1772535207284260000,6.319260009765625,-1.0005645751953125,-0.0171051025390625,0.0140228271484375
1772535207294276000,6.329276123046875,-0.99969482421875,-0.018035888671875,0.013916015625
1772535207304291800,6.339291748046875,-0.9991607666015625,-0.0172576904296875,0.01409912109375
1772535207314307800,6.349307861328125,-0.9991302490234375,-0.0189971923828125,0.013763427734375
1772535207324323800,6.35932373046875,-0.9995269775390625,-0.0190277099609375,0.013275146484375
1772535207334340000,6.369340087890625,-0.9980621337890625,-0.01904296875,0.0142364501953125
1772535207344356000,6.379356201171875,-0.999176025390625,-0.01763916015625,0.014373779296875
1772535207354372000,6.3893720703125,-0.999603271484375,-0.01812744140625,0.0134735107421875
1772535207364388000,6.39938818359375,-0.9994659423828125,-0.017730712890625,0.0137481689453125
1772535207374403800,6.40940380859375,-0.9991302490234375,-0.01806640625,0.0138702392578125
1772535207384419800,6.419419921875,-0.99896240234375,-0.017974853515625,0.0130462646484375
1772535207394435800,6.429435791015625,-0.99853515625,-0.0179290771484375,0.013336181640625
1772535207404452000,6.4394521484375,-0.99920654296875,-0.0176239013671875,0.014678955078125
1772535207414468000,6.449468017578125,-0.99920654296875,-0.0189056396484375,0.013641357421875
1772535207424484000,6.459484130859375,-0.9998016357421875,-0.0178680419921875,0.01318359375
1772535207434500000,6.4695,-0.998199462890625,-0.01837158203125,0.0136566162109375
1772535207444515800,6.479515869140625,-0.9997711181640625,-0.01806640625,0.0140533447265625
1772535207454532900,6.489532958984375,-0.9990234375,-0.0184478759765625,0.014556884765625
1772535207464549000,6.499549072265625,-0.999542236328125,-0.018463134765625,0.0142059326171875
1772535207474565000,6.509565185546875,-0.9996795654296875,-0.01788330078125,0.014495849609375
1772535207484581000,6.5195810546875,-0.9989166259765625,-0.018310546875,0.0134735107421875
1772535207494596900,6.529596923828125,-0.998565673828125,-0.0178680419921875,0.013153076171875
1772535207504612900,6.53961279296875,-0.9985809326171875,-0.0173187255859375,0.0135650634765625
1772535207514628900,6.54962890625,-0.9998931884765625,-0.017059326171875,0.015045166015625
1772535207524645000,6.55964501953125,-0.99810791015625,-0.01910400390625,0.013031005859375
1772535207534661000,6.5696611328125,-0.999481201171875,-0.018463134765625,0.0137481689453125
1772535207544677000,6.579677001953125,-0.99981689453125,-0.0187835693359375,0.0136871337890625
1772535207554692900,6.58969287109375,-0.9989013671875,-0.0167083740234375,0.0142059326171875
1772535207564708900,6.599708984375,-0.9999847412109375,-0.018524169921875,0.014007568359375
1772535207574724900,6.609724853515625,-1.00048828125,-0.017120361328125,0.0153350830078125
1772535207584740900,6.619740966796875,-0.999786376953125,-0.017974853515625,0.0123748779296875
1772535207594757000,6.629757080078125,-1.0009307861328125,-0.019775390625,0.0138092041015625
1772535207604773000,6.639773193359375,-1.0008697509765625,-0.0187225341796875,0.01470947265625
1772535207614789000,6.6497890625,-0.9987640380859375,-0.0185394287109375,0.0134735107421875
1772535207624804900,6.659804931640625,-1.000457763671875,-0.0196075439453125,0.0124664306640625
1772535207634820900,6.66982080078125,-0.99896240234375,-0.0177764892578125,0.013427734375
1772535207644836900,6.6798369140625,-0.99908447265625,-0.018524169921875,0.013519287109375
1772535207654852900,6.689852783203125,-0.99908447265625,-0.019012451171875,0.01416015625
1772535207664869000,6.699869140625,-1.000274658203125,-0.01763916015625,0.0133056640625
1772535207674885000,6.709885009765625,-1.000640869140625,-0.0183258056640625,0.0153350830078125
1772535207684901000,6.719901123046875,-0.9989166259765625,-0.0176239013671875,0.0153045654296875
1772535207694916900,6.729916748046875,-0.998992919921875,-0.0190887451171875,0.0133514404296875
1772535207704932900,6.739932861328125,-0.999267578125,-0.017547607421875,0.014068603515625
1772535207714948900,6.749948974609375,-0.9990081787109375,-0.017242431640625,0.0140380859375
1772535207724965000,6.759965087890625,-0.99945068359375,-0.0177764892578125,0.013763427734375
1772535207734981000,6.769981201171875,-0.9995880126953125,-0.0187530517578125,0.014007568359375
1772535207744997000,6.7799970703125,-0.998748779296875,-0.017425537109375,0.0134735107421875
1772535207755012900,6.790012939453125,-0.999664306640625,-0.01837158203125,0.012969970703125
1772535207765028900,6.80002880859375,-1.00048828125,-0.0177764892578125,0.013671875
1772535207775044900,6.810044921875,-0.9988250732421875,-0.018402099609375,0.0147705078125
1772535207785060900,6.820060791015625,-0.9998016357421875,-0.01806640625,0.013824462890625
1772535207795077000,6.8300771484375,-0.9989166259765625,-0.018280029296875,0.014373779296875
1772535207805093000,6.840093017578125,-0.9993133544921875,-0.018798828125,0.0149993896484375
1772535207815109000,6.850109130859375,-0.999114990234375,-0.01708984375,0.014404296875
1772535207825124900,6.860124755859375,-0.999481201171875,-0.0162200927734375,0.0130157470703125
1772535207835140900,6.870140869140625,-0.998931884765625,-0.017333984375,0.01422119140625
1772535207845156900,6.880156982421875,-0.9998016357421875,-0.018341064453125,0.0131988525390625
1772535207855172900,6.8901728515625,-1.0000762939453125,-0.01776123046875,0.0137939453125
1772535207865189000,6.900189208984375,-1.0001678466796875,-0.017669677734375,0.0135955810546875
1772535207875205000,6.910205078125,-0.9991302490234375,-0.01788330078125,0.0141754150390625
1772535207885221000,6.92022119140625,-0.9998016357421875,-0.0186309814453125,0.013427734375
1772535207895236900,6.93023681640625,-0.9990081787109375,-0.0186920166015625,0.0138702392578125
1772535207905252900,6.9402529296875,-0.9987945556640625,-0.0181732177734375,0.0140533447265625
1772535207915268900,6.950268798828125,-0.999755859375,-0.01885986328125,0.0145416259765625
1772535207925284900,6.960284912109375,-0.9983062744140625,-0.0185089111328125,0.014251708984375
1772535207935302100,6.97030224609375,-0.9992523193359375,-0.018890380859375,0.01397705078125
1772535207945318000,6.98031787109375,-0.9999237060546875,-0.0183563232421875,0.0132598876953125
1772535207955334000,6.990333984375,-1.0007781982421875,-0.0170440673828125,0.0131988525390625
1772535207965350000,7.000349853515625,-0.9996337890625,-0.0187530517578125,0.013397216796875
1772535207975366000,7.010365966796875,-1.0006103515625,-0.0178375244140625,0.0146484375
1772535207985382100,7.020382080078125,-0.999298095703125,-0.0163726806640625,0.0148468017578125
1772535207995398100,7.030398193359375,-0.9991455078125,-0.01824951171875,0.0146636962890625
1772535208005414000,7.040413818359375,-1,-0.019195556640625,0.0153961181640625
1772535208015430000,7.050429931640625,-0.999755859375,-0.0182952880859375,0.01519775390625
1772535208025446000,7.06044580078125,-0.9985504150390625,-0.0170745849609375,0.01312255859375
1772535208035462000,7.0704619140625,-0.9989776611328125,-0.017913818359375,0.013519287109375
1772535208045478000,7.080477783203125,-0.9992828369140625,-0.01788330078125,0.0143890380859375
1772535208055494100,7.090494140625,-0.997955322265625,-0.0195770263671875,0.0142669677734375
1772535208065510100,7.10051025390625,-0.9984130859375,-0.01666259765625,0.01434326171875
1772535208075526000,7.11052587890625,-0.99920654296875,-0.01806640625,0.0129241943359375
1772535208085542000,7.1205419921875,-0.9980926513671875,-0.0166015625,0.0131072998046875
1772535208095558000,7.130557861328125,-0.999969482421875,-0.01715087890625,0.0143585205078125
1772535208105574000,7.140573974609375,-0.9999237060546875,-0.01861572265625,0.0128021240234375
1772535208115590100,7.150590087890625,-0.999298095703125,-0.017364501953125,0.01373291015625
1772535208125606100,7.160606201171875,-0.9990997314453125,-0.01849365234375,0.0134429931640625
1772535208135622100,7.1706220703125,-0.998565673828125,-0.0189971923828125,0.013580322265625
1772535208145638000,7.180637939453125,-0.9999237060546875,-0.0173797607421875,0.014495849609375
1772535208155654000,7.19065380859375,-0.9998931884765625,-0.0190887451171875,0.014129638671875
1772535208165670000,7.200669921875,-0.999542236328125,-0.0167083740234375,0.0134124755859375
1772535208175686000,7.210685791015625,-0.9998016357421875,-0.01806640625,0.013885498046875
1772535208185702100,7.2207021484375,-0.9998626708984375,-0.018402099609375,0.0146331787109375
1772535208195718100,7.23071826171875,-0.9991607666015625,-0.017608642578125,0.01348876953125
1772535208205734000,7.24073388671875,-1.00042724609375,-0.0173797607421875,0.0150299072265625
1772535208215750000,7.25075,-1,-0.018890380859375,0.01348876953125
1772535208225766000,7.260765869140625,-1.000213623046875,-0.018280029296875,0.01251220703125
1772535208235782000,7.270781982421875,-0.999755859375,-0.0175628662109375,0.0132293701171875
1772535208245798100,7.280798095703125,-0.9994659423828125,-0.018341064453125,0.0142974853515625
1772535208255814100,7.290814208984375,-0.999725341796875,-0.018310546875,0.01373291015625
1772535208265830100,7.300830078125,-0.9994659423828125,-0.0178375244140625,0.0140380859375
1772535208275846000,7.310845947265625,-0.9993133544921875,-0.01812744140625,0.0137176513671875
1772535208285862000,7.32086181640625,-1.000091552734375,-0.018157958984375,0.01397705078125
1772535208295878100,7.330878173828125,-0.9988555908203125,-0.0177001953125,0.013671875
1772535208305894100,7.34089404296875,-1.00030517578125,-0.0184173583984375,0.01348876953125
1772535208315910100,7.35091015625,-0.9992523193359375,-0.0175018310546875,0.0140228271484375
1772535208325926100,7.360926025390625,-0.9985504150390625,-0.0198211669921875,0.0151214599609375
1772535208335942100,7.370942138671875,-0.9986724853515625,-0.0185089111328125,0.013031005859375
1772535208345958000,7.3809580078125,-0.9992523193359375,-0.0183868408203125,0.014801025390625
1772535208355974000,7.390973876953125,-0.9995880126953125,-0.0183868408203125,0.014739990234375
1772535208365990100,7.400990234375,-0.9994964599609375,-0.01898193359375,0.0132598876953125
1772535208376006100,7.411006103515625,-1.0010986328125,-0.0178070068359375,0.0143585205078125
1772535208386022100,7.421022216796875,-0.999664306640625,-0.0169219970703125,0.01470947265625
1772535208396038100,7.4310380859375,-0.999908447265625,-0.0180511474609375,0.014373779296875
1772535208406054100,7.44105419921875,-0.9982452392578125,-0.0174713134765625,0.0147705078125
1772535208416070000,7.45106982421875,-0.999847412109375,-0.0187530517578125,0.014312744140625
1772535208426086000,7.4610859375,-1.000579833984375,-0.017730712890625,0.013519287109375
1772535208436102100,7.47110205078125,-0.99853515625,-0.01739501953125,0.014404296875
1772535208446119200,7.481119140625,-0.9999237060546875,-0.016937255859375,0.0137939453125
1772535208456135000,7.491135009765625,-0.9988250732421875,-0.0171051025390625,0.0137176513671875
1772535208466151000,7.50115087890625,-0.99896240234375,-0.0180816650390625,0.0128326416015625
1772535208476167000,7.5111669921875,-1.000213623046875,-0.01678466796875,0.013946533203125
1772535208486183200,7.52118310546875,-0.99951171875,-0.0178375244140625,0.0139312744140625
1772535208496199200,7.53119921875,-0.99884033203125,-0.0170135498046875,0.0137786865234375
1772535208506215200,7.541215087890625,-1.000732421875,-0.0168304443359375,0.0133819580078125
1772535208516231200,7.551231201171875,-1.000518798828125,-0.0174713134765625,0.013916015625
1772535208526247000,7.561246826171875,-1.0001373291015625,-0.0182952880859375,0.013458251953125
1772535208536263000,7.571262939453125,-0.9987945556640625,-0.01727294921875,0.0141448974609375
1772535208546279000,7.58127880859375,-0.999603271484375,-0.016845703125,0.0153350830078125
1772535208556295200,7.591295166015625,-1.0008087158203125,-0.0190277099609375,0.0138092041015625
1772535208566311200,7.601311279296875,-0.999176025390625,-0.0187835693359375,0.0130767822265625
1772535208576327200,7.6113271484375,-0.9999237060546875,-0.017425537109375,0.014251708984375
1772535208586343200,7.62134326171875,-0.9984588623046875,-0.01837158203125,0.013885498046875
1772535208596359000,7.63135888671875,-0.9991912841796875,-0.0184326171875,0.0140380859375
1772535208606375000,7.641375,-0.9983367919921875,-0.0163726806640625,0.0131072998046875
1772535208616391200,7.65139111328125,-0.9998626708984375,-0.017333984375,0.014801025390625
1772535208626407200,7.6614072265625,-0.999359130859375,-0.018890380859375,0.014617919921875
1772535208636423200,7.671423095703125,-0.99884033203125,-0.017974853515625,0.0131378173828125
1772535208646439200,7.681439208984375,-0.999176025390625,-0.0184478759765625,0.013946533203125
1772535208656455000,7.691454833984375,-0.999053955078125,-0.0183563232421875,0.014892578125
1772535208666471000,7.701470947265625,-0.99896240234375,-0.0185546875,0.0135498046875
1772535208676487000,7.71148681640625,-1.0002593994140625,-0.0176239013671875,0.01336669921875
1772535208686503200,7.721503173828125,-1.0001068115234375,-0.018646240234375,0.0135040283203125
1772535208696519200,7.731519287109375,-0.9997406005859375,-0.01788330078125,0.0138397216796875
1772535208706535200,7.74153515625,-0.9996490478515625,-0.0181732177734375,0.01397705078125
1772535208716551200,7.75155126953125,-0.9994049072265625,-0.0184783935546875,0.012939453125
1772535208726567000,7.76156689453125,-0.9982757568359375,-0.0187530517578125,0.0131072998046875
1772535208736583000,7.7715830078125,-1.000030517578125,-0.0179443359375,0.01312255859375
1772535208746599000,7.781598876953125,-0.997802734375,-0.0182342529296875,0.0135498046875
1772535208756615200,7.791615234375,-0.9990997314453125,-0.0181732177734375,0.0152587890625
1772535208766631200,7.801631103515625,-1.00042724609375,-0.0185546875,0.0132904052734375
1772535208776647200,7.811647216796875,-0.9997100830078125,-0.018951416015625,0.012359619140625
1772535208786663200,7.8216630859375,-0.998931884765625,-0.0183258056640625,0.013031005859375
1772535208796679000,7.831678955078125,-0.999114990234375,-0.0177154541015625,0.0142822265625
1772535208806695000,7.84169482421875,-0.999114990234375,-0.0179443359375,0.014862060546875
1772535208816711000,7.8517109375,-1.0003509521484375,-0.0170135498046875,0.013671875
1772535208826727200,7.86172705078125,-0.9992218017578125,-0.0181884765625,0.01287841796875
1772535208836743200,7.8717431640625,-0.997955322265625,-0.017242431640625,0.0139007568359375
1772535208846759200,7.88175927734375,-0.9989166259765625,-0.017303466796875,0.013671875
1772535208856775200,7.891775146484375,-0.9996337890625,-0.0165557861328125,0.0138092041015625
1772535208866791000,7.901791015625,-0.9986572265625,-0.0181121826171875,0.0138397216796875
1772535208876807000,7.911806884765625,-0.99884033203125,-0.01800537109375,0.0142822265625
1772535208886823200,7.9218232421875,-0.9996337890625,-0.017364501953125,0.0140228271484375
1772535208896839200,7.931839111328125,-0.9986114501953125,-0.017852783203125,0.0132598876953125
1772535208906855200,7.941855224609375,-1.0000152587890625,-0.0179901123046875,0.01214599609375
1772535208916871200,7.95187109375,-1.000335693359375,-0.017242431640625,0.0138397216796875
1772535208926887000,7.961886962890625,-0.9999542236328125,-0.01837158203125,0.0140380859375
1772535208936903000,7.97190283203125,-0.99920654296875,-0.0192413330078125,0.013214111328125
1772535208946919000,7.9819189453125,-0.9985809326171875,-0.0190277099609375,0.0134429931640625
1772535208956935200,7.99193505859375,-0.9989471435546875,-0.019012451171875,0.01458740234375
1772535208966951200,8.001951171875,-1.0005035400390625,-0.0182342529296875,0.0142364501953125
1772535208976967200,8.01196728515625,-0.9998016357421875,-0.0188446044921875,0.0134124755859375
1772535208986983200,8.021983154296874,-0.9991607666015625,-0.0179901123046875,0.0136566162109375
1772535208996999000,8.0319990234375,-0.999542236328125,-0.0177459716796875,0.0134735107421875
1772535209007015000,8.042014892578125,-0.9979095458984375,-0.0184478759765625,0.013641357421875
1772535209017032200,8.0520322265625,-0.9991302490234375,-0.0168914794921875,0.0135040283203125
1772535209027048200,8.062048095703124,-0.99896240234375,-0.0171661376953125,0.013275146484375
1772535209037064200,8.072064208984376,-0.99871826171875,-0.0182952880859375,0.013671875
1772535209047080000,8.082079833984375,-0.999481201171875,-0.0167083740234375,0.0142822265625
1772535209057096000,8.092095947265625,-1.0004730224609375,-0.0180511474609375,0.0140533447265625
1772535209067112000,8.10211181640625,-0.998992919921875,-0.0186309814453125,0.0134124755859375
1772535209077128200,8.112128173828125,-1.000152587890625,-0.01788330078125,0.014373779296875
1772535209087144200,8.122144287109375,-0.9995880126953125,-0.0183563232421875,0.0120697021484375
1772535209097160200,8.13216015625,-0.9990234375,-0.01776123046875,0.014068603515625
1772535209107176200,8.14217626953125,-0.999298095703125,-0.0178375244140625,0.01519775390625
1772535209117192000,8.15219189453125,-0.9991607666015625,-0.018890380859375,0.0128631591796875
1772535209127208000,8.1622080078125,-0.998687744140625,-0.0195159912109375,0.014312744140625
1772535209137224000,8.172223876953124,-0.998931884765625,-0.0178375244140625,0.0139312744140625
1772535209147240200,8.182240234375,-0.999420166015625,-0.018768310546875,0.0137481689453125
1772535209157256200,8.192256103515625,-0.9994964599609375,-0.0186767578125,0.014373779296875
1772535209167272200,8.202272216796874,-1.000579833984375,-0.01763916015625,0.01336669921875
1772535209177288000,8.212287841796876,-0.9991607666015625,-0.017730712890625,0.0142822265625
1772535209187304000,8.222303955078125,-0.999725341796875,-0.0178375244140625,0.0139312744140625
1772535209197320000,8.23231982421875,-1.00042724609375,-0.01837158203125,0.0143280029296875
1772535209207336000,8.2423359375,-0.9997100830078125,-0.018218994140625,0.0123443603515625
1772535209217352200,8.252352294921875,-1.0005035400390625,-0.018035888671875,0.01190185546875
1772535209227368200,8.2623681640625,-1.0002593994140625,-0.0184478759765625,0.0135040283203125
1772535209237384000,8.272384033203124,-0.9991607666015625,-0.018096923828125,0.014801025390625
1772535209247399700,8.282399658203126,-0.9996337890625,-0.018157958984375,0.0137481689453125
1772535209257415700,8.292415771484375,-0.998260498046875,-0.0182952880859375,0.0135498046875
1772535209267431700,8.302431640625,-1.0000152587890625,-0.018310546875,0.0139617919921875
1772535209277447700,8.31244775390625,-1.000274658203125,-0.017913818359375,0.013702392578125
1772535209287464000,8.3224638671875,-0.99920654296875,-0.018035888671875,0.014190673828125
1772535209297480000,8.33247998046875,-0.999786376953125,-0.017608642578125,0.01513671875
1772535209307496000,8.342495849609374,-1.0006866455078125,-0.0173797607421875,0.0142364501953125
1772535209317511700,8.35251171875,-0.9999237060546875,-0.01763916015625,0.01397705078125
1772535209327527700,8.362527587890625,-0.999298095703125,-0.0186614990234375,0.0142059326171875
1772535209337543700,8.372543701171875,-0.998291015625,-0.0189361572265625,0.013916015625
1772535209347560000,8.382559814453124,-1.0001068115234375,-0.018280029296875,0.0150604248046875
1772535209357576000,8.392575927734375,-0.9994964599609375,-0.018310546875,0.0152740478515625
1772535209367592000,8.402592041015625,-0.9997100830078125,-0.0184173583984375,0.0140228271484375
1772535209377608000,8.41260791015625,-1.0006256103515625,-0.01898193359375,0.0132598876953125
1772535209387623700,8.422623779296876,-1.0009918212890625,-0.0181121826171875,0.014495849609375
1772535209397639700,8.4326396484375,-1.000640869140625,-0.0175933837890625,0.01373291015625
1772535209407655700,8.44265576171875,-0.9996337890625,-0.017730712890625,0.01385498046875
1772535209417672000,8.452671875,-0.9998321533203125,-0.016998291015625,0.0143890380859375
1772535209427688000,8.46268798828125,-1.00006103515625,-0.0179443359375,0.013427734375
1772535209437704000,8.472703857421875,-0.99957275390625,-0.0174407958984375,0.0146942138671875
1772535209447720000,8.482719970703124,-0.9994354248046875,-0.018035888671875,0.0149383544921875
1772535209457735700,8.492735595703126,-0.99896240234375,-0.01904296875,0.01361083984375
1772535209467751700,8.502751708984375,-1.0006561279296875,-0.018096923828125,0.013397216796875
1772535209477767700,8.512767578125,-1.0002288818359375,-0.017913818359375,0.013519287109375
1772535209487784000,8.522783935546874,-1.000091552734375,-0.01861572265625,0.0139617919921875
1772535209497800000,8.532800048828125,-0.9995269775390625,-0.0179290771484375,0.0146484375
1772535209507816000,8.54281591796875,-0.9988555908203125,-0.0176239013671875,0.013153076171875
1772535209517831700,8.552831787109374,-1.000457763671875,-0.01763916015625,0.013824462890625
1772535209527847700,8.56284765625,-1.0003509521484375,-0.017974853515625,0.0123443603515625
1772535209537863700,8.57286376953125,-0.999969482421875,-0.0173492431640625,0.0129852294921875
1772535209547879700,8.582879638671875,-1.0003814697265625,-0.01776123046875,0.0128173828125
1772535209557896000,8.59289599609375,-1.00006103515625,-0.0189666748046875,0.0130462646484375
1772535209567912000,8.602911865234375,-1.00164794921875,-0.01763916015625,0.0130157470703125
1772535209577928000,8.612927978515625,-1.00042724609375,-0.0183868408203125,0.014251708984375
1772535209587943700,8.622943603515624,-0.998138427734375,-0.01739501953125,0.0145721435546875
1772535209597959700,8.632959716796876,-0.999603271484375,-0.0185699462890625,0.013031005859375
1772535209607975700,8.6429755859375,-0.999786376953125,-0.0189361572265625,0.0134735107421875
1772535209617992000,8.652991943359375,-0.9989471435546875,-0.01812744140625,0.0134429931640625
1772535209628008000,8.663008056640624,-0.9984283447265625,-0.0175323486328125,0.012908935546875
1772535209638024000,8.67302392578125,-0.9990386962890625,-0.01739501953125,0.0135345458984375
1772535209648040000,8.6830400390625,-0.9998931884765625,-0.0178985595703125,0.01434326171875
1772535209658056700,8.693056640625,-0.998992919921875,-0.018280029296875,0.013519287109375
1772535209668072700,8.70307275390625,-1.0005950927734375,-0.01690673828125,0.013916015625
1772535209678089000,8.7130888671875,-1.00067138671875,-0.018157958984375,0.01318359375
1772535209688105000,8.72310498046875,-0.9993743896484375,-0.0201263427734375,0.0122528076171875
1772535209698121000,8.733120849609374,-0.9990386962890625,-0.0182647705078125,0.0143890380859375
1772535209708136700,8.74313671875,-0.998809814453125,-0.0175628662109375,0.0149383544921875
1772535209718152700,8.753152587890625,-0.998382568359375,-0.0175628662109375,0.0142364501953125
1772535209728168700,8.763168701171875,-0.9991912841796875,-0.0181121826171875,0.0145416259765625
1772535209738185000,8.77318505859375,-0.9990081787109375,-0.0175628662109375,0.01397705078125
1772535209748201000,8.783200927734375,-0.9995269775390625,-0.0179901123046875,0.0139007568359375
1772535209758217000,8.793217041015625,-1.00048828125,-0.017974853515625,0.0129547119140625
1772535209768232700,8.803232666015624,-0.997894287109375,-0.0186309814453125,0.0132904052734375
1772535209778248700,8.813248779296876,-0.998077392578125,-0.01873779296875,0.0127105712890625
1772535209788264700,8.8232646484375,-0.999420166015625,-0.017364501953125,0.01348876953125
1772535209798280700,8.83328076171875,-0.9996490478515625,-0.0179290771484375,0.013885498046875
1772535209808297000,8.843296875,-0.999542236328125,-0.017486572265625,0.0136871337890625
1772535209818313000,8.85331298828125,-0.9989776611328125,-0.0187835693359375,0.0126190185546875
1772535209828329000,8.863328857421875,-0.9996337890625,-0.018798828125,0.0140533447265625
1772535209838344700,8.8733447265625,-0.9998626708984375,-0.019073486328125,0.013946533203125
1772535209848360700,8.883360595703126,-0.9982452392578125,-0.0203399658203125,0.014495849609375
1772535209858376700,8.893376708984375,-0.9995574951171875,-0.01837158203125,0.013946533203125
1772535209868392700,8.903392822265625,-0.998565673828125,-0.0171356201171875,0.013824462890625
1772535209878409000,8.913408935546874,-0.999420166015625,-0.0174407958984375,0.0130462646484375
1772535209888425000,8.923425048828125,-0.9999237060546875,-0.01922607421875,0.013519287109375
1772535209898441000,8.93344091796875,-0.9981231689453125,-0.0171966552734375,0.01385498046875
1772535209908456700,8.943456787109374,-0.999664306640625,-0.01715087890625,0.0149078369140625
1772535209918472700,8.95347265625,-0.999786376953125,-0.0181427001953125,0.013275146484375
1772535209928488700,8.96348876953125,-1.0001678466796875,-0.016387939453125,0.0143890380859375
1772535209938504700,8.973504638671875,-1.000274658203125,-0.017578125,0.0135650634765625
1772535209948521000,8.98352099609375,-0.9982452392578125,-0.018035888671875,0.0142364501953125
1772535209958537000,8.993536865234375,-0.9996795654296875,-0.0181732177734375,0.01324462890625
1772535209968552700,9.003552734375,-1.000640869140625,-0.018951416015625,0.0135955810546875
1772535209978568700,9.013568603515624,-0.9995574951171875,-0.0164337158203125,0.013763427734375
1772535209988584700,9.023584716796876,-0.9992218017578125,-0.01812744140625,0.0139312744140625
1772535209998600700,9.0336005859375,-0.99920654296875,-0.0184173583984375,0.0140380859375
1772535210008617000,9.043616943359375,-0.9995880126953125,-0.01904296875,0.01324462890625
1772535210018633000,9.053633056640624,-0.99835205078125,-0.0169677734375,0.0135955810546875
1772535210028649000,9.06364892578125,-1.000579833984375,-0.018096923828125,0.0131683349609375
1772535210038664700,9.073664794921875,-1.000518798828125,-0.0187835693359375,0.0133056640625
1772535210048680700,9.0836806640625,-0.999359130859375,-0.0185394287109375,0.0145721435546875
1772535210058696700,9.09369677734375,-0.99932861328125,-0.0176849365234375,0.014190673828125
1772535210068712700,9.103712646484375,-0.9986419677734375,-0.017822265625,0.0138702392578125
1772535210078729000,9.11372900390625,-1.000335693359375,-0.018585205078125,0.012969970703125
1772535210088745000,9.123744873046874,-0.999267578125,-0.0182037353515625,0.0127716064453125
1772535210098761000,9.133760986328125,-0.9983367919921875,-0.0184173583984375,0.012939453125
1772535210108776700,9.143776611328125,-0.999359130859375,-0.018280029296875,0.0130157470703125
1772535210118792700,9.153792724609374,-1.0001678466796875,-0.016693115234375,0.013641357421875
1772535210128808700,9.16380859375,-0.9990234375,-0.0178985595703125,0.013458251953125
1772535210138824700,9.17382470703125,-1.000762939453125,-0.0191650390625,0.01409912109375
1772535210148841000,9.183841064453125,-0.999359130859375,-0.0177459716796875,0.0129547119140625
1772535210158857000,9.19385693359375,-1.0003814697265625,-0.0185089111328125,0.0134735107421875
1772535210168873000,9.203873046875,-0.999053955078125,-0.0183868408203125,0.0142669677734375
1772535210178888700,9.213888671875,-1.000335693359375,-0.018096923828125,0.0145111083984375
1772535210188904700,9.22390478515625,-1.0006103515625,-0.017333984375,0.0139923095703125
1772535210198920700,9.233920654296876,-0.998748779296875,-0.01629638671875,0.0132904052734375
1772535210208937000,9.24393701171875,-0.9997711181640625,-0.01824951171875,0.0135345458984375
1772535210218953000,9.253952880859375,-0.999786376953125,-0.01727294921875,0.013580322265625
1772535210228969000,9.263968994140624,-0.99945068359375,-0.0178680419921875,0.0128936767578125
1772535210238984700,9.273984619140625,-0.998016357421875,-0.01849365234375,0.01385498046875
1772535210249000700,9.284000732421875,-0.9992828369140625,-0.0183258056640625,0.014007568359375
1772535210259016700,9.2940166015625,-0.9989166259765625,-0.0180206298828125,0.01397705078125
1772535210269032700,9.30403271484375,-0.9990234375,-0.01873779296875,0.01324462890625
1772535210279049000,9.314049072265625,-0.9987335205078125,-0.0186004638671875,0.013702392578125
1772535210289690600,9.324690673828124,-0.99749755859375,-0.0181121826171875,0.0141143798828125
1772535210299706600,9.33470654296875,-0.9986724853515625,-0.0175018310546875,0.0128631591796875
1772535210309723000,9.344722900390625,-0.9984130859375,-0.0194244384765625,0.013580322265625
1772535210319739000,9.35473876953125,-0.997314453125,-0.0174713134765625,0.0146026611328125
1772535210329755000,9.3647548828125,-0.9998016357421875,-0.0173187255859375,0.014617919921875
1772535210339771000,9.37477099609375,-0.9988861083984375,-0.018829345703125,0.0142669677734375
1772535210349787000,9.384786865234375,-0.9992523193359375,-0.0182952880859375,0.0143280029296875
1772535210359802600,9.394802734375,-0.999481201171875,-0.018096923828125,0.0135345458984375
1772535210369819000,9.40481884765625,-0.998748779296875,-0.0180816650390625,0.013671875
1772535210379835000,9.4148349609375,-0.9993896484375,-0.0173187255859375,0.0139617919921875
1772535210389851000,9.424850830078125,-0.999420166015625,-0.016937255859375,0.0147705078125
1772535210399867000,9.434866943359374,-0.999725341796875,-0.0180206298828125,0.0128326416015625
1772535210409883600,9.444883544921876,-0.9996185302734375,-0.0171356201171875,0.0137176513671875
1772535210419899600,9.454899658203125,-0.999237060546875,-0.0184783935546875,0.0150909423828125
1772535210429916000,9.464916015625,-1.000457763671875,-0.0178375244140625,0.013153076171875
1772535210439932000,9.474931884765626,-1.0009918212890625,-0.0175323486328125,0.0141143798828125
1772535210449948000,9.484947998046875,-0.9990386962890625,-0.0190582275390625,0.0142822265625
1772535210459964000,9.4949638671875,-0.9992218017578125,-0.018341064453125,0.013763427734375
1772535210469979600,9.504979736328124,-0.999359130859375,-0.01788330078125,0.0149993896484375
1772535210479995600,9.51499560546875,-1.0007171630859375,-0.0184173583984375,0.013580322265625
1772535210490012000,9.525011962890625,-0.999725341796875,-0.017669677734375,0.0133819580078125
1772535210500028000,9.53502783203125,-0.9987945556640625,-0.01849365234375,0.0140380859375
1772535210510044000,9.5450439453125,-0.99896240234375,-0.0180206298828125,0.0140228271484375
1772535210520060000,9.555059814453125,-0.9990234375,-0.018829345703125,0.014251708984375
1772535210530076000,9.565075927734375,-0.9992828369140625,-0.018035888671875,0.014984130859375
1772535210540091600,9.575091552734374,-0.999847412109375,-0.017730712890625,0.01458740234375
1772535210550107600,9.585107666015626,-1.000457763671875,-0.0181427001953125,0.015106201171875
1772535210560124000,9.5951240234375,-0.9998626708984375,-0.01824951171875,0.014129638671875
1772535210570140000,9.605139892578125,-1.0010223388671875,-0.0179595947265625,0.0133819580078125
1772535210580156000,9.615156005859374,-0.99896240234375,-0.01776123046875,0.014129638671875
1772535210590172000,9.625171875,-0.998260498046875,-0.0187225341796875,0.0145721435546875
1772535210600188000,9.63518798828125,-1.0000762939453125,-0.0175018310546875,0.014312744140625
1772535210610203600,9.64520361328125,-0.9994964599609375,-0.017669677734375,0.0142974853515625
1772535210620219600,9.6552197265625,-0.9982147216796875,-0.0189056396484375,0.01409912109375
1772535210630861800,9.66586181640625,-0.999114990234375,-0.0177764892578125,0.0135650634765625
1772535210640877800,9.6758779296875,-0.998291015625,-0.0177154541015625,0.0139007568359375
1772535210650893800,9.685893798828126,-0.9998779296875,-0.0179901123046875,0.013519287109375
1772535210660909800,9.695909912109375,-0.9999542236328125,-0.0172882080078125,0.01385498046875
1772535210670925800,9.70592578125,-0.999542236328125,-0.0184783935546875,0.013702392578125
1772535210680941800,9.71594189453125,-0.9987335205078125,-0.01751708984375,0.01416015625
1772535210690957800,9.725957763671875,-0.9981689453125,-0.0186920166015625,0.0142822265625
1772535210700973800,9.735973876953125,-1.0001373291015625,-0.0178985595703125,0.013702392578125
1772535210710989800,9.74598974609375,-0.9988250732421875,-0.0184783935546875,0.013214111328125
1772535210721005800,9.756005859375,-1.0007781982421875,-0.017578125,0.0132293701171875
1772535210731021800,9.766021728515625,-0.9994659423828125,-0.018463134765625,0.013824462890625
1772535210741037800,9.776037841796875,-0.999603271484375,-0.0174407958984375,0.0130157470703125
1772535210751053800,9.7860537109375,-0.99957275390625,-0.017303466796875,0.013519287109375
1772535210761069800,9.79606982421875,-0.9976806640625,-0.018310546875,0.013946533203125
1772535210771085800,9.8060859375,-0.9997100830078125,-0.01824951171875,0.0137939453125
1772535210781101800,9.816101806640624,-1.000152587890625,-0.018402099609375,0.014434814453125
1772535210791117800,9.826117919921876,-0.9995880126953125,-0.017578125,0.01409912109375
1772535210801133800,9.8361337890625,-1.0001220703125,-0.01837158203125,0.0135955810546875
1772535210811149800,9.84614990234375,-0.99871826171875,-0.018646240234375,0.013580322265625
1772535210821165800,9.856165771484376,-1.0011138916015625,-0.019439697265625,0.0150299072265625
1772535210831181800,9.866181884765625,-0.99884033203125,-0.0169525146484375,0.013031005859375
1772535210841197800,9.87619775390625,-1.0000152587890625,-0.0168304443359375,0.0133819580078125
1772535210851213800,9.8862138671875,-0.998077392578125,-0.017913818359375,0.0137939453125
1772535210861229800,9.896229736328126,-0.9986419677734375,-0.0159759521484375,0.0135345458984375
1772535210871245800,9.906245849609375,-0.999420166015625,-0.017974853515625,0.0146636962890625
1772535210881261800,9.91626171875,-0.998870849609375,-0.01922607421875,0.0140838623046875
1772535210891277800,9.92627783203125,-1.000030517578125,-0.0176239013671875,0.013763427734375
1772535210901293800,9.9362939453125,-0.99951171875,-0.0182037353515625,0.015289306640625
1772535210911309800,9.946309814453125,-1.0010833740234375,-0.0181427001953125,0.0135498046875
1772535210921325800,9.956325927734374,-0.9998626708984375,-0.018341064453125,0.01287841796875
1772535210931341800,9.966341796875,-0.9988250732421875,-0.017181396484375,0.0133819580078125
1772535210941357800,9.97635791015625,-0.9997711181640625,-0.018035888671875,0.013519287109375
1772535210951373800,9.986373779296875,-0.999847412109375,-0.01708984375,0.01409912109375
1772535210961389800,9.996389892578126,-0.999176025390625,-0.0175018310546875,0.0139617919921875
1772535210971405800,10.00640576171875,-0.998779296875,-0.0177459716796875,0.013824462890625
1772535210981421800,10.016421875,-0.9998321533203125,-0.0179443359375,0.013580322265625
1772535210991437800,10.026437744140624,-0.9991455078125,-0.0175018310546875,0.015380859375
1772535211001453800,10.036453857421876,-0.9984893798828125,-0.0175018310546875,0.013763427734375
1772535211011469800,10.0464697265625,-1.0012054443359375,-0.0182647705078125,0.0140380859375
1772535211021485800,10.05648583984375,-0.9986724853515625,-0.0191497802734375,0.014556884765625
1772535211031501800,10.066501708984376,-0.999420166015625,-0.0175628662109375,0.0145416259765625
1772535211041517800,10.076517822265625,-0.9984130859375,-0.0177154541015625,0.0157928466796875
1772535211051533800,10.086533935546875,-0.9990692138671875,-0.01654052734375,0.0132293701171875
1772535211061549800,10.0965498046875,-0.9998779296875,-0.017333984375,0.01385498046875
1772535211071565800,10.10656591796875,-0.9989166259765625,-0.0182037353515625,0.0132598876953125
1772535211081581800,10.116581787109375,-0.9994964599609375,-0.017486572265625,0.014007568359375
1772535211091597800,10.126597900390625,-0.99932861328125,-0.01806640625,0.01373291015625
1772535211101613800,10.13661376953125,-0.9997100830078125,-0.018341064453125,0.012908935546875
1772535211111629800,10.1466298828125,-1.000213623046875,-0.018341064453125,0.0136260986328125
1772535211121645800,10.156645751953125,-0.9985809326171875,-0.017486572265625,0.0138702392578125
1772535211131661800,10.166661865234374,-0.9990997314453125,-0.0177001953125,0.0134124755859375
1772535211141678800,10.176678955078126,-0.999908447265625,-0.0177764892578125,0.013671875
1772535211151693800,10.18669384765625,-1.0007171630859375,-0.0185089111328125,0.0134124755859375
1772535211161709800,10.196709716796875,-0.9993133544921875,-0.0185089111328125,0.0137786865234375
1772535211171726600,10.2067265625,-0.999664306640625,-0.0172119140625,0.0125579833984375
1772535211181742800,10.216742919921876,-1.000457763671875,-0.018096923828125,0.0141754150390625
1772535211191758800,10.2267587890625,-0.9995269775390625,-0.017913818359375,0.0140838623046875
1772535211201774800,10.23677490234375,-0.999176025390625,-0.0185546875,0.013519287109375
1772535211211790800,10.246790771484376,-1.00006103515625,-0.0174560546875,0.0129852294921875
1772535211221806800,10.256806884765625,-0.9993743896484375,-0.018218994140625,0.0123138427734375
1772535211231822800,10.26682275390625,-0.999267578125,-0.0177001953125,0.013336181640625
1772535211241838600,10.276838623046874,-1.0003509521484375,-0.0169677734375,0.01483154296875
1772535211251854600,10.2868544921875,-0.99945068359375,-0.017486572265625,0.0131072998046875
1772535211261870600,10.29687060546875,-0.9985198974609375,-0.017730712890625,0.014404296875
1772535211271886600,10.306886474609374,-0.9997711181640625,-0.0178375244140625,0.0142364501953125
1772535211281902800,10.31690283203125,-1.0000457763671875,-0.01727294921875,0.01373291015625
1772535211291918800,10.3269189453125,-1.000030517578125,-0.0182037353515625,0.01446533203125
1772535211301934600,10.3369345703125,-1.0004425048828125,-0.0172119140625,0.013427734375
1772535211311950600,10.34695068359375,-1.0006103515625,-0.018341064453125,0.01483154296875
1772535211321966600,10.356966552734375,-0.9975738525390625,-0.0171661376953125,0.013275146484375
1772535211331982600,10.366982666015625,-0.9983673095703125,-0.0168914794921875,0.0128021240234375
1772535211341998600,10.37699853515625,-0.99969482421875,-0.017547607421875,0.0141754150390625
1772535211352014800,10.387014892578126,-0.999237060546875,-0.017547607421875,0.0146942138671875
1772535211362030800,10.39703076171875,-1.001190185546875,-0.0179443359375,0.01385498046875
1772535211372046600,10.407046630859375,-0.9990234375,-0.017364501953125,0.0139617919921875
1772535211382062600,10.4170625,-0.9979705810546875,-0.01885986328125,0.01385498046875
1772535211392078600,10.42707861328125,-0.9993438720703125,-0.017791748046875,0.0133819580078125
1772535211402094600,10.437094482421875,-0.998687744140625,-0.018402099609375,0.0142974853515625
1772535211412110800,10.44711083984375,-1.000152587890625,-0.0179595947265625,0.0135650634765625
1772535211422126800,10.457126953125,-1.0002593994140625,-0.017974853515625,0.013702392578125
1772535211432142800,10.467142822265625,-0.9989776611328125,-0.01849365234375,0.014190673828125
1772535211442158600,10.47715869140625,-1.000518798828125,-0.0169677734375,0.01416015625
1772535211452174600,10.487174560546874,-0.9992523193359375,-0.018341064453125,0.0137481689453125
1772535211462190600,10.497190673828126,-1.00115966796875,-0.0177154541015625,0.013580322265625
1772535211472206600,10.50720654296875,-1.000457763671875,-0.0179443359375,0.013458251953125
1772535211482222800,10.517222900390625,-0.9991607666015625,-0.01788330078125,0.0130462646484375
1772535211492238800,10.52723876953125,-0.99920654296875,-0.0174713134765625,0.0142364501953125
1772535211502254800,10.5372548828125,-0.9994049072265625,-0.0183258056640625,0.012115478515625
1772535211512270600,10.5472705078125,-0.9988555908203125,-0.0183563232421875,0.0147705078125
1772535211522286600,10.55728662109375,-0.9998321533203125,-0.0193328857421875,0.01409912109375
1772535211532302600,10.567302490234376,-1.0003204345703125,-0.017669677734375,0.0143890380859375
1772535211542318600,10.577318603515625,-0.9993743896484375,-0.0173492431640625,0.0141754150390625
1772535211552334800,10.5873349609375,-0.999114990234375,-0.0171661376953125,0.014404296875
1772535211562350800,10.597350830078126,-0.9987335205078125,-0.019012451171875,0.0135955810546875
1772535211572366600,10.60736669921875,-0.9990234375,-0.0176849365234375,0.0133514404296875
1772535211582382600,10.617382568359375,-1.000396728515625,-0.0179595947265625,0.0142974853515625
1772535211592398600,10.627398681640624,-1.0002593994140625,-0.0184478759765625,0.01300048828125
1772535211602414600,10.63741455078125,-0.9984588623046875,-0.019439697265625,0.013336181640625
1772535211612430600,10.6474306640625,-0.9989776611328125,-0.0180816650390625,0.014129638671875
1772535211622446800,10.65744677734375,-0.9992218017578125,-0.0190582275390625,0.0140380859375
1772535211632462800,10.667462890625,-0.9997406005859375,-0.017852783203125,0.0142669677734375
1772535211642478600,10.677478515625,-0.99981689453125,-0.0184326171875,0.0137481689453125
1772535211652494600,10.68749462890625,-1.0007476806640625,-0.017181396484375,0.012969970703125
1772535211662510600,10.697510498046874,-0.9991455078125,-0.0183258056640625,0.01397705078125
1772535211672526600,10.707526611328126,-0.9993896484375,-0.0182342529296875,0.0128326416015625
1772535211682542800,10.71754296875,-0.999298095703125,-0.0187530517578125,0.01416015625
1772535211692558800,10.727558837890625,-0.9994354248046875,-0.018402099609375,0.0136260986328125
1772535211702574800,10.737574951171876,-0.9994354248046875,-0.0183563232421875,0.0146026611328125
1772535211712590600,10.747590576171875,-0.998443603515625,-0.0190582275390625,0.0141143798828125
1772535211722606600,10.757606689453125,-0.998870849609375,-0.0182647705078125,0.0133209228515625
1772535211732622600,10.76762255859375,-0.997344970703125,-0.0164947509765625,0.013702392578125
1772535211742638600,10.777638671875,-1.000030517578125,-0.0172271728515625,0.0135040283203125
1772535211752654800,10.78765478515625,-0.999847412109375,-0.0184783935546875,0.0139312744140625
1772535211762670800,10.7976708984375,-0.999664306640625,-0.018096923828125,0.0145263671875
1772535211772686600,10.8076865234375,-0.9996185302734375,-0.018707275390625,0.01446533203125
1772535211782702600,10.81770263671875,-0.9977569580078125,-0.017822265625,0.0139007568359375
