time,seconds_elapsed,z,y,x
1772535201019864000,0.054864013671875,-0.0010189663153141737,-0.0010644410504028201,-0.0009881407022476196
1772535201029880000,0.064880126953125,-0.00022256752708926797,0.0007381069008260965,-0.001670315396040678
1772535201039896000,0.07489599609375,0.0005452217301353812,-0.0001364750787615776,0.00003836909309029579
1772535201049912000,0.084912109375,0.0002987493062391877,-0.0011647819774225354,-0.0007415041327476501
1772535201059928000,0.094927978515625,-0.0001326827914454043,0.0008293930441141129,0.0013432186096906662
1772535201069943800,0.10494384765625,-0.00027022790163755417,0.00014425115659832954,-0.0006865831092000008
1772535201079959800,0.114959716796875,0.0010821253526955843,0.0010691669303923845,-0.0006437064148485661
1772535201089976000,0.12497607421875,0.00034110789420083165,0.00018280884250998497,-0.000012171454727649689
1772535201099992000,0.134991943359375,0.0003677394997794181,-0.0010928454576060176,0.0005644029006361961
1772535201110008000,0.145008056640625,0.0005306311650201678,-0.0004752038512378931,0.0015697423368692398
1772535201120024000,0.155024169921875,0.00005898531526327133,0.001486214343458414,-0.0002832850441336632
1772535201130039800,0.165039794921875,0.0009187076357193291,0.00034415582194924355,-0.00011735036969184875
1772535201140055800,0.175055908203125,-0.0008589524077251554,-0.001558406394906342,-0.0006856685504317284
1772535201150072000,0.185072021484375,0.00007966160774230957,0.0007014896254986525,-0.0004807254299521446
1772535201160088000,0.195088134765625,0.00011295115109533072,0.0014695455320179462,-0.00008231634274125099
1772535201170104000,0.20510400390625,-0.0007806567591615021,-0.0006031298544257879,-0.0012125708162784576
1772535201180120000,0.2151201171875,-0.0007681399001739919,-0.0012108632363379002,0.0003648195415735245
1772535201190136000,0.225135986328125,0.0006496363785117865,-0.0009421186987310648,-0.002408119384199381
1772535201200151800,0.23515185546875,-0.00028646475402638316,0.0014808252453804016,-0.0006754668429493904
1772535201210167800,0.245167724609375,0.0003681871166918427,-0.0005791692528873682,-0.0006949948146939278
1772535201220184000,0.25518408203125,-0.000563386594876647,0.00010686111636459827,-0.0007040495984256268
1772535201230200000,0.265199951171875,-0.0002095188247039914,0.0002194899134337902,0.0008492711931467056
1772535201240215600,0.275215576171875,0.0015702717937529087,-0.001258830656297505,-0.00010174373164772987
1772535201250232600,0.285232666015625,-0.00001712684752419591,-0.00005808332934975624,-0.00045094406232237816
1772535201260248600,0.29524853515625,-0.0005159369320608675,0.001605327008292079,-0.00024721259251236916
1772535201270264600,0.3052646484375,0.00031285075237974524,-0.0000880993902683258,-0.0002858689986169338
1772535201280280600,0.315280517578125,-0.0002424183185212314,-0.0006731960456818342,-0.00004724971950054169
1772535201290296600,0.325296630859375,0.00043430938967503607,-0.001195527147501707,0.00034682685509324074
1772535201300312600,0.3353125,0.00027824813150800765,0.00035869376733899117,-0.0018891631625592709
1772535201310328600,0.34532861328125,0.0009380124974995852,-0.0006843112641945481,-0.0004959180951118469
1772535201320344600,0.355344482421875,-0.001790928654372692,-0.00019242544658482075,0.0004598905798047781
1772535201330360600,0.365360595703125,-0.0013539353385567665,-0.00008902326226234436,0.0018399388063699007
1772535201340376600,0.37537646484375,-0.0015424871817231178,0.00046171853318810463,-0.000014686491340398788
1772535201350392600,0.385392578125,-0.00035581644624471664,-0.0008877402869984508,0.00029463646933436394
1772535201360408600,0.39540869140625,0.000007705064490437508,-0.001326096593402326,-0.0004702233709394932
1772535201370424600,0.405424560546875,-0.001081680878996849,-0.0007261678110808134,-0.0010232795029878616
1772535201380440600,0.415440673828125,-0.00004757539136335254,0.0010493616573512554,0.000543191796168685
1772535201390456600,0.42545654296875,-0.0009758117375895381,-0.0009823591681197286,-0.001012442633509636
1772535201400472600,0.43547265625,-0.0008501105476170778,0.0013593584299087524,-0.0006822105497121811
1772535201410488600,0.445488525390625,-0.00043475511483848095,-0.0005992739461362362,-0.000024673063308000565
1772535201420504600,0.455504638671875,0.0006334387580864131,-0.0010647946037352085,-0.0006566410884261131
1772535201430520600,0.4655205078125,-0.0004668989568017423,0.0001491846051067114,-0.0002023600973188877
1772535201440536600,0.47553662109375,0.0001810481189750135,-0.0003653382882475853,-0.0012396611273288727
1772535201450552600,0.485552490234375,0.000758926325943321,0.00012736697681248188,-0.002235797233879566
1772535201460568600,0.495568603515625,0.0006694440962746739,0.00021285447292029858,0.0003802257124334574
1772535201470584600,0.50558447265625,0.0000013660755939781666,-0.0017249826341867447,-0.0004376503638923168
1772535201480600600,0.5156005859375,0.00018352631013840437,0.00015307869762182236,-0.0004059583880007267
1772535201490616600,0.525616455078125,0.00038583713467232883,0.00005393894389271736,-0.00006735604256391525
1772535201500632600,0.535632568359375,-0.0007153800106607378,0.000458473339676857,-0.0007459293119609356
1772535201510648600,0.545648681640625,0.0015404140576720238,-0.00005891965702176094,0.00042465771548449993
1772535201520664600,0.55566455078125,0.00024505244800820947,0.0002553332597017288,0.00016633141785860062
1772535201530680600,0.5656806640625,-0.0007631740299984813,-0.0009192796424031258,0.0005357495974749327
1772535201540696600,0.575696533203125,0.0002144723548553884,0.0011169733479619026,0.00018873950466513634
1772535201550712600,0.585712646484375,0.00038153526838868856,0.00012156390585005283,0.00018627941608428955
1772535201560728600,0.595728515625,-0.0006025027250871062,-0.000622257124632597,0.0002579186111688614
1772535201570744600,0.60574462890625,-0.0006948667578399181,0.0015659099444746971,0.0014529293403029442
1772535201580760600,0.615760498046875,-0.00044932332821190357,0.001327024307101965,0.0016649169847369194
1772535201590776600,0.625776611328125,0.0004084236570633948,-0.0004989916924387217,-0.0006413999944925308
1772535201600792600,0.63579248046875,-0.00026615505339577794,0.0016962517984211445,-0.0004693595692515373
1772535201610809600,0.6458095703125,0.0008967548492364585,-0.0002875372301787138,-0.0020319498144090176
1772535201620825600,0.65582568359375,-0.0005690490361303091,0.0011140843853354454,-0.0010114260949194431
1772535201630841600,0.665841552734375,0.0003332626656629145,-0.00031039072200655937,-0.0004586665891110897
1772535201640857300,0.675857421875,-0.00045396777568385005,0.0007479495834559202,0.0006577305030077696
1772535201650873600,0.68587353515625,-0.0008340791682712734,-0.00016311928629875183,0.001015729969367385
1772535201660889600,0.6958896484375,-0.00034645432606339455,-0.000988433021120727,-0.0008775112219154835
1772535201670905600,0.705905517578125,-0.0008588930941186845,-0.00015860889106988907,-0.00013187900185585022
1772535201680921600,0.715921630859375,0.0002407261054031551,-0.0003668679855763912,0.000615936703979969
1772535201690937600,0.7259375,0.0007219958934001625,-0.00022394349798560143,-0.0009748903103172779
1772535201700953600,0.73595361328125,0.0006612758152186871,-0.0006423261947929859,0.0008238088339567184
1772535201710969300,0.74596923828125,0.0007330637890845537,0.00023883418180048466,-0.00009431969374418259
1772535201720985600,0.755985595703125,0.00002466293517500162,0.0007459002081304789,-0.0011342838406562805
1772535201731001600,0.766001708984375,0.000017639074940234423,0.00010031694546341896,-0.0008983076550066471
1772535201741017600,0.776017578125,-0.00047398044262081385,0.00016050436533987522,-0.00042106909677386284
1772535201751033600,0.78603369140625,0.0015767081640660763,-0.0002804810646921396,0.0008347372058779001
1772535201761049600,0.796049560546875,-0.0006654071621596813,0.0002521511632949114,-0.0007831333205103874
1772535201771065600,0.806065673828125,-0.0003031522501260042,-0.0011924420250579715,0.00008428096771240234
1772535201781081600,0.81608154296875,0.0014870245940983295,-0.0010843176860362291,-0.0006315768696367741
1772535201791097600,0.82609765625,-0.00029775185976177454,0.00038036005571484566,0.0000821482390165329
1772535201801113600,0.836113525390625,-0.00028709921753033996,-0.001519006327725947,0.00046857306733727455
1772535201811129600,0.846129638671875,-0.00013479706831276417,0.0005353447049856186,0.0024685594253242016
1772535201821145600,0.8561455078125,0.0008865252020768821,-0.0005757261533290148,-0.000305921770632267
1772535201831161600,0.86616162109375,-0.0003504676860757172,-0.0006257672794163227,-0.0008385377004742622
1772535201841177300,0.87617724609375,-0.0003190423594787717,-0.00009446660988032818,0.0002999636344611645
1772535201851193600,0.886193603515625,-0.0004998711519874632,-0.0012994055869057775,-0.0011034864000976086
1772535201861209600,0.896209716796875,0.0003294371999800205,-0.0003196285106241703,0.0007085283286869526
1772535201871225600,0.9062255859375,-0.0006966321961954236,-0.000602085143327713,0.0010655596852302551
1772535201881241600,0.91624169921875,-0.0001469557173550129,-0.0002348350826650858,-0.0001392541453242302
1772535201891257600,0.926257568359375,0.0006274315528571606,-0.0006026050541549921,0.0010753751266747713
1772535201901273600,0.936273681640625,-0.00014674937119707465,0.00034095277078449726,0.0007675136439502239
1772535201911289300,0.946289306640625,0.002344671869650483,-0.0003758915700018406,0.0004805983044207096
1772535201921305600,0.9563056640625,0.000018400722183287144,-0.00031117675825953484,0.000022801104933023453
1772535201931321600,0.966321533203125,0.0008301567868329585,0.0006841919384896755,-0.0004353569820523262
1772535201941337600,0.976337646484375,-0.00023697182768955827,0.0008887227158993483,0.0003284378908574581
1772535201951353600,0.986353515625,0.00030096067348495126,0.00001702900044620037,-0.00012927548959851265
1772535201961369600,0.99636962890625,0.00013158359797671437,0.00011796271428465843,0.0004233303479850292
1772535201971385600,1.006385498046875,-0.0005415676278062165,-0.0001804283820092678,-0.0005352501757442951
1772535201981401600,1.016401611328125,-0.00010907021351158619,0.000922120176255703,-0.0004311203956604004
1772535201991418600,1.026418701171875,-0.00005476648220792413,0.0001679451670497656,0.000010724179446697235
1772535202001434600,1.0364345703125,-0.0005644955090247095,0.00007606600411236286,0.0006978199817240238
1772535202011450600,1.04645068359375,0.0003315943176858127,-0.0005409393925219774,0.001104320166632533
1772535202021466400,1.05646630859375,0.00026022159727290273,0.0005411028396338224,0.00011974945664405823
1772535202031482400,1.066482421875,-0.00022393581457436085,-0.0007769928779453039,0.0003397618420422077
1772535202041498600,1.07649853515625,0.0002967122127301991,0.0009127827361226082,-0.0005872845649719238
1772535202051514600,1.0865146484375,-0.00025338929845020175,0.0009165841620415449,0.00027405982837080956
1772535202061530600,1.096530517578125,-0.000566310656722635,-0.0011023582192137837,0.0005345167592167854
1772535202071546600,1.106546630859375,0.000017904385458678007,0.000737031688913703,0.0005935304798185825
1772535202081562600,1.116562744140625,0.0014016828499734402,0.0003916197456419468,0.0013123175594955683
1772535202091578400,1.126578369140625,0.00017386386753059924,0.0008468355517834425,-0.0014808750711381435
1772535202101594400,1.136594482421875,0.0016338087152689695,-0.0005952662322670221,-0.0017325440421700478
1772535202111610600,1.146610595703125,0.0008125415770336986,-0.00020887935534119606,-0.0012051290832459927
1772535202121626600,1.156626708984375,0.000315595738356933,-0.0010144856059923768,0.00012698443606495857
1772535202131642600,1.166642578125,-0.0010621068067848682,-0.0007058191113173962,-0.0005835648626089096
1772535202141658600,1.17665869140625,-0.0001712793600745499,0.000022022752091288567,-0.0006323005072772503
1772535202151674600,1.186674560546875,0.001801739097572863,-0.002491998951882124,0.0010996242053806782
1772535202161690400,1.1966904296875,0.0003234183823224157,0.00024546426720917225,-0.001237033400684595
1772535202171706600,1.20670654296875,-0.0012868578778579831,-0.0012443818850442767,0.0019508383702486753
1772535202181722600,1.21672265625,0.00032009356073103845,-0.00015621422789990902,0.0003553386777639389
1772535202191738600,1.226738525390625,0.0013374091358855367,-0.001157205319032073,-0.000643610954284668
1772535202201754600,1.236754638671875,-0.0007241438725031912,0.00014135194942355156,-0.0005581234581768513
1772535202211770600,1.2467705078125,-0.0019755521789193153,0.00014154543168842793,-0.0009196791797876358
1772535202221786600,1.25678662109375,-0.00024423113791272044,-0.000423843739554286,0.000016422010958194733
1772535202231802400,1.26680224609375,-0.0007916288450360298,-0.0006736831273883581,-0.0008035963401198387
1772535202241819100,1.276819091796875,-0.000030231080017983913,-0.0001426488161087036,-0.000003050081431865692
1772535202251835100,1.286835205078125,-0.00016899488400667906,0.0001631199847906828,0.000998170580714941
1772535202261851100,1.29685107421875,-0.00006619689520448446,0.0003865594044327736,0.0003816490061581135
1772535202271867400,1.306867431640625,-0.00003169028786942363,-0.0003514648415148258,0.0003031892701983452
1772535202281883100,1.316883056640625,-0.0005613930406980217,0.0012091477401554585,-0.0004432946443557739
1772535202291899100,1.326899169921875,0.00036332610761746764,0.0004391218535602093,-0.0002281665802001953
1772535202301915100,1.3369150390625,0.00014894164633005857,0.0007049052510410547,0.0006173872388899326
1772535202311931100,1.34693115234375,0.00022752341465093195,-0.00033462466672062874,0.000728146405890584
1772535202321947100,1.356947021484375,0.0010706802131608129,-0.0011602045269683003,-0.00005002925172448158
1772535202331963400,1.36696337890625,-0.000009825918823480606,-0.0012654336169362068,0.0003386489115655422
1772535202341979400,1.3769794921875,0.0010647595627233386,0.0009228857234120369,0.0003535626456141472
1772535202351995100,1.3869951171875,0.0009784398134797812,-0.0013042164500802755,0.00007212953642010689
1772535202362011100,1.39701123046875,-0.0011092121712863445,0.000005259877070784569,-0.0011316193267703056
1772535202372027100,1.407027099609375,-0.0005577343399636447,-0.0003407220356166363,-0.0008559366688132286
1772535202382044200,1.417044189453125,0.0001155128120444715,-0.0008595057297497988,0.0002751080319285393
1772535202392060200,1.42706005859375,-0.00035870319698005915,0.000529175391420722,0.0008806204423308372
1772535202402076200,1.437076171875,-0.0003797421231865883,0.0003190520219504833,-0.0011327294632792473
1772535202412092200,1.447092041015625,0.00044757453724741936,0.00036993646062910557,-0.000029173679649829865
1772535202422108200,1.457108154296875,0.000407627085223794,0.00016087829135358334,0.0001343442127108574
1772535202432124200,1.467124267578125,-0.0002504998119547963,-0.0005419794470071793,-0.000029915012419223785
1772535202442140200,1.47714013671875,-0.00026141875423491,-0.00044424133375287056,0.00023826537653803825
1772535202452156400,1.487156494140625,-0.00036952795926481485,0.0016010177787393332,0.00038602855056524277
1772535202462172200,1.497172119140625,-0.0006177346222102642,-0.001255488838069141,0.0014576846733689308
1772535202472188200,1.507188232421875,-0.00002002075780183077,-0.0007941608782857656,0.0000342419371008873
1772535202482204200,1.5172041015625,-0.0011268304660916328,-0.00048097316175699234,-0.0006880071014165878
1772535202492220200,1.52722021484375,-0.0006454624235630035,-0.00023652869276702404,-0.000369916670024395
1772535202502236200,1.537236083984375,0.000605957000516355,-0.0004967194981873035,0.00004606880247592926
1772535202512252200,1.547252197265625,0.0016023910138756037,-0.00016660802066326141,-0.0003510350361466408
1772535202522268400,1.557268310546875,0.00126416957937181,-0.0003056249115616083,-0.00047806790098547935
1772535202532284200,1.5672841796875,0.00028912824927829206,-0.00039670011028647423,0.0002844189293682575
1772535202542300200,1.577300048828125,-0.0012054378166794777,0.00038626929745078087,0.0013408949598670006
1772535202552316200,1.587316162109375,0.0006953401025384665,-0.00018066936172544956,-0.00026086391881108284
1772535202562332200,1.597332275390625,0.00025778275448828936,-0.0006893330719321966,0.00008241739124059677
1772535202572348200,1.60734814453125,-0.00008410838199779391,-0.0003390966448932886,0.0012968908995389938
1772535202582364200,1.6173642578125,0.0008176379487849772,0.0006129832472652197,-0.00039821118116378784
1772535202592380200,1.627380126953125,-0.0007382396725006402,-0.0005713058635592461,0.0005889986641705036
1772535202602396200,1.637396240234375,-0.0009800547268241644,0.000722990371286869,0.0005514477379620075
1772535202612412200,1.647412109375,-0.00043837615521624684,0.0006904527544975281,-0.0008951202034950256
1772535202622428200,1.65742822265625,0.000661775644402951,-0.00013113254681229591,-0.00013691838830709457
1772535202632444200,1.667444091796875,0.00014106158050708473,-0.0014774532755836844,-0.00008519459515810013
1772535202642460200,1.677460205078125,-0.00011939555406570435,-0.000010317889973521233,-0.00034938007593154907
1772535202652476200,1.68747607421875,0.0013938138727098703,-0.0004271597135812044,0.00031763361766934395
1772535202662492200,1.6974921875,-0.0013188818702474236,-0.000015168683603405952,-0.00000594044104218483
1772535202672508200,1.707508056640625,0.0011407252168282866,-0.0009773484198376536,-0.0007939566858112812
1772535202682524200,1.717524169921875,0.0016616394277662039,0.0003885868936777115,0.0007099304348230362
1772535202692540200,1.7275400390625,-0.0007493441225960851,-0.000026891939342021942,0.00005652662366628647
1772535202702556200,1.73755615234375,-0.0006998092867434025,-0.00015818583779037,-0.0003850255161523819
1772535202712572200,1.747572265625,-0.0005288914544507861,-0.0010911746649071574,-0.00045239832252264023
1772535202722588400,1.75758837890625,-0.0003153059515170753,0.0003360132686793804,-0.00047610048204660416
1772535202732604200,1.767604248046875,-0.0003995525185018778,0.0009735752828419209,0.001315547153353691
1772535202742620200,1.7776201171875,-0.0007489592535421252,0.000010576099157333374,-0.000258381012827158
1772535202752636200,1.78763623046875,-0.0002714208676479757,-0.00023100338876247406,-0.0012354832142591476
1772535202762652200,1.797652099609375,-0.001432825461961329,0.00012932252138853073,0.000021262560039758682
1772535202772668200,1.807668212890625,-0.00027380703249946237,0.00025848601944744587,0.0013047405518591404
1772535202782685200,1.817685302734375,0.000167745107319206,0.0004326568450778723,0.0006916809361428022
1772535202792701200,1.827701171875,0.0010975304758176208,-0.0014643395552411675,0.000764717347919941
1772535202802717200,1.83771728515625,-0.0005592219531536102,0.00043076579459011555,-0.000318390317261219
1772535202812733200,1.847733154296875,-0.0009373546927236021,-0.00046804617159068584,-0.0001234724186360836
1772535202822749200,1.857749267578125,0.0015263354871422052,0.0001902871299535036,0.0008235475979745388
1772535202832765200,1.86776513671875,-0.0005237485747784376,0.0008956531528383493,-0.0009755208157002926
1772535202842781200,1.87778125,0.0007377908914349973,0.00009883544407784939,0.00005911756306886673
1772535202852797200,1.887797119140625,-0.0003886790364049375,-0.0002936448436230421,0.00002479366958141327
1772535202862813200,1.897813232421875,0.0011567533947527409,-0.0003399839624762535,0.0019060506019741297
1772535202872829200,1.9078291015625,0.00015921780141070485,-0.0009661933872848749,-0.0007471824064850807
1772535202882845200,1.91784521484375,-0.0010136382188647985,-0.00011398177593946457,0.0005708159878849983
1772535202892861200,1.927861083984375,0.0015071879606693983,0.0001994927879422903,0.00009119044989347458
1772535202902877200,1.937877197265625,-0.0011583699379116297,-0.00027987617067992687,-0.00033571431413292885
1772535202912893200,1.94789306640625,0.0005402271053753793,0.00022047804668545723,0.0005489019677042961
1772535202922909200,1.9579091796875,-0.0014699269086122513,-0.0009124306961894035,0.00043545104563236237
1772535202932925200,1.96792529296875,-0.0006066759815439582,-0.00013400008901953697,0.00014928169548511505
1772535202942941200,1.977941162109375,0.000218105036765337,-0.0003348025493323803,0.00012504681944847107
1772535202952957200,1.987957275390625,0.0006045309128239751,-0.000026200665161013603,0.0013880121987313032
1772535202962973200,1.99797314453125,0.0005472729681059718,-0.0003843957092612982,0.000896392622962594
1772535202972989200,2.0079892578125,-0.0002989796339534223,-0.0005802083760499954,-0.0010652542114257812
1772535202983005200,2.018005126953125,-0.00019192055333405733,0.00041421595960855484,0.001790453214198351
1772535202993021200,2.028021240234375,-0.0005181722226552665,-0.0016915880842134356,-0.00003382330760359764
1772535203003037200,2.038037109375,-0.00015358551172539592,0.0004272228106856346,-0.0005328995175659657
1772535203013053200,2.04805322265625,0.00010231236228719354,-0.00038439128547906876,0.0005157105624675751
1772535203023069200,2.058069091796875,0.00036569900112226605,-0.00021767732687294483,-0.0006968262605369091
1772535203033085200,2.068085205078125,-0.0003110205288976431,-0.00034170644357800484,0.000997723313048482
1772535203043101200,2.07810107421875,-0.0007762747700326145,-0.00022798939608037472,0.00020117172971367836
1772535203053117200,2.0881171875,-0.0008239014423452318,0.0005099782720208168,0.0008008824661374092
1772535203063133200,2.09813330078125,-0.000339738791808486,-0.0009664782555773854,-0.001026045996695757
1772535203073149200,2.108149169921875,0.0000818807166069746,-0.0011185610201209784,0.0005750344134867191
1772535203083165200,2.118165283203125,-0.0018521068850532174,0.00004603923298418522,0.0014040765818208456
1772535203093181200,2.12818115234375,-0.00034502294147387147,-0.0010839792666956782,0.0002281181514263153
1772535203103197200,2.138197265625,-0.0001119963126257062,-0.0005926259327679873,-0.0009287591092288494
1772535203113213200,2.148213134765625,0.00034959931508637965,0.0005300096236169338,0.0018673473969101906
1772535203123229200,2.158229248046875,-0.00016545603284612298,-0.0004526968114078045,0.00021964963525533676
1772535203133245200,2.1682451171875,-0.000027333968318998814,0.0003370621707290411,-0.0001961071975529194
1772535203143261200,2.17826123046875,0.0010472515132278204,-0.0004349884111434221,0.0007719516288489103
1772535203153277200,2.188277099609375,-0.0007715029059909284,-0.0016361477319151163,0.0019949974957853556
1772535203163293200,2.198293212890625,0.0004405017534736544,-0.00012267334386706352,-0.001444741152226925
1772535203173309200,2.20830908203125,0.0006518427981063724,0.00021824100986123085,-0.0006580604240298271
1772535203183325200,2.2183251953125,-0.0006320672109723091,0.0008456816431134939,-0.0005499362014234066
1772535203193341200,2.228341064453125,0.0007424643263220787,-0.0023485540878027678,0.0010651135817170143
1772535203203357200,2.238357177734375,0.0003083690826315433,-0.0009309534216299653,-0.0008955057710409164
1772535203213374200,2.248374267578125,0.00039268669206649065,-0.00039828522130846977,0.0010766556952148676
1772535203223390200,2.25839013671875,0.0007540776277892292,-0.00013569765724241734,-0.00014626793563365936
1772535203233406200,2.26840625,0.0007574217161163688,-0.000695224734954536,-0.0003583654761314392
1772535203243421700,2.278421630859375,-0.0010524626122787595,-0.00029388628900051117,0.001485074870288372
1772535203253437700,2.288437744140625,0.0006950299139134586,-0.00002176477573812008,-0.0002802642993628979
1772535203263453700,2.29845361328125,0.0009264586260542274,0.0004123304970562458,-0.00025256723165512085
1772535203273469700,2.3084697265625,-0.00008821062510833144,0.000268338480964303,-0.0009457971900701523
1772535203283485700,2.318485595703125,0.001419138628989458,-0.000006766058504581451,0.000059013254940509796
1772535203293501700,2.328501708984375,0.0013412598054856062,0.0010298837441951036,-0.0005991905927658081
1772535203303517700,2.338517578125,0.0009015719406306744,-0.00048518856056034565,0.00032306229695677757
1772535203313533700,2.34853369140625,-0.0006491810781881213,-0.0003153393045067787,-0.00008668238297104836
1772535203323549700,2.3585498046875,-0.0001740730949677527,0.001105723436921835,0.00045793410390615463
1772535203333565700,2.368565673828125,-0.0007308295462280512,-0.0007219549734145403,0.0002138158306479454
1772535203343581700,2.378581787109375,0.00006492296233773232,0.0009550375398248434,-0.0002817986533045769
1772535203353597700,2.38859765625,-0.00016750919166952372,0.00008826609700918198,-0.0010013575665652752
1772535203363613700,2.39861376953125,-0.0003832252696156502,-0.00046407338231801987,0.0004758979193866253
1772535203373629700,2.408629638671875,0.000016730104107409716,-0.0006377187091857195,0.00031948043033480644
1772535203383645700,2.418645751953125,-0.00038460828363895416,0.0006304786074906588,-0.000044040847569704056
1772535203393661700,2.42866162109375,0.0006522115436382592,-0.0010240317787975073,-0.0009140069596469402
1772535203403677700,2.438677734375,0.0000796319218352437,-0.0010208359453827143,0.00015179021283984184
1772535203413693700,2.448693603515625,-0.0002511883503757417,-0.0008997954428195953,0.00046469178050756454
1772535203423709700,2.458709716796875,0.0002217890869360417,0.000862418208271265,0.00016322173178195953
1772535203433725700,2.4687255859375,-0.001738612656481564,0.00033622654154896736,0.0007085325196385384
1772535203443741700,2.47874169921875,-0.0005369943100959063,0.0008784460369497538,-0.00030506681650877
1772535203453757700,2.4887578125,-0.00009238038910552859,0.001839022384956479,-0.0007175547070801258
1772535203463773700,2.498773681640625,-0.0002665511565282941,-0.0015847374452278018,0.0014044519048184156
1772535203473789700,2.508789794921875,0.0013687331229448318,0.001571260392665863,-0.00031311623752117157
1772535203483805700,2.5188056640625,0.0011359729105606675,0.0004972077440470457,-0.00023721624165773392
1772535203493821700,2.52882177734375,0.0015432449290528893,0.0003940504975616932,-0.0017163301818072796
1772535203503837700,2.538837646484375,0.00013682956341654062,0.0002654197160154581,-0.0003336169756948948
1772535203513853700,2.548853759765625,0.0005563177983276546,-0.0007637476082891226,0.0010038984473794699
1772535203523869700,2.55886962890625,-0.0009888482745736837,0.00009192596189677715,0.0007945741526782513
1772535203533885700,2.5688857421875,-0.0002532861544750631,-0.00018025748431682587,-0.0009798002429306507
1772535203543901700,2.578901611328125,-0.0012522379402071238,-0.0002742670476436615,0.0009243597742170095
1772535203553917700,2.588917724609375,0.00004803360207006335,0.00004275655373930931,0.0010514217428863049
1772535203563933700,2.59893359375,0.0005159509601071477,0.0001476849429309368,0.00017577456310391426
1772535203573949700,2.60894970703125,0.000778114830609411,0.0007548187859356403,0.00286282692104578
1772535203583965700,2.618965576171875,0.0009597424068488181,-0.00023933942429721355,-0.0012054177932441235
1772535203593981700,2.628981689453125,0.00016928953118622303,-0.0010938143823295832,-0.00002583162859082222
1772535203603997700,2.638997802734375,0.0006433321977965534,-0.0009737057844176888,-0.0012295804917812347
1772535203614013700,2.649013671875,-0.0017659786390140653,0.000509945210069418,-0.00016753282397985458
1772535203624029700,2.65902978515625,0.00032167337485589087,-0.0009870176436379552,0.0003017163835465908
1772535203634045700,2.669045654296875,0.00009284151019528508,-0.00043306872248649597,0.0011081197299063206
1772535203644061700,2.679061767578125,-0.00020516623044386506,-0.0006812752690166235,0.0004449926782399416
1772535203654078700,2.68907861328125,0.00023610136122442782,-0.0001338429283350706,0.0000012242235243320465
1772535203664094700,2.6990947265625,-0.00016310648061335087,0.00008373730815947056,0.0004281289875507355
1772535203674110700,2.70911083984375,-0.0020487001165747643,0.0008295467123389244,0.00020084017887711525
1772535203684126700,2.719126708984375,-0.0013568110298365355,0.000819959444925189,0.0004282738082110882
1772535203694142500,2.729142578125,-0.0009005416068248451,0.0008835543412715197,0.0009748504962772131
1772535203704158700,2.73915869140625,0.00035220937570557,-0.000021920306608080864,0.0001261010766029358
1772535203714174700,2.7491748046875,0.0003646090626716614,-0.0003101483453065157,-0.0009008375927805901
1772535203724190700,2.759190673828125,0.00006367184687405825,0.00029012816958129406,-0.002259050030261278
1772535203734206700,2.769206787109375,0.00039109011413529515,-0.0006907780189067125,-0.0013390532694756985
1772535203744222700,2.77922265625,0.0005271776462905109,0.00015743868425488472,-0.000006940215826034546
1772535203754238700,2.78923876953125,0.0002705513034015894,0.0013268948532640934,-0.00028067873790860176
1772535203764254500,2.79925439453125,0.0006005169707350433,-0.0005935104563832283,0.0005257262382656336
1772535203774270700,2.809270751953125,-0.0013081575743854046,-0.0011585300089791417,-0.00048220157623291016
1772535203784286700,2.81928662109375,-0.000013062322977930307,-0.0001292182132601738,-0.0008052429184317589
1772535203794302700,2.829302734375,0.0008300937479361892,-0.0009211302967742085,-0.0012262547388672829
1772535203804318700,2.839318603515625,-0.0006168016698211432,-0.0005560109857469797,-0.00046752020716667175
1772535203814334700,2.849334716796875,0.0005068200989626348,-0.00022680405527353287,-0.0012123677879571915
1772535203824350700,2.859350830078125,0.0010085596004500985,0.0001963721588253975,-0.0007657553069293499
1772535203834366700,2.86936669921875,-0.0010758554562926292,-0.0010323291644454002,0.00033395038917660713
1772535203844382700,2.8793828125,-0.0002731786807999015,0.000640668673440814,0.0020463629625737667
1772535203854398700,2.889398681640625,0.0010638879612088203,-0.0016194982454180717,0.0005797841586172581
1772535203864414700,2.899414794921875,0.0003176702302880585,0.0002665524370968342,0.00023810053244233131
1772535203874430700,2.9094306640625,-0.00035241746809333563,-0.0012752647744491696,-0.0005453862249851227
1772535203884446700,2.91944677734375,-0.0018768107984215021,-0.0007402356714010239,0.00041415076702833176
1772535203894462500,2.92946240234375,0.000918639067094773,-0.0007467623800039291,0.00036672409623861313
1772535203904478700,2.939478759765625,0.000624093459919095,-0.0011249312665313482,0.0003209174610674381
1772535203914494700,2.94949462890625,0.00043103547068312764,-0.0007794348057359457,0.0007266541942954063
1772535203924510700,2.9595107421875,-0.000986565137282014,-0.0006526685319840908,-0.00009732786566019058
1772535203934526700,2.969526611328125,0.000755739863961935,0.0009678266942501068,0.00004930095747113228
1772535203944542700,2.979542724609375,0.0004058005288243294,0.0008490497712045908,-0.0000654812902212143
1772535203954558700,2.989558837890625,-0.00013298954581841826,-0.0002647899091243744,-0.0013579130172729492
1772535203964574500,2.999574462890625,0.00008618860738351941,-0.0007220546249300241,0.0007433211430907249
1772535203974590700,3.0095908203125,-0.0011050617322325706,-0.0004719700664281845,-0.0011002146638929844
1772535203984606700,3.019606689453125,-0.0002653669798746705,-0.0009217780316248536,0.0004718494601547718
1772535203994622700,3.029622802734375,0.0006075237761251628,-0.000043425243347883224,0.0009981654584407806
1772535204004638700,3.039638671875,0.00020298961317166686,-0.00007192115299403667,0.0016791357193142176
1772535204014654700,3.04965478515625,-0.00008869922021403909,-0.0007984726689755917,0.0009519259911030531
1772535204024670700,3.059670654296875,0.001033556880429387,-0.000005117151886224747,0.0009340830147266388
1772535204034686700,3.069686767578125,-0.001023601391352713,-0.00038762367330491543,0.0005089561454951763
1772535204044702700,3.07970263671875,0.0005497942329384387,0.00036764866672456264,0.00033611711114645004
1772535204054718700,3.08971875,-0.0006760317482985556,-0.00044049834832549095,0.0010926013346761465
1772535204064734700,3.099734619140625,0.0001554071786813438,0.0014942882116883993,0.00014744559302926064
1772535204074750700,3.109750732421875,0.0005824867403134704,-0.001285821432247758,0.00020058033987879753
1772535204084766700,3.1197666015625,-0.0006353768985718489,-0.0006964639760553837,0.0008075148798525333
1772535204094782500,3.129782470703125,-0.001324678072705865,-0.0008193365065380931,0.0008305753581225872
1772535204104798700,3.139798828125,-0.0006186739192344248,-0.000381779158487916,-0.0007369611412286758
1772535204114814700,3.149814697265625,0.000022867810912430286,0.00020223157480359077,-0.0005206610076129436
1772535204124831700,3.159831787109375,-0.00032627262407913804,-0.00035223853774368763,-0.0007092123851180077
1772535204134847700,3.16984765625,0.0006955089629627764,0.00006266403943300247,-0.0013830219395458698
1772535204144863500,3.179863525390625,-0.00047042296500876546,-0.0002547847107052803,0.0014095688238739967
1772535204154879500,3.18987939453125,-0.0003637775662355125,-0.0004590183962136507,0.0010315265972167253
1772535204164895700,3.199895751953125,0.0011307884706184268,-0.0007764671463519335,-0.0009748991578817368
1772535204174911700,3.209911865234375,-0.0001832942944020033,-0.0009789812611415982,-0.000018099788576364517
1772535204184927700,3.219927734375,-0.00019554485334083438,-0.0003542036283761263,-0.0006002667360007763
1772535204194943700,3.22994384765625,0.0004611046751961112,0.0007509451825171709,0.0005113861989229918
1772535204204959700,3.239959716796875,-0.0018731560558080673,0.0010481539648026228,0.0001244288869202137
1772535204214975500,3.2499755859375,0.00013410847168415785,-0.00035831215791404247,-0.0004159221425652504
1772535204224991700,3.25999169921875,-0.0013753713574260473,-0.0005050522740930319,-0.0009155315347015858
1772535204235007500,3.270007568359375,-0.00007516035111621022,0.000518543878570199,-0.00037833862006664276
1772535204245023500,3.2800234375,0.00048357085324823856,-0.000999191659502685,-0.00011654989793896675
1772535204255039500,3.29003955078125,-0.00016336096450686455,-0.0008375267498195171,0.0009777301456779242
1772535204265055500,3.300055419921875,0.0012417228426784277,0.0001718113198876381,-0.00024039950221776962
1772535204275071500,3.310071533203125,-0.0005497932434082031,0.0002761527430266142,0.0008341188076883554
1772535204285087200,3.320087158203125,-0.00003473786637187004,-0.0005741945933550596,-0.0005411375313997269
1772535204295103500,3.330103515625,-0.0005008303560316563,-0.000253304373472929,0.0021208683028817177
1772535204305119500,3.340119384765625,-0.0004297239938750863,-0.0010716936085373163,-0.00032018497586250305
1772535204315135500,3.350135498046875,0.0000244562397710979,-0.00027169776149094105,0.00014800066128373146
1772535204325151500,3.3601513671875,-0.0007425341755151749,0.0006124717183411121,-0.00044082431122660637
1772535204335167500,3.37016748046875,0.0011064106365665793,0.000329465139657259,-0.00011015636846423149
1772535204345183500,3.38018359375,-0.000983638223260641,-0.0005339316558092833,0.0011460566893219948
1772535204355199200,3.39019921875,0.001245112856850028,-0.0014244179474189878,0.0011560628190636635
1772535204365215500,3.400215576171875,0.001021940028294921,0.00039398856461048126,-0.00047352537512779236
1772535204375231500,3.4102314453125,0.0000622898805886507,0.00030392780900001526,0.0003969860263168812
1772535204385247500,3.42024755859375,-0.000993120949715376,-0.0011352443834766746,0.000046780332922935486
1772535204395263500,3.430263427734375,-0.0011717246379703283,0.0006294297054409981,0.0008187249768525362
1772535204405279500,3.440279541015625,0.0004557330103125423,-0.0004635315854102373,-0.0008100643754005432
1772535204415295500,3.45029541015625,0.00030223996145650744,0.0005762723740190268,0.0007084463723003864
1772535204425311200,3.460311279296875,-0.00019949959823861718,-0.0011715603759512305,-0.00004469556733965874
1772535204435327500,3.470327392578125,-0.0005876815994270146,0.0012926049530506134,-0.0004986915737390518
1772535204445343500,3.480343505859375,-0.00003480934537947178,0.000728547340258956,-0.0007879110053181648
1772535204455359500,3.490359375,0.000783099967520684,0.000823459355160594,-0.0007009105756878853
1772535204465375500,3.50037548828125,-0.0005340994684956968,-0.0007683119038119912,-0.0007118294015526772
1772535204475391500,3.5103916015625,-0.0008996377000585198,0.0003091883845627308,0.00041494332253932953
1772535204485407200,3.5204072265625,0.0003424605820327997,-0.0016937749460339546,0.0006058919243514538
1772535204495423500,3.530423583984375,-0.0004261945141479373,0.0007041878998279572,0.0003239437937736511
1772535204505439500,3.540439453125,0.000990873551927507,0.0007401404436677694,-0.0008116280660033226
1772535204515455500,3.55045556640625,-0.0000785310985520482,0.0007094703614711761,0.00033520907163619995
1772535204525471500,3.560471435546875,0.0007917899638414383,-0.00020399410277605057,0.0007176392246037722
1772535204535487500,3.570487548828125,-0.0004834841238334775,0.0008172893431037664,0.0008960559498518705
1772535204545503500,3.58050341796875,-0.0004664399893954396,0.0009874652605503798,-0.00038732169196009636
1772535204555519200,3.590519287109375,0.00013913295697420835,0.0007624144200235605,0.001493196003139019
1772535204565535500,3.600535400390625,-0.0007799239247106016,-0.00004771910607814789,-0.0001829979009926319
1772535204575551500,3.610551513671875,-0.000437016598880291,0.0006586557719856501,-0.0005657277069985867
1772535204585568500,3.620568603515625,0.00009428401244804263,0.00008900556713342667,-0.0011833147145807743
1772535204595584500,3.63058447265625,0.002339643193408847,0.002051806775853038,-0.0016588852740824223
1772535204605600300,3.640600341796875,-0.00026386306853964925,0.00009864429011940956,-0.0006442209705710411
1772535204615616300,3.6506162109375,-0.0008660995517857373,-0.0002373768948018551,-0.0005270945839583874
1772535204625632500,3.660632568359375,0.0007216770318336785,0.00023346999660134315,0.0009837166871875525
1772535204635648500,3.6706484375,-0.000010359915904700756,0.000876172911375761,0.0010269384365528822
1772535204645664500,3.68066455078125,-0.001388279371894896,-0.0008788503473624587,-0.0007983921095728874
1772535204655680500,3.690680419921875,0.00010708242189139128,0.0004789140075445175,0.00001806626096367836
1772535204665696300,3.7006962890625,-0.0007246227469295263,0.0013268643524497747,0.0008114222437143326
1772535204675712300,3.710712158203125,0.00025057472521439195,0.00042416760697960854,-0.0006272373721003532
1772535204685728500,3.720728515625,0.0004314033722039312,-0.0004903619410470128,0.0010148680303245783
1772535204695744500,3.73074462890625,-0.0002919661928899586,0.0000844164751470089,-0.0004390580579638481
1772535204705760500,3.740760498046875,-0.0008815900073386729,0.0002015954814851284,0.0007314011454582214
1772535204715776500,3.750776611328125,-0.000026789552066475153,0.00035216216929256916,0.002390724141150713
1772535204725792500,3.76079248046875,0.001193470787256956,0.00015162606723606586,-0.0004617879167199135
1772535204735808300,3.770808349609375,0.0008681041654199362,0.002131171291694045,0.00040149223059415817
1772535204745824300,3.78082421875,0.00048088052426464856,0.0011173055972903967,0.000746638048440218
1772535204755840500,3.790840576171875,-0.00027459999546408653,0.00045608123764395714,-0.0013675037771463394
1772535204765856500,3.8008564453125,0.00003539200406521559,0.0009024268947541714,-0.00030570151284337044
1772535204775872500,3.81087255859375,-0.0008778897463344038,-0.0006588981486856937,-0.0007076547481119633
1772535204785888500,3.820888427734375,0.0006864510360173881,-0.0005630243103951216,0.0003757188096642494
1772535204795904500,3.830904541015625,0.0011065687285736203,0.0010792522225528955,-0.00024319719523191452
1772535204805920300,3.840920166015625,0.0013667595339938998,0.0004464851226657629,-0.00016729719936847687
1772535204815936300,3.850936279296875,0.0013260080013424158,-0.001038715010508895,-0.0005096001550555229
1772535204825952500,3.860952392578125,0.00031480571487918496,0.0015458827838301659,-0.0004057367332279682
1772535204835968500,3.870968505859375,-0.00045878731179982424,0.00022042985074222088,0.000004867091774940491
1772535204845984500,3.880984619140625,-0.001109397504478693,0.0009637181647121906,0.0012640096247196198
1772535204856000500,3.89100048828125,-0.001050670281983912,-0.00017743417993187904,0.0000683334656059742
1772535204866016500,3.9010166015625,0.0010356500279158354,0.0006148563697934151,-0.00011489167809486389
1772535204876032300,3.9110322265625,-0.00030345062259584665,0.0001588570885360241,0.0006366216111928225
1772535204886048500,3.921048583984375,-0.0008115817327052355,0.0002834929618984461,0.0002517946995794773
1772535204896064500,3.931064453125,-0.00009581539779901505,0.0003983986098319292,0.0009550913237035275
1772535204906080500,3.94108056640625,-0.0008763879304751754,-0.00007963879033923149,0.00023390725255012512
1772535204916096500,3.951096435546875,-0.00004084646934643388,0.0008741070050746202,0.0008758129552006721
1772535204926112500,3.961112548828125,0.00027234124718233943,0.0010357608553022146,0.0011394659522920847
1772535204936128300,3.971128173828125,0.0006778846145607531,0.0009345915168523788,-0.0007958533242344856
1772535204946144300,3.981144287109375,-0.0008049635216593742,0.00022965273819863796,-0.0011351397261023521
1772535204956160500,3.991160400390625,-0.000721859629265964,0.0004095672629773617,-0.0002521136775612831
1772535204966176500,4.001176513671875,0.000512781844008714,0.0007917310576885939,0.00024935975670814514
1772535204976192500,4.011192626953125,0.000045283406507223845,-0.00018938002176582813,-0.000533043872565031
1772535204986208500,4.02120849609375,0.0010636762017384171,-0.0013129677390679717,-0.0005298485048115253
1772535204996224500,4.031224609375,0.0004372533585410565,0.0004955127369612455,0.00039146607741713524
1772535205006240300,4.041240234375,-0.0002804684918373823,0.0002078914549201727,0.0016695172525942326
1772535205016256300,4.05125634765625,-0.00002808059798553586,0.000905544962733984,-0.0009551132097840309
1772535205026272500,4.0612724609375,-0.00003793428186327219,-0.0003173784352838993,0.0016001898329705
1772535205036288500,4.07128857421875,0.0013850809773430228,0.00026884698309004307,0.0004085404798388481
1772535205046304500,4.081304443359375,-0.0005057633970864117,-0.0002384851686656475,0.00019788416102528572
1772535205056320500,4.091320556640625,-0.0005728095420636237,-0.0005259336903691292,-0.00038894452154636383
1772535205066337300,4.101337158203125,-0.000502768496517092,-0.001382672693580389,0.00046433182433247566
1772535205076353500,4.111353515625,0.000295794103294611,-0.00003155414015054703,-0.001162760891020298
1772535205086369500,4.12136962890625,-0.000445097335614264,-0.0006699138320982456,-0.0002381112426519394
1772535205096385500,4.131385498046875,0.0001269106287509203,0.0000315764918923378,0.000004969537258148193
1772535205106401500,4.141401611328125,0.0007807166548445821,0.00042066420428454876,0.0006936630234122276
1772535205116417300,4.151417236328125,-0.0005461834371089935,-0.001397511688992381,0.0013592331670224667
1772535205126433300,4.161433349609375,-0.00034884316846728325,-0.00008430681191384792,0.00012192875146865845
1772535205136449300,4.17144921875,-0.0016035102307796478,0.0005900461692363024,-0.0005995407700538635
1772535205146465500,4.181465576171875,0.00035098352236673236,0.001201774226501584,-0.00017822859808802605
1772535205156481500,4.1914814453125,-0.00008849083678796887,-0.00001730094663798809,-0.00037207920104265213
1772535205166497500,4.20149755859375,0.0012012780643999577,-0.0004231669008731842,-0.0002008378505706787
1772535205176513500,4.211513427734375,-0.0017832389567047358,0.001064736396074295,-0.0006519360467791557
1772535205186529300,4.221529296875,0.001476736506447196,0.0005922915879637003,-0.000012511387467384338
1772535205196545300,4.231545166015625,-0.0002773166634142399,0.0007139546796679497,0.0007295079994946718
1772535205206561300,4.241561279296875,-0.0006775897927582264,0.0005365880206227303,0.000554271973669529
1772535205216577500,4.25157763671875,-0.0008817149791866541,0.000028721289709210396,-0.000478966161608696
1772535205226593500,4.261593505859375,-0.0007240558043122292,-0.000742796459235251,0.0005191867239773273
1772535205236609800,4.27160986328125,0.0008259507594630122,0.000892013544216752,-0.0008660280145704746
1772535205246625800,4.281625732421875,0.0009697614004835486,-0.0006781861884519458,-0.00010702712461352348
1772535205256641800,4.291641845703125,-0.00023620855063199997,0.00035503506660461426,-0.00012626126408576965
1772535205266657800,4.30165771484375,-0.000958990422077477,0.0001904517412185669,-0.00023651635274291039
1772535205276673800,4.311673828125,-0.0009485842892900109,0.00046378537081182003,0.0004428727552294731
1772535205286689800,4.321689697265625,-0.00045669847168028355,-0.00039748079143464565,-0.0003627333790063858
1772535205296705800,4.331705810546875,0.00005344476085156202,0.000915473559871316,0.00009866664186120033
1772535205306722000,4.34172216796875,0.0010204385034739971,0.0006014867685735226,0.00023608561605215073
1772535205316737800,4.35173779296875,0.0008227470680139959,-0.0005999138811603189,-0.0013260687701404095
1772535205326753800,4.36175390625,-0.0008510496700182557,-0.00007447227835655212,0.0007948728743940592
1772535205336769800,4.371769775390625,0.0001357942819595337,-0.0011645267950370908,-0.0003596236929297447
1772535205346785800,4.381785888671875,0.0005283442442305386,-0.00003694440238177776,-0.0004080929793417454
1772535205356801800,4.3918017578125,-0.00006656826008111238,0.0009233651217073202,-0.0005320697091519833
1772535205366817800,4.40181787109375,0.0002586037153378129,-0.0006407094188034534,0.0013009840622544289
1772535205376833800,4.411833740234375,-0.0002365954569540918,-0.0008688360685482621,-0.00039354385808110237
1772535205386849800,4.421849853515625,-0.0012464660685509443,-0.00029652263037860394,0.0004011434502899647
1772535205396865800,4.43186572265625,-0.00001666368916630745,0.0011805042158812284,0.000060886144638061523
1772535205406881800,4.4418818359375,-0.000619337079115212,0.00012189755216240883,0.0002875211648643017
1772535205416897800,4.451897705078125,0.0006888682255521417,-0.0007451046258211136,-0.0014038244262337685
1772535205426913800,4.461913818359375,0.0025003503542393446,-0.0007712036604061723,-0.0003806380555033684
1772535205436929800,4.4719296875,0.0006621890352107584,0.00032246392220258713,0.0012153221759945154
1772535205446945800,4.48194580078125,0.0006158500327728689,0.0005443051923066378,0.0012821676209568977
1772535205456961800,4.4919619140625,0.00049490766832605,9.154900908470154e-7,0.00041864626109600067
1772535205466977800,4.501977783203125,0.0004432423447724432,0.0005399393849074841,-0.0005659242160618305
1772535205476993800,4.511993896484375,-0.00024403969291597605,-0.000390469329431653,-0.0014165272004902363
1772535205487009800,4.522009765625,0.0005964540177956223,0.0010569586884230375,0.0001422208733856678
1772535205497025800,4.53202587890625,0.00042142876191064715,0.00023388909175992012,0.0009251965675503016
1772535205507042000,4.5420419921875,-0.0003173321601934731,0.0004115218762308359,0.0005057486705482006
1772535205517057800,4.552057861328125,0.0006197290495038033,0.00044443574734032154,0.000881582498550415
1772535205527073800,4.56207373046875,-0.0007683105650357902,0.0002742595970630646,0.0005015493370592594
1772535205537089800,4.57208984375,-0.0010360672604292631,0.0005908554885536432,-0.00023611821234226227
1772535205547106800,4.58210693359375,-0.0005247402586974204,-0.0004714794922620058,-0.0013394658453762531
1772535205557122800,4.592122802734375,0.00007497513433918357,0.00010413979180157185,-0.00012345938012003899
1772535205567138800,4.602138916015625,-0.0012499475851655006,0.00012118415907025337,0.00017241807654500008
1772535205577154800,4.61215478515625,0.0004601217806339264,-0.000024718232452869415,-0.0005631111562252045
1772535205587170800,4.6221708984375,-0.0015156774315983057,0.00010151579044759274,0.00105129717849195
1772535205597186800,4.632186767578125,0.001845098682679236,0.0012682604137808084,0.0002620341256260872
1772535205607202800,4.642202880859375,0.00034973371657542884,0.000028026290237903595,0.0009904084727168083
1772535205617218800,4.65221875,0.001270349370315671,-0.000019597820937633514,-0.00010632118210196495
1772535205627234800,4.66223486328125,0.0007153465412557125,0.0004155626520514488,-0.0004237699322402477
1772535205637250800,4.672250732421875,0.0009321843972429633,-0.0007376340217888355,-0.00024111522361636162
1772535205647266800,4.682266845703125,-0.0017544124275445938,0.0011020777747035027,0.0002702116034924984
1772535205657282800,4.69228271484375,-0.0008525723242200911,-0.00043708132579922676,-0.0012595700100064278
1772535205667298800,4.702298828125,0.00039751542499288917,0.00023004040122032166,-0.0012055076658725739
1772535205677314800,4.712314697265625,0.00005995109677314758,-0.000924294232390821,-0.00039247702807188034
1772535205687330800,4.722330810546875,0.0007616940420120955,-0.000448387349024415,0.0013156747445464134
1772535205697346800,4.732346923828125,0.0002054749638773501,-0.0004587543662637472,0.0006529961246997118
1772535205707362800,4.74236279296875,-0.0011892225593328476,0.0002456516958773136,-0.0018218792974948883
1772535205717378800,4.75237890625,0.0003768924798350781,-0.00003525638021528721,-0.0003191228024661541
1772535205727394800,4.762394775390625,-0.00006252911407500505,0.00015729013830423355,-0.0003180578351020813
1772535205737410800,4.772410888671875,-0.000528606353327632,0.000018800608813762665,0.0004019797779619694
1772535205747426800,4.7824267578125,-0.0008774803718551993,-0.00019345339387655258,-0.00002492498606443405
1772535205757442800,4.79244287109375,0.0006980006000958383,0.00031886622309684753,0.0006242231465876102
1772535205767458800,4.802458740234375,0.0014279730385169387,-0.00031576515175402164,0.0002915943041443825
1772535205777474800,4.812474853515625,-0.0009785559959709644,0.000036200275644659996,0.0005619777366518974
1772535205787490800,4.82249072265625,0.00042066877358593047,-0.00008044624701142311,-0.0017104977741837502
1772535205797506800,4.8325068359375,-0.0005045451689511538,-0.0002595363184809685,0.0007744792383164167
1772535205807522800,4.842522705078125,0.0004680412239395082,-0.00024329102598130703,0.0004607588052749634
1772535205817538800,4.852538818359375,-0.00015721656382083893,-0.0004185647703707218,0.0003870218060910702
1772535205827554800,4.862554931640625,0.00010883325012400746,0.0011553633958101273,-0.0009733205661177635
1772535205837570800,4.87257080078125,-0.0006796808447688818,0.00039086234755814075,0.0011479801032692194
1772535205847586800,4.8825869140625,0.0003965025825891644,0.000451049767434597,-0.000054170843213796616
1772535205857602800,4.892602783203125,0.0018399788532406092,0.00017353077419102192,0.0004378538578748703
1772535205867618800,4.902618896484375,-0.0009835045784711838,-0.0001396569423377514,-0.0005051717162132263
1772535205877634800,4.912634765625,-0.0005036023794673383,-0.0007019324693828821,0.00003342842683196068
1772535205887650800,4.92265087890625,-0.0012056117411702871,0.00020940136164426804,-0.000551135279238224
1772535205897666800,4.932666748046875,-0.00027669291011989117,0.0000529696699231863,0.0009892706293612719
1772535205907682800,4.942682861328125,0.0007835114956833422,0.00042394804768264294,0.0004300065338611603
1772535205917698800,4.95269873046875,-0.0007811939576640725,-0.00020894943736493587,0.0015083418693393469
1772535205927714800,4.96271484375,0.000033733376767486334,0.00010343920439481735,-0.0004964857362210751
1772535205937730800,4.972730712890625,0.0008037861553020775,0.0011709099635481834,-0.000286975409835577
1772535205947746800,4.982746826171875,-0.0005530943744815886,-0.00017398642376065254,-0.00005927542224526405
1772535205957762800,4.9927626953125,0.0005143142770975828,0.0014235337730497122,0.0004892032593488693
1772535205967778800,5.00277880859375,0.0005574574461206794,-0.00020498945377767086,-0.0006599505431950092
1772535205977794800,5.012794921875,-0.00008546031313017011,-0.0006448065396398306,0.0007548481225967407
1772535205987810800,5.022810791015625,0.000024261942598968744,0.00007264898158609867,-0.000146365724503994
1772535205997826800,5.032826904296875,0.001783115090802312,0.001055954722687602,0.00191853241994977
1772535206007842800,5.0428427734375,-0.00045820121886208653,0.00007724296301603317,-0.0014538285322487354
1772535206017858800,5.05285888671875,0.0008648782968521118,-0.0014101938577368855,0.00033847708255052567
1772535206027874800,5.062874755859375,0.00009522476466372609,0.001167746027931571,-0.0010359804145991802
1772535206037890800,5.072890869140625,-0.0010882944334298372,-0.0004952901508659124,-0.0010464726947247982
1772535206047907800,5.082907958984375,-0.0005258347373455763,0.0008677155710756779,-0.00015324866399168968
1772535206057923800,5.092923828125,0.0006652145530097187,0.000166445504873991,0.00012251222506165504
1772535206067939800,5.10293994140625,-0.001344673102721572,0.0000711043830960989,0.00025061052292585373
1772535206077955800,5.112955810546875,0.00017338385805487633,0.00033166143111884594,-0.0006706500425934792
1772535206087971800,5.122971923828125,0.0008660720195621252,-0.0005511764902621508,0.0007906265091150999
1772535206097987800,5.13298779296875,0.0004779826267622411,-0.00019271508790552616,0.00032132677733898163
1772535206108003800,5.14300390625,-0.0008027314906939864,-0.000969026586972177,0.0007700696587562561
1772535206118019800,5.153019775390625,-0.0005883076228201389,0.0002309733536094427,-0.0000886283814907074
1772535206128035800,5.163035888671875,0.0000409974018111825,0.00014921440742909908,0.0005928743630647659
1772535206138051800,5.1730517578125,-0.0006026019109413028,0.0004816516302525997,-0.0002502542920410633
1772535206148067800,5.18306787109375,-0.0005504039581865072,-0.0003284818958491087,-0.00040871230885386467
1772535206158083800,5.193083740234375,-0.001151824020780623,0.0006769776809960604,0.0005816244520246983
1772535206168099800,5.203099853515625,0.0004559263470582664,-0.00024234550073742867,-0.0004373006522655487
1772535206178115800,5.21311572265625,0.0004968721768818796,0.0017805530223995447,-0.0009240345098078251
1772535206188131800,5.2231318359375,-0.0004552078898996115,-0.0002461127005517483,0.00004562223330140114
1772535206198147800,5.23314794921875,0.00045101920841261744,-0.001229877001605928,-0.0003724517300724983
1772535206208163800,5.243163818359375,-0.0003452659002505243,0.00023645954206585884,-0.0005029467865824699
1772535206218179600,5.2531796875,0.0008500472758896649,0.00022473442368209362,-0.000013019423931837082
1772535206228195800,5.26319580078125,0.0016367450589314103,0.00019384175539016724,-0.00021462095901370049
1772535206238211800,5.2732119140625,-0.00003748270682990551,0.00037721823900938034,-0.0023516137152910233
1772535206248227800,5.283227783203125,0.0009396311361342669,0.00017135590314865112,-0.0012075193226337433
1772535206258244000,5.293244140625,-0.0002735236776061356,0.000007913913577795029,-0.0009097075089812279
1772535206268260000,5.303260009765625,0.0002657664008438587,0.0005205725319683552,0.0009923221077769995
1772535206278275800,5.31327587890625,-0.00028337741969153285,-0.0002117969561368227,-0.0011651045642793179
1772535206288291800,5.323291748046875,-0.000641039980109781,0.0009876908734440804,0.00011534290388226509
1772535206298307800,5.333307861328125,0.0018751583993434906,-0.00041162827983498573,-0.0011825654655694962
1772535206308323800,5.34332373046875,-0.00081010686699301,-0.0007266802713274956,-0.0000171661376953125
1772535206318339800,5.35333984375,0.0013300152495503426,0.0008178150746971369,0.0019088357221335173
1772535206328356000,5.363356201171875,0.00027726765256375074,0.00130224390886724,-0.0002355417236685753
1772535206338372000,5.3733720703125,-0.0006279407534748316,-0.0006839416455477476,0.00012664822861552238
1772535206348387800,5.383387939453125,0.0004441595228854567,-0.000293052289634943,-0.0008782385848462582
1772535206358403800,5.39340380859375,0.00015253375750035048,0.0003894141409546137,-0.001141340471804142
1772535206368419800,5.403419921875,0.0003959466703236103,0.0009657221380621195,-0.000836408231407404
1772535206378435800,5.413435791015625,0.000503677292726934,-0.0007659565890207887,-0.000050510745495557785
1772535206388452000,5.4234521484375,-0.000376763753592968,-0.0004911182913929224,-0.00035544298589229584
1772535206398468000,5.433468017578125,0.0007038681069388986,0.0005792991723865271,0.00043162982910871506
1772535206408484000,5.443484130859375,-0.0007006829837337136,-0.00042338110506534576,0.001779455691576004
1772535206418499800,5.453499755859375,-0.00025831209495663643,-0.000898956204764545,-0.0013579819351434708
1772535206428515800,5.463515869140625,-0.0017483507981523871,0.0011319704353809357,-0.000526276882737875
1772535206438531800,5.47353173828125,-0.00022628175793215632,0.000014385674148797989,0.00027964357286691666
1772535206448547800,5.4835478515625,0.0004437695606611669,-0.0000745637807995081,0.00034808646887540817
1772535206458564000,5.493564208984375,0.00021774525521323085,-0.0007350151427090168,0.001009790925309062
1772535206468580000,5.503580078125,0.0015671689761802554,-0.000700394157320261,-0.000007004011422395706
1772535206478596000,5.51359619140625,-0.00040285853901878,0.0008089705370366573,0.0011404824908822775
1772535206488611800,5.52361181640625,-0.00034293741919100285,0.00044598174281418324,-0.001232394017279148
1772535206498627800,5.5336279296875,-0.001115103717893362,0.00029577803798019886,0.0012621309142559767
1772535206508643800,5.543643798828125,-0.0009294814080931246,0.00012453668750822544,-0.0006564101204276085
1772535206518659800,5.553659912109375,-0.00006097141886129975,-0.0002188277430832386,-0.0003679604269564152
1772535206528676900,5.5636767578125,0.00023117734235711396,0.00010980642400681973,-0.0011272276751697063
1772535206538692900,5.57369287109375,-0.0005042054690420628,-0.00019183848053216934,-0.0005089766345918179
1772535206548708900,5.583708984375,0.0012183270882815123,-0.00010874774307012558,0.0007307247724384069
1772535206558724900,5.593724853515625,0.0008280783076770604,-0.0005392907187342644,-0.00030307192355394363
1772535206568740900,5.603740966796875,0.0009061089367605746,-0.001370196812786162,-0.000011988449841737747
1772535206578757000,5.613757080078125,-0.001143060508184135,0.0008441221434623003,0.001096291234716773
1772535206588773000,5.623773193359375,-0.0022490713745355606,0.0002803308889269829,0.0009988194797188044
1772535206598788900,5.633788818359375,0.00009850633796304464,-0.00042746937833726406,0.002547571901232004
1772535206608804900,5.643804931640625,-0.0006357271922752261,-0.0008535751840099692,0.0018463614396750927
1772535206618820900,5.65382080078125,0.0008077564998529851,0.0011418932117521763,0.000017282087355852127
1772535206629463000,5.664463134765625,0.00007964827818796039,-0.0010911674471572042,0.00003086403012275696
1772535206639479000,5.67447900390625,0.0005590172368101776,0.0009456181433051825,-0.00020162994042038918
1772535206649494800,5.684494873046875,0.0006204215460456908,-0.0002693166024982929,0.00022892840206623077
1772535206659510800,5.6945107421875,0.0003764759749174118,-0.0011151364305987954,-0.000566024798899889
1772535206669527000,5.704527099609375,0.00048746730317361653,-0.0017959066899493337,0.00010556913912296295
1772535206679543000,5.71454296875,-0.00048458646051585674,-0.0005293071735650301,-0.0004734019748866558
1772535206689559000,5.72455908203125,-0.00019224209245294333,0.0011248027440160513,-0.0015320559032261372
1772535206699575000,5.734574951171875,-0.0002614842960610986,0.000025450019165873528,0.00043016113340854645
1772535206709590800,5.7445908203125,-0.00038182525895535946,-0.000016494886949658394,-0.00032437732443213463
1772535206719606800,5.754606689453125,0.0003204502572771162,-0.0008007956203073263,0.0011805747635662556
1772535206729622800,5.764622802734375,-0.00019322993466630578,-0.0004279401618987322,-0.0004819994792342186
1772535206739639000,5.77463916015625,0.00003233982715755701,0.00015209638513624668,0.0012746215797960758
1772535206749655000,5.784655029296875,-0.0005252763512544334,-0.0023963600397109985,0.0004582921974360943
1772535206759671000,5.794671142578125,-0.00012287270510569215,-0.0004557145293802023,-0.0003614285960793495
1772535206769687000,5.80468701171875,0.0008038112428039312,0.0004320328589528799,0.0008901660330593586
1772535206779702800,5.814702880859375,-0.00112245324999094,-0.00038023130036890507,0.00024275155737996101
1772535206789718800,5.82471875,0.0005209817318245769,-0.0006674779579043388,0.00023775361478328705
1772535206799734800,5.83473486328125,-0.00025453080888837576,0.0006097739096730947,0.0016745286993682384
1772535206809751000,5.8447509765625,-0.0007502578082494438,-0.00035812309943139553,0.0021848154719918966
1772535206819767000,5.85476708984375,-0.002160934265702963,0.000550014665350318,0.00019277120009064674
1772535206829783000,5.864782958984375,0.0005339671624824405,-0.0021223912481218576,0.0014178301207721233
1772535206839799000,5.874799072265625,-0.00006281357491388917,-0.0002952979411929846,0.0006763185374438763
1772535206849814800,5.884814697265625,-0.00114512222353369,0.0008197675924748182,0.0009434334933757782
1772535206859830800,5.894830810546875,0.0013292207149788737,0.00010417611338198185,0.0007223912980407476
1772535206869846800,5.9048466796875,0.0008872562320902944,0.0005824631080031395,-0.0010897554457187653
1772535206879863000,5.914863037109375,-0.0005692265112884343,-0.000615426804870367,0.0003294427879154682
1772535206889879000,5.924879150390625,-0.0004630564362742007,0.0006474039983004332,0.0006646292749792337
1772535206899895000,5.93489501953125,0.00006957579171285033,-0.0011986991157755256,0.0007266809698194265
1772535206909911000,5.9449111328125,0.00037148024421185255,0.00029619294218719006,0.000006662681698799133
1772535206919926800,5.9549267578125,0.0021986751817166805,-0.00042951852083206177,0.0004082676023244858
1772535206929942800,5.96494287109375,0.0006646215915679932,-0.00031940778717398643,0.0013392921537160873
1772535206939959000,5.974958984375,0.0009298724471591413,-0.00205578887835145,-0.00034382566809654236
1772535206949975000,5.98497509765625,-0.00012690405128523707,-0.00004183454439043999,0.0002850857563316822
1772535206959991000,5.994990966796875,0.00021398055832833052,0.000630880007520318,0.001027841353788972
1772535206970007000,6.005007080078125,-0.0015085802879184484,-0.00065262196585536,-0.0006500491872429848
1772535206980022800,6.015022705078125,-0.0007565034902654588,0.000048854853957891464,-0.0005893292836844921
1772535206990038800,6.025038818359375,-0.00027212861459702253,-0.00003941543400287628,-0.0004187971353530884
1772535207000056000,6.03505615234375,0.0006674346514046192,-0.000219444977119565,0.0013013386633247137
1772535207010072000,6.045072021484375,0.00035074964398518205,0.0009805853478610516,0.0005038571543991566
1772535207020088000,6.055088134765625,-0.00018640997586771846,-0.0004252973012626171,-0.0006112083792686462
1772535207030103800,6.065103759765625,-0.000903072243090719,-0.00020616012625396252,0.0010319007560610771
1772535207040119800,6.075119873046875,-0.0003760326071642339,0.000023138010874390602,0.00042523257434368134
1772535207050135800,6.0851357421875,-0.00023352372227236629,0.0007128752768039703,0.0015011087525635958
1772535207060152000,6.095152099609375,0.0004751434316858649,0.00018343888223171234,0.0003482261672616005
1772535207070168000,6.10516796875,0.00022206013090908527,0.0004872209392488003,-0.0009165806695818901
1772535207080184000,6.11518408203125,0.0010545642580837011,0.0008488781750202179,-0.00023907236754894257
1772535207090200000,6.125199951171875,0.000602079089730978,-0.0009559105383232236,0.00017571216449141502
1772535207100215800,6.1352158203125,0.0001828975509852171,0.0010095022153109312,-0.0004527941346168518
1772535207110231800,6.145231689453125,-0.0006365273729898036,0.00021383794955909252,-0.00022812653332948685
1772535207120247800,6.155247802734375,-0.00012040679575875401,-0.0014620893634855747,0.0012496616691350937
1772535207130264000,6.16526416015625,-0.001429836847819388,-0.0007897841278463602,0.0009512836113572121
1772535207140280000,6.175280029296875,-0.0002977270632982254,-0.0001096127089112997,0.0010247868485748768
1772535207150296000,6.185296142578125,0.00019314163364470005,0.000520399073138833,0.000006345100700855255
1772535207160312000,6.19531201171875,-0.000024971261154860258,0.00008390680886805058,0.00013870419934391975
1772535207170327800,6.205327880859375,0.00032106880098581314,-0.0004078284837305546,0.0011638135183602571
1772535207180343800,6.21534375,-0.0014472701586782932,0.00013146153651177883,0.0011555575765669346
1772535207190359800,6.22535986328125,-0.0007376433350145817,-0.00013966229744255543,0.0004171556793153286
1772535207200376000,6.2353759765625,-0.0009182055946439505,-0.0008350136922672391,0.0008110371418297291
1772535207210392000,6.24539208984375,0.00029420817736536264,-0.0000519254244863987,0.00008075125515460968
1772535207220408000,6.255407958984375,0.00016051752027124166,0.0007403648924082518,0.0005776972975581884
1772535207230423800,6.265423828125,-0.0004706924082711339,-0.00018084142357110977,0.00009244261309504509
1772535207240439800,6.275439697265625,0.0011013715993613005,-1.280568540096283e-8,0.0008019087836146355
1772535207250456000,6.2854560546875,-0.0008667694055475295,-0.0011998881818726659,0.00011576618999242783
1772535207260472000,6.29547216796875,-0.00048167636850848794,-0.002056094352155924,0.0009282969404011965
1772535207270488000,6.305488037109375,0.00022457889281213284,-0.00011498201638460159,0.0008400832302868366
1772535207280504000,6.315504150390625,0.0015510993544012308,-0.0006825018208473921,0.00007735379040241241
1772535207290520000,6.32552001953125,0.0003743804700206965,-0.0011558100813999772,-0.0013926946558058262
1772535207300535800,6.335535888671875,0.0009355085203424096,-0.0009118645684793591,0.001348497113212943
1772535207310551800,6.3455517578125,-0.0009004099993035197,0.00017116311937570572,-0.00009038764983415604
1772535207320568000,6.355568115234375,-0.0009414226515218616,0.0010936821345239878,-0.0016773655079305172
1772535207330584000,6.365583984375,0.0008968578185886145,-0.0008684642380103469,-0.000803088303655386
1772535207340600000,6.37560009765625,0.0009623715886846185,0.0002029254101216793,0.001350343693047762
1772535207350616000,6.385615966796875,0.00039833661867305636,0.0004502639640122652,-0.0003794431686401367
1772535207360632000,6.395632080078125,0.0013245840091258287,-0.0013457718305289745,-0.00041140150278806686
1772535207370647800,6.405647705078125,-0.0005995118990540504,-0.0003415234386920929,0.001114814542233944
1772535207380663800,6.415663818359375,-0.0009369343752041459,0.00047659967094659805,-0.0007568551227450371
1772535207390680000,6.42568017578125,0.0006445621838793159,0.0011921441182494164,-0.0000889296643435955
1772535207400696000,6.435696044921875,0.0015835927333682775,-0.0013549030991271138,-0.001030357088893652
1772535207410712000,6.445712158203125,-0.0010390985989943147,-0.00046716094948351383,0.00024445587769150734
1772535207420728000,6.45572802734375,-0.00004547322168946266,-0.0009177677566185594,-0.0005638138391077518
1772535207430743800,6.465743896484375,-0.0002512310165911913,0.0002842796966433525,-0.00008868519216775894
1772535207440759800,6.475759765625,-0.0006515041459351778,0.000027551082894206047,-0.0008455556817352772
1772535207450775800,6.48577587890625,0.00028317279065959156,0.0015131784602999687,-0.00004304107278585434
1772535207460793000,6.49579296875,0.00038783502532169223,-0.0002122835721820593,0.0001630876213312149
1772535207470809000,6.50580908203125,-0.0004810134996660054,0.00013788091018795967,-0.0008812723681330681
1772535207480824800,6.515824951171875,0.0004103464598301798,-0.0012102113105356693,0.000026332680135965347
1772535207490840800,6.5258408203125,0.00010991649469360709,-0.00016747438348829746,-0.00017459644004702568
1772535207500856800,6.53585693359375,0.00028009252855554223,-0.000014342600479722023,-0.00018365122377872467
1772535207510873000,6.545873046875,0.0004924610257148743,0.0008289511315524578,-0.000254116952419281
1772535207520889000,6.55588916015625,-0.000008213217370212078,0.00022467994131147861,-0.0004362771287560463
1772535207530905000,6.565905029296875,-0.00013044191291555762,-0.00010495679453015327,0.00023149093613028526
1772535207540921000,6.575921142578125,-0.0006308499141596258,-0.00041920971125364304,0.00007036933675408363
1772535207550936800,6.585936767578125,-0.0003430242068134248,-0.0005724087823182344,-0.0008133477531373501
1772535207560952800,6.595952880859375,-0.001298033632338047,-0.000886129098944366,0.00031237024813890457
1772535207570968800,6.60596875,-0.000991513952612877,-0.000020998530089855194,0.00041947606950998306
1772535207580985000,6.615985107421875,0.0007472638972103596,-0.0012138283345848322,-0.0009403340518474579
1772535207591001000,6.6260009765625,-0.0007749017095193267,0.00014424254186451435,-0.0004734061658382416
1772535207601017000,6.63601708984375,-0.0003887433558702469,-0.0002562969457358122,0.00029864441603422165
1772535207611033000,6.646033203125,0.000533060694579035,0.0022257633972913027,-0.00217380840331316
1772535207621048800,6.656048828125,0.000975944334641099,-0.0011127750622108579,-0.0005783089436590672
1772535207631064800,6.66606494140625,0.00009022041922435164,0.0013220729306340218,0.001070505240932107
1772535207641081000,6.6760810546875,0.00025080901104956865,0.0011835882905870676,-0.0005801222287118435
1772535207651097000,6.68609716796875,0.0008573610102757812,0.00031761941500008106,0.0005240021273493767
1772535207661113000,6.696113037109375,-0.0000017748097889125347,0.0007077725604176521,0.001343190437182784
1772535207671129000,6.706129150390625,-0.00007224787259474397,0.0002818363718688488,-0.001337309367954731
1772535207681144800,6.716144775390625,-0.0009103447082452476,-0.00072617013938725,0.00032689981162548065
1772535207691160800,6.726160888671875,0.00048372894525527954,-0.0006340204272419214,-0.0010034958831965923
1772535207701176800,6.7361767578125,-0.001522696577012539,-0.0002523893490433693,0.00040558306500315666
1772535207711193000,6.746193115234375,-0.00023181334836408496,0.0006786598823964596,0.00023374613374471664
1772535207721209000,6.756208984375,-0.0000658984063193202,-0.00003320304676890373,0.0016540098004043102
1772535207731225000,6.76622509765625,-0.00007938785711303353,0.0006595747545361519,-0.00043055741116404533
1772535207741241000,6.776240966796875,0.001068168319761753,0.000892335083335638,0.0009364432189613581
1772535207751256800,6.7862568359375,0.0006839508423581719,-0.0003428477793931961,0.00041831983253359795
1772535207761272800,6.79627294921875,-0.00010088272392749786,-0.0007279408164322376,0.0001970110461115837
1772535207771288800,6.806288818359375,0.00034735974622890353,-0.00012106611393392086,-0.0005943514406681061
1772535207781305000,6.81630517578125,-0.002081709448248148,0.0002334006130695343,-0.00023908540606498718
1772535207791321000,6.826321044921875,-0.0001460454659536481,0.00033979048021137714,0.0011872078757733107
1772535207801337000,6.836337158203125,0.00030669194529764354,-0.0006469106301665306,0.0009770842734724283
1772535207811353000,6.84635302734375,0.00051352713489905,0.0005148292984813452,-0.00019572442397475243
1772535207821368800,6.856368896484375,0.0014525577425956726,-0.0004692086949944496,-0.0007403409108519554
1772535207831384800,6.866384765625,0.0007481682114303112,-0.000011726981028914452,0.0008593122474849224
1772535207841400800,6.87640087890625,-0.0006550763500854373,0.00041264970786869526,0.0011477756779640913
1772535207851417000,6.8864169921875,0.0008594633545726538,-0.0005077386740595102,0.0003488273359835148
1772535207861433000,6.89643310546875,0.0013513491721823812,0.0004576572682708502,-0.0005790181457996368
1772535207871449000,6.906448974609375,-0.0003538610180839896,0.0006007684860378504,-0.0007243449799716473
1772535207881464800,6.91646484375,0.0004797084257006645,0.0001605479046702385,-0.00027826521545648575
1772535207891480800,6.926480712890625,0.0020706020295619965,0.0011789144482463598,-0.0008801012299954891
1772535207901496800,6.936496826171875,-0.0013265263987705112,0.0006377601530402899,0.0007628027815371752
1772535207911513000,6.94651318359375,0.0008621304295957088,0.0005668129306286573,0.00009677326306700706
1772535207921529000,6.956529052734375,0.00039794144686311483,0.000642979284748435,-0.0005682180635631084
1772535207931545900,6.9665458984375,-0.0003034460823982954,0.00006704870611429214,0.0007786252535879612
1772535207941561900,6.976561767578125,0.0008097552345134318,0.00046172901056706905,-0.0003678654320538044
1772535207951577900,6.986577880859375,0.001789129339158535,0.0003397644031792879,-0.0006901854649186134
1772535207961593900,6.99659375,0.00027991595561616123,-0.0010536015033721924,-0.00044703856110572815
1772535207971610000,7.006610107421875,0.0004920767387375236,-0.000041389837861061096,0.0013605060521513224
1772535207981626000,7.016626220703125,-0.0003593358560465276,0.0003133432473987341,0.0012771491892635822
1772535207991642000,7.02664208984375,-0.0007981163798831403,-0.0006057922728359699,-0.00038481736555695534
1772535208001657900,7.036657958984375,0.0006985801737755537,-0.00036317831836640835,-0.0009648539125919342
1772535208011673900,7.046673828125,-0.0004708189517259598,-0.0000322412233799696,-0.0008201603777706623
1772535208021689900,7.05668994140625,-0.0001565659767948091,-0.0002636699937283993,-0.0001980457454919815
1772535208031706000,7.0667060546875,-0.0005661026807501912,-0.0005541483405977488,-0.0013718511909246445
1772535208041722000,7.07672216796875,-0.00034878874430432916,-0.001046300632879138,0.0012265951372683048
1772535208051738000,7.086738037109375,0.0007553683244623244,0.000622832216322422,0.0007338242139667273
1772535208061754000,7.096754150390625,-0.00028805818874388933,-0.0010738675482571125,-0.000007865950465202332
1772535208071769900,7.106769775390625,0.0007617833907715976,-0.00038758921436965466,-0.001158860046416521
1772535208081785900,7.116785888671875,-0.0005410349695011973,-0.001093060476705432,-0.00011436827480792999
1772535208091801900,7.1268017578125,0.00021243115770630538,-0.00019219028763473034,-0.00035934289917349815
1772535208101818000,7.136818115234375,-0.00038172013591974974,0.000009144656360149384,0.0016265762969851494
1772535208111834000,7.146834228515625,-0.0008377616759389639,0.0012593111023306847,0.00105080078355968
1772535208121850000,7.15685009765625,0.0005058030947111547,0.0001754043623805046,0.001309926388785243
1772535208131865900,7.166865966796875,0.0005128564080223441,-0.00013040495105087757,-0.00036682188510894775
1772535208141881900,7.1768818359375,-0.0006356474477797747,-0.000372057780623436,-0.00012583937495946884
1772535208151897900,7.18689794921875,0.000395794864743948,0.0008492677006870508,0.000984432641416788
1772535208161913900,7.196913818359375,0.001538024633191526,0.0016378297004848719,-0.0005881637334823608
1772535208171930000,7.20693017578125,0.0002726528618950397,0.0005407542921602726,-0.00023384066298604012
1772535208181946000,7.216946044921875,0.0004604057176038623,0.0004941488150507212,-0.0001614028587937355
1772535208191962000,7.226962158203125,0.0006170389242470264,-0.0003843533340841532,0.00015522446483373642
1772535208201977900,7.236977783203125,0.0002516532549634576,0.0000057998113334178925,0.0010899938642978668
1772535208211993900,7.246993896484375,0.0006459357682615519,-0.00008918740786612034,0.0007445234805345535
1772535208222009900,7.257009765625,-0.0007721974980086088,-0.00011129165068268776,-0.0013686949387192726
1772535208232025900,7.26702587890625,0.0004947988782078028,-0.0002936064265668392,-0.0011337553150951862
1772535208242042000,7.2770419921875,-0.002116696909070015,0.0003247796557843685,-0.00023680226877331734
1772535208252058000,7.28705810546875,0.00008911947952583432,-0.0013337366981431842,0.0006796596571803093
1772535208262074000,7.29707421875,-0.0010813397821038961,-0.0007651518099009991,0.0005899111274629831
1772535208272089900,7.30708984375,0.001009807689115405,0.0006431508809328079,-0.00022502336651086807
1772535208282106000,7.317106201171875,0.00030007530585862696,-0.0008149299537763,-0.0008237017318606377
1772535208292122000,7.3271220703125,-0.0003877718118019402,0.00039759534411132336,-0.001153365708887577
1772535208302138000,7.33713818359375,0.0012242395896464586,-0.000894037657417357,0.0001811445690691471
1772535208312154000,7.347154052734375,0.001151436474174261,0.0001379433088004589,-0.00025644199922680855
1772535208322170000,7.357170166015625,-0.0003623042721301317,0.0007376873400062323,-0.000421824399381876
1772535208332185900,7.367185791015625,-0.0008347033872269094,0.0009289032313972712,-0.0019762376323342323
1772535208342201900,7.377201904296875,-0.0006775768124498427,-0.0008791169384494424,-0.00016076071187853813
1772535208352218000,7.387218017578125,-0.0010556515771895647,0.0000860563013702631,0.0002813795581459999
1772535208362234000,7.397234130859375,0.001139592146500945,0.0010605070274323225,-0.0008422085084021091
1772535208372250000,7.40725,-0.0004538068315014243,0.00037713395431637764,0.00003519514575600624
1772535208382266000,7.41726611328125,-0.0007494176970794797,-0.0010444613872095942,-0.0006170128472149372
1772535208392282000,7.4272822265625,-0.0006465405458584428,0.0005950881168246269,0.0009221264626830816
1772535208402297900,7.4372978515625,-0.00034107599640265107,0.0002257076557725668,0.0005333046428859234
1772535208412314000,7.447314208984375,-0.00039952393854036927,-0.00002670777030289173,0.0005772749427706003
1772535208422330000,7.457330078125,0.0011584253516048193,-0.0013412440894171596,-0.0003937138244509697
1772535208432346000,7.46734619140625,0.0021766333375126123,-0.00044401432387530804,0.0002451869659125805
1772535208442362000,7.477362060546875,-0.000136055750772357,0.0008351018186658621,0.00044732121750712395
1772535208452379000,7.48737890625,0.0004105872649233788,-0.0008378468919545412,0.0011082966811954975
1772535208462395000,7.497394775390625,0.00010032899444922805,-0.0004532863385975361,-0.0023524812422692776
1772535208472411100,7.5074111328125,-0.0008976143435575068,0.00043097231537103653,-0.000555490143597126
1772535208482427100,7.51742724609375,0.0015855170786380768,-0.0001554556656628847,-0.0005174069665372372
1772535208492443100,7.527443115234375,0.0003568913962226361,-0.00028553372249007225,0.00016455724835395813
1772535208502459100,7.537459228515625,0.0002548923366703093,0.00022819009609520435,-0.0011651590466499329
1772535208512475100,7.54747509765625,-0.00008938752580434084,-0.0002944993320852518,0.0002047657035291195
1772535208522491000,7.557490966796875,-0.00030457094544544816,-0.0014295384753495455,0.0004055681638419628
1772535208532507100,7.567507080078125,0.0013233376666903496,-0.00016800593584775925,-0.0005596061237156391
1772535208542523100,7.577523193359375,-0.0001635050866752863,0.00009351642802357674,0.0007860891055315733
1772535208552539100,7.5875390625,-0.0008213328546844423,-0.00024039996787905693,0.0008500760886818171
1772535208562555100,7.59755517578125,0.0005328845581971109,-0.0008755638264119625,0.0007435495499521494
1772535208572571100,7.607571044921875,-0.0009819415863603354,-0.000366841908544302,-0.00043890485540032387
1772535208582587000,7.6175869140625,-0.0004881914355792105,0.000579911982640624,0.001099337125197053
1772535208592603000,7.627602783203125,-0.0005207419162616134,-0.0000776571687310934,0.00022949324920773506
1772535208602619100,7.637619140625,-0.0006467094644904137,-0.00024969736114144325,-0.0003545382060110569
1772535208612635100,7.64763525390625,0.00021639079204760492,0.0004847452510148287,-0.000514111015945673
1772535208622651100,7.657651123046875,-0.0009801675332710147,-0.0007136773783713579,0.0012307919096201658
1772535208632667100,7.667667236328125,-0.0015266210539266467,-0.0006567463278770447,0.0007093159947544336
1772535208642683100,7.67768310546875,-0.0008379275677725673,-0.000051409704610705376,-0.0008920426480472088
1772535208652699000,7.687698974609375,-0.0008272236445918679,0.0001512332819402218,-0.0006414144299924374
1772535208662715000,7.69771484375,-0.0004173631314188242,-0.00031481985934078693,-0.0003841533325612545
1772535208672731100,7.707731201171875,0.00025137930060736835,0.0007942062802612782,0.000042255502194166183
1772535208682747100,7.7177470703125,0.0004977217176929116,0.0009412127546966076,0.0005352068692445755
1772535208692763100,7.72776318359375,0.0011055414797738194,0.0007563880644738674,0.0010685771703720093
1772535208702779100,7.737779052734375,0.0004083258972968906,-0.0013072955189272761,0.0017383622471243143
1772535208712795100,7.747795166015625,0.0004883055225946009,0.0013033191207796335,0.00037336675450205803
1772535208722811000,7.757810791015625,0.0005178665742278099,0.0005009088199585676,0.0010961487423628569
1772535208732827000,7.767826904296875,-0.0007003609789535403,-0.0002178763970732689,-0.0002969508059322834
1772535208742843100,7.777843017578125,0.0003446634509600699,0.00035017565824091434,0.00009053898975253105
1772535208752859100,7.787859130859375,0.0006164912483654916,0.00023250607773661613,0.0012580335605889559
1772535208762875100,7.797875244140625,-0.0006000406574457884,0.0000013436656445264816,-0.00005490472540259361
1772535208772891100,7.80789111328125,0.0011355398455634713,-0.000024239299818873405,-0.0005581825971603394
1772535208782907100,7.8179072265625,-0.00007113837637007236,-0.00015979423187673092,0.0010564918629825115
1772535208792923000,7.8279228515625,0.00023643337772227824,-0.0002877537626773119,0.0007045518141239882
1772535208802939100,7.837939208984375,-0.001116718864068389,0.000036086421459913254,-0.0008059930987656116
1772535208812955100,7.847955078125,-0.0013593920739367604,-0.00009166751988232136,0.0000620097853243351
1772535208822971100,7.85797119140625,0.00014502758858725429,0.0007259228732436895,0.00014296965673565865
1772535208832987100,7.867987060546875,0.0003757592639885843,0.0009787131566554308,0.0002734013833105564
1772535208843003100,7.878003173828125,-0.0016535308677703142,0.0008859031368046999,-0.0006059310398995876
1772535208853019000,7.888018798828125,0.0003859178686980158,-0.0005780365318059921,0.0003392244689166546
1772535208863035000,7.898034912109375,-0.00016322598094120622,0.0007985513657331467,-0.0003731711767613888
1772535208873051100,7.908051025390625,-0.0005798889324069023,-0.0006088698282837868,0.0010345932096242905
1772535208883067100,7.918067138671875,0.00007338449358940125,-0.0008493532659485936,0.0009578941389918327
1772535208893083100,7.928083251953125,0.001281060860492289,-0.00047278101556003094,0.0015013222582638264
1772535208903099100,7.93809912109375,-0.0002087114262394607,0.000006587943062186241,-0.00047607487067580223
1772535208913115100,7.948115234375,0.0008548551704734564,-0.0006322590634226799,0.00004223361611366272
1772535208923131000,7.958130859375,-0.0016162919346243143,-0.0007949781138449907,0.0005538268014788628
1772535208933147000,7.96814697265625,0.00045835989294573665,-0.0002908094320446253,0.0014177067205309868
1772535208943163100,7.9781630859375,-0.00022953463485464454,0.00007484271191060543,-0.0006281337700784206
1772535208953179100,7.98817919921875,-0.0006637586047872901,0.00018260744400322437,-0.0001386827789247036
1772535208963195100,7.998195068359375,0.0006734145572409034,0.0011855540797114372,0.0007244476582854986
1772535208973211100,8.008211181640625,-0.0001818629098124802,-0.0006438870914280415,0.00006780819967389107
1772535208983227100,8.01822705078125,0.00004264159360900521,-0.0003189814742654562,-0.0009300778619945049
1772535208993243000,8.028242919921874,0.0014875013148412108,-0.00036514480598270893,0.00005539972335100174
1772535209003259100,8.038259033203126,-0.000016119389329105616,0.000005034729838371277,-0.0012431577779352665
1772535209013275100,8.048275146484375,0.00005928799510002136,-0.00009959959425032139,0.00017800834029912949
1772535209023292200,8.058292236328125,0.0008510457701049745,0.0004042705986648798,0.0010398074518889189
1772535209033308000,8.068307861328124,0.00043147726682946086,-0.0004755193367600441,0.000731463311240077
1772535209043324000,8.078323974609376,-0.0002979625132866204,-0.0006004215683788061,-0.0003718840889632702
1772535209053340000,8.08833984375,-0.000252883939538151,-0.00009817141108214855,0.0009087242651730776
1772535209063356200,8.098356201171875,0.0017205183394253254,0.0004072964657098055,0.0008261662442237139
1772535209073372200,8.1083720703125,0.0012962527107447386,0.0006290345918387175,0.0018577908631414175
1772535209083388200,8.11838818359375,-0.00072215695399791,0.0006484754849225283,-0.0006402540020644665
1772535209093404200,8.128404052734375,0.0010836224537342787,0.0009757664520293474,0.00041225505992770195
1772535209103420000,8.138419921875,0.0017789737321436405,0.0011030654422938824,0.0004926826804876328
1772535209113436000,8.148435791015626,-0.0012742917751893401,-0.0006433404050767422,0.0011462632101029158
1772535209123452000,8.158451904296875,0.0002996364200953394,0.000502085080370307,0.00122349476441741
1772535209133468200,8.16846826171875,0.0004957116907462478,0.000237639294937253,-0.0005644806660711765
1772535209143484200,8.178484130859376,-0.0000692899338901043,0.0009476356208324432,0.0002899821847677231
1772535209153500200,8.188500244140625,0.0012239411007612944,0.00011273450218141079,-0.0008511827327311039
1772535209163516200,8.19851611328125,-0.0003870050422847271,-0.0003634386230260134,0.0008087658789008856
1772535209173532000,8.208531982421874,0.00047141389222815633,0.0005906007718294859,-0.0006238226778805256
1772535209183548000,8.2185478515625,-0.0015746926655992866,0.00010830233804881573,-0.0010946695692837238
1772535209193564200,8.228564208984375,-0.0017059703823179007,-0.0009001970756798983,0.00035590119659900665
1772535209203580200,8.238580078125,0.0003340109542477876,0.0008692070841789246,0.00229308451525867
1772535209213596200,8.24859619140625,0.0004450678243301809,-0.0008792723529040813,-0.0003184364177286625
1772535209223612200,8.258612060546875,0.0004983310354873538,-0.00020815571770071983,0.00017984071746468544
1772535209233628200,8.268628173828125,-0.000026283960323780775,-0.00015475391410291195,0.0007425448857247829
1772535209243643600,8.2786435546875,0.0014594935346394777,0.00014591682702302933,0.0012296370696276426
1772535209253659600,8.28865966796875,0.0007732895901426673,-0.00043070618994534016,-0.0005091200582683086
1772535209263676000,8.298676025390625,0.001465445151552558,-0.0003052712418138981,-0.0009722434915602207
1772535209273692000,8.30869189453125,0.00024401527480222285,0.000297880033031106,0.0005153301171958447
1772535209283708000,8.3187080078125,-0.0007967480923980474,0.0006416940595954657,-0.0005800281651318073
1772535209293724000,8.328723876953125,-0.00037280144169926643,-0.0008160385768860579,-0.0006358618848025799
1772535209303740000,8.338739990234375,0.0012887446209788322,-0.0018384261056780815,-0.0007293387316167355
1772535209313755600,8.348755615234374,-0.0010211296612396836,0.00021815230138599873,-0.0004065954126417637
1772535209323771600,8.358771728515626,-7.363269105553627e-8,-0.0004878516774624586,0.00010126922279596329
1772535209333788000,8.368787841796875,-0.00024984870105981827,0.0000685111153870821,-0.0008317749015986919
1772535209343804000,8.378803955078125,0.0012487119529396296,0.0008096687961369753,0.0007115267217159271
1772535209353820000,8.38881982421875,-0.0008613172103650868,-0.0014362664660438895,0.0010304898023605347
1772535209363836000,8.3988359375,0.0006596141029149294,-0.00019043986685574055,0.000419028103351593
1772535209373852000,8.408851806640625,0.000004487286787480116,0.00011853547766804695,-0.0014736652374267578
1772535209383867600,8.41886767578125,-0.00012094760313630104,0.00011187768541276455,0.00047576846554875374
1772535209393883600,8.428883544921876,0.00046737201046198606,0.00012213876470923424,-0.0013692378997802734
1772535209403900000,8.43889990234375,-0.0009395760134793818,-0.0015769579913467169,0.0008963134605437517
1772535209413916000,8.448916015625,-0.0014406724367290735,0.0006878331769257784,-0.00020014634355902672
1772535209423932000,8.458931884765626,-0.00003771926276385784,0.0008356387261301279,-0.0010499609634280205
1772535209433948000,8.468947998046875,-0.0003775602672249079,0.0012550137471407652,0.0005644280463457108
1772535209443963600,8.478963623046875,0.0005071418127045035,0.00013994821347296238,-0.0007626251317560673
1772535209453979600,8.488979736328124,-0.0006394443917088211,-0.0000624493695795536,-0.0006410563364624977
1772535209463995600,8.49899560546875,0.0010913440492004156,0.00022170995362102985,0.0003642868250608444
1772535209474012000,8.509011962890625,-0.0009920733282342553,-0.00044925487600266933,0.001483845291659236
1772535209484028000,8.51902783203125,0.0002739934134297073,0.000552093842998147,-0.0005840994417667389
1772535209494044000,8.5290439453125,0.00007350498344749212,0.0011381912045180798,-0.00010713981464505196
1772535209504060000,8.539059814453125,0.0012213274603709579,0.0009629551786929369,0.000951466616243124
1772535209514075600,8.54907568359375,0.0019188818987458944,-0.0002359636127948761,0.0012842118740081787
1772535209524091600,8.559091552734374,-0.0006220399518497288,0.000021830201148986816,0.00047327950596809387
1772535209534108000,8.56910791015625,-0.0010171474423259497,-0.00033892178907990456,-0.0004739249125123024
1772535209544124000,8.5791240234375,-0.0003204644308425486,0.00014204508624970913,0.0004872097633779049
1772535209554140000,8.589139892578125,0.0006212119478732347,0.00015451014041900635,0.00006601819768548012
1772535209564156000,8.599156005859374,-0.0007348696235567331,-0.0007653456414118409,-0.0005465089343488216
1772535209574172000,8.609171875,0.0006758748786523938,-0.0014122817665338516,0.000937348697334528
1772535209584187600,8.619187744140625,-0.0008591712103225291,0.00036591081880033016,0.0003421320579946041
1772535209594203600,8.62920361328125,-0.00037139904452487826,-0.000970458728261292,-0.0005392516031861305
1772535209604220000,8.639219970703126,0.0004547134740278125,0.0007781728636473417,0.0015244318637996912
1772535209614236000,8.64923583984375,0.0007609996828250587,-0.0007329827640205622,0.0001179906539618969
1772535209624252000,8.659251953125,0.001059273723512888,-0.000687708961777389,-0.0005648438818752766
1772535209634268000,8.669267822265626,-0.00032669282518327236,-0.00014201737940311432,-0.00045958906412124634
1772535209644283600,8.67928369140625,-0.000292021781206131,0.000005699926987290382,-0.0014082067646086216
1772535209654299600,8.689299560546875,0.0003625832323450595,-0.0003453048411756754,-0.001303278375416994
1772535209664317000,8.69931689453125,0.0004280970024410635,0.0005388646386563778,0.0001627919264137745
1772535209674333000,8.7093330078125,0.0008853594772517681,0.0002904001157730818,-0.0004047602415084839
1772535209684349000,8.719348876953125,0.00004167010774835944,0.0004256889224052429,-0.000040972139686346054
1772535209694364700,8.72936474609375,0.00007148488657549024,0.000009045703336596489,0.0010934153106063604
1772535209704380700,8.739380615234374,-0.00047792529221624136,0.000284682959318161,0.0006057904101908207
1772535209714396700,8.749396728515626,0.000004091067239642143,0.0001335542183369398,-0.00019375281408429146
1772535209724413000,8.759412841796875,0.0003417798725422472,-0.001368468627333641,-0.0010217293165624142
1772535209734429000,8.769428955078125,-0.001487241592258215,0.0011204320471733809,0.00019040284678339958
1772535209744445000,8.77944482421875,-0.00014554103836417198,0.0013888785615563393,0.00017255963757634163
1772535209754461000,8.7894609375,0.0011129176709800959,-0.001222398248501122,0.0003936011344194412
1772535209764476700,8.7994765625,-0.000505218980833888,-0.00023702881298959255,-0.0009859162382781506
1772535209774492700,8.80949267578125,-0.0006614306475967169,0.000623505562543869,-0.00023785466328263283
1772535209784508700,8.8195087890625,0.0008270101388916373,-0.0007027485407888889,-0.0006804722361266613
1772535209794525000,8.82952490234375,-0.0005131554207764566,0.0000615348108112812,-0.0002804403193295002
1772535209804541000,8.839541015625,-0.001433810219168663,0.0002141338773071766,-0.0004964228719472885
1772535209814557000,8.849556884765626,-0.0005403870600275695,0.00035381875932216644,0.000019851606339216232
1772535209824573000,8.859572998046875,0.0009805442532524467,0.0013711461797356606,-0.0009370222687721252
1772535209834588700,8.869588623046875,-0.00048393133329227567,0.00019878358580172062,-0.0002789241261780262
1772535209844604700,8.879604736328124,-0.00011259561870247126,0.0002930816262960434,-0.0002605011686682701
1772535209854620700,8.88962060546875,-0.000020982930436730385,-0.0003391527570784092,-0.0012823562137782574
1772535209864637000,8.899636962890625,0.0015271126758307219,-0.00005685770884156227,0.0016982536762952805
1772535209874653000,8.90965283203125,-0.0002854765625670552,0.0005834344774484634,0.002419000491499901
1772535209884669000,8.9196689453125,0.0012801957782357931,-0.000959068420343101,0.00044293515384197235
1772535209894684700,8.9296845703125,-0.0004012969438917935,0.00043907808139920235,0.0003595510497689247
1772535209904700700,8.93970068359375,0.0006370695191435516,-0.0006909011863172054,0.000952637055888772
1772535209914716700,8.949716552734374,-0.0014701150357723236,0.00010649533942341805,0.0008728101383894682
1772535209924733000,8.95973291015625,-0.0003111074329353869,0.002235958818346262,0.000767615158110857
1772535209934749000,8.9697490234375,0.0009082172182388604,-0.0017196731641888618,0.0005492274649441242
1772535209944765000,8.979764892578125,-0.0009037976269610226,0.0010289752390235662,0.0002536168321967125
1772535209954781000,8.989781005859374,0.0009699388756416738,-0.00027662282809615135,-0.0005463608540594578
1772535209964796700,8.999796630859375,-0.0007776273996569216,0.000021385028958320618,-0.0008174707181751728
1772535209974812700,9.009812744140625,0.00005676550790667534,0.0010669520124793053,-0.00004655309021472931
1772535209984828700,9.01982861328125,-0.0013142297975718975,0.00047679548151791096,0.0008618512656539679
1772535209994845000,9.029844970703126,0.0008966996101662517,0.0007063061930239201,-0.000258125364780426
1772535210004861000,9.03986083984375,-0.0006665759137831628,-0.000014611519873142242,0.00038529420271515846
1772535210014877000,9.049876953125,0.00003267574356868863,-0.0002711059059947729,0.0015786257572472095
1772535210024893000,9.059892822265626,-0.00047811854165047407,0.0004945530090481043,0.00035676732659339905
1772535210034908700,9.06990869140625,-0.00023681571474298835,-0.0010675180237740278,-0.0015601995401084423
1772535210044924700,9.079924560546875,0.0001048678532242775,-0.0003351487684994936,0.00015274574980139732
1772535210054940700,9.089940673828124,-0.0018151735421270132,0.0012967302463948727,-0.0004734005779027939
1772535210064957000,9.09995703125,-0.0004859900218434632,-0.0010130292503163218,-0.0004646121524274349
1772535210074973000,9.109972900390625,-0.0012319056550040841,0.0005002445541322231,0.0003298870287835598
1772535210084989000,9.119989013671875,-0.0017885061679407954,-0.00037114182487130165,0.0001434655860066414
1772535210095004700,9.130004638671876,0.0009408900514245033,-0.0001355963759124279,-0.0009130393154919147
1772535210105020700,9.140020751953125,0.0003225040272809565,-3.0780211091041565e-7,0.0010553030297160149
1772535210115036700,9.15003662109375,-0.0004597696242853999,-0.00048550008796155453,0.0009031947702169418
1772535210125053000,9.160052978515624,0.0005511663621291518,-0.0006037442944943905,0.0007860157638788223
1772535210135069000,9.17006884765625,-0.0015522133326157928,0.00040686409920454025,0.00006766524165868759
1772535210145085000,9.1800849609375,0.0006343116983771324,-0.0003535943105816841,0.000047958921641111374
1772535210155101000,9.190100830078125,-0.00133616104722023,0.0003984824288636446,-0.0013464721851050854
1772535210165116700,9.20011669921875,-0.002011272357776761,0.00034042540937662125,-0.0003376668319106102
1772535210175132700,9.210132568359375,0.00024670184939168394,-0.00022070109844207764,-0.00041767489165067673
1772535210185148700,9.220148681640625,-0.000411897839512676,-0.00028222030960023403,0.0012039239518344402
1772535210195165000,9.2301650390625,0.0008293377468362451,0.00047178915701806545,0.0006573882419615984
1772535210205181000,9.240180908203126,0.0007270723581314087,-0.00030665285885334015,0.00047416286543011665
1772535210215197000,9.250197021484375,0.0007967607816681266,-0.00023188418708741665,-0.00040105637162923813
1772535210225213000,9.260212890625,-0.00008660973981022835,0.0005572105292230844,-0.00042768800631165504
1772535210235228700,9.270228759765626,0.0009072985267266631,-0.0005496339872479439,-0.0015962314791977406
1772535210245244700,9.28024462890625,-0.0010674353688955307,-0.000005283858627080917,-0.0016420381143689156
1772535210255260700,9.2902607421875,0.00000297097722068429,-0.0009545969078317285,0.00029975175857543945
1772535210265277000,9.30027685546875,0.0001244111335836351,-0.00004219799302518368,-0.002248360775411129
1772535210275293000,9.31029296875,-0.000010504911188036203,-0.0002762253861874342,0.0009203113149851561
1772535210285934800,9.320934814453125,0.00012238678755238652,0.0008004906121641397,-0.0008640065789222717
1772535210295950800,9.330950927734374,0.00043157979962415993,-0.00021763588301837444,-0.0002956879325211048
1772535210305966800,9.340966796875,0.00011237111175432801,0.0007419493049383163,0.00013459846377372742
1772535210315982800,9.35098291015625,-0.001053294399753213,-0.000004002125933766365,-0.000009212177246809006
1772535210325998800,9.360998779296875,-0.00009023357415571809,0.0011659320443868637,-0.0008404427208006382
1772535210336014800,9.371014892578126,0.00011050241300836205,-0.000607931986451149,0.000441928394138813
1772535210346030600,9.381030517578125,0.0000039003207348287106,0.00042718020267784595,0.00037673069164156914
1772535210356046800,9.391046875,-0.0006784015567973256,0.00048017711378633976,-0.0005002482794225216
1772535210366062800,9.401062744140624,-0.00021066900808364153,0.000246032839640975,-0.0009512654505670071
1772535210376078800,9.411078857421876,-0.0006319810636341572,-0.0003720868844538927,-0.00035045621916651726
1772535210386094800,9.4210947265625,-0.0003436608240008354,0.0011228679213672876,0.0008217273280024529
1772535210396110800,9.43111083984375,0.0006374476943165064,-0.0003775570075958967,-0.0014259805902838707
1772535210406127900,9.4411279296875,-0.0012804032303392887,0.0009943507611751556,0.001010556472465396
1772535210416144000,9.451143798828125,0.0012879493879154325,0.00019194022752344608,-0.00014259200543165207
1772535210426159900,9.461159912109375,-0.0003864189493469894,0.0014845803380012512,0.0009897411800920963
1772535210436176000,9.47117578125,0.00022024911595508456,0.0001724406611174345,0.00008506514132022858
1772535210446191900,9.48119189453125,-0.0006173804868012667,0.0008637781720608473,-0.0002039717510342598
1772535210456208000,9.491207763671875,-0.0003545264480635524,0.0000789447221904993,0.0003547593951225281
1772535210466223600,9.5012236328125,0.00018213025759905577,0.0013264217413961887,0.0005466663278639317
1772535210476240000,9.511239990234374,0.0004306031914893538,-0.0004895878955721855,0.0008968720212578773
1772535210486255900,9.521255859375,-0.0007627386949025095,-0.00006552482955157757,-0.00008514802902936935
1772535210496272000,9.53127197265625,0.0008490064064972103,0.00046870531514286995,0.0002655903808772564
1772535210506287900,9.541287841796875,-0.00020104198483750224,0.0011654600966721773,-0.0018026060424745083
1772535210516304000,9.551303955078126,0.0016400013118982315,0.0002866170834749937,-0.000300050713121891
1772535210526319600,9.561319580078125,0.0008033423218876123,0.00046453624963760376,0.00006789155304431915
1772535210536335600,9.571335693359375,-0.0002824284019879997,-0.0004702333826571703,-0.0009382506832480431
1772535210546351900,9.581351806640624,0.0007790290401317179,0.0018574940040707588,0.00083948764950037
1772535210556368000,9.591367919921876,0.0000719597446732223,0.0009413664229214191,-0.000228972639888525
1772535210566383900,9.6013837890625,0.0005857136566191912,-0.001907353289425373,0.00047423411160707474
1772535210576400000,9.61139990234375,0.00001819402677938342,0.0008319742046296597,-0.00036652619019150734
1772535210586415900,9.621415771484376,0.0009060967131517828,-0.0006892385426908731,0.0001557590439915657
1772535210596431600,9.631431640625,-0.0006619725027121603,-0.00035767490044236183,0.0008287401869893074
1772535210606447600,9.641447509765625,0.00048558355774730444,0.001161658437922597,0.0003605564124882221
1772535210616464000,9.6514638671875,-0.00014203233877196908,0.00032662576995790005,0.0010779406875371933
1772535210626479900,9.66147998046875,0.0018955771811306477,0.000024959677830338478,0.0012678299099206924
1772535210637121800,9.672121826171875,0.0011282565537840128,0.0001777589786797762,-0.00029523251578211784
1772535210647137800,9.6821376953125,0.0004938915371894836,0.0007114564068615437,0.000862710177898407
1772535210657153800,9.69215380859375,0.000013792829122394323,0.0007546551059931517,0.00019791722297668457
1772535210667169800,9.702169677734375,0.00047478603664785624,0.00024359463714063168,0.0004871366545557976
1772535210677185800,9.712185791015624,0.002030519535765052,-0.0008938784012570977,-0.0006881952285766602
1772535210687201800,9.722201904296876,-0.0006989542162045836,0.0018406554590910673,-0.00039498135447502136
1772535210697217800,9.7322177734375,-0.0013212780468165874,0.0009827290195971727,-0.00018014293164014816
1772535210707233800,9.74223388671875,0.000449191516963765,-0.0005083750002086163,0.0012161524500697851
1772535210717249800,9.752249755859374,-0.001336217625066638,0.00020351260900497437,0.00016039423644542694
1772535210727265800,9.762265869140625,-0.0008267550147138536,-0.0007493664743378758,-0.00003321748226881027
1772535210737281800,9.77228173828125,-0.00130630808416754,-0.00010332651436328888,-0.00016301963478326797
1772535210747297800,9.7822978515625,0.00018239906057715416,0.00008362741209566593,0.0010705564636737108
1772535210757313800,9.792313720703126,0.0006224912358447909,-0.0010756211122497916,-0.0012481831945478916
1772535210767330000,9.802330078125,-0.0004931068979203701,0.0018461330328136683,-0.00022393139079213142
1772535210777345800,9.812345703125,-0.00039898842805996537,-0.00010398076847195625,0.0006165378727018833
1772535210787361800,9.82236181640625,-0.000002710090484470129,0.0010427762754261494,-0.0002013188786804676
1772535210797377800,9.832377685546875,-0.00009922817116603255,-0.0004032247234135866,0.000912234652787447
1772535210807393800,9.842393798828125,0.0006938611622899771,0.0003903971519321203,0.0009796128142625093
1772535210817409800,9.852409912109374,0.0004939644131809473,0.0010631540790200233,-0.0013003484345972538
1772535210827425800,9.86242578125,0.0006508245714940131,-0.0005515206139534712,-0.000942685641348362
1772535210837442000,9.872442138671875,0.0009604361839592457,-0.000025635818019509315,0.0017858282662928104
1772535210847457800,9.882457763671875,0.0012981250183656812,0.0002899486571550369,0.0015272353775799274
1772535210857473800,9.892473876953124,0.0014975060475990176,0.000003711320459842682,-0.0006108963862061501
1772535210867489800,9.90248974609375,-0.0006732365000061691,0.0003118391614407301,-0.00003059348091483116
1772535210877505800,9.912505859375,-0.00030259491177275777,-0.00015643727965652943,-0.0006603407673537731
1772535210887521800,9.922521728515624,-0.0010035389568656683,-0.001059781527146697,0.0010808338411152363
1772535210897537800,9.932537841796876,-0.0012692438904196024,0.0000870071817189455,0.0014018479268997908
1772535210907553800,9.9425537109375,-0.0008194359834305942,-0.0007340452866628766,0.0005882522091269493
1772535210917569800,9.95256982421875,0.00046638306230306625,0.0004685581661760807,-0.0009608645923435688
1772535210927585800,9.962585693359374,-0.001647101598791778,-0.00041241548024117947,0.0005619311705231667
1772535210937601800,9.972601806640625,0.0006399119738489389,0.00033634109422564507,-0.00015253620222210884
1772535210947617800,9.98261767578125,-0.00070764753036201,0.00025138608179986477,0.00006823986768722534
1772535210957633800,9.9926337890625,0.0010150234447792172,0.0004099784418940544,0.0010844327043741941
1772535210967649800,10.00264990234375,0.000874142162501812,-0.0001945591066032648,0.0022578213829547167
1772535210977665800,10.012665771484375,0.0008323168149217963,0.00036987429484725,0.0003859954886138439
1772535210987681800,10.022681884765625,-0.0008100545965135098,0.0004258006811141968,0.0005492474883794785
1772535210997697800,10.03269775390625,-0.00004431919660419226,-0.0011505174916237593,0.0006663135718554258
1772535211007713800,10.0427138671875,-0.0013021300546824932,0.0005216812714934349,-0.0007944302633404732
1772535211017729800,10.052729736328125,0.00006904051406309009,-0.000182850519195199,-0.0006376765668392181
1772535211027745800,10.062745849609374,-0.0019355209078639746,-0.0006518333684653044,0.0006118784658610821
1772535211037762000,10.072761962890626,-0.0004847366944886744,-0.0003628802951425314,0.00006753206253051758
1772535211047777800,10.08277783203125,-0.0005015145870856941,-0.0005855206400156021,0.0007447742391377687
1772535211057793800,10.092793701171875,0.00028250133618712425,0.00009625568054616451,0.00017970381304621696
1772535211067809800,10.102809814453124,0.00009927584324032068,-0.00043291435576975346,0.000958944670855999
1772535211077825800,10.11282568359375,-0.000590182316955179,0.0008412711322307587,0.0007493505254387856
1772535211087841800,10.122841796875,-0.0020256261341273785,0.0009797553066164255,0.00015253620222210884
1772535211097857800,10.13285791015625,0.0001371947000734508,-0.00029939645901322365,0.002315171994268894
1772535211107873800,10.142873779296876,0.00032654544338583946,-0.0000911373645067215,0.00013031484559178352
1772535211117889800,10.152889892578125,-0.00037344545125961304,0.0003941913601011038,-0.0009602261707186699
1772535211127905800,10.16290576171875,0.0008923550485633314,-0.00030408939346671104,0.00010237516835331917
1772535211137921800,10.172921875,-0.0005809157737530768,0.00020102993585169315,0.0015401465352624655
1772535211147938800,10.182938720703126,-0.0004845093353651464,0.00017706165090203285,-0.0002929074689745903
1772535211157953800,10.192953857421875,-0.001097869360819459,0.0017297165468335152,0.001314761582762003
1772535211167969800,10.2029697265625,-0.0005106423050165176,-0.00039175781421363354,-0.0006088395603001118
1772535211177986800,10.21298681640625,0.0009673552121967077,0.001285480335354805,0.0015695774927735329
1772535211188002800,10.2230029296875,-0.0017109859036281705,-0.0007720778230577707,0.00004438543692231178
1772535211198018800,10.233018798828125,-0.00034138571936637163,-0.00035744020715355873,0.001174907200038433
1772535211208034800,10.243034912109374,-0.0014660386368632317,0.0012468481436371803,0.0011219102889299393
1772535211218050800,10.25305078125,0.00008410133887082338,-0.0017551861237734556,0.00008208304643630981
1772535211228066800,10.26306689453125,-0.000011239841114729643,0.0002760067582130432,-0.0003658607602119446
1772535211238082800,10.273082763671875,0.00009083928307518363,-0.0009059732547029853,-0.0014314032159745693
1772535211248098600,10.2830986328125,-0.0007720249705016613,-0.00007000705227255821,-0.0011578965932130814
1772535211258114600,10.293114501953125,0.0015767295844852924,0.000787064665928483,0.0002938522957265377
1772535211268130800,10.303130859375,-0.000052059709560126066,0.0004384568892419338,0.0013276913668960333
1772535211278146800,10.313146728515624,-0.0006626720423810184,-0.00033921655267477036,0.0004941932857036591
1772535211288162800,10.323162841796876,-0.00005227548535913229,-0.00021644472144544125,0.0008065819274634123
1772535211298178600,10.333178466796875,-0.0008950128685683012,-0.002183346776291728,-0.0005393354222178459
1772535211308194600,10.343194580078125,0.001164675923064351,0.0005250880494713783,-0.00031243450939655304
1772535211318210600,10.35321044921875,0.00039537306292913854,0.00039328960701823235,0.00005819648504257202
1772535211328226800,10.363226806640625,-0.0012720320373773575,0.0007916984613984823,0.00002836901694536209
1772535211338242800,10.373242919921875,-0.0014661469031125307,0.0001377298031002283,0.0008349663112312555
1772535211348258800,10.3832587890625,0.0007048619445413351,0.0009979309979826212,-0.00045160669833421707
1772535211358274800,10.39327490234375,-0.0008359941421076655,-0.001170873874798417,-0.0007742554880678654
1772535211368290600,10.40329052734375,0.00036722206277772784,0.0011474078055471182,-0.000545755960047245
1772535211378306600,10.413306640625,0.00009424641029909253,0.00032985350117087364,0.001394006423652172
1772535211388322600,10.423322509765624,0.00013845486682839692,0.00011040898971259594,0.000006233341991901398
1772535211398338800,10.4333388671875,0.0010976247722283006,0.000563787529245019,-0.0009479233995079994
1772535211408354800,10.443354736328125,-0.0007711153593845665,-0.00009667640551924706,-0.000542590394616127
1772535211418370800,10.453370849609374,-0.0003832040820270777,0.0009051596280187368,0.00009339116513729095
1772535211428386800,10.46338671875,-0.0003182229120284319,0.0007871815469115973,0.0005178991705179214
1772535211438402600,10.473402587890625,0.00036217967863194644,0.000003907596692442894,0.0007847019005566835
1772535211448418600,10.48341845703125,-0.0007712616352364421,-0.0008477712981402874,-0.0005791028961539268
1772535211458434600,10.4934345703125,-0.00043549196561798453,0.00011009722948074341,0.00047190627083182335
1772535211468450800,10.503450927734375,-0.0007689196499995887,-0.000026789261028170586,-0.0008444944396615028
1772535211478466800,10.513466796875,0.0004709084169007838,-0.0000265403650701046,-0.0010301736183464527
1772535211488482800,10.52348291015625,-0.00008942070417106152,0.00012446101754903793,0.0004718489944934845
1772535211498498600,10.53349853515625,0.00007719564018771052,0.0007518979255110025,-0.000027468428015708923
1772535211508514600,10.5435146484375,-0.000027999223675578833,0.000491174403578043,-0.00008153077214956284
1772535211518530600,10.553530517578125,-0.00047650031046941876,0.00019592302851378918,-0.0009554675780236721
1772535211528546600,10.563546630859374,-0.00037609919672831893,0.001302732853218913,0.0008730590343475342
1772535211538562800,10.573562744140625,0.0013628173619508743,0.00028287433087825775,-0.0009020240977406502
1772535211548578800,10.583578857421875,-0.0005993997910991311,0.0005060473922640085,0.00017762137576937675
1772535211558594800,10.5935947265625,-0.0006534422864206135,0.0008393917232751846,0.00010633515194058418
1772535211568610600,10.603610595703126,0.001118092448450625,-0.0004828677047044039,-0.000662253238260746
1772535211578626600,10.61362646484375,-0.0003117518499493599,-0.0006097306031733751,-0.0007459181360900402
1772535211588642600,10.623642578125,-0.0010752801317721605,-0.00039987359195947647,-0.0023179822601377964
1772535211598658800,10.633658935546874,0.0007686393219046295,-0.0003351855557411909,0.0003616074100136757
1772535211608674800,10.6436748046875,-0.00035574729554355145,0.0009231581352651119,0.0010662798304110765
1772535211618690800,10.65369091796875,0.0002909446193370968,0.0005854519549757242,0.0002359333448112011
1772535211628706800,10.663706787109374,-0.0001274379901587963,-0.0009197667241096497,0.0013720376882702112
1772535211638722600,10.67372265625,-0.0005586909828707576,0.00018118973821401596,0.0001402166672050953
1772535211648738600,10.683738525390625,0.0007039136835373938,-0.000060891732573509216,-0.0014630062505602837
1772535211658754600,10.693754638671875,-0.000018075865227729082,0.0008088555186986923,0.0015213540755212307
1772535211668770800,10.703770751953124,-0.0012921320740133524,0.0010794326663017273,-0.00018839538097381592
1772535211678786800,10.713786865234376,-0.0011295033618807793,0.0010697797406464815,0.0013718574773520231
1772535211688802800,10.723802734375,-0.0005441405810415745,0.000833557453006506,0.0016847788356244564
1772535211698818600,10.733818603515624,-0.0005457478109747171,0.00027068378403782845,0.000690309563651681
1772535211708834600,10.74383447265625,0.00008302449714392424,0.00008080038242042065,-0.0007461993955075741
1772535211718850600,10.7538505859375,-0.0012342303525656462,0.0011057732626795769,-0.00039081787690520287
1772535211728866600,10.763866455078125,0.0001623312709853053,-0.0004452515859156847,-0.0010291775688529015
1772535211738882800,10.7738828125,-0.001244350103661418,-0.0019590973388403654,-0.00042275944724678993
1772535211748898800,10.78389892578125,0.00005154404789209366,-0.0015955758281052113,-0.0010102526284754276
1772535211758914800,10.793914794921875,-0.0006196869071573019,-0.0013887035893276334,0.00006666779518127441
1772535211768930600,10.8039306640625,0.00010096450569108129,0.00007630116306245327,-0.00043001165613532066
1772535211778946600,10.813946533203126,-0.0008813212625682354,-0.0009001832222566009,-0.0007294332608580589
