time,seconds_elapsed,z,y,x
1772535201016108000,0.05110791015625,-0.0015539544401690364,0.0025457157753407955,-0.0057345847599208355
1772535201026124000,0.0611240234375,0.0004498079069890082,0.003085005795583129,-0.004520982038229704
1772535201036140000,0.07114013671875,-0.0011526161106303334,0.002025866648182273,-0.005160140804946423
1772535201046156000,0.081156005859375,0.00010945591930067167,0.0029582392890006304,-0.0051878378726542
1772535201056171800,0.091171875,-0.0004945489927195013,0.0028357338160276413,-0.003147856332361698
1772535201066188000,0.10118798828125,-0.0016799219883978367,0.001924666459672153,-0.0032661007717251778
1772535201076204000,0.1112041015625,-0.0014940333785489202,0.0023529028985649347,-0.0028309402987360954
1772535201086220000,0.121219970703125,-0.000294545607175678,0.0027257453184574842,-0.0046637277118861675
1772535201096236000,0.131236083984375,-0.0009539442835375667,0.002314020646736026,-0.004551874939352274
1772535201106252000,0.141251953125,-0.0001424791116733104,0.0017164073651656508,-0.0038107172586023808
1772535201116268000,0.15126806640625,-0.0006332996999844909,0.002445580903440714,-0.003668504301458597
1772535201126283800,0.16128369140625,-0.00006524744821945205,0.0025209481827914715,-0.0032107068691402674
1772535201136300000,0.171300048828125,-0.0007720504072494805,0.0029979203827679157,-0.005616073962301016
1772535201146316000,0.18131591796875,-0.0002612560929264873,0.00321896281093359,-0.005608084611594677
1772535201156332000,0.19133203125,-0.0004777711001224816,0.001797101111151278,-0.004555070772767067
1772535201166348000,0.20134814453125,-0.00043649208964779973,0.002835201332345605,-0.004569185432046652
1772535201176364000,0.211364013671875,-0.001662877737544477,0.0014572817599400878,-0.002514823107048869
1772535201186380000,0.221380126953125,0.00031611722079105675,0.0018072210950776935,-0.004347876645624638
1772535201196395800,0.231395751953125,-0.0016365124611184,0.0024517059791833162,-0.005674929823726416
1772535201206412000,0.241412109375,0.00017017599020618945,0.002213353058323264,-0.00469621829688549
1772535201216428000,0.251427978515625,-0.0009361011325381696,0.003760383464396,-0.004972920753061771
1772535201226444000,0.261444091796875,-0.0005121259018778801,0.0023425165563821793,-0.004622182343155146
1772535201236460000,0.2714599609375,0.0005171858938410878,0.0027355989441275597,-0.004171042703092098
1772535201246476500,0.2814765625,0.0005547364708036184,0.0025747441686689854,-0.004650411661714315
1772535201256492500,0.291492431640625,-0.000586161739192903,0.003795803524553776,-0.0038392129354178905
1772535201266508500,0.301508544921875,-0.00011904330312972888,0.00401471508666873,-0.004612594842910767
1772535201276524500,0.311524658203125,-0.0012093414552509785,0.002868224401026964,-0.004478371702134609
1772535201286540500,0.32154052734375,-0.00034221619716845453,0.00245117349550128,-0.004933239426463842
1772535201296556500,0.331556640625,-0.0021065603941679,0.001639441936276853,-0.005659749731421471
1772535201306572800,0.34157275390625,-0.0012383698485791683,0.0022303974255919456,-0.005633118096739054
1772535201316588500,0.351588623046875,-0.001585646066814661,0.002942260354757309,-0.0039023298304528
1772535201326604500,0.3616044921875,-0.0006841660942882299,0.001627457677386701,-0.003346794517710805
1772535201336620500,0.37162060546875,-0.0016200009267777205,0.0022418489679694176,-0.0055817193351686
1772535201346636500,0.381636474609375,0.0007773766992613673,0.0015014902455732226,-0.0023547669406980276
1772535201356652500,0.391652587890625,0.0005408879951573908,0.0024732777383178473,-0.005709018558263779
1772535201366668500,0.40166845703125,-0.0015355786308646202,0.002808569697663188,-0.003775563556700945
1772535201376684500,0.4116845703125,0.0005438174703158438,0.0035308189690113068,-0.003127083647996187
1772535201386700500,0.421700439453125,-0.0020301276817917824,0.0026881948579102755,-0.004385693464428186
1772535201396716500,0.431716552734375,-0.00042317630141042173,0.003867176128551364,-0.005253085400909185
1772535201406732500,0.441732666015625,-0.0020562265999615192,0.002636795863509178,-0.00495188171043992
1772535201416748500,0.45174853515625,-0.000018109494703821838,0.002419215627014637,-0.004157194402068853
1772535201426764500,0.4617646484375,-0.001930791768245399,0.002907106652855873,-0.004826713353395462
1772535201436780500,0.471780517578125,-0.00021358551748562604,0.002017610939219594,-0.006050435826182365
1772535201446796500,0.481796630859375,-0.00010918960470007733,0.0033278861083090305,-0.004485828336328268
1772535201456812500,0.4918125,-0.00007616640505148098,0.002609365154057741,-0.003649862250313163
1772535201466828500,0.50182861328125,-0.0007936219917610288,0.002675145398825407,-0.005715143866837025
1772535201476844500,0.511844482421875,-0.00047857005847617984,0.002739860210567713,-0.004683168604969978
1772535201486860500,0.521860595703125,0.00020373181905597448,0.0017891116440296173,-0.005405950825661421
1772535201496876500,0.53187646484375,-0.00040506679215468466,0.002956641372293234,-0.0035297537688165903
1772535201506892800,0.541892822265625,-0.0007161240209825337,0.0030099046416580677,-0.0037593182642012835
1772535201516908500,0.551908447265625,-0.000003462109361862531,0.0034732946660369635,-0.0038360171020030975
1772535201526924500,0.561924560546875,-0.0009089368977583945,0.0023342606145888567,-0.002922020386904478
1772535201536940500,0.5719404296875,0.0008410262526012957,0.003943342715501785,-0.004508465528488159
1772535201546956500,0.58195654296875,-0.0007784419576637447,0.003707386553287506,-0.0037803570739924908
1772535201556972500,0.59197265625,-0.00020932445477228612,0.0032655680552124977,-0.003469566348940134
1772535201566988500,0.601988525390625,-0.0003211772127542645,0.003516171593219042,-0.004976116586476564
1772535201577004500,0.612004638671875,0.0006266417913138866,0.0028421254828572273,-0.003114833263680339
1772535201587020500,0.6220205078125,0.0005286374944262207,0.003055444685742259,-0.003887682454660535
1772535201597036500,0.63203662109375,-0.0016881778137758374,0.003288205014541745,-0.0048855687491595745
1772535201607053600,0.642053466796875,-0.0014948323369026184,0.0024136228021234274,-0.005307147279381752
1772535201617069600,0.652069580078125,-0.000630636524874717,0.002672215923666954,-0.002996056107804179
1772535201627085600,0.66208544921875,0.000004793690095539205,0.0024471788201481104,-0.004730040207505226
1772535201637101600,0.6721015625,0.00012010856153210625,0.0014362427173182368,-0.004034156445413828
1772535201647117600,0.68211767578125,-0.0008649947121739388,0.002270611235871911,-0.00418302696198225
1772535201657133600,0.692133544921875,-0.0026075011119246483,0.002713228575885296,-0.004101534374058247
1772535201667149600,0.702149658203125,-0.0011526161106303334,0.003310841741040349,-0.005802495405077934
1772535201677165600,0.71216552734375,-0.0003312972257845104,0.0018333201296627522,-0.0060384515672922134
1772535201687181600,0.722181640625,-0.0007368966471403837,0.0013571468880400062,-0.0051990230567753315
1772535201697197600,0.732197509765625,-0.0021371867042034864,0.0021848573815077543,-0.004418716765940189
1772535201707213600,0.742213623046875,-0.00039654469583183527,0.0014972290955483913,-0.003980893176048994
1772535201717229600,0.7522294921875,-0.00009480853623244911,0.0020929782185703516,-0.00498011102899909
1772535201727245600,0.76224560546875,-0.0006905576447024941,0.002101234160363674,-0.005244829226285219
1772535201737261600,0.772261474609375,-0.0008724515791982412,0.002773149637505412,-0.004337490536272526
1772535201747277600,0.782277587890625,0.00016351809608750045,0.002159823663532734,-0.0032325449865311384
1772535201757293600,0.79229345703125,-0.0023334617726504803,0.001686579897068441,-0.0034533210564404726
1772535201767309600,0.8023095703125,-0.0007198524544946849,0.0022029669489711523,-0.0035332157276570797
1772535201777325600,0.81232568359375,-0.00009214537567459047,0.002435460686683655,-0.004418450407683849
1772535201787341600,0.822341552734375,-0.0005382248782552779,0.003067961661145091,-0.0035665053874254227
1772535201797357600,0.832357666015625,-0.0009827064350247383,0.0022005699574947357,-0.0035388083197176456
1772535201807373600,0.84237353515625,-0.0012231898726895452,0.0034788872580975294,-0.004126834217458963
1772535201817389600,0.8523896484375,0.00009161273919744417,0.0015345134306699038,-0.0046610645949840546
1772535201827405600,0.862405517578125,0.00042530681821517646,0.0035507925786077976,-0.004336425103247166
1772535201837421600,0.872421630859375,-0.0004090615548193455,0.0019499665359035134,-0.00509862182661891
1772535201847437600,0.8824375,-0.0015875103417783976,0.004328968469053507,-0.004521781112998724
1772535201857453600,0.89245361328125,-0.0012178635224699974,0.0022628880105912685,-0.0033273533917963505
1772535201867469600,0.902469482421875,0.0005885586142539978,0.0024293356109410524,-0.005078381858766079
1772535201877485600,0.912485595703125,-0.0003502056933939457,0.0025742114521563053,-0.003721234854310751
1772535201887501600,0.92250146484375,-0.0006079996819607913,0.0036464000586420298,-0.004600610584020615
1772535201897517600,0.932517578125,-0.0009760485263541341,0.0026112294290214777,-0.004094077739864588
1772535201907533600,0.942533447265625,-0.00040506679215468466,0.001490304945036769,-0.005388640332967043
1772535201917549600,0.952549560546875,-0.002150768879801035,0.0020804614759981632,-0.005447762086987495
1772535201927565600,0.962565673828125,-0.0011805793037638068,0.002966495230793953,-0.00520727876573801
1772535201937581600,0.97258154296875,-0.0011081412667408586,0.0033076461404561996,-0.004433896858245134
1772535201947597600,0.98259765625,0.0008194546680897474,0.0022562299855053425,-0.003775297198444605
1772535201957613600,0.992613525390625,-0.0018359832465648651,0.0007760451408103108,-0.004720719531178474
1772535201967629600,1.002629638671875,-0.0005544701125472784,0.0014745922526344657,-0.005247758701443672
1772535201977645600,1.0126455078125,-0.0013480921043083072,0.002226136391982436,-0.0035958001390099525
1772535201987662600,1.02266259765625,-0.0010791128734126687,0.003743072971701622,-0.004507400095462799
1772535201997678600,1.0326787109375,-0.0008908273885026574,0.003525492735207081,-0.0032623722217977047
1772535202007694600,1.042694580078125,-0.0013496900210157037,0.002175003755837679,-0.0037713022902607918
1772535202017710300,1.05271044921875,-0.00036964676110073924,0.001812014845199883,-0.0054490938782691956
1772535202027726600,1.0627265625,-0.0017379788914695382,0.0027739484794437885,-0.005240834783762693
1772535202037742600,1.07274267578125,-0.0007595335482619703,0.002141980454325676,-0.004581702407449484
1772535202047758600,1.082758544921875,-0.0018660769565030932,0.002373675350099802,-0.0037209687288850546
1772535202057774600,1.092774658203125,-0.0019022959750145674,0.001421861699782312,-0.003296194365248084
1772535202067790600,1.10279052734375,-0.0011552792275324464,0.00119602563790977,-0.0032378712203353643
1772535202077806600,1.112806640625,-0.001050350721925497,0.0025952504947781563,-0.00490234699100256
1772535202087822600,1.122822509765625,-0.0008623315370641649,0.0029822078067809343,-0.004494616761803627
1772535202097838600,1.132838623046875,-0.0005819007055833936,0.0023491743486374617,-0.004337490536272526
1772535202107854600,1.1428544921875,-0.0001661812566453591,0.0026575683150440454,-0.00529489666223526
1772535202117870600,1.15287060546875,-0.001300155185163021,0.002122006844729185,-0.003736947663128376
1772535202127886600,1.162886474609375,-0.002641589380800724,0.0021310613956302404,-0.0040826257318258286
1772535202137902600,1.172902587890625,-0.0031374699901789427,0.002704440150409937,-0.004057592246681452
1772535202147918300,1.18291845703125,-0.0004985437262803316,0.0020184097811579704,-0.0031561122741550207
1772535202157934600,1.1929345703125,-0.00008229167724493891,0.003858387703076005,-0.005215268116444349
1772535202167950600,1.20295068359375,-0.00021065604232717305,0.004012584686279297,-0.005131112411618233
1772535202177966600,1.212966552734375,-0.00039228363311849535,0.0020759340841323137,-0.004589159041643143
1772535202187982600,1.222982666015625,-0.0016327840276062489,0.001413073274306953,-0.004800880327820778
1772535202197998600,1.23299853515625,-0.002609098795801401,0.0013113404856994748,-0.005016063805669546
1772535202208014600,1.2430146484375,-0.0002897519152611494,0.0024567660875618458,-0.004832305945456028
1772535202218030300,1.2530302734375,-0.00018269284919369966,0.0030024477746337652,-0.0034996599424630404
1772535202228046600,1.263046630859375,-0.0005965480813756585,0.0023936491925269365,-0.0054672034457325935
1772535202238062600,1.2730625,0.00011904330312972888,0.0020591560751199722,-0.00430260319262743
1772535202248079400,1.283079345703125,0.00009933590627042577,0.0037619813811033964,-0.004322843160480261
1772535202258095400,1.293095458984375,-0.0007448861724697053,0.002418416552245617,-0.005212871357798576
1772535202268111000,1.303111083984375,-0.00043755737715400755,0.003072488820180297,-0.002898318227380514
1772535202278127000,1.313127197265625,-0.0011193265672773123,0.0032352081034332514,-0.005312207154929638
1772535202288143000,1.32314306640625,-0.0005773733137175441,0.0025899240281432867,-0.0027105652261525393
1772535202298159000,1.3331591796875,-0.00009640643111197278,0.0030088394414633512,-0.006200638134032488
1772535202308175000,1.343175048828125,0.0002961435238830745,0.003635747591033578,-0.0015387744642794132
1772535202318191400,1.35319140625,-0.000618918624240905,0.0026849990244954824,-0.003468767274171114
1772535202328207400,1.363207275390625,-0.0008466189028695226,0.0021960425656288862,-0.005345230456441641
1772535202338223000,1.37322314453125,-0.00041492050513625145,0.003608050523325801,-0.005001682788133621
1772535202348239000,1.383239013671875,0.0005725796218030155,0.0018165421206504107,-0.005133242812007666
1772535202358255000,1.393255126953125,-0.0007661914569325745,0.0015662050573155284,-0.0036133769899606705
1772535202368271000,1.40327099609375,-0.00009667274571256712,0.0019331886433064938,-0.003727892879396677
1772535202378288400,1.413288330078125,0.0009270463488064706,0.0037436054553836584,-0.005415804218500853
1772535202388304100,1.42330419921875,-0.0009078715811483562,0.002719087526202202,-0.0044293696992099285
1772535202398320000,1.433320068359375,-0.0016447682864964008,0.0034855452831834555,-0.004332962911576033
1772535202408336100,1.443336181640625,-0.00023409185814671218,0.0030067088082432747,-0.005311941262334585
1772535202418352000,1.45335205078125,-0.0007206514128483832,0.00261841993778944,-0.004200071096420288
1772535202428368100,1.4633681640625,0.00035260253935121,0.002935868687927723,-0.003629622282460332
1772535202438384400,1.47338427734375,-0.001116130850277841,0.003163302782922983,-0.0049436260014772415
1772535202448400400,1.483400390625,0.00021598236344289035,0.003612311789765954,-0.004790760576725006
1772535202458416000,1.493416015625,-0.0020719394087791443,0.0015590144321322441,-0.0037832865491509438
1772535202468432100,1.50343212890625,-0.0005017395596951246,0.0017670074012130499,-0.004621915984898806
1772535202478448000,1.5134482421875,-0.0005584649043157697,0.0019225359428673983,-0.004546815063804388
1772535202488464100,1.523464111328125,-0.0006346312584355474,0.0021499700378626585,-0.005254683084785938
1772535202498480000,1.533480224609375,-0.000060453756304923445,0.0022897860035300255,-0.004990231245756149
1772535202508496400,1.543496337890625,0.0004854942671954632,0.0025063008069992065,-0.004885036498308182
1772535202518512000,1.55351220703125,0.00008681904728291556,0.0025302693247795105,-0.004887699615210295
1772535202528528100,1.563528076171875,0.0014658038271591067,0.0023310647811740637,-0.004577441141009331
1772535202538544000,1.573544189453125,-0.0005603290628641844,0.0031198931392282248,-0.00546240946277976
1772535202548560100,1.58356005859375,-0.0016373114194720984,0.003391801845282316,-0.004286624025553465
1772535202558576000,1.593576171875,0.00021784658019896597,0.0016048208344727755,-0.004456533584743738
1772535202568592100,1.603592041015625,-0.0013707289472222328,0.003145193215459585,-0.0033153691329061985
1772535202578608400,1.6136083984375,0.000012783173588104546,0.0028663603588938713,-0.004290885291993618
1772535202588624100,1.6236240234375,-0.003023220458999276,0.002531334524974227,-0.004761998075991869
1772535202598640000,1.63364013671875,-0.00033955302205868065,0.002438922878354788,-0.005709550809115171
1772535202608656100,1.64365625,-0.001071123406291008,0.0016373114194720984,-0.0046299053356051445
1772535202618672000,1.653672119140625,-0.0011467571603134274,0.0022623552940785885,-0.0046482812613248825
1772535202628688100,1.663688232421875,-0.001743571599945426,0.0017872473690658808,-0.00392709719017148
1772535202638704400,1.673704345703125,-0.0010604707058519125,0.0019116170005872846,-0.004319647327065468
1772535202648720400,1.683720458984375,-0.0016961672808974981,0.002829076023772359,-0.004773183725774288
1772535202658736000,1.693736083984375,-0.0012591425329446793,0.002621083054691553,-0.005090898834168911
1772535202668752100,1.703752197265625,0.00032623723382130265,0.0022114890161901712,-0.004574511665850878
1772535202678768000,1.71376806640625,-0.0014452975010499358,0.003485811408609152,-0.004832838196307421
1772535202688784100,1.7237841796875,0.00036618465674109757,0.0024767396971583366,-0.003976366017013788
1772535202698800000,1.733800048828125,-0.0011251855175942183,0.0023875238839536905,-0.003447994589805603
1772535202708816400,1.74381640625,-0.0002311623829882592,0.003050118451938033,-0.004142280668020248
1772535202718832000,1.75383203125,-0.0009305084822699428,0.003043460426852107,-0.003931358456611633
1772535202728848100,1.76384814453125,-0.00025273399660363793,0.0024343954864889383,-0.005318332463502884
1772535202738864000,1.773864013671875,-0.00035260253935121,0.0021979068405926228,-0.0038722362369298935
1772535202748880100,1.783880126953125,-0.0015654060989618301,0.0032527849543839693,-0.0041153826750814915
1772535202758896000,1.793896240234375,-0.000669252360239625,0.002597380895167589,-0.003537210635840893
1772535202768912100,1.803912109375,-0.0011595403775572777,0.003329750383272767,-0.00512738386169076
1772535202778928400,1.813928466796875,0.00007243797881528735,0.0010966897243633866,-0.00418435875326395
1772535202788945200,1.823945068359375,-0.00010705907334340736,0.002645051572471857,-0.004093278665095568
1772535202798961200,1.833961181640625,-0.0011140003334730864,0.00236222380772233,-0.003868241561576724
1772535202808977200,1.84397705078125,-0.0017893778858706355,0.0029736857395619154,-0.0041129859164357185
1772535202818993200,1.8539931640625,-0.0005834985640831292,0.0028415927663445473,-0.005366802215576172
1772535202829009400,1.864009521484375,-0.00016192019393201917,0.00310497940517962,-0.005004079546779394
1772535202839025200,1.874025146484375,-0.00021012341312598437,0.0017528926255181432,-0.004087952431291342
1772535202849041200,1.884041259765625,-0.0010221211705356836,0.0025270734913647175,-0.0049404301680624485
1772535202859057200,1.89405712890625,-0.0007254450465552509,0.00376011710613966,-0.005126585252583027
1772535202869073200,1.9040732421875,-0.001178182428702712,0.0006607302348129451,-0.005890912376344204
1772535202879089200,1.914089111328125,-0.0007560714147984982,0.003355316584929824,-0.005441637244075537
1772535202889105200,1.924105224609375,-0.00038748994120396674,0.0022836606949567795,-0.004838697146624327
1772535202899121400,1.934121337890625,-0.0008026767172850668,0.004080228973180056,-0.004577973857522011
1772535202909137200,1.94413720703125,-0.0013310478534549475,0.002094842493534088,-0.004366518929600716
1772535202919153200,1.954153076171875,-0.001722798915579915,0.0037441381718963385,-0.005423261318355799
1772535202929169200,1.964169189453125,-0.0014034858904778957,0.0022442457266151905,-0.004276770167052746
1772535202939185200,1.97418505859375,-0.0003736414946615696,0.0031856733839958906,-0.0033992587123066187
1772535202949201200,1.984201171875,-0.0013401026371866465,0.002426938619464636,-0.003911118488758802
1772535202959217200,1.994217041015625,-0.00019494339358061552,0.0021374530624598265,-0.004702343605458736
1772535202969233200,2.004233154296875,-0.0011528824688866735,0.0020367854740470648,-0.004953745752573013
1772535202979249200,2.014249267578125,-0.0002103897277265787,0.00293293921276927,-0.0039036613889038563
1772535202989265200,2.02426513671875,0.00021278657368384302,0.0015140071045607328,-0.004333761986345053
1772535202999281200,2.03428125,-0.0010522148804739118,0.002614957746118307,-0.0046908920630812645
1772535203009297200,2.044297119140625,-0.0003355582884978503,0.002163019496947527,-0.005477056838572025
1772535203019313200,2.054313232421875,-0.00022024342615623027,0.003328684950247407,-0.005988916382193565
1772535203029329400,2.064329345703125,-0.0010178601369261742,0.003281546989455819,-0.0033598439767956734
1772535203039345200,2.07434521484375,-0.00039654469583183527,0.002793123247101903,-0.003724164329469204
1772535203049361200,2.084361083984375,0.00007829693640815094,0.0025515747256577015,-0.005225388333201408
1772535203059377200,2.094377197265625,-0.00035499935620464385,0.002332130214199424,-0.0036842171102762222
1772535203069393200,2.10439306640625,-0.0006492786924354732,0.0020120181143283844,-0.00395719101652503
1772535203079409200,2.1144091796875,-0.0023196132387965918,0.0031007183715701103,-0.0038863508962094784
1772535203089425200,2.124425048828125,-0.0008450209861621261,0.001222657272592187,-0.0046541402116417885
1772535203099441400,2.13444140625,-0.0001917476038215682,0.0026194851379841566,-0.004620584659278393
1772535203109457200,2.14445703125,0.0003281014505773783,0.003044259501621127,-0.004730040207505226
1772535203119473200,2.15447314453125,-0.0017800568602979183,0.001449292292818427,-0.004321245010942221
1772535203129489200,2.1644892578125,-0.0003880225704051554,0.0025161546654999256,-0.003977963700890541
1772535203139505200,2.174505126953125,-0.0013078784104436636,0.0025036376900970936,-0.0049582733772695065
1772535203149521200,2.184521240234375,-0.0004972121678292751,0.0017124125733971596,-0.00398728484287858
1772535203159537200,2.194537109375,-0.0007249124464578927,0.003427221905440092,-0.004836034029722214
1772535203169553200,2.20455322265625,-0.0008175904513336718,0.001773132593370974,-0.0036972665693610907
1772535203179569200,2.214569091796875,-0.0022122878581285477,0.004480502102524042,-0.0049124667420983315
1772535203189585200,2.224585205078125,0.0006266417913138866,0.0027545075863599777,-0.003862116253003478
1772535203199601200,2.23460107421875,-0.0017355820164084435,0.001627191435545683,-0.005311674904078245
1772535203209617200,2.2446171875,-0.0011073424248024821,0.002241050126031041,-0.003450657706707716
1772535203219634200,2.25463427734375,0.00021971078240312636,0.003719104453921318,-0.0041433461010456085
1772535203229650200,2.264650146484375,0.0007174555794335902,0.0029079054947942495,-0.0034855452831834555
1772535203239666200,2.274666259765625,-0.00034354778472334146,0.0032083101104944944,-0.004776379559189081
1772535203249681700,2.284681640625,-0.000770452490542084,0.0033939324785023928,-0.0046818372793495655
1772535203259697700,2.29469775390625,-0.0007571366732008755,0.0032988577149808407,-0.003979561384767294
1772535203269713700,2.304713623046875,-0.0006482133758254349,0.0025595640763640404,-0.005152417812496424
1772535203279729700,2.314729736328125,-0.000021837920940015465,0.002418416552245617,-0.005505020264536142
1772535203289745700,2.32474560546875,-0.0015060176374390721,0.003347327234223485,-0.004199538845568895
1772535203299761700,2.33476171875,0.00034647725988179445,0.003052248852327466,-0.00418355967849493
1772535203309777700,2.344777587890625,-0.0015219965716823936,0.003500725142657757,-0.0036019254475831985
1772535203319793700,2.354793701171875,-0.0006258428329601884,0.00245117349550128,-0.005863215308636427
1772535203329809700,2.3648095703125,-0.0016413062112405896,0.0016266588354483247,-0.003771568648517132
1772535203339825700,2.37482568359375,0.0002146507758880034,0.0027289411518722773,-0.005260275676846504
1772535203349841700,2.384841552734375,-0.000827177835162729,0.0030250847339630127,-0.0031039142049849033
1772535203359858000,2.39485791015625,-0.0004546015989035368,0.003427488263696432,-0.004197940696030855
1772535203369873700,2.404873779296875,0.0007574030314572155,0.0032778186723589897,-0.004890096373856068
1772535203379889700,2.4148896484375,-0.00022317290131468326,0.003257844829931855,-0.003593669505789876
1772535203389905700,2.42490576171875,-0.0010295780375599861,0.00224877311848104,-0.004765726625919342
1772535203399921700,2.434921630859375,-0.0006032059900462627,0.0020471718162298203,-0.003947070799767971
1772535203409937700,2.444937744140625,-0.0008048072922974825,0.0020383833907544613,-0.003442401997745037
1772535203419953700,2.45495361328125,0.00017310546536464244,0.002299639629200101,-0.0054786549881100655
1772535203429969700,2.4649697265625,-0.0018663433147594333,0.0027438548859208822,-0.004219778813421726
1772535203439985700,2.474985595703125,-0.0006258428329601884,0.0028716865926980972,-0.004718588665127754
1772535203450001700,2.485001708984375,0.00030306773260235786,0.002171275205910206,-0.005004345905035734
1772535203460017700,2.495017578125,-0.0014261227333918214,0.0024165522772818804,-0.00318886898458004
1772535203470033700,2.50503369140625,-0.00013848437811248004,0.0033928672783076763,-0.004729507956653833
1772535203480049700,2.515049560546875,-0.0019209380261600018,0.003948136232793331,-0.003912716172635555
1772535203490065700,2.525065673828125,0.0008135957177728415,0.002883138135075569,-0.00487305223941803
1772535203500081700,2.53508154296875,-0.0011299792677164078,0.002784334821626544,-0.003156911116093397
1772535203510097700,2.54509765625,-0.0022301310673356056,0.0022623552940785885,-0.0027414578944444656
1772535203520113700,2.55511376953125,-0.0012716593919321895,0.0024258734192699194,-0.005096491426229477
1772535203530129700,2.565129638671875,-0.0019321233266964555,0.003174487967044115,-0.004102067090570927
1772535203540145700,2.575145751953125,-0.000011984225238848012,0.0031427964568138123,-0.0028634308837354183
1772535203550161700,2.58516162109375,-0.0012279836228117347,0.0016591493040323257,-0.0034466630313545465
1772535203560178000,2.595177978515625,0.0003326288133393973,0.0029667613562196493,-0.005511944647878408
1772535203570193700,2.605193603515625,-0.001113201375119388,0.002570749493315816,-0.0032959282398223877
1772535203580209700,2.615209716796875,0.0006327670416794717,0.002520149340853095,-0.004338023252785206
1772535203590225700,2.6252255859375,-0.0008740494376979768,0.0018937737913802266,-0.005538043566048145
1772535203600241700,2.63524169921875,-0.0012562130577862263,0.002383795566856861,-0.003169428091496229
1772535203610257700,2.645257568359375,-0.0008777778712101281,0.0027020431589335203,-0.004863198380917311
1772535203620273700,2.655273681640625,0.0007414240390062332,0.0028517129831016064,-0.003626160090789199
1772535203630290000,2.6652900390625,-0.0017872473690658808,0.002397377509623766,-0.0038365498185157776
1772535203640305700,2.6753056640625,-0.0003328951424919069,0.002797118155285716,-0.004059989005327225
1772535203650322700,2.68532275390625,-0.0017981663113459945,0.0014330470003187656,-0.004968659486621618
1772535203660338700,2.695338623046875,-0.0007243797881528735,0.0033888723701238632,-0.00436039362102747
1772535203670354700,2.705354736328125,-0.002109223511070013,0.0022453111596405506,-0.004151069093495607
1772535203680370700,2.71537060546875,0.00045140579459257424,0.0033997914288192987,-0.004495415836572647
1772535203690386700,2.72538671875,-0.00002609897819638718,0.002673813607543707,-0.0030711572617292404
1772535203700402700,2.735402587890625,0.0004767058417201042,0.004011519718915224,-0.0035390746779739857
1772535203710418700,2.745418701171875,-0.0013022858183830976,0.0012620720081031322,-0.00461765518411994
1772535203720434700,2.7554345703125,0.00004234426160110161,0.0028818065766245127,-0.004752677399665117
1772535203730450700,2.76545068359375,0.0002681803307496011,0.0021283982787281275,-0.005385976750403643
1772535203740466700,2.775466796875,-0.0013670006301254034,0.0033390712924301624,-0.005268265027552843
1772535203750482700,2.785482666015625,-0.0011909656459465623,0.002145442645996809,-0.00523737259209156
1772535203760498700,2.795498779296875,0.0009776464430615306,0.0020844561513513327,-0.0038045919500291348
1772535203770514700,2.8055146484375,-0.00027084347675554454,0.003403253620490432,-0.0032626385800540447
1772535203780530700,2.81553076171875,-0.0005936186062172055,0.002668487373739481,-0.004197141621261835
1772535203790546700,2.825546630859375,-0.0014895059866830707,0.00401524780318141,-0.004454403184354305
1772535203800562700,2.835562744140625,-0.0007853662245906889,0.002782470779493451,-0.00401578051969409
1772535203810578700,2.84557861328125,-0.0015110776294022799,0.003802461316809058,-0.004294081125408411
1772535203820594700,2.8555947265625,-0.0009462211164645851,0.004029895178973675,-0.003948668949306011
1772535203830610700,2.865610595703125,0.0007305050967261195,0.001898301183246076,-0.005771602503955364
1772535203840626700,2.875626708984375,-0.0002913498319685459,0.0010687265312299132,-0.0041699777357280254
1772535203850642700,2.885642578125,-0.00105328019708395,0.0027446537278592587,-0.004108458757400513
1772535203860658700,2.89565869140625,-0.0005579322460107505,0.003153981640934944,-0.004994758404791355
1772535203870674700,2.9056748046875,-0.001998968655243516,0.003465305082499981,-0.003722566645592451
1772535203880690700,2.915690673828125,-0.0001805623178370297,0.001910019083879888,-0.0046304380521178246
1772535203890706700,2.925706787109375,-0.0012985573848709464,0.003212837502360344,-0.0032983249984681606
1772535203900722700,2.93572265625,0.00027510453946888447,0.003073820611461997,-0.00355878216214478
1772535203910738700,2.94573876953125,-0.0010719223646447062,0.003198722843080759,-0.004804342519491911
1772535203920754700,2.955754638671875,-0.0017707358347252011,0.0028847360517829657,-0.004428037907928228
1772535203930770700,2.965770751953125,-0.0006213154993019998,0.002532399957999587,-0.005155347287654877
1772535203940786700,2.97578662109375,-0.0005134574603289366,0.0031734227668493986,-0.0046424223110079765
1772535203950802700,2.985802734375,-0.0009273127070628107,0.0019955066964030266,-0.004266117699444294
1772535203960818700,2.995818603515625,-0.0005699164466932416,0.0027166905347257853,-0.0038195056840777397
1772535203970834700,3.005834716796875,-0.001103880233131349,0.0031406658235937357,-0.005046956706792116
1772535203980850700,3.0158505859375,-0.0013004215434193611,0.002426672261208296,-0.003629888640716672
1772535203990866700,3.02586669921875,-0.000594950164668262,0.0022280006669461727,-0.005110606085509062
1772535204000882700,3.035882568359375,-0.00038163099088706076,0.0029318740125745535,-0.005505286622792482
1772535204010898700,3.045898681640625,0.0005502090789377689,0.001957956003025174,-0.003091131104156375
1772535204020914700,3.055914794921875,-0.0003784351865760982,0.0016495619202032685,-0.003871171036735177
1772535204030930700,3.0659306640625,-0.0010428938549011946,0.0024445154704153538,-0.00304718897677958
1772535204040946700,3.07594677734375,0.0004370247188489884,0.0018700717482715845,-0.0036330842413008213
1772535204050962700,3.085962646484375,-0.000883636821527034,0.0018631474813446403,-0.0036418726667761803
1772535204060978700,3.095978759765625,-0.0002436792419757694,0.0023339942563325167,-0.005792375188320875
1772535204070994700,3.10599462890625,0.00020160128769930452,0.0024748756550252438,-0.0046818372793495655
1772535204081010700,3.1160107421875,-0.000313986703986302,0.003038134193047881,-0.005234709475189447
1772535204091026700,3.126026611328125,0.00009800432599149644,0.0029907298739999533,-0.004263987299054861
1772535204101042700,3.136042724609375,-0.00030866035376675427,0.003038134193047881,-0.0057228668592870235
1772535204111058700,3.14605859375,-0.0018437063554301858,0.001395230065099895,-0.004346012603491545
1772535204121074700,3.15607470703125,-0.0005270395777188241,0.0019124159589409828,-0.004677043296396732
1772535204131091700,3.166091796875,-0.001401089015416801,0.002980876248329878,-0.0048797097988426685
1772535204141107700,3.176107666015625,-0.00012197277828818187,0.002965429797768593,-0.004397145472466946
1772535204151123700,3.186123779296875,-0.00026604978484101593,0.0019166769925504923,-0.0038163098506629467
1772535204161139700,3.1961396484375,-0.001008805469609797,0.0024578312877565622,-0.005784385837614536
1772535204171155700,3.20615576171875,0.00012436961696948856,0.00316010694950819,-0.0038043255917727947
1772535204181171700,3.216171630859375,-0.0012487561907619238,0.003355582943186164,-0.00526586826890707
1772535204191187700,3.226187744140625,0.0003094593121204525,0.002228799508884549,-0.0032264196779578924
1772535204201203700,3.23620361328125,-0.0009315737406723201,0.0018975022248923779,-0.004596083424985409
1772535204211219700,3.2462197265625,-0.002317216480150819,0.0021819279063493013,-0.0046940878964960575
1772535204221235700,3.256235595703125,-0.0024594292044639587,0.002918025478720665,-0.0036373452749103308
1772535204231251700,3.266251708984375,-0.0004005394293926656,0.0018351842882111669,-0.005539108533412218
1772535204241267500,3.276267333984375,-0.002254632068797946,0.0014088122406974435,-0.004311125259846449
1772535204251283500,3.286283447265625,-0.001654089312069118,0.0024674187880009413,-0.00381471193395555
1772535204261299500,3.296299560546875,0.0002378202771069482,0.002900714986026287,-0.005016596522182226
1772535204271315500,3.3063154296875,-0.0006005428149364889,0.00384453940205276,-0.005845105741173029
1772535204281331500,3.31633154296875,-0.000963797967415303,0.0036820864770561457,-0.00583685003221035
1772535204291347500,3.326347412109375,-0.00009906959166983142,0.0021635519806295633,-0.003725229762494564
1772535204301363500,3.336363525390625,-0.00013502225920092314,0.002430933527648449,-0.004344947170466185
1772535204311379500,3.34637939453125,-0.0011044129496440291,0.0018916432745754719,-0.004459196701645851
1772535204321395500,3.3563955078125,-0.00033902039285749197,0.003459446132183075,-0.004701810888946056
1772535204331411500,3.366411376953125,-0.00020959076937288046,0.0021960425656288862,-0.004863997455686331
1772535204341427200,3.37642724609375,-0.0014271880500018597,0.0031465247739106417,-0.005904494319111109
1772535204351443500,3.386443359375,-0.00002210423735959921,0.003367833560332656,-0.0041185785084962845
1772535204361459500,3.39645947265625,-0.0015246596885845065,0.0024370586033910513,-0.004385161213576794
1772535204371475500,3.406475341796875,-0.0008490157779306173,0.002621615771204233,-0.005047488957643509
1772535204381491500,3.416491455078125,-0.0005464806454256177,0.002674879040569067,-0.004285026341676712
1772535204391507500,3.426507568359375,-0.0018157431622967124,0.0014807175612077117,-0.005697034299373627
1772535204401523500,3.4365234375,-0.0016327840276062489,0.0036272252909839153,-0.003433613572269678
1772535204411539500,3.44653955078125,-0.0009139968897216022,0.004811266902834177,-0.004481301177293062
1772535204421555500,3.456555419921875,-0.00039494677912443876,0.002237055217847228,-0.004517520312219858
1772535204431571500,3.466571533203125,-0.0014194648247212172,0.0035297537688165903,-0.004204598721116781
1772535204441587500,3.47658740234375,-0.00004953479583491571,0.0023129554465413094,-0.0031302794814109802
1772535204451603500,3.486603515625,0.00010066748654935509,0.0032562471460551023,-0.005181446205824614
1772535204461619500,3.496619384765625,-0.0014596786350011826,0.0038956720381975174,-0.0041372207924723625
1772535204471635500,3.506635498046875,-0.002242914168164134,0.002040247665718198,-0.003425091505050659
1772535204481651500,3.5166513671875,-0.0012500877492129803,0.002034388715401292,-0.003775297198444605
1772535204491667500,3.52666748046875,-0.0014895059866830707,0.0016389093361794949,-0.003992078360170126
1772535204501683500,3.536683349609375,-0.000011185276889591478,0.0017142767319455743,-0.00503976596519351
1772535204511699500,3.546699462890625,-0.00034940673504024744,0.002865028567612171,-0.005121258553117514
1772535204521715500,3.556715576171875,0.0001984054979402572,0.0030208237003535032,-0.0035958001390099525
1772535204531731500,3.5667314453125,-0.0013949638232588768,0.00270630419254303,-0.004632302559912205
1772535204541747500,3.57674755859375,-0.0017736653098836541,0.0030003173742443323,-0.0046999468468129635
1772535204551763500,3.586763427734375,-0.0011345066595822573,0.002770486520603299,-0.005221127066761255
1772535204561779500,3.596779541015625,-0.0016207997687160969,0.004248540848493576,-0.00541394017636776
1772535204571795500,3.60679541015625,-0.001264202524907887,0.0024586303625255823,-0.003441869281232357
1772535204581812500,3.6168125,0.00036698358599096537,0.0017771273851394653,-0.004807804711163044
1772535204591828200,3.626828125,0.00017230652156285942,0.0025473134592175484,-0.004326571244746447
1772535204601844500,3.636844482421875,-0.0012538161827251315,0.0021606225054711103,-0.004405667539685965
1772535204611860500,3.646860595703125,-0.0013941648649051785,0.0015707324491813779,-0.003084739437326789
1772535204621876500,3.65687646484375,-0.0012655340833589435,0.0033848776947706938,-0.005399292800575495
1772535204631892500,3.666892578125,-0.00041278995922766626,0.003237072378396988,-0.003547064261510968
1772535204641908500,3.676908447265625,-0.0013603427214547992,0.003368099918588996,-0.00436145905405283
1772535204651924500,3.686924560546875,-0.000028495824153651483,0.0027798074297606945,-0.004283161833882332
1772535204661940200,3.696940185546875,-0.0004266384057700634,0.004008590243756771,-0.004340153653174639
1772535204671956500,3.70695654296875,-0.000791491474956274,0.0026610305067151785,-0.006128732580691576
1772535204681972500,3.716972412109375,-0.00044048685231246054,0.0031646343413740396,-0.0038181741256266832
1772535204691988500,3.726988525390625,0.0002873550693038851,0.002316950121894479,-0.005320463329553604
1772535204702004500,3.73700439453125,-0.0006745787104591727,0.002323608146980405,-0.00654631620272994
1772535204712020500,3.7470205078125,-0.0009741843095980585,0.0027630296535789967,-0.003971838392317295
1772535204722036500,3.757036376953125,0.0003400856803636998,0.003716174978762865,-0.005584648810327053
1772535204732052200,3.76705224609375,0.0007550061563961208,0.0038626487366855145,-0.004215517546981573
1772535204742068500,3.777068359375,-0.0011824434623122215,0.0017840516520664096,-0.004051466938108206
1772535204752084500,3.78708447265625,-0.0022128205746412277,0.0018298579379916191,-0.00370126124471426
1772535204762100500,3.7971005859375,-0.0002436792419757694,0.0031909996178001165,-0.003823500359430909
1772535204772116500,3.807116455078125,-0.0007819040911272168,0.0010732539230957627,-0.0034613104071468115
1772535204782132500,3.817132568359375,-0.00017177389236167073,0.002326803747564554,-0.0033036512322723866
1772535204792148200,3.827148193359375,-0.0007539408979937434,0.003968908917158842,-0.004186222795397043
1772535204802164500,3.83716455078125,-0.0003430151555221528,0.003945739474147558,-0.005366003140807152
1772535204812180500,3.847180419921875,0.00022929816623218358,0.002603772561997175,-0.004569984506815672
1772535204822196500,3.857196533203125,-0.0014729943359270692,0.003724697045981884,-0.004029628820717335
1772535204832212500,3.86721240234375,-0.002341451123356819,0.001776328426785767,-0.004885302856564522
1772535204842228500,3.877228515625,-0.0006647250265814364,0.0032344090286642313,-0.004089017398655415
1772535204852244500,3.887244384765625,-0.0004900216590613127,0.00282082031480968,-0.004738828632980585
1772535204862260200,3.89726025390625,-0.0021078919526189566,0.0022836606949567795,-0.004592621233314276
1772535204872276500,3.9072763671875,-0.001642637769691646,0.0026972496416419744,-0.00321949552744627
1772535204882292500,3.91729248046875,-0.000037017940485384315,0.003239202778786421,-0.003962517250329256
1772535204892308500,3.92730859375,-0.0011587414192035794,0.003912982530891895,-0.003930026665329933
1772535204902324500,3.937324462890625,-0.001389371114782989,0.0015238607302308083,-0.004777710884809494
1772535204912340500,3.947340576171875,-0.0016357135027647018,0.0029617014806717634,-0.005397694651037455
1772535204922356500,3.9573564453125,0.000010652644050423987,0.002466619713231921,-0.004456799943000078
1772535204932372200,3.967372314453125,-0.000040746363083599135,0.002499909373000264,-0.0043808999471366405
1772535204942388500,3.977388427734375,-0.0011819108622148633,0.0020101540721952915,-0.003168629016727209
1772535204952404500,3.987404541015625,0.000544350128620863,0.001710814656689763,-0.003457848448306322
1772535204962420500,3.99742041015625,-0.0003611246356740594,0.0017867147689685225,-0.003698598127812147
1772535204972436500,4.0074365234375,-0.0011976235546171665,0.0034700988326221704,-0.005261074751615524
1772535204982452500,4.017452392578125,0.0006399576086550951,0.002129729837179184,-0.003777960315346718
1772535204992468500,4.027468505859375,-0.0009693906176835299,0.0023241406306624413,-0.0029172266367822886
1772535205002484200,4.037484130859375,-0.0013025520602241158,0.002657035831362009,-0.003114833263680339
1772535205012500500,4.04750048828125,0.0003110571997240186,0.002998985582962632,-0.004449076950550079
1772535205022516500,4.0575166015625,-0.0003038666909560561,0.002855974016711116,-0.004000866785645485
1772535205032532500,4.067532470703125,-0.0007976167253218591,0.001970206620171666,-0.0046160570345819
1772535205042548500,4.077548583984375,-0.0019885823130607605,0.002502039773389697,-0.004462392535060644
1772535205052564500,4.087564453125,-0.0020101540721952915,0.0037444045301526785,-0.0036101811565458775
1772535205062580200,4.097580322265625,-0.00020399813365656883,0.0027686222456395626,-0.003754790872335434
1772535205072597500,4.107597412109375,-0.0013305152533575892,0.002522546099498868,-0.002989398315548897
1772535205082613500,4.117613525390625,-0.001936650718562305,0.0015004249289631844,-0.004599545616656542
1772535205092629500,4.12762939453125,0.0004106594424229115,0.0007036071619950235,-0.003425091505050659
1772535205102645500,4.1376455078125,0.0006492786924354732,0.003599262097850442,-0.004964132327586412
1772535205112661200,4.1476611328125,-0.0017837852938100696,0.0033446638844907284,-0.004261324182152748
1772535205122677200,4.15767724609375,-0.0005371595616452396,0.003695668652653694,-0.004661863669753075
1772535205132693500,4.167693603515625,-0.002030926523730159,0.0007661914569325745,-0.0036551884841173887
1772535205142709500,4.17770947265625,-0.0005344964447431266,0.003276220755651593,-0.0049311090260744095
1772535205152725500,4.1877255859375,-0.001127316034398973,0.004135622642934322,-0.004255198873579502
1772535205162741500,4.197741455078125,0.0002711098059080541,0.0012934972764924169,-0.003153448924422264
1772535205172757500,4.207757568359375,-0.0014777880860492587,0.00424241553992033,-0.005286108236759901
1772535205182773200,4.217773193359375,-0.00024527712957933545,0.002288188086822629,-0.004515123087912798
1772535205192789500,4.22778955078125,-0.0000679106087773107,0.002770220162346959,-0.005434712860733271
1772535205202805500,4.237805419921875,-0.0012897689593955874,0.00227806787006557,-0.005517004523426294
1772535205212821500,4.247821533203125,-0.002180596347898245,0.003424292430281639,-0.00529702752828598
1772535205222837500,4.25783740234375,-0.00041998049709945917,0.0031675638165324926,-0.003891411004588008
1772535205232853500,4.267853515625,-0.0007331682136282325,0.0028160265646874905,-0.004993959795683622
1772535205242869800,4.277869873046875,-0.0017829863354563713,0.0035430695861577988,-0.0034234935883432627
1772535205252885800,4.2878857421875,-0.0019345202017575502,0.0036011263728141785,-0.0039145806804299355
1772535205262901800,4.29790185546875,-0.0009952232940122485,0.0023515713401138783,-0.0043990095146000385
1772535205272917800,4.307917724609375,0.0002609897928778082,0.003584881080314517,-0.003634415799751878
1772535205282933800,4.317933837890625,-0.0009438242996111512,0.002231462625786662,-0.004818190820515156
1772535205292950000,4.327949951171875,-0.0008141283178701997,0.001534779672510922,-0.006117014680057764
1772535205302965800,4.3379658203125,-0.0012117383303120732,0.0031228226143866777,-0.005131911486387253
1772535205312981800,4.347981689453125,-0.0009323726990260184,0.0020999026019126177,-0.0041044638492167
1772535205322997800,4.357997802734375,-0.000022636868379777297,0.0029643645975738764,-0.003156911116093397
1772535205333013800,4.368013671875,-0.0006625944515690207,0.002429868094623089,-0.0026200178544968367
1772535205343029800,4.37802978515625,-0.0013145363191142678,0.0018455706303939223,-0.0049428269267082214
1772535205353045800,4.388045654296875,0.0001637844106880948,0.0026818031910806894,-0.0059966398403048515
1772535205363062000,4.39806201171875,-0.0007925567333586514,0.0028122980147600174,-0.00364719913341105
1772535205373077800,4.408077880859375,-0.0008860336965881288,0.002910036128014326,-0.003955593332648277
1772535205383093800,4.41809375,-0.001639441936276853,0.0013374395202845335,-0.005073321983218193
1772535205393109800,4.42810986328125,-0.0007038734620437026,0.00242161238566041,-0.005319397896528244
1772535205403125800,4.438125732421875,-0.00026738137239590287,0.0018756643403321505,-0.004058657679706812
1772535205413141800,4.448141845703125,-0.0002335592289455235,0.0027774106711149216,-0.004294879734516144
1772535205423158000,4.458157958984375,-0.0008908273885026574,0.0026413232553750277,-0.004277569241821766
1772535205433174000,4.468174072265625,-0.0016623451374471188,0.0023494407068938017,-0.002840793924406171
1772535205443189800,4.478189697265625,-0.00022530343267135322,0.0019710054621100426,-0.0031169636640697718
1772535205453205800,4.488205810546875,-0.000147272803587839,0.0032748891972005367,-0.004336957819759846
1772535205463221800,4.4982216796875,-0.00023222764139063656,0.002778742229565978,-0.004785700235515833
1772535205473237800,4.50823779296875,-0.00046392265358008444,0.00213532242923975,-0.003907656297087669
1772535205483253800,4.518253662109375,-0.0004511394945438951,0.0025885924696922302,-0.004039216320961714
1772535205493270000,4.52827001953125,-0.0017158746486529708,0.0033164345659315586,-0.005028580781072378
1772535205503285800,4.53828564453125,-0.001133441342972219,0.003394198836758733,-0.0036213663406670094
1772535205513301800,4.5483017578125,0.0011257182341068983,0.002748914761468768,-0.005076784174889326
1772535205523317800,4.55831787109375,-0.0012578109744936228,0.002945189829915762,-0.00506906071677804
1772535205533333800,4.568333740234375,0.00008655273268232122,0.002998985582962632,-0.005173723213374615
1772535205543350800,4.578350830078125,-0.0015720640076324344,0.0025531724095344543,-0.004457865376025438
1772535205553366800,4.58836669921875,-0.00034674355993047357,0.0010663296561688185,-0.0039009982720017433
1772535205563382800,4.5983828125,-0.0005664543714374304,0.0020040287636220455,-0.0036706349346786737
1772535205573398800,4.608398681640625,-0.0024546354543417692,0.0024258734192699194,-0.0035896748304367065
1772535205583414800,4.618414794921875,-0.0015270565636456013,0.0024466461036354303,-0.0036511938087642193
1772535205593430800,4.6284306640625,-0.0013145363191142678,0.002180596347898245,-0.004424309358000755
1772535205603446800,4.63844677734375,-0.000248472933890298,0.0037318875547498465,-0.005042429082095623
1772535205613463000,4.648463134765625,-0.0020354539155960083,0.002275404753163457,-0.0038810246624052525
1772535205623478800,4.658478759765625,-0.0007853662245906889,0.0015110776294022799,-0.004495415836572647
1772535205633494800,4.668494873046875,-0.0007821703911758959,0.0031465247739106417,-0.005254949443042278
1772535205643510800,4.6785107421875,-0.0011233213590458035,0.0022146848496049643,-0.003920705523341894
1772535205653526800,4.68852685546875,-0.0010847054654732347,0.002829608740285039,-0.005539641249924898
1772535205663542800,4.698542724609375,-0.0014362427173182368,0.0019859191961586475,-0.003195793367922306
1772535205673558800,4.708558837890625,0.0005025385180488229,0.00358754419721663,-0.004443484358489513
1772535205683575000,4.718574951171875,-0.0003430151555221528,0.0022506373934447765,-0.0036272252909839153
1772535205693590800,4.7285908203125,0.0000327568814100232,0.0024144218768924475,-0.005857090000063181
1772535205703606800,4.738606689453125,0.00012144014181103557,0.0034027209039777517,-0.005115133244544268
1772535205713622800,4.748622802734375,-0.000150202278746292,0.0020852552261203527,-0.004542287439107895
1772535205723638800,4.758638671875,-0.00018801917030941695,0.002811232814565301,-0.003867975203320384
1772535205733654800,4.76865478515625,-0.0020775320008397102,0.0024317323695868254,-0.004250937607139349
1772535205743670800,4.7786708984375,-0.0010016148444265127,0.0026354643050581217,-0.004263454582542181
1772535205753686800,4.788686767578125,-0.00040000680019147694,0.0031095067970454693,-0.004722583573311567
1772535205763702800,4.798702880859375,-0.0013675332302227616,0.002466353354975581,-0.005291700828820467
1772535205773718800,4.80871875,0.00031904669594950974,0.0017052220646291971,-0.006090116687119007
1772535205783734800,4.81873486328125,0.000431432097684592,0.00236195744946599,-0.004620051942765713
1772535205793750800,4.828750732421875,-0.00016937704640440643,0.0020985708106309175,-0.0043681166134774685
1772535205803766800,4.838766845703125,-0.00006418218254111707,0.0013140037190169096,-0.0038573225028812885
1772535205813783000,4.848782958984375,0.000395745737478137,0.0018873822409659624,-0.0029862024821341038
1772535205823798800,4.858798828125,-0.0003486077766865492,0.002088983543217182,-0.004878911189734936
1772535205833814800,4.868814697265625,-0.0017417073249816895,0.0037835529074072838,-0.0032858080230653286
1772535205843830800,4.878830810546875,0.00047590688336640596,0.003635747591033578,-0.004304999951273203
1772535205853846800,4.8888466796875,-0.0012871057260781527,0.0028969866689294577,-0.004249073565006256
1772535205863862800,4.89886279296875,-0.0013084110105410218,0.0027800737880170345,-0.004714594222605228
1772535205873878800,4.908878662109375,-0.00006817692337790504,0.002840527566149831,-0.0036370791494846344
1772535205883895000,4.91889501953125,-0.001213602488860488,0.002588326344266534,-0.004789695143699646
1772535205893910800,4.928910888671875,-0.0005637911963276565,0.0008961536805145442,-0.003944141324609518
1772535205903926800,4.9389267578125,-0.0011414308100938797,0.0036093820817768574,-0.0032509206794202328
1772535205913942800,4.94894287109375,-0.0002868224401026964,0.0010221211705356836,-0.003611779073253274
1772535205923958800,4.958958740234375,-0.0001478054327890277,0.002484196564182639,-0.0036764938849955797
1772535205933974800,4.968974853515625,-0.000024234765078290366,0.002397377509623766,-0.0036037894897162914
1772535205943990800,4.97899072265625,-0.0009542105835862458,0.0028248149901628494,-0.005115932319313288
1772535205954006800,4.9890068359375,-0.0007992146420292556,0.002716158051043749,-0.0028421254828572273
1772535205964022800,4.999022705078125,-0.00002103897168126423,0.003007774008437991,-0.00498064374551177
1772535205974038800,5.009038818359375,0.0007068029372021556,0.0027569043450057507,-0.004964132327586412
1772535205984054800,5.0190546875,-0.0006689860601909459,0.002520415699109435,-0.005139368120580912
1772535205994070800,5.02907080078125,-0.0009643306257203221,0.003896470880135894,-0.001835716888308525
1772535206004086800,5.039086669921875,-0.0007550061563961208,0.0025385250337421894,-0.0044011399149894714
1772535206014102800,5.049102783203125,-0.0009917612187564373,0.0016413062112405896,-0.0041547976434230804
1772535206024118800,5.059118896484375,-0.00039015308720991015,0.003055178327485919,-0.0037031255196779966
1772535206034134800,5.069134765625,-0.0007811051327735186,0.002415753435343504,-0.004020041786134243
1772535206044151800,5.07915185546875,-0.0013289173366501927,0.0029830066487193108,-0.004457865376025438
1772535206054167800,5.089167724609375,-0.0008319715270772576,0.001538241864182055,-0.0035683694295585155
1772535206064183800,5.099183837890625,-0.0013696637470275164,0.0015632755821570754,-0.0057281930930912495
1772535206074199800,5.10919970703125,-0.001216531964018941,0.002270078519359231,-0.004913798533380032
1772535206084215800,5.1192158203125,-0.0011656655697152019,0.0026671558152884245,-0.003976898267865181
1772535206094231800,5.129231689453125,-0.0008000136003829539,0.0036549223586916924,-0.004063983913511038
1772535206104247800,5.139247802734375,-0.0004894890007562935,0.0008833705214783549,-0.003885019337758422
1772535206114263800,5.149263916015625,-0.001449025934562087,0.0033073797821998596,-0.004448810592293739
1772535206124279800,5.15927978515625,-0.000955009541939944,0.003787281457334757,-0.004492220003157854
1772535206134295800,5.1692958984375,0.0001150485550169833,0.0027949875220656395,-0.004768123384565115
1772535206144311800,5.179311767578125,-0.0008346347021870315,0.00038775624125264585,-0.0041033984161913395
1772535206154327800,5.189327880859375,-0.0011853729374706745,0.004205930046737194,-0.004519384354352951
1772535206164343800,5.19934375,-0.0008434231276623905,0.0018775284988805652,-0.003703658003360033
1772535206174359800,5.20935986328125,-0.0011574097443372011,0.004175836686044931,-0.0049287122674286366
1772535206184375800,5.219375732421875,-0.0013283847365528345,0.0024770060554146767,-0.004987834487110376
1772535206194391800,5.229391845703125,-0.0004873584839515388,0.0013006879016757011,-0.0054701329208910465
1772535206204407800,5.23940771484375,-0.0011113371001556516,0.0027449200861155987,-0.005289836786687374
1772535206214423800,5.249423828125,-0.0006519418093375862,0.002840527566149831,-0.004613393917679787
1772535206224439800,5.259439697265625,0.0003201119543518871,0.0038804919458925724,-0.004362790379673243
1772535206234455800,5.269455810546875,-0.0016330503858625889,0.003064765827730298,-0.004453337751328945
1772535206244472000,5.27947216796875,-0.0012152004055678844,0.0026085663121193647,-0.004093545023351908
1772535206254488000,5.289488037109375,0.000529702752828598,0.00364693277515471,-0.004859469830989838
1772535206264504000,5.299504150390625,-0.0007299724384211004,0.0018825886072590947,-0.004938299767673016
1772535206274519800,5.309519775390625,-0.000603738590143621,0.0014146711910143495,-0.0046453517861664295
1772535206285788000,5.320787841796875,0.00013528858835343271,0.003882356220856309,-0.0038373488932847977
1772535206295804000,5.330803955078125,-0.00018855179951060563,0.003662378992885351,-0.005252552684396505
1772535206305820000,5.34081982421875,-0.0012122709304094315,0.001990979304537177,-0.004667189903557301
1772535206315836000,5.3508359375,-0.0004625910660251975,0.0021315941121429205,-0.004310059826821089
1772535206325852000,5.360851806640625,-0.0013877731980755925,0.0028274781070649624,-0.003041063668206334
1772535206335868000,5.370867919921875,-0.0017411747248843312,0.002532399957999587,-0.005033907014876604
1772535206345884000,5.3808837890625,-0.00033103092573583126,0.002304699504747987,-0.004437625408172607
1772535206355900200,5.390900146484375,-0.0005520732956938446,0.0036511938087642193,-0.005847768858075142
1772535206365916000,5.400916015625,-0.00044661210267804563,0.0037180392537266016,-0.004571582190692425
1772535206375932000,5.410931884765625,-0.00043116576853208244,0.0019712718203663826,-0.004178499802947044
1772535206385948000,5.420947998046875,-0.0015512913232669234,0.0021049624774605036,-0.003948402591049671
1772535206395964000,5.4309638671875,0.0000327568814100232,0.00239205127581954,-0.003719637170433998
1772535206405980000,5.44097998046875,-0.001323857344686985,0.0026612968649715185,-0.004490622319281101
1772535206415996000,5.450995849609375,-0.00044900894863530993,0.0031100395135581493,-0.00512844929471612
1772535206426012200,5.46101220703125,-0.0006940197781659663,0.003945739474147558,-0.004369981121271849
1772535206436028000,5.47102783203125,-0.0007858988246880472,0.002496180823072791,-0.004426972474902868
1772535206446044000,5.4810439453125,-0.0007978830835781991,0.0037816886324435472,-0.003230414353311062
1772535206456060000,5.491059814453125,0.0001174454009742476,0.002769953804090619,-0.004833637271076441
1772535206466076000,5.501075927734375,-0.0005648564547300339,0.002168345730751753,-0.0036365464329719543
1772535206476092000,5.511091796875,-0.00024740767548792064,0.004181695636361837,-0.0029377329628914595
1772535206486108000,5.52110791015625,-0.00004394215648062527,0.0025326660834252834,-0.0038429414853453636
1772535206496124000,5.5311240234375,-0.0007880293414928019,0.0020034960471093655,-0.005234709475189447
1772535206506140000,5.541139892578125,-0.0010396981379017234,0.002612294629216194,-0.005951632279902697
1772535206516157000,5.551156982421875,-0.0008522115531377494,0.003037601476535201,-0.005254683084785938
1772535206526172000,5.561171875,-0.0013845774810761213,0.0018548916559666395,-0.005060272291302681
1772535206536189000,5.57118896484375,-0.0014535533264279366,0.0023318638559430838,-0.0034911378752440214
1772535206546205000,5.581204833984375,0.00002902845517382957,0.002873817225918174,-0.004099936690181494
1772535206556221000,5.591220947265625,-0.0002170476218452677,0.002609365154057741,-0.00458676228299737
1772535206566237000,5.60123681640625,-0.0001483380765421316,0.0013217268278822303,-0.0054392400197684765
1772535206576253000,5.6112529296875,-0.000008255799002654385,0.0026162895374000072,-0.005275722127407789
1772535206586269000,5.62126904296875,-0.0012239888310432434,0.003242398612201214,-0.0042719766497612
1772535206596285000,5.631284912109375,-0.0009568737586960196,0.0024202808272093534,-0.0033425334841012955
1772535206606301000,5.641301025390625,-0.0006657902849838138,0.0022924491204321384,-0.004444549325853586
1772535206616317000,5.65131689453125,-0.00014034859486855567,0.0036735644098371267,-0.0046362970024347305
1772535206626333000,5.6613330078125,0.0012431635987013578,0.002724946476519108,-0.0028032432310283184
1772535206636975000,5.67197509765625,-0.0006804376607760787,0.002435993403196335,-0.004210191313177347
1772535206646991000,5.6819912109375,-0.0012953615514561534,0.0016309198690578341,-0.0041489386931061745
1772535206657007000,5.692007080078125,-0.0017001620726659894,0.002365419641137123,-0.004983839578926563
1772535206667022800,5.70202294921875,0.00040666470886208117,0.0032812808640301228,-0.002418416552245617
1772535206677038800,5.712038818359375,0.0007379619055427611,0.0025798040442168713,-0.003964648116379976
1772535206687054800,5.722054931640625,-0.00038456046604551375,0.0014476943761110306,-0.00535348616540432
1772535206697070800,5.73207080078125,-0.0007153250626288354,0.0030687605030834675,-0.004194478504359722
1772535206707087000,5.742087158203125,-0.0008154599345289171,0.003756921272724867,-0.004220577888190746
1772535206717103000,5.75210302734375,-0.0009978864109143615,0.001674595638178289,-0.0026234800461679697
1772535206727118800,5.762118896484375,0.0006631271098740399,0.0022778017446398735,-0.005328985396772623
1772535206737134800,5.772134765625,-0.001597896683961153,0.0025278725661337376,-0.004291683901101351
1772535206747150800,5.78215087890625,-0.0006460828590206802,0.0005965480813756585,-0.0037579864729195833
1772535206757166800,5.792166748046875,-0.00009507485083304346,0.0029976540245115757,-0.005012867972254753
1772535206767182800,5.802182861328125,0.00022184131375979632,0.0023331954143941402,-0.0043862261809408665
1772535206777199000,5.81219921875,-0.001876995898783207,0.0017603494925424457,-0.005320463329553604
1772535206787215000,5.822215087890625,-0.0010993528412654996,0.001989913871511817,-0.0046152579598128796
1772535206797230800,5.83223095703125,-0.0013480921043083072,0.0032977922819554806,-0.00446958327665925
1772535206807246800,5.842246826171875,-0.0009946906939148903,0.002170742489397526,-0.002377936616539955
1772535206817262800,5.852262939453125,-0.0012239888310432434,0.0027542412281036377,-0.004329234827309847
1772535206827278800,5.86227880859375,-0.00039734362508170307,0.0028879318851977587,-0.0038040592335164547
1772535206837295000,5.872295166015625,-0.0012767193838953972,0.0023899206425994635,-0.003343598684296012
1772535206847311000,5.88231103515625,-0.001981924520805478,0.003469299990683794,-0.0028487835079431534
1772535206857327000,5.8923271484375,0.00009480853623244911,0.0030072415247559547,-0.003602457931265235
1772535206867342800,5.9023427734375,-0.0018391790799796581,0.004217648413032293,-0.004307396709918976
1772535206877358800,5.91235888671875,-0.0014655375853180885,0.0025094966404139996,-0.004364388529211283
1772535206887374800,5.922374755859375,-0.0015784555580466986,0.003079679561778903,-0.0035127094015479088
1772535206897390800,5.932390869140625,-0.0006671218434348702,0.0026841999497264624,-0.0034133736044168472
1772535206907407000,5.942406982421875,-0.0013294500531628728,0.0031843415927141905,-0.004820321686565876
1772535206917423000,5.952423095703125,0.00010253170330543071,0.00213532242923975,-0.004474110435694456
1772535206927438800,5.96243896484375,0.0001579254458192736,0.002463157754391432,-0.004306331276893616
1772535206937454800,5.972454833984375,-0.0017811221769079566,0.0012266519479453564,-0.004174771253019571
1772535206947470800,5.982470947265625,-0.0011475561186671257,0.002657302189618349,-0.004610730800777674
1772535206957486800,5.99248681640625,-0.0013366405619308352,0.003938815090805292,-0.0036184368655085564
1772535206967502800,6.0025029296875,-0.0013574132462963462,0.002487658755853772,-0.005812615156173706
1772535206977519000,6.01251904296875,-0.0010346380295231938,0.002843723399564624,-0.003388339886441827
1772535206987535000,6.02253515625,-0.0008420915110036731,0.003251719754189253,-0.004314321093261242
1772535206997551900,6.0325517578125,0.0007331682136282325,0.0030035129748284817,-0.0031883365008980036
1772535207007568000,6.04256787109375,-0.0002697782183531672,0.003560912562534213,-0.0054184673354029655
1772535207017583900,6.052583984375,-0.000743554555810988,0.002162220422178507,-0.004553472623229027
1772535207027600100,6.06260009765625,0.0004830974212381989,0.0024429175537079573,-0.004310592543333769
1772535207037616000,6.0726162109375,-0.0004689826746471226,0.0009544769418425858,-0.004767591133713722
1772535207047632000,6.0826318359375,0.00021651499264407903,0.0026130937039852142,-0.0034051176626235247
1772535207057647900,6.09264794921875,-0.0014596786350011826,0.0021821942646056414,-0.0033214944414794445
1772535207067664000,6.102663818359375,-0.000075101139373146,0.003281546989455819,-0.004815261345356703
1772535207077679900,6.112679931640625,0.0009219863568432629,0.0025885924696922302,-0.0038514635525643826
1772535207087696000,6.12269580078125,0.0004324973560869694,0.002226402750238776,-0.005583849735558033
1772535207097712000,6.132712158203125,-0.0004420847399160266,0.004554005339741707,-0.00506826164200902
1772535207107728100,6.14272802734375,-0.00019148127466905862,0.0019861855544149876,-0.005135640036314726
1772535207117743900,6.152743896484375,-0.0006122607155703008,0.0024618261959403753,-0.004459196701645851
1772535207127760000,6.162759765625,-0.0007283745799213648,0.0021108214277774096,-0.0043926178477704525
1772535207137775900,6.17277587890625,-0.0021204089280217886,0.0027888622134923935,-0.005002215504646301
1772535207147792000,6.1827919921875,-0.0011046791914850473,0.0034554514568299055,-0.00475374236702919
1772535207157807900,6.192807861328125,-0.0014407701091840863,0.0016136092599481344,-0.004971855320036411
1772535207167824100,6.20282421875,-0.0013986921403557062,0.0022708773612976074,-0.002543318783864379
1772535207177839900,6.21283984375,-0.0015757924411445856,0.002481267089024186,-0.00381417921744287
1772535207187856000,6.22285595703125,-0.0006705839768983424,0.003591539105400443,-0.004571582190692425
1772535207197871900,6.232871826171875,-0.0021310613956302404,0.001989913871511817,-0.003695935010910034
1772535207207888000,6.242887939453125,-0.00030120351584628224,0.003343598684296012,-0.00339126936160028
1772535207217903900,6.25290380859375,0.00002609897819638718,0.0022690133191645145,-0.00404614070430398
1772535207227920100,6.262920166015625,-0.0014564828015863895,0.002354234457015991,-0.005366535857319832
1772535207237936000,6.27293603515625,0.0015837819082662463,0.002656503114849329,-0.005259476602077484
1772535207247952000,6.282951904296875,-0.00022024342615623027,0.002835467690601945,-0.003483414649963379
1772535207257967900,6.2929677734375,-0.000041811628761934116,0.0018253305461257696,-0.004862932022660971
1772535207267984000,6.30298388671875,-0.0013701963471248746,0.002351038623601198,-0.004576109815388918
1772535207277999900,6.312999755859375,-0.00015046859334688634,0.0029643645975738764,-0.005411010701209307
1772535207288016100,6.32301611328125,-0.00033902039285749197,0.0024881914723664522,-0.005029379855841398
1772535207298032000,6.3330322265625,-0.0015185344964265823,0.0009675264009274542,-0.004375573713332415
1772535207308048100,6.343048095703125,-0.0014849785948172212,0.0021257351618260145,-0.0031225562561303377
1772535207318063900,6.35306396484375,-0.0010892328573390841,0.0036943370942026377,-0.004446680191904306
1772535207328080000,6.363079833984375,0.0003677825443446636,0.0028815402183681726,-0.004504204262048006
1772535207338095900,6.373095947265625,-0.0001496696495451033,0.002481533447280526,-0.003976631909608841
1772535207348112000,6.38311181640625,-0.0004929511342197657,0.002144377212971449,-0.004803011193871498
1772535207358128000,6.393128173828125,0.000404534162953496,0.0015198660548776388,-0.004640824627131224
1772535207368144100,6.40314404296875,-0.0004809668753296137,0.0020298613235354424,-0.004050401505082846
1772535207378159900,6.413159912109375,-0.0015779229579493403,0.0025100293569266796,-0.005387841258198023
1772535207388176000,6.42317578125,0.00021172130072955042,0.002641855739057064,-0.004488491453230381
1772535207398191900,6.43319189453125,0.0004548678989522159,0.001996571896597743,-0.005780390929430723
1772535207408208000,6.443207763671875,-0.001776594785042107,0.0017454357584938407,-0.00433109886944294
1772535207418224000,6.45322412109375,-0.0011896340874955058,0.0017278589075431228,-0.00452923821285367
1772535207428240100,6.463240234375,-0.0013110742438584566,0.0028826056513935328,-0.005000617355108261
1772535207438256000,6.473256103515625,0.00021065604232717305,0.003765709698200226,-0.003227751236408949
1772535207448272000,6.48327197265625,-0.0006354302167892456,0.004141481593251228,-0.004673847462981939
1772535207458289000,6.493288818359375,0.0003504719934426248,0.0021169467363506556,-0.004474376793950796
1772535207468305000,6.503304931640625,-0.0002495381922926754,0.002798982197418809,-0.0065111625008285046
1772535207478321200,6.513321044921875,-0.0005853627808392048,0.003222425002604723,-0.004839762579649687
1772535207488337200,6.523337158203125,-0.0015968313673511147,0.0014586133183911443,-0.005225654691457748
1772535207498353000,6.533352783203125,-0.0004623247659765184,0.0015630092239007354,-0.004761199466884136
1772535207508369000,6.543368896484375,0.00014088122406974435,0.002867691917344928,-0.005833387840539217
1772535207518385000,6.553385009765625,0.000010918960470007733,0.0031124362722039223,-0.0037936728913336992
1772535207528401000,6.56340087890625,-0.00032437301706522703,0.0030503845773637295,-0.004585164599120617
1772535207538417000,6.5734169921875,-0.00009454221435589716,0.001770469476468861,-0.004273840691894293
1772535207548433200,6.58343310546875,-0.0010221211705356836,0.002758235903456807,-0.0052296495996415615
1772535207558449200,6.59344921875,0.00006391586794052273,0.0019204054260626435,-0.004313788376748562
1772535207568465000,6.60346484375,-0.0011643340112641454,0.0018434401135891676,-0.0022040321491658688
1772535207578481000,6.61348095703125,0.00023222764139063656,0.003129480639472604,-0.004083424806594849
1772535207588497000,6.623496826171875,0.0001536643976578489,0.002153165638446808,-0.0041060615330934525
1772535207598513000,6.633512939453125,-0.00003009372085216455,0.003775563556700945,-0.0026165556628257036
1772535207608529200,6.643529052734375,-0.00015153386630117893,0.00344586418941617,-0.005085039883852005
1772535207618545200,6.653545166015625,-0.0009241168736480176,0.001948634977452457,-0.004697283264249563
1772535207628561000,6.663560791015625,-0.001065264455974102,0.003364105010405183,-0.003709783311933279
1772535207638577000,6.673576904296875,-0.00014807176194153726,0.0033334787003695965,-0.005619003437459469
1772535207648593000,6.683593017578125,-0.0008732505375519395,0.0024612934794276953,-0.0033332123421132565
1772535207658609000,6.69360888671875,-0.0004985437262803316,0.003719104453921318,-0.0032921996898949146
1772535207668625000,6.703625,-0.0011166634503751993,0.002752376953139901,-0.006099970545619726
1772535207678641200,6.71364111328125,-0.0021134845446795225,0.0016378440195694566,-0.0038754320703446865
1772535207688657200,6.7236572265625,-0.0009933591354638338,0.0032738239970058203,-0.0049281795509159565
1772535207698673000,6.7336728515625,-0.00011291803093627095,0.0026048377621918917,-0.003824033075943589
1772535207708689000,6.74368896484375,-0.0009353021741844714,0.002956375014036894,-0.0049705239944159985
1772535207718705000,6.753704833984375,-0.0006239786162041128,0.00242107966914773,-0.002823217073455453
1772535207728721000,6.763720947265625,0.0012186624808236957,0.00250523560680449,-0.0037875475827604532
1772535207738737000,6.77373681640625,0.00035926041891798377,0.0035206989850848913,-0.002912166528403759
1772535207748753200,6.783753173828125,0.0011672634864225984,0.0030567762441933155,-0.0059865196235477924
1772535207758769200,6.79376904296875,-0.0005842975224368274,0.001537709147669375,-0.005135640036314726
1772535207768785000,6.803784912109375,0.0003920173039659858,0.0026351979468017817,-0.00452737370505929
1772535207778801000,6.81380078125,-0.0031230889726430178,0.0028818065766245127,-0.00437956815585494
1772535207788817000,6.82381689453125,-0.0006194512825459242,0.0022559636272490025,-0.004011253360658884
1772535207798833000,6.8338330078125,-0.0006495449924841523,0.0032557144295424223,-0.0035683694295585155
1772535207808849200,6.84384912109375,-0.0008258462767116725,0.003102049930021167,-0.005600361619144678
1772535207818865200,6.853865234375,0.0000804274677648209,0.002055960241705179,-0.003942543640732765
1772535207828881200,6.863881103515625,-0.000642620783764869,0.003625893732532859,-0.003081543603911996
1772535207838897000,6.87389697265625,-0.0001555285998620093,0.0037758296821266413,-0.003216033335775137
1772535207848913000,6.883912841796875,-0.0009211873984895647,0.0024527714122086763,-0.005273059010505676
1772535207858929000,6.893928955078125,-0.0005664543714374304,0.0028447885997593403,-0.004542287439107895
1772535207868945000,6.90394482421875,-0.0008735168376006186,0.001812014845199883,-0.004818457178771496
1772535207878961200,6.913961181640625,-0.000773381965700537,0.003058906877413392,-0.004312989301979542
1772535207888977200,6.92397705078125,-0.0004732437082566321,0.003468500915914774,-0.005520200356841087
1772535207898993000,6.933992919921875,-0.0012474246323108673,0.0031883365008980036,-0.003706853836774826
1772535207909009000,6.9440087890625,0.0004756405542138964,0.003023220458999276,-0.0054847802966833115
1772535207919025000,6.95402490234375,-0.0008346347021870315,0.0026383937802165747,-0.006353769451379776
1772535207929042000,6.9640419921875,0.0006005428149364889,0.0027395938523113728,-0.0037824877072125673
1772535207939058200,6.97405810546875,-0.0005387574783526361,0.0021670141723006964,-0.004539091605693102
1772535207949074000,6.984073974609375,0.00032144354190677404,0.0017206683987751603,-0.004206462763249874
1772535207959090000,6.99408984375,-0.0000780306218075566,0.0021374530624598265,-0.00436039362102747
1772535207969106000,7.00410595703125,0.00029055087361484766,0.0013305152533575892,-0.004643754102289677
1772535207979122000,7.014121826171875,-0.001431182725355029,0.0019060244085267186,-0.0036490634083747864
1772535207989138000,7.024137939453125,-0.0009291769238188863,0.0028221518732607365,-0.004719121381640434
1772535207999154200,7.034154296875,-0.0010556770721450448,0.0022090920247137547,-0.003937750123441219
1772535208009170200,7.044170166015625,-0.0006151901907287538,0.0029606360476464033,-0.0041433461010456085
1772535208019186000,7.05418603515625,-0.0022173479665070772,0.002528937766328454,-0.004786765668541193
1772535208029202000,7.064201904296875,-0.0010519486386328936,0.00247540813870728,-0.003335342975333333
1772535208039218000,7.074218017578125,-0.0010306433541700244,0.002257827902212739,-0.005583050660789013
1772535208049234000,7.08423388671875,-0.0008279767935164273,0.0035843485966324806,-0.0038954056799411774
1772535208059250000,7.09425,-0.0007105313707143068,0.002386192325502634,-0.005408347584307194
1772535208069266200,7.10426611328125,-0.0007890945998951793,0.002796319080516696,-0.005149488337337971
1772535208079282000,7.114281982421875,0.00040080572944134474,0.0027225494850426912,-0.005474660079926252
1772535208089298000,7.1242978515625,-0.0003685815026983619,0.0031667647417634726,-0.005369198974221945
1772535208099314000,7.13431396484375,-0.0020184097811579704,0.0024956483393907547,-0.004010720644146204
1772535208109330000,7.144329833984375,-0.0010455570882186294,0.003278617514297366,-0.0034961977507919073
1772535208119346000,7.154345947265625,-0.000030360035452758893,0.002020007697865367,-0.003138801548629999
1772535208129362000,7.16436181640625,-0.0006122607155703008,0.0017907095607370138,-0.004708468914031982
1772535208139378200,7.174378173828125,-0.0012338425731286407,0.0020503676496446133,-0.003382480936124921
1772535208149394000,7.184393798828125,-0.000251402409048751,0.0031276163645088673,-0.0041731735691428185
1772535208159410000,7.194409912109375,-0.0007502124644815922,0.0031902005430310965,-0.004453870467841625
1772535208169426000,7.204426025390625,-0.0007448861724697053,0.002770752878859639,-0.004605937283486128
1772535208179442000,7.21444189453125,-0.0008929579053074121,0.001990979304537177,-0.004400607198476791
1772535208189458000,7.2244580078125,-0.00003941478280466981,0.0027771443128585815,-0.004824316129088402
1772535208199474200,7.23447412109375,-0.00010839065362233669,0.0022210762836039066,-0.002145176287740469
1772535208209490200,7.244490234375,-0.0005624596378766,0.002641589380800724,-0.003622697899118066
1772535208219506000,7.254505859375,-0.0003134540456812829,0.002214152133092284,-0.0038429414853453636
1772535208229522000,7.26452197265625,0.00026498452643863857,0.0018639464396983385,-0.0041492050513625145
1772535208239538000,7.274537841796875,-0.0016796556301414967,0.0031494542490690947,-0.003382480936124921
1772535208249554200,7.28455419921875,-0.00044314999831840396,0.0014061490073800087,-0.002891926560550928
1772535208259570200,7.294570068359375,-0.0009622001089155674,0.0013105415273457766,-0.003614708548411727
1772535208269586200,7.304586181640625,-0.0003323625132907182,0.0031667647417634726,-0.004713262431323528
1772535208279602200,7.314602294921875,0.0003281014505773783,0.002712962217628956,-0.005472263321280479
1772535208289618000,7.324617919921875,0.000031691615731688216,0.0030210898257791996,-0.005084773525595665
1772535208299634000,7.334634033203125,-0.00002663161103555467,0.002897785510867834,-0.005142563953995705
1772535208309650000,7.34464990234375,-0.0008977515972219408,0.0020780644845217466,-0.003900199430063367
1772535208319666200,7.354666259765625,-0.0020732709672302008,0.0018610169645398855,-0.005684250965714455
1772535208329682200,7.36468212890625,-0.0018437063554301858,0.003153448924422264,-0.0046416232362389565
1772535208339698200,7.3746982421875,-0.0009973538108170033,0.002657035831362009,-0.004321245010942221
1772535208349714000,7.3847138671875,-0.0011707255616784096,0.001698830397799611,-0.002995523624122143
1772535208359730000,7.39472998046875,0.0003376888344064355,0.0027861990965902805,-0.005784385837614536
1772535208369746000,7.404745849609375,-0.0021523667965084314,0.0029174929950386286,-0.003933488857001066
1772535208379762200,7.41476220703125,-0.001136637176387012,0.00315984059125185,-0.004379035905003548
1772535208389778200,7.424778076171875,-0.000675111310556531,0.00227913330309093,-0.004807804711163044
1772535208399794200,7.434794189453125,-0.0018578211311250925,0.003040797309949994,-0.0046813045628368855
1772535208409810200,7.44481005859375,0.0005901564727537334,0.00307595101185143,-0.003611246356740594
1772535208419826000,7.454825927734375,-0.00015872440417297184,0.002630404196679592,-0.004464257042855024
1772535208429842000,7.464842041015625,0.0007571366732008755,0.0025214808993041515,-0.005352687556296587
1772535208439858000,7.47485791015625,-0.002121740486472845,0.002846919232979417,-0.004068244714289904
1772535208449875200,7.484875244140625,-0.0013161342358216643,0.0027651600539684296,-0.004786499310284853
1772535208459891200,7.49489111328125,-0.00041039311327040195,0.0018556906143203378,-0.004682902246713638
1772535208469907000,7.504906982421875,-0.002382996492087841,0.0029678267892450094,-0.004217382054775953
1772535208479923000,7.5149228515625,-0.001898301183246076,0.0028157602064311504,-0.005103948060423136
1772535208489939000,7.52493896484375,0.0006652576266787946,0.0025475798174738884,-0.005227518733590841
1772535208499955200,7.534955078125,-0.0017949705943465233,0.0021228056866675615,-0.004487959202378988
1772535208509971200,7.54497119140625,-0.0012290488230064511,0.0027531760279089212,-0.003977430984377861
1772535208519987200,7.5549873046875,-0.000675111310556531,0.0017816547770053148,-0.005390770733356476
1772535208530003000,7.5650029296875,-0.001181644620373845,0.0028730181511491537,-0.0043774377554655075
1772535208540019000,7.57501904296875,-0.0010058758780360222,0.0025723471771925688,-0.0035976641811430454
1772535208550035000,7.585034912109375,-0.0010436928132548928,0.0017696705181151628,-0.003736148588359356
1772535208560051000,7.595051025390625,-0.000972852751147002,0.0013622068800032139,-0.002683401107788086
1772535208570067200,7.605067138671875,-0.001457548001781106,0.00045566685730591416,-0.0030807447619736195
1772535208580083200,7.615083251953125,-0.0007076018955558538,0.003052781568840146,-0.003891677362844348
1772535208590099200,7.62509912109375,-0.0009832390351220965,0.0021787320729345083,-0.004689826630055904
1772535208600115000,7.635114990234375,-0.0010407633380964398,0.002683134749531746,-0.0046384274028241634
1772535208610131000,7.645130859375,-0.0008724515791982412,0.0032828785479068756,-0.005136438645422459
1772535208620147000,7.65514697265625,-0.0017030915478244424,0.0014809839194640517,-0.004972121678292751
1772535208630163000,7.665162841796875,-0.002115881536155939,0.0016863135388121009,-0.0031965922098606825
1772535208640179200,7.67517919921875,-0.0009366337326355278,0.0026991136837750673,-0.004355067387223244
1772535208650195200,7.6851953125,-0.0011339739430695772,0.0015840481501072645,-0.0034650389570742846
1772535208660211200,7.695211181640625,-0.0009081379394046962,0.0029795446898788214,-0.0037436054553836584
1772535208670227000,7.70522705078125,0.0011747203534469008,0.0033334787003695965,-0.004201935604214668
1772535208680243000,7.715242919921875,-0.000728907180018723,0.002912432886660099,-0.004317250568419695
1772535208690259000,7.725259033203125,0.0001954760227818042,0.0023158849216997623,-0.004001399502158165
1772535208700275000,7.73527490234375,-0.0003677825443446636,0.001894839107990265,-0.0029555761720985174
1772535208710291200,7.745291259765625,-0.0011598066193982959,0.003950266633182764,-0.004625910893082619
1772535208720307200,7.75530712890625,-0.0009233179152943194,0.0028003137558698654,-0.0031214910559356213
1772535208730323200,7.7653232421875,-0.0010484865633770823,0.0017757958266884089,-0.005046956706792116
1772535208740339000,7.7753388671875,-0.00017869810108095407,0.0031465247739106417,-0.004053863696753979
1772535208750355000,7.78535498046875,0.0009576727170497179,0.0016823188634589314,-0.0035744947381317616
1772535208760371000,7.795370849609375,-0.0006884271278977394,0.003175287041813135,-0.004668787587434053
1772535208770387200,7.80538720703125,-0.00038962045800872147,0.0016724651213735342,-0.0044293696992099285
1772535208780403200,7.8154033203125,-0.00034700988908298314,0.0027654264122247696,-0.00464721629396081
1772535208790419200,7.825419189453125,0.0001752359967213124,0.0029885992407798767,-0.004061587154865265
1772535208800435000,7.83543505859375,-0.001136370818130672,0.0028812738601118326,-0.004327636677771807
1772535208810451000,7.845450927734375,-0.0006223807577043772,0.0032056469935923815,-0.004855741746723652
1772535208820467000,7.855467041015625,-0.000508663768414408,0.00455826660618186,-0.0037894118577241898
1772535208830483000,7.86548291015625,0.000041811628761934116,0.0024234766606241465,-0.0038948729634284973
1772535208840499200,7.875499267578125,-0.002171807922422886,0.0030333404429256916,-0.005660016089677811
1772535208850515200,7.88551513671875,-0.00040027310024015605,0.0021110877860337496,-0.0034437335561960936
1772535208860531200,7.89553125,-0.0002711098059080541,0.0031260184478014708,-0.0037699707318097353
1772535208870547000,7.905546875,-0.0011459582019597292,0.0016674051294103265,-0.0038804919458925724
1772535208880563000,7.91556298828125,0.0008868326549418271,0.002846652874723077,-0.004290885291993618
1772535208890579000,7.925578857421875,0.00016698020044714212,0.002302569104358554,-0.0034237599465996027
1772535208900595000,7.935594970703125,-0.00014434332842938602,0.0023369237314909697,-0.005789179354906082
1772535208910611200,7.945611083984375,0.00020240024605300277,0.0024977787397801876,-0.004634166602045298
1772535208920627200,7.955627197265625,-0.001261273049749434,0.002240517409518361,-0.003780623432248831
1772535208930643200,7.965643310546875,-0.0010844392236322165,0.001898301183246076,-0.004038949962705374
1772535208940659000,7.975658935546875,0.00007190534961409867,0.003364904085174203,-0.00526533555239439
1772535208950675000,7.985675048828125,-0.0014775217277929187,0.0031313446816056967,-0.003689276985824108
1772535208960691000,7.99569091796875,0.0001030643325066194,0.0034727619495242834,-0.003368099918588996
1772535208970707200,8.005707275390625,-0.00028389296494424343,0.0031728900503367186,-0.005089034326374531
1772535208980723200,8.01572314453125,-0.00023329291434492916,0.002907373011112213,-0.0043502734042704105
1772535208990739200,8.0257392578125,-0.0007488809060305357,0.002645317930728197,-0.0046850331127643585
1772535209000755000,8.0357548828125,-0.0011385013349354267,0.002172074280679226,-0.005312207154929638
1772535209010771000,8.04577099609375,-0.0023001721128821373,0.0034416031558066607,-0.00384400668554008
1772535209020788000,8.0557880859375,0.00018216021999251097,0.0028988507110625505,-0.003221093211323023
1772535209030804200,8.06580419921875,-0.0001960086519829929,0.0030919299460947514,-0.003454119898378849
1772535209040820200,8.0758203125,-0.0007307713967747986,0.0025249430909752846,-0.004997155629098415
1772535209050836000,8.0858359375,-0.0007970841252245009,0.00321816373616457,-0.004716990981251001
1772535209060852000,8.09585205078125,0.00019973708549514413,0.003736947663128376,-0.004048271104693413
1772535209070868000,8.105867919921875,-0.000586161739192903,0.0027574370615184307,-0.0031704932916909456
1772535209080884000,8.115884033203125,-0.0007978830835781991,0.003920173272490501,-0.005178783088922501
1772535209090900000,8.12589990234375,0.0001752359967213124,0.0035145736765116453,-0.004174771253019571
1772535209100916200,8.135916259765626,0.0005917543894611299,0.003346528159454465,-0.0036847495939582586
1772535209110932200,8.14593212890625,-0.0021702100057154894,0.002804841147735715,-0.005352154839783907
1772535209120948000,8.155947998046875,0.000030892668291926384,0.002546780975535512,-0.003328418591991067
1772535209130964000,8.1659638671875,-0.0007480819476768374,0.003507116809487343,-0.004193946253508329
1772535209140980000,8.17597998046875,-0.0013704627053812146,0.0035774242132902145,-0.00370072852820158
1772535209150996000,8.185995849609375,0.00021784658019896597,0.001958222361281514,-0.003867442486807704
1772535209161012200,8.19601220703125,0.000005592638444795739,0.002373941708356142,-0.003421895671635866
1772535209171028200,8.2060283203125,-0.0013606089632958174,0.002519616624340415,-0.00421338714659214
1772535209181044200,8.216044189453125,-0.00129695946816355,0.002900448627769947,-0.004739627707749605
1772535209191060000,8.22606005859375,-0.002005626680329442,0.0034402713645249605,-0.0037800907157361507
1772535209201076000,8.236075927734374,-0.0008937568636611104,0.0038336203433573246,-0.0037268276792019606
1772535209211092000,8.246092041015626,-0.00005912217602599412,0.0026993800420314074,-0.0054626758210361
1772535209221108000,8.25610791015625,0.0011347729014232755,0.0021909826900810003,-0.0036426717415452003
1772535209231124200,8.266124267578125,-0.0004242415598127991,0.00199337606318295,-0.004279699642211199
1772535209241140000,8.276139892578126,-0.0002146507758880034,0.002901247702538967,-0.003932689782232046
1772535209251156000,8.286156005859375,0.00058323226403445,0.0024533038958907127,-0.005811017472296953
1772535209261171700,8.296171630859375,-0.00029827404068782926,0.0026229473296552896,-0.003867975203320384
1772535209271187700,8.306187744140624,-0.0009725864510983229,0.0026290726382285357,-0.00430260319262743
1772535209281203700,8.31620361328125,-0.00015872440417297184,0.003254915354773402,-0.005094626918435097
1772535209291219700,8.3262197265625,-0.0005054679932072759,0.0019795275293290615,-0.005048820748925209
1772535209301236000,8.336236083984375,0.0010982876410707831,0.0016564861871302128,-0.004659732803702354
1772535209311252000,8.346251953125,-0.0017555557424202561,0.003072755178436637,-0.004194212146103382
1772535209321268000,8.35626806640625,-0.0012460930738598108,0.0024232103023678064,-0.0038519962690770626
1772535209331283700,8.36628369140625,-0.0014050838071852922,0.0032519858796149492,-0.004172907210886478
1772535209341299700,8.3762998046875,0.00045912896166555583,0.003177683800458908,-0.0034551850985735655
1772535209351315700,8.386315673828125,-0.00025033715064637363,0.001422128058038652,-0.0028447885997593403
1772535209361331700,8.396331787109375,-0.0007896272582001984,0.002558232517912984,-0.004509530495852232
1772535209371348000,8.406347900390625,-0.0019209380261600018,0.002144377212971449,-0.006136988289654255
1772535209381364000,8.416364013671876,-0.0014919028617441654,0.0028037759475409985,-0.0036970002111047506
1772535209391379700,8.426379638671875,-0.0015488944482058287,0.0028096348978579044,-0.004699414130300283
1772535209401395700,8.436395751953125,-0.00040426786290481687,0.002416286151856184,-0.003370763035491109
1772535209411411700,8.44641162109375,-0.002799514913931489,0.0028511802665889263,-0.004047205671668053
1772535209421427700,8.456427734375,-0.0007904262165538967,0.00333241350017488,-0.004077299498021603
1772535209431444000,8.46644384765625,-0.0024610271211713552,0.003913515247404575,-0.0041004689410328865
1772535209441460000,8.4764599609375,-0.00010120012302650139,0.0026849990244954824,-0.003691940102726221
1772535209451476000,8.48647607421875,-0.0019688750617206097,0.0028549085836857557,-0.005410744342952967
1772535209461491700,8.49649169921875,-0.000892425247002393,0.0030740867368876934,-0.004201136529445648
1772535209471507700,8.5065078125,-0.0010221211705356836,0.002805373864248395,-0.0038426751270890236
1772535209481523700,8.516523681640624,-0.0003438140847720206,0.0018929748330265284,-0.004418983124196529
1772535209491539700,8.526539794921876,-0.0005600627628155053,0.004084756597876549,-0.003975833300501108
1772535209501556000,8.536555908203125,-0.0005544701125472784,0.0040855552069842815,-0.004151069093495607
1772535209511572000,8.546572021484375,0.00040559942135587335,0.0028575719334185123,-0.002672215923666954
1772535209521588000,8.556587890625,-0.001606152392923832,0.0033518546260893345,-0.004816060420125723
1772535209531603700,8.566603759765625,-0.0005030711181461811,0.001877262257039547,-0.004055728204548359
1772535209541619700,8.57661962890625,-0.000922252656891942,0.0032085764687508345,-0.003620301140472293
1772535209551635700,8.5866357421875,-0.0004316983977332711,0.002764893928542733,-0.0041396175511181355
1772535209561651700,8.596651611328125,-0.0007265103631652892,0.0012114719720557332,-0.004996622912585735
1772535209571668000,8.60666796875,0.0005009406013414264,0.002287655370309949,-0.003626160090789199
1772535209581684000,8.61668408203125,-0.0009981527691707015,0.002192314248532057,-0.0043595945462584496
1772535209591699700,8.62669970703125,-0.000830107310321182,0.0007608651067130268,-0.0037145770620554686
1772535209601715700,8.6367158203125,-0.0009113337146118283,0.002430400811135769,-0.0032839439809322357
1772535209611731700,8.646731689453125,-0.0002612560929264873,0.0021781993564218283,-0.004032026045024395
1772535209621747700,8.656747802734374,-0.0005454153870232403,0.0019014970166608691,-0.004304467234760523
1772535209631763700,8.666763671875,-0.0010365023044869304,0.0031150993891060352,-0.004610730800777674
1772535209641780000,8.676780029296875,-0.0008034756756387651,0.00123783724848181,-0.004485029727220535
1772535209651796000,8.6867958984375,-0.0017656758427619934,0.003891677362844348,-0.004640025552362204
1772535209661812700,8.696812744140624,-0.000639424950350076,0.0034908715169876814,-0.00452950457111001
1772535209671828700,8.706828857421876,-0.00035233621019870043,0.002653573639690876,-0.004166781902313232
1772535209681844700,8.7168447265625,-0.0014362427173182368,0.0028450549580156803,-0.004332696553319693
1772535209691861000,8.726861083984375,-0.001817341079004109,0.0013219931861385703,-0.003477289341390133
1772535209701877000,8.736876953125,-0.0013265205780044198,0.00210709311068058,-0.004985703621059656
1772535209711892700,8.746892822265625,-0.001398159540258348,0.002407231368124485,-0.004259459674358368
1772535209721908700,8.75690869140625,-0.0006428870838135481,0.0027001791168004274,-0.0051657333970069885
1772535209731924700,8.7669248046875,-0.001546763931401074,0.002540389308705926,-0.0041121868416666985
1772535209741940700,8.776940673828125,0.0005030711181461811,0.0027806065045297146,-0.004595817066729069
1772535209751956700,8.786956787109375,0.00011211907985853031,0.0010735202813521028,-0.0036543896421790123
1772535209761973000,8.796972900390625,-0.0009896307019516826,0.0023728765081614256,-0.005750563926994801
1772535209771989000,8.806989013671876,-0.0008546083699911833,0.0027017768006771803,-0.004068511072546244
1772535209782004700,8.817004638671875,-0.0005755090969614685,0.001936917076818645,-0.00501020485535264
1772535209792020700,8.827020751953125,-0.0015126754296943545,0.002270078519359231,-0.004370247479528189
1772535209802036700,8.83703662109375,-0.0014764565275982022,0.0019558256026357412,-0.004267715383321047
1772535209812052700,8.847052734375,-0.001443166984245181,0.0027446537278592587,-0.0025475798174738884
1772535209822069000,8.857069091796875,0.00011291803093627095,0.002785400254651904,-0.003980626817792654
1772535209832085000,8.8670849609375,-0.0012309130979701877,0.003096723696216941,-0.004246676806360483
1772535209842100700,8.877100830078126,0.00014194648247212172,0.002176867797970772,-0.004580903332680464
1772535209852116700,8.88711669921875,0.0013611416798084974,0.0013646037550643086,-0.0049675945192575455
1772535209862132700,8.8971328125,0.0007153250626288354,0.0025366609916090965,-0.0046698530204594135
1772535209872148700,8.907148681640624,0.000472977408207953,0.0025534387677907944,-0.0036543896421790123
1772535209882164700,8.917164794921876,-0.001332645770162344,0.0013347762869670987,-0.0036304211243987083
1772535209892181000,8.927180908203125,-0.0013944311067461967,0.0031214910559356213,-0.004404069390147924
1772535209902197000,8.937197021484375,0.0005150553770363331,0.0011377023765817285,-0.004945223685353994
1772535209912212700,8.947212646484376,-0.0017323862994089723,0.0019688750617206097,-0.004021639470010996
1772535209922228700,8.957228759765625,0.0001555285998620093,0.0044014062732458115,-0.004552407655864954
1772535209932244700,8.96724462890625,-0.0001179780374513939,0.0027422569692134857,-0.004811000544577837
1772535209942260700,8.9772607421875,-0.0025747441686689854,0.00398755120113492,-0.005311408545821905
1772535209952276700,8.98727685546875,0.0018777948571369052,0.002679672557860613,-0.005382248666137457
1772535209962293000,8.99729296875,-0.000922519015148282,0.0017555557424202561,-0.004311391618102789
1772535209972309000,9.00730908203125,-0.0015062838792800903,0.0032863407395780087,-0.0037734329234808683
1772535209982324700,9.01732470703125,-0.0023164174053817987,0.0036938043776899576,-0.002430400811135769
1772535209992340700,9.0273408203125,-0.00034967303508892655,0.003635481232777238,-0.003888481529429555
1772535210002356700,9.037356689453125,-0.0024983114562928677,0.003117496380582452,-0.003233077470213175
1772535210012372700,9.047372802734374,-0.0009022789890877903,0.001540904981084168,-0.004020041786134243
1772535210022388700,9.057388671875,-0.0012796488590538502,0.003183542750775814,-0.004491420928388834
1772535210032405000,9.067405029296875,-0.001990446588024497,0.0025390577502548695,-0.005584116093814373
1772535210042421000,9.0774208984375,0.00006844323797849938,0.003579288488253951,-0.005194495897740126
1772535210052436700,9.087436767578126,-0.00210629403591156,0.003862116253003478,-0.005111138802021742
1772535210062452700,9.09745263671875,-0.000958205375354737,0.0009089368977583945,-0.0041492050513625145
1772535210072468700,9.10746875,-0.0011725898366421461,0.004053597338497639,-0.003481284249573946
1772535210082484700,9.117484619140624,-0.0020756677258759737,0.0022972426377236843,-0.004090082831680775
1772535210092501000,9.1275009765625,0.000009054747351910919,0.0021877868566662073,-0.005210474599152803
1772535210102517000,9.13751708984375,0.0002671150432433933,0.00364746549166739,-0.003013899317011237
1772535210112532700,9.14753271484375,-0.00023142869758885354,0.0036013927310705185,-0.00407463638111949
1772535210122548700,9.157548828125,0.0000679106087773107,0.0028639633674174547,-0.002570216776803136
1772535210132564700,9.167564697265625,-0.0014066817238926888,0.002296710154041648,-0.003372893435880542
1772535210142580700,9.177580810546875,-0.0002247707889182493,0.002633600030094385,-0.004933505784720182
1772535210152596700,9.1875966796875,-0.0023001721128821373,0.003172357566654682,-0.006329535041004419
1772535210162613000,9.197613037109376,-0.0011619371362030506,0.0030631679110229015,-0.005071457475423813
1772535210172629000,9.20762890625,-0.0009052084642462432,0.003245328087359667,-0.004863997455686331
1772535210182644700,9.217644775390625,-0.0014655375853180885,0.00210682675242424,-0.0031430625822395086
1772535210192660700,9.22766064453125,-0.0010335728293284774,0.0022540995851159096,-0.0036125779151916504
1772535210202676700,9.2376767578125,-0.0011382350930944085,0.0014415690675377846,-0.004369448404759169
1772535210212692700,9.247692626953125,-0.0005422196118161082,0.0026847326662391424,-0.0035832831636071205
1772535210222708700,9.257708740234374,-0.0007850998663343489,0.0035238948184996843,-0.003846669802442193
1772535210232725000,9.26772509765625,0.00037710359902121127,0.0017299894243478775,-0.0049649314023554325
1772535210242741000,9.277740966796875,-0.00042211104300804436,0.0027832696214318275,-0.004721518140286207
1772535210252756700,9.2877568359375,0.0002948119363281876,0.0026027073618024588,-0.003998736385256052
1772535210262772700,9.297772705078126,-0.0010657970560714602,0.0025361282750964165,-0.0061508365906775
1772535210272788700,9.307788818359375,-0.002123870886862278,0.0025750105269253254,-0.004034156445413828
1772535210284682800,9.319682861328126,-0.00029827404068782926,0.003740143496543169,-0.005203550215810537
1772535210294698800,9.32969873046875,-0.0003438140847720206,0.002281530061736703,-0.004653607495129108
1772535210304715000,9.339715087890625,-0.0005856291390955448,0.0034906051587313414,-0.004285292699933052
1772535210314731000,9.34973095703125,-0.0017720673931762576,0.002898051869124174,-0.0044136568903923035
1772535210324746800,9.359746826171875,-0.00031425300403498113,0.002662095706909895,-0.005251487251371145
1772535210334762800,9.3697626953125,-0.00024288028362207115,0.0017608820926398039,-0.0043894220143556595
1772535210344778800,9.37977880859375,-0.0006223807577043772,0.0028567728586494923,-0.003632019041106105
1772535210354794800,9.389794677734375,-0.0005954828229732811,0.003319896524772048,-0.0046970173716545105
1772535210364810800,9.399810791015625,-0.0011289139511063695,0.0026559706311672926,-0.005276787560433149
1772535210374827000,9.409826904296875,-0.0009089368977583945,0.0028533106669783592,-0.004733502399176359
1772535210384842800,9.4198427734375,-0.00042770366417244077,0.0030517163686454296,-0.0038780951872467995
1772535210394858800,9.429858642578125,-0.0005041363765485585,0.0013526194961741567,-0.006061088293790817
1772535210404874800,9.439874755859375,-0.0015475628897547722,0.0033955303952097893,-0.003745203372091055
1772535210414891800,9.449891845703124,0.0002205097407568246,0.0026160231791436672,-0.004523911513388157
1772535210424908000,9.459907958984376,-0.0009166600648313761,0.0037119139451533556,-0.0038429414853453636
1772535210434923800,9.469923828125,-0.0022447784431278706,0.0022927154786884785,-0.0046754456125199795
1772535210444939800,9.479939697265625,-0.0009113337146118283,0.0035260252188891172,-0.00478436890989542
1772535210454955800,9.489955810546874,-0.001172323478385806,0.0028522454667836428,-0.0035683694295585155
1772535210464971800,9.4999716796875,-0.0006415555253624916,0.003817108692601323,-0.0038485340774059296
1772535210474987800,9.50998779296875,-0.0003539340978022665,0.001955292886123061,-0.003760383464396
1772535210485003800,9.520003662109374,-0.001496430253610015,0.0029518476221710443,-0.004525776021182537
1772535210495020000,9.53002001953125,-0.0002798982313834131,0.002555303042754531,-0.004465322010219097
1772535210505035800,9.540035888671875,-0.0007986819837242365,0.004005128052085638,-0.005905293393880129
1772535210515051800,9.5500517578125,-0.0003760383406188339,0.0024588967207819223,-0.004519650712609291
1772535210525067800,9.56006787109375,0.00006870955257909372,0.0027196200098842382,-0.0046240463852882385
1772535210535083800,9.570083740234375,-0.0017670074012130499,0.0022000374738126993,-0.005559614859521389
1772535210545099800,9.580099853515625,0.0003579288604669273,0.004554005339741707,-0.00398595305159688
1772535210555115800,9.59011572265625,-0.001160072977654636,0.004195277579128742,-0.004197407979518175
1772535210565131800,9.6001318359375,0.00020772656716872007,0.0013233247445896268,-0.00373055599629879
1772535210575147800,9.610147705078125,-0.0016389093361794949,0.003052515210583806,-0.004539091605693102
1772535210585163800,9.620163818359375,0.0001483380765421316,0.002189384773373604,-0.004340686369687319
1772535210595179800,9.6301796875,-0.0011731224367395043,0.0021350563038140535,-0.0037910097744315863
1772535210605195800,9.64019580078125,-0.0004873584839515388,0.0038900794461369514,-0.003916977439075708
1772535210615211800,9.650211669921875,-0.001073786523193121,0.003138535423204303,-0.003209375310689211
1772535210625228000,9.66022802734375,0.00046392265358008444,0.002231728984043002,-0.0036764938849955797
1772535210635869700,9.67086962890625,-0.00015153386630117893,0.00287434970960021,-0.004535629414021969
1772535210645885700,9.6808857421875,-0.0008612662786617875,0.0020245350897312164,-0.003373426152393222
1772535210655902000,9.69090185546875,-0.0014423680258914828,0.002855707658454776,-0.0043830303475260735
1772535210665918000,9.70091796875,-0.00017124126316048205,0.003052781568840146,-0.004357730504125357
1772535210675934000,9.710933837890625,0.0007099987124092877,0.0015488944482058287,-0.00458702864125371
1772535210685949700,9.72094970703125,-0.0008913599886000156,0.004776113200932741,-0.00504083139821887
1772535210695965700,9.730965576171876,-0.0016607472207397223,0.00333161442540586,-0.004714594222605228
1772535210705981700,9.740981689453125,0.00029774141148664057,0.002114816103130579,-0.0030282805673778057
1772535210715997700,9.750997802734375,-0.001671932521276176,0.00284984870813787,-0.003918575122952461
1772535210726014000,9.761013916015624,-0.0005637911963276565,0.002442385070025921,-0.0044469465501606464
1772535210736030000,9.771030029296876,-0.0015371765475720167,0.0029225528705865145,-0.0049795787781476974
1772535210746046000,9.7810458984375,-0.000931041082367301,0.0027142937760800123,-0.0030059099663048983
1772535210756061700,9.791061767578125,-0.0012181298807263374,0.002581668319180608,-0.004891428165137768
1772535210766077700,9.80107763671875,-0.000824248360004276,0.004144943784922361,-0.003964381758123636
1772535210776093700,9.81109375,-0.0005805690889246762,0.0021547635551542044,-0.004610730800777674
1772535210786110000,9.82110986328125,0.00009800432599149644,0.003400856629014015,-0.004318049177527428
1772535210796126000,9.8311259765625,-0.0007595335482619703,0.002424808219075203,-0.003942809998989105
1772535210806142000,9.841141845703126,-0.00014034859486855567,0.003477822057902813,-0.003573163179680705
1772535210816157700,9.85115771484375,-0.000014114753867033869,0.0030125677585601807,-0.004987834487110376
1772535210826173700,9.861173583984375,0.00034194986801594496,0.00270657055079937,-0.005363606382161379
1772535210836189700,9.871189697265624,-0.00006125270738266408,0.0026019082870334387,-0.0023188143968582153
1772535210846205700,9.881205810546875,-0.0006061354652047157,0.0026197514962404966,-0.00336197461001575
1772535210856222000,9.891221923828125,0.00025539714260958135,0.0031377363484352827,-0.004580636974424124
1772535210866238000,9.901238037109374,-0.0010210559703409672,0.0030386666767299175,-0.004450141917914152
1772535210876254000,9.91125390625,-0.0009470200748182833,0.0032493227627128363,-0.005536445416510105
1772535210886269700,9.921269775390625,-0.001755289500579238,0.0017955031944438815,-0.0037025928031653166
1772535210896285700,9.93128564453125,-0.0018322548130527139,0.003308977698907256,-0.0035385421942919493
1772535210906301700,9.9413017578125,-0.0011747203534469008,0.0023694143164902925,-0.003619768423959613
1772535210916317700,9.951317626953125,-0.0009763148264028132,0.0029177593532949686,-0.005689843557775021
1772535210926334000,9.961333984375,-0.0023667511995881796,0.0022245384752750397,-0.004450408276170492
1772535210936350000,9.971349853515624,0.0001536643976578489,0.002855707658454776,-0.004870122764259577
1772535210946366000,9.981365966796876,-0.0012857741676270962,0.0027859327383339405,-0.004576109815388918
1772535210956381700,9.991381591796875,0.00042317630141042173,0.0031071100383996964,-0.0030631679110229015
1772535210966397700,10.001397705078125,0.00013848437811248004,0.0027052389923483133,-0.002625077962875366
1772535210976413700,10.01141357421875,-0.0008892294717952609,0.0033830134198069572,-0.004400340840220451
1772535210986430000,10.021429931640625,-0.0015811186749488115,0.0032812808640301228,-0.003724164329469204
1772535210996446000,10.031446044921875,-0.0005917543894611299,0.0018271948210895061,-0.003335342975333333
1772535211006462000,10.0414619140625,-0.001856223214417696,0.0035606464371085167,-0.005994509439915419
1772535211016477700,10.051477783203126,-0.0011563445441424847,0.0013350426452234387,-0.00529489666223526
1772535211026493700,10.06149365234375,-0.002799248555675149,0.0018293253378942609,-0.004521781112998724
1772535211036509700,10.071509765625,-0.0014367754338309169,0.0022477079182863235,-0.004202734678983688
1772535211046525700,10.081525634765624,-0.0000500674286740832,0.002703641075640917,-0.00392896169796586
1772535211056542000,10.0915419921875,-0.0005584649043157697,0.0031792817171663046,-0.004689293913543224
1772535211066558000,10.101557861328125,-0.0008703210623934865,0.002040780382230878,-0.004565989598631859
1772535211076574000,10.111573974609374,-0.0010865697404369712,0.003553189570084214,-0.0035928706638514996
1772535211086589700,10.121589599609376,-0.0020716730505228043,0.003340935567393899,-0.00436092633754015
1772535211096605700,10.131605712890625,-0.0004801679460797459,0.002484462922438979,-0.0025238776579499245
1772535211106621700,10.14162158203125,-0.00014700648898724467,0.002674612682312727,-0.0038048583082854748
1772535211116637700,10.1516376953125,-0.0015004249289631844,0.003787015099078417,-0.004493019077926874
1772535211126654000,10.161654052734375,0.0007177218794822693,0.0020969731267541647,-0.0030594393610954285
1772535211136670000,10.171669921875,-0.0021723404061049223,0.0026469158474355936,-0.0037020600866526365
1772535211146686700,10.181686767578125,-0.0019518306944519281,0.002641589380800724,-0.004674380179494619
1772535211156701700,10.19170166015625,-0.001591505017131567,0.004225637763738632,-0.0033563817851245403
1772535211166717700,10.2017177734375,-0.0012639362830668688,0.001986984396353364,-0.004944158717989922
1772535211176735000,10.21173486328125,0.0005158542771823704,0.0035920715890824795,-0.0036709012929350138
1772535211186751000,10.2217509765625,-0.0015313175972551107,0.0014594122767448425,-0.004369981121271849
1772535211196767000,10.23176708984375,-0.00014940333494450897,0.0019624833948910236,-0.0033846113365143538
1772535211206782700,10.24178271484375,-0.001910019083879888,0.0035185683518648148,-0.0034325483720749617
1772535211216798700,10.251798828125,0.00007403588097076863,0.00035366779775358737,-0.0046701193787157536
1772535211226814700,10.261814697265624,-0.000728907180018723,0.0026317357551306486,-0.004381965380162001
1772535211236830700,10.271830810546875,-0.0002324939559912309,0.0022058964241296053,-0.006988401059061289
1772535211246846700,10.2818466796875,-0.0005914880894124508,0.002585130510851741,-0.005422195885330439
1772535211256862700,10.29186279296875,0.0007099987124092877,0.0030770162120461464,-0.002983539365231991
1772535211266878700,10.301878662109376,-0.0008415589109063148,0.0031063109636306763,-0.003382747294381261
1772535211276894500,10.31189453125,-0.0005597964627668262,0.002584864152595401,-0.004403270315378904
1772535211286910700,10.32191064453125,-0.0007171892793849111,0.0016221314435824752,-0.0037204360123723745
1772535211296926700,10.3319267578125,-0.0006351639167405665,0.00043036683928221464,-0.00512711750343442
1772535211306942700,10.341942626953125,-0.000037017940485384315,0.003010969841852784,-0.004911934491246939
1772535211316958700,10.351958740234375,0.00017124126316048205,0.002389388158917427,-0.0037910097744315863
1772535211326974700,10.361974609375,-0.0027177559677511454,0.0029502499382942915,-0.003991279285401106
1772535211336990700,10.37199072265625,-0.0014152037911117077,0.002779274946078658,-0.0036008600145578384
1772535211347006700,10.3820068359375,0.0003664509567897767,0.0028037759475409985,-0.004561994690448046
1772535211357022700,10.392022705078125,-0.001210939371958375,0.0013731258222833276,-0.005242698825895786
1772535211367038700,10.402038818359374,-0.0006026733317412436,0.0038986015133559704,-0.005411277059465647
1772535211377054700,10.4120546875,-0.0006564692012034357,0.0029585056472569704,-0.004160390235483646
1772535211387070700,10.42207080078125,-0.0017249294323846698,0.002523611532524228,-0.005501291714608669
1772535211397086700,10.432086669921874,0.0006868292111903429,0.0034818167332559824,-0.005637912079691887
1772535211407102500,10.4421025390625,-0.0009406284661963582,0.0023190807551145554,-0.004237888380885124
1772535211417118700,10.45211865234375,-0.00040799626731313765,0.003165433183312416,-0.004263987299054861
1772535211427134700,10.462134765625,-0.0005864280392415822,0.0033329459838569164,-0.00398595305159688
1772535211437150700,10.472150634765624,0.00003408846168895252,0.0027113643009215593,-0.0033425334841012955
1772535211447166700,10.482166748046875,-0.0007866977830417454,0.0022005699574947357,-0.004772917367517948
1772535211457182700,10.4921826171875,-0.0009246495319530368,0.002400839701294899,-0.004363855812698603
1772535211467198700,10.50219873046875,-0.001353418454527855,0.0027486486360430717,-0.00544376764446497
1772535211477214500,10.51221435546875,-0.0010998855577781796,0.0026549051981419325,-0.004622448701411486
1772535211487230700,10.522230712890625,-0.0004926847759634256,0.0029148298781365156,-0.003849332919344306
1772535211497246700,10.532246826171875,-0.0001675128296483308,0.0031244205310940742,-0.0046964846551418304
1772535211507262700,10.5422626953125,-0.0006953513366170228,0.0032740901224315166,-0.004608334042131901
1772535211517278700,10.55227880859375,-0.0009896307019516826,0.0029915287159383297,-0.005672799423336983
1772535211527294700,10.562294677734375,-0.0004396878939587623,0.0041273669339716434,-0.0041430797427892685
1772535211537310700,10.572310791015624,-0.00013741910515818745,0.0024802018888294697,-0.004866127856075764
1772535211547326700,10.58232666015625,-0.0012740562669932842,0.0024117587599903345,-0.004451207350939512
1772535211557342700,10.5923427734375,-0.0007515440811403096,0.0032197616528719664,-0.0038453382439911366
1772535211567358700,10.602358642578125,0.0006410228670574725,0.002293247962370515,-0.00487358495593071
1772535211577374700,10.612374755859374,-0.0013584784464910626,0.0011622034944593906,-0.005282646510750055
1772535211587390700,10.622390625,-0.00133903743699193,0.0016974988393485546,-0.006611031014472246
1772535211597406700,10.63240673828125,-0.00019201391842216253,0.002049568807706237,-0.0041486723348498344
1772535211607422500,10.64242236328125,-0.0008261125767603517,0.0031198931392282248,-0.00353428116068244
1772535211617438700,10.652438720703126,-0.0005390237784013152,0.0030565098859369755,-0.00430073868483305
1772535211627454700,10.662454833984375,-0.0009448895580135286,0.0017960357945412397,-0.003858121344819665
1772535211637470700,10.672470703125,-0.0003920173039659858,0.002569684060290456,-0.0055180699564516544
1772535211647486700,10.68248681640625,-0.0001448759576305747,0.00253453035838902,-0.004838164895772934
1772535211657502700,10.692502685546875,-0.00039654469583183527,0.003139067906886339,-0.0034874093253165483
1772535211667518700,10.702518798828125,-0.0018793927738443017,0.003427221905440092,-0.004002198576927185
1772535211677534500,10.712534423828124,-0.001208009896799922,0.003434146288782358,-0.0027920580469071865
1772535211687550700,10.72255078125,-0.0007659250986762345,0.004325506277382374,-0.0035896748304367065
1772535211697566700,10.732566650390625,-0.0013198626693338156,0.0035430695861577988,-0.0033329459838569164
1772535211707582700,10.742582763671875,-0.00010759170982055366,0.003221359569579363,-0.004893558565527201
1772535211717598700,10.7525986328125,-0.001416002749465406,0.0034698324743658304,-0.0038541266694664955
1772535211727614700,10.76261474609375,-0.00015153386630117893,0.0018093516118824482,-0.00452817277982831
1772535211737630700,10.772630615234375,-0.0025238776579499245,0.0008391620358452201,-0.005782255437225103
1772535211747646500,10.782646484375,-0.0011299792677164078,0.0013901700731366873,-0.004598213825374842
1772535211757662700,10.792662841796876,-0.0009986853692680597,0.002377403900027275,-0.004544417839497328
1772535211767678700,10.8026787109375,-0.0005550027708522975,0.00230842805467546,-0.004403004422783852
1772535211777694700,10.81269482421875,-0.0016192019684240222,0.0016652746126055717,-0.0055004931055009365
1772535211787710700,10.822710693359374,-0.0001816275907913223,0.0036911412607878447,-0.005109008401632309
