time,seconds_elapsed,z,y,x
1772534477255591400,0.06159130859375,-1.047715739774704,0.5675162482194602,0.4712582063391804
1772534477265608200,0.071608154296875,-0.66452014003098,0.5704853271581232,0.5782512849844992
1772534477275624200,0.081624267578125,-0.19964812759757042,0.543055176179856,0.7110765048269182
1772534477285641500,0.091641357421875,0.24665713153183458,0.5729430955737829,0.8011800426654517
1772534477295657500,0.101657470703125,0.6315583661496639,0.5962371696606278,0.8390203093033284
1772534477305674200,0.11167431640625,0.9122890321969985,0.6300770415507256,0.7801685265578329
1772534477315690200,0.121690185546875,1.0255512542396783,0.5864942126728594,0.7174857873473316
1772534477325707500,0.13170751953125,0.7718067947953939,0.5529221979387104,0.6678907124426215
1772534477335723500,0.1417236328125,0.4270283117294311,0.647807051769644,0.6921715325444936
1772534477345740300,0.151740234375,0.08140461001098155,0.8734664034582674,0.8792876569576561
1772534477355756300,0.16175634765625,-0.36558921590447424,1.1116080739706753,0.9854727071557193
1772534477365772300,0.171772216796875,-0.7645715828448534,1.2681415747240186,1.103195927195251
1772534477375789300,0.181789306640625,-1.097608190190792,1.3387129482924938,1.2151543000977485
1772534477385805300,0.191805419921875,-1.4281085570573806,1.3454529240719972,1.3491972251668571
1772534477395822300,0.201822265625,-1.542512934872508,1.2257431333251296,1.3764780308023095
1772534477405838300,0.21183837890625,-1.3214087622702122,1.137895046263188,1.2029789283312857
1772534477415855400,0.22185546875,-1.0565881975382565,1.150885899131,0.9129613785006105
1772534477425871400,0.231871337890625,-0.897847249868512,1.2489806549191473,0.7111728778734803
1772534477435888400,0.241888427734375,-0.7797884411990642,1.384826464691758,0.6143840901173651
1772534477445904100,0.251904052734375,-0.6264437996149063,1.4254093811012805,0.7034181720934808
1772534477455921400,0.26192138671875,-0.5223685081124305,1.3714187015861272,0.8840453728787601
1772534477465937400,0.2719375,-0.3609083646118641,1.2586314035788178,1.051820544745028
1772534477475953400,0.281953369140625,-0.14109247825443744,1.1819320486493408,1.096979536898434
1772534477485970200,0.29197021484375,0.022042904981970785,1.1809820544481278,1.04595589049533
1772534477495986200,0.301986083984375,-0.06553016453087329,1.2013935588359832,1.1547490042999387
1772534477506003500,0.31200341796875,-0.3744955759376287,1.188359305217862,1.2568185089379549
1772534477516019500,0.32201953125,-0.7044131744801998,1.08766225797683,1.1691437326163052
1772534477526036200,0.3320361328125,-0.6353893226146697,0.9731814539246261,1.0872193365149199
1772534477536052500,0.342052490234375,-0.5343319176286458,0.9182526167765259,0.9376961529150605
1772534477546069500,0.352069580078125,-0.42454993891716003,0.8942727523826062,0.8157920669943094
1772534477556085200,0.362085205078125,-0.19745850859880446,0.8167582816779613,0.8136698141433298
1772534477566102500,0.3721025390625,-0.13068097435533998,0.6847235546261071,0.9245097774751484
1772534477576118500,0.382118408203125,-0.07593816129863262,0.4980724173761904,1.1038985225066542
1772534477586134500,0.392134521484375,-0.053122518378496165,0.3014521131671965,1.3079963229894638
1772534477596151300,0.4021513671875,-0.12552782937586307,0.11792217667773365,1.4053933057717978
1772534477606167600,0.41216748046875,-0.09395663307011128,0.08160100936591624,1.4450379184179007
1772534477616184600,0.4221845703125,-0.008860767325758934,0.1628213488511741,1.4736867975361645
1772534477626200300,0.432200439453125,0.025343700093030927,0.23379253539219497,1.5055359340004622
1772534477636217300,0.44221728515625,0.031124621582031248,0.3095022947624326,1.6008746690787374
1772534477646233600,0.452233642578125,-0.17876432952284813,0.3434393434166908,1.6769916940756142
1772534477656250400,0.46225048828125,-0.31076281621754165,0.3857303789183497,1.6575290148451924
1772534477666266400,0.472266357421875,-0.2921305964618921,0.4423134130142629,1.674780593897402
1772534477676283400,0.482283447265625,-0.3166431064277887,0.49967429961487647,1.7350526917695999
1772534477686299600,0.492299560546875,-0.29521687203943725,0.4796648001566529,1.7852431022189557
1772534477696315600,0.502315673828125,-0.09166004656553269,0.4197517448551953,1.8019392393454907
1772534477706332400,0.51233251953125,0.12940554759204387,0.39497400808185334,1.8270405089847743
1772534477716348400,0.522348388671875,0.2134381680190563,0.3699795598179102,1.8263949045576153
1772534477726365400,0.532365478515625,0.11599427735507488,0.3463476320788264,1.8036795071415601
1772534477736381400,0.54238134765625,0.0012356792747974395,0.3289540142074227,1.7111127209946513
1772534477746398500,0.5523984375,-0.09718611651062965,0.3736889357298612,1.64397935905084
1772534477756414500,0.56241455078125,-0.29910744973719117,0.42997459431439633,1.5649121059462427
1772534477766431200,0.57243115234375,-0.6454027671068906,0.4373603206515312,1.3980964267618954
1772534477776447500,0.582447509765625,-0.9091320294708013,0.49089755731076,1.166013033375144
1772534477786464500,0.592464599609375,-0.9081938718378544,0.6432651705563068,1.0314037796601652
1772534477796480500,0.60248046875,-0.9228934283196926,0.7759852495238184,0.9617613575048745
1772534477806497300,0.612497314453125,-1.044485671812296,0.7967742089219391,1.038840067140758
1772534477816513500,0.622513427734375,-1.0572212347447871,0.7074808914877474,1.2373498383581638
1772534477826529500,0.632529541015625,-0.883278041768074,0.5966529108546674,1.3583810869671404
1772534477836546300,0.64254638671875,-0.7301806529432535,0.5359481206536293,1.3412106103271244
1772534477846562300,0.652562255859375,-0.5294985061228275,0.5170166256904601,1.1554352329984308
1772534477856579600,0.66257958984375,-0.1796276683539152,0.4367369280561805,0.8782854941777885
1772534477866595600,0.672595703125,-0.12585633067786692,0.34828605279549957,0.6156758834935724
1772534477876612400,0.6826123046875,-0.2723117972701788,0.24400077180415392,0.3011990151889622
1772534477886628400,0.69262841796875,-0.3098568072885275,0.1733884817034006,0.17263459459617733
1772534477896645600,0.702645751953125,-0.5343237343221903,0.1218555706039071,0.12114654555171728
1772534477906661600,0.71266162109375,-0.8010252904951572,0.07805091566890478,0.13923559834137558
1772534477916678400,0.722678466796875,-0.9206891962736844,0.01280278294980526,0.20508491182401775
1772534477926694400,0.7326943359375,-1.037368533283472,-0.04101590099930763,0.24003829791396855
1772534477936710400,0.74271044921875,-1.0529384428590536,-0.008358663022518158,0.13269772100523114
1772534477946727400,0.7527275390625,-0.8417004152327775,0.13326222302019594,-0.058775575704127545
1772534477956743400,0.762743408203125,-0.6238660580813884,0.24535335545688866,-0.23681933586746454
1772534477966760400,0.772760498046875,-0.49358548122048373,0.29193595067262645,-0.20379136488214133
1772534477976776400,0.7827763671875,-0.1964110453724861,0.3448030329853296,-0.04746931492239236
1772534477986793500,0.79279345703125,0.23540742324292657,0.4822366964712739,0.14168722927719354
1772534477996809500,0.8028095703125,0.4880360303997993,0.6027145489811897,0.40886224818080663
1772534478006826500,0.812826416015625,0.5398275924354792,0.6280597103789448,0.6177258017607032
1772534478016842200,0.82284228515625,0.38478900641500946,0.5207143111646175,0.7181587912380695
1772534478026859500,0.832859619140625,0.1388379773259163,0.45533699910789727,0.8087683058373629
1772534478036875500,0.84287548828125,-0.138497201064229,0.5258393990933895,0.6804504073515534
1772534478046891500,0.8528916015625,-0.4333873253673315,0.6712590928971767,0.31315584883391856
1772534478056908300,0.862908203125,-0.8038093682557343,0.7282055534780025,-0.013109656941890716
1772534478066924300,0.87292431640625,-0.2958095772355795,0.8818690517529845,-0.46645972001627084
1772534478076941600,0.882941650390625,0.1318389122188091,0.6441007445976138,-0.8409431671246885
1772534478086957600,0.89295751953125,0.2878881365865469,0.3488689672499895,-0.6078307229511439
1772534478096974300,0.902974365234375,0.07061725853681564,0.17894465452581643,-0.3086608755022287
1772534478106990300,0.912990234375,-0.017217092260718346,-0.01196311725527048,-0.4176851677142083
1772534478117007600,0.923007568359375,0.2034305687457323,-0.11332739623337984,-0.5431501609869301
1772534478127023400,0.9330234375,0.11686346140503882,0.026455460727214813,-0.44825946193709965
1772534478137040400,0.943040283203125,0.11755611984431744,0.22613486024588345,-0.21648177349865436
1772534478147056400,0.953056396484375,0.14194997186660765,0.4193982552424073,-0.00901142784282565
1772534478157073400,0.963073486328125,0.17793138583004472,0.49196372523754833,0.1672586006462574
1772534478167089400,0.97308935546875,0.25029578029513355,0.6147980777457356,0.32408596977964044
1772534478177105400,0.98310546875,0.4126467351555824,0.719756289562583,0.5004021754980087
1772534478187122400,0.993122314453125,0.46630701367259025,0.7522548298463225,0.696117712887004
1772534478197138400,1.003138427734375,0.4774976852506399,0.791493492040038,0.937265214151889
1772534478207155500,1.013155517578125,0.5313958641767501,0.811068837864697,1.1827125315025449
1772534478217171500,1.02317138671875,0.5138064314723014,0.7474094356417655,1.4283122629359364
1772534478227188200,1.033188232421875,0.444376921415329,0.6506374528899789,1.6700167404964565
1772534478237204500,1.04320458984375,0.40524668803215025,0.6013561201095581,1.768029078698158
1772534478247221500,1.053221435546875,0.4088081799060106,0.6271946179822087,1.7267454666733741
1772534478257237500,1.063237548828125,0.3970879314959049,0.6259720904499292,1.7024305251061915
1772534478267254300,1.073254150390625,0.3094020492583513,0.6060083298295736,1.6730866494610905
1772534478277270500,1.0832705078125,0.05481295568346977,0.6026850306257605,1.690387036091089
1772534478287286500,1.09328662109375,-0.10910217975378037,0.6169806824818254,1.7809931896895168
1772534478297303600,1.103303466796875,-0.10931026954650878,0.6181921040982008,1.8426865525364875
1772534478307319300,1.1133193359375,-0.17162731724977492,0.5747571592584252,1.852224780732393
1772534478317336600,1.123336669921875,-0.18681494950950145,0.5376996404960751,1.8759566617146133
1772534478327352600,1.1333525390625,-0.12038695935606956,0.5512853905171156,1.741057777403295
1772534478337369300,1.143369384765625,0.07582651761770248,0.5502104547619819,1.5320803881853817
1772534478347385300,1.15338525390625,0.34004444028139114,0.49447716936320063,1.3806488867461681
1772534478357402600,1.163402587890625,0.5950181492596864,0.4116916263878345,1.2522576307632027
1772534478367418600,1.173418701171875,0.75396601767838,0.3641802258893847,1.1235548246130347
1772534478377435400,1.183435302734375,0.9387754725843668,0.3495791613459587,1.0384257872514426
1772534478387451400,1.193451416015625,1.0542506945013999,0.2574336693510413,0.9838852187685668
1772534478397467400,1.20346728515625,1.0790396833211182,0.15693740537911652,0.981815207561478
1772534478407484400,1.213484375,1.0892688163906334,0.1020154363632202,0.9753606976598501
1772534478417500400,1.22350048828125,0.9118354432106017,0.06802782656550407,0.933368352843821
1772534478427517400,1.233517333984375,0.8679016089379787,-0.07033288863748312,0.8250517705097794
1772534478437533400,1.243533447265625,0.7127852815061807,-0.19290917473137378,0.6502787025801837
1772534478447550500,1.253550537109375,0.5613923585116863,-0.33219489582479,0.5500719230741262
1772534478457566500,1.26356640625,0.5622691413462162,-0.3774690387904644,0.5224960800148546
1772534478467583500,1.27358349609375,0.5620359171122312,-0.3375686978176236,0.49113414254561066
1772534478477599500,1.283599609375,0.558578470134735,-0.33471009351611136,0.5107292159840464
1772534478487616500,1.293616455078125,0.48728550429344175,-0.38992403121590613,0.567748741801083
1772534478497632500,1.303632568359375,0.2376075636357069,-0.3875692847833037,0.6070838501065969
1772534478507648500,1.3136484375,-0.038513562789559364,-0.44899303690865633,0.5830879113607108
1772534478517665300,1.323665283203125,-0.19614274982511995,-0.5593589529879391,0.46198710464686155
1772534478527681300,1.333681396484375,-0.38505730196237564,-0.6277000832863152,0.37406770591437816
1772534478537698300,1.3436982421875,-0.5904921962678432,-0.6557001431070267,0.327952874340862
1772534478547714300,1.35371435546875,-0.7133885080963372,-0.663995385504514,0.34123891076296564
1772534478557731000,1.36373095703125,-0.9230535873174667,-0.6222600841894745,0.44732934148013587
1772534478567747000,1.3737470703125,-1.1570733555942774,-0.6133502170249819,0.5534102737165987
1772534478577764400,1.383764404296875,-1.3949550599962472,-0.5255573672816157,0.5608239109739661
1772534478587780400,1.3937802734375,-1.612376160171628,-0.5105407076746225,0.5400267682693899
1772534478597797000,1.403797119140625,-1.4895909075021743,-0.5940370292678475,0.5645822405941784
1772534478607813000,1.413813232421875,-1.0983575472533702,-0.5336778376340866,0.5102100144155324
1772534478617830400,1.423830322265625,-0.6503454842060804,-0.4507330124437809,0.4926838562056422
1772534478627846100,1.43384619140625,-0.49150925946831703,-0.3446228541128337,0.5973907236099243
1772534478637862100,1.443862060546875,-0.5320785857439041,-0.2518918173149228,0.8344999823346734
1772534478647879200,1.453879150390625,-0.6136170512676239,-0.24396131657660006,0.9881161343365907
1772534478657895200,1.463895263671875,-0.7356734051406383,-0.1449159820653498,0.9556142330519855
1772534478667912200,1.473912109375,-0.887543297997117,-0.048564708943665026,0.9522240060918032
1772534478677928200,1.48392822265625,-0.9338590589702129,0.036995705572515726,1.0084411294847726
1772534478687945200,1.4939453125,-1.0176993716955185,0.10220715954303741,1.044418451794982
1772534478697961200,1.503961181640625,-1.0021335537731646,0.10050459340885282,1.096100269845873
1772534478707978200,1.513978271484375,-0.9480354683607816,0.24719021549522877,1.090460218132287
1772534478717994200,1.523994140625,-0.972063409680128,0.454953260487318,1.1033746447630226
1772534478728011000,1.534010986328125,-1.0522259106755256,0.5553980865329504,1.1666928323328494
1772534478738027000,1.544027099609375,-1.2133996384501458,0.6257772985301912,1.264517685138434
1772534478748043300,1.554043212890625,-1.544967342287302,0.6860539264470339,1.3281729957081376
1772534478758060300,1.564060302734375,-1.6733856324076652,0.6933724327668547,1.3134941897533834
1772534478768076300,1.574076171875,-1.5672329501092432,0.6975334979690611,1.2878240341849625
1772534478778093000,1.584093017578125,-1.3215741819649933,0.8497504506975412,1.2502099044531583
1772534478788109300,1.594109375,-0.8861509668558836,1.0193271190278232,1.2513551289655267
1772534478798126300,1.604126220703125,-0.5321785389870405,1.1385557021290063,1.2211980372413993
1772534478808142000,1.61414208984375,-0.15709434950649737,1.2656531189091502,1.1645014597684145
1772534478818159000,1.6241591796875,0.1274427230864763,1.3081512212902306,1.1773115492418407
1772534478828175400,1.63417529296875,0.3339157282680273,1.328572370289266,1.335363783995062
1772534478838192000,1.644192138671875,0.43417233826518054,1.4590180745840071,1.4722614409081638
1772534478848208100,1.6542080078125,0.5114408713847398,1.6019681634038685,1.578927625686675
1772534478858224000,1.66422412109375,0.4447282190710306,1.6636945517376065,1.7250873242028057
1772534478868241400,1.674241455078125,0.39608255384564395,1.678411205484718,1.7867505841724574
1772534478878257200,1.684257080078125,0.24140111069977283,1.7332931347511709,1.7606679022803902
1772534478888274200,1.694274169921875,0.08122749987840652,1.7272087002709506,1.6357489985831082
1772534478898290200,1.704290283203125,0.13574702557325363,1.578278806389123,1.4880258501425385
1772534478908307200,1.71430712890625,0.2265226905196905,1.5347737189225852,1.3832371496737002
1772534478918323200,1.7243232421875,0.29788346090018747,1.4874828293070197,1.291166184219718
1772534478928340200,1.73434033203125,0.3359598013162613,1.3325051796935499,1.2670708767525851
1772534478938356200,1.744356201171875,0.17659399974644183,1.1556000681713223,1.231470717191696
1772534478948373000,1.754373046875,-0.07597732426524162,1.0083952445164321,1.1927322596050798
1772534478958389200,1.76438916015625,-0.4481564399540424,0.8457625501051544,1.1399814971484243
1772534478968406300,1.77440625,-0.7551765625119209,0.6159015089429914,1.0366519094467161
1772534478978422300,1.78442236328125,-0.9709791215747594,0.47266398148387667,0.9838944249883294
1772534478988438000,1.79443798828125,-1.0719985326379537,0.395811189558357,0.9821972656816244
1772534478998455300,1.804455322265625,-1.054375197663903,0.3671083882957697,1.06096027514264
1772534479008471300,1.81447119140625,-0.9925544090449809,0.35105113359466195,1.171953967731446
1772534479018488000,1.824488037109375,-0.9062965137839317,0.3797125799335539,1.2465861609980464
1772534479028504000,1.834504150390625,-0.8018044581741094,0.4191794979251921,1.194960457048565
1772534479038521300,1.844521240234375,-0.6258686300754547,0.38968832276389,1.0048803682632743
1772534479048537300,1.854537353515625,-0.5221791230201721,0.3544141802869737,0.822837747722119
1772534479058554000,1.86455419921875,-0.44205812307894227,0.2710771409086883,0.7671143991954624
1772534479068570000,1.874570068359375,-0.30736148334145547,0.17698241454213856,0.806147894205898
1772534479078587400,1.88458740234375,-0.14278583816885948,0.16586378528699278,0.8758215882822871
1772534479088603100,1.89460302734375,0.07930500738322735,0.16153160130158065,0.9777002465233207
1772534479098619100,1.904619140625,0.2945931871831417,0.14032368583902716,1.1007093710765241
1772534479108636200,1.91463623046875,0.3543114505648613,0.1649444784849882,1.1755367946542798
1772534479118652200,1.924652099609375,0.3545750699371099,0.20241759231090545,1.1869016537554562
1772534479128669200,1.934669189453125,0.2934802575051784,0.2325472115062177,1.0572726726710795
1772534479138685200,1.944685302734375,0.21447627889513968,0.18011735156700015,0.856308201777935
1772534479148702200,1.9547021484375,0.18270108444988725,0.029294921936839816,0.7628723777115345
1772534479158718200,1.96471826171875,0.30335750839710235,-0.02419233810082078,0.7147093814365565
1772534479168735200,1.9747353515625,0.43913960528373713,0.0041254093669354916,0.741880735348165
1772534479178751200,1.984751220703125,0.5211608858883381,0.033151012843102214,0.8412655309468507
1772534479188768300,1.994768310546875,0.5422136107891797,0.08926672168821095,0.9327543125987052
1772534479198784000,2.004783935546875,0.5202613067001104,0.1433544318370521,0.9679507136642932
1772534479208801300,2.01480126953125,0.34414719942510125,0.20135843864679334,0.9444618476577102
1772534479218817300,2.0248173828125,0.11522738463580608,0.22508827380239962,0.8871392472408711
1772534479228833300,2.034833251953125,-0.14467735100388526,0.17404782239496708,0.8525023797541856
1772534479238850000,2.04485009765625,-0.47026656495332714,0.15447744500637053,0.8197945806339383
1772534479248866000,2.054865966796875,-0.6180249308377505,0.10042597521468996,0.7701679415471852
1772534479258883300,2.06488330078125,-0.717820353063941,0.06300342253223061,0.7399741710744798
1772534479268899300,2.0748994140625,-0.8213865260004997,0.042471214374154805,0.6729261493265628
1772534479278916000,2.084916015625,-0.8158025883883238,0.010552227544039488,0.6120445412538945
1772534479288932000,2.09493212890625,-0.8624223007440567,0.026586978152394292,0.4799392331838607
1772534479298949000,2.10494921875,-0.8131757470160722,0.029033786782622334,0.29649054523706436
1772534479308965000,2.114965087890625,-0.6660024875432252,0.013487111952155828,0.16282982441857458
1772534479318982100,2.124982177734375,-0.5570131205141544,0.027040567138791084,0.04967603118643164
1772534479328998100,2.134998046875,-0.45976621372699733,0.022518559669703245,0.046841684543341394
1772534479339014400,2.145014404296875,-0.5711211408436297,0.03782937991768121,0.01442746154218912
1772534479349031200,2.15503125,-0.6572212151944636,-0.0397471962377429,-0.0942309199668467
1772534479359047200,2.165047119140625,-0.7028109999805688,-0.07379135852828621,-0.13122545649558304
1772534479369064200,2.175064208984375,-0.8961346007317305,0.021647475923597812,-0.12134440621137618
1772534479379080200,2.185080078125,-1.0213006110578775,-0.004000760073959827,-0.027433219718188045
1772534479389097200,2.19509716796875,-1.0025620083183049,-0.04269654756262898,0.04396642136797309
1772534479399113200,2.20511328125,-0.9144394882291554,0.030991058330237863,0.046334904064983126
1772534479409130000,2.2151298828125,-0.7545318348675966,0.04093991315364837,0.07238251464366913
1772534479419146200,2.225146240234375,-0.6242787305355072,0.021431495085358618,0.11810980820432304
1772534479429163300,2.235163330078125,-0.528708817049861,0.11033099089637398,0.17335311812907456
1772534479439179300,2.24517919921875,-0.4457634073376655,0.2871064846895635,0.2007322695724666
1772534479449196000,2.255196044921875,-0.4365823220163583,0.3789993170976639,0.1736497629880905
1772534479459212300,2.26521240234375,-0.5617255359888077,0.41468247876688835,0.15312661491930485
1772534479469228300,2.275228271484375,-0.6409101318627596,0.4109780712909996,0.12202201321199535
1772534479479245300,2.285245361328125,-0.4981535197883844,0.4192522709004581,0.07693769372999668
1772534479489261000,2.295260986328125,-0.3297007409214973,0.4594675230413675,0.05880465566813945
1772534479499278300,2.3052783203125,-0.1761772356390953,0.47617768869325516,0.15763473999351263
1772534479509294300,2.31529443359375,-0.0720914227426052,0.4888887017063796,0.2578217918857932
1772534479519311000,2.32531103515625,0.13260580493807791,0.5451438190221786,0.2686490369789302
1772534479529327000,2.3353271484375,0.19960195036828518,0.6417185256361961,0.21268588834702967
1772534479539344600,2.3453447265625,0.22900340141952036,0.7165645077839493,0.10112594017758965
1772534479549360600,2.355360595703125,0.2320516830742359,0.7213869595043361,0.002007686560600996
1772534479559377700,2.365377685546875,0.2140127530366182,0.7194673896186053,-0.09836933494582771
1772534479569393700,2.3753935546875,0.24774668033421038,0.7118884787969291,-0.21486615499556064
1772534479579409700,2.38540966796875,0.2981009030431509,0.6918740109026431,-0.2797331794425845
1772534479589426400,2.395426513671875,0.49012628067731856,0.6174138132020831,-0.3712342360541224
1772534479599442400,2.4054423828125,0.4841577276617288,0.5429995004698633,-0.41403322107791896
1772534479609459700,2.415459716796875,0.3531692947924137,0.4573951006814837,-0.44780704199448224
1772534479619475700,2.425475830078125,0.3063689651727676,0.30398396973237396,-0.49366322263181206
1772534479629492500,2.435492431640625,0.20434066932797432,0.22388006705641744,-0.5360274695001542
1772534479639508500,2.445508544921875,-0.005312719455361366,0.20942615589872002,-0.5390834960699081
1772534479649525800,2.45552587890625,-0.19017302776575087,0.16017171112522482,-0.4446080998227
1772534479659541500,2.46554150390625,-0.29904841302633284,0.19084712763503192,-0.37974049085378647
1772534479669558500,2.47555859375,-0.2617746211647987,0.24436565959379075,-0.34679084580168124
1772534479679574500,2.485574462890625,-0.26863573910593985,0.29579145705699916,-0.31520532870963214
1772534479689591600,2.495591552734375,-0.29021511822938917,0.2758575070530176,-0.28905440388694403
1772534479699607600,2.505607666015625,-0.26012276230454445,0.20732363066151738,-0.295876651122421
1772534479709623600,2.51562353515625,-0.24776246242523192,0.15782850899994372,-0.2441322892293334
1772534479719640600,2.525640625,-0.25895488756895063,0.08154781787395476,-0.12674743429869412
1772534479729656600,2.535656494140625,-0.26162147642970085,-0.009840718273818492,-0.02795285967811942
1772534479739673600,2.545673583984375,-0.2959305732667446,-0.08652662919983267,0.13227189680859447
1772534479749689600,2.555689697265625,-0.30266543447971345,-0.14159867421090602,0.21539339374005792
1772534479759706600,2.56570654296875,-0.2530745973587036,-0.14093407282233236,0.27873525444641706
1772534479769722400,2.575722412109375,-0.22345161251127718,-0.11770531905665993,0.40999753582105036
1772534479779739600,2.58573974609375,-0.1785866348683834,-0.0960496598266065,0.49066769407764077
1772534479789755600,2.595755615234375,0.004277531188726425,-0.07239917351752519,0.49472822151482104
1772534479799772400,2.6057724609375,0.20070377413034438,-0.04563742332011461,0.44693435081318017
1772534479809788400,2.615788330078125,0.36367841384708877,-0.05301774282976985,0.4249186260990798
1772534479819805700,2.6258056640625,0.519182279291749,-0.08365648059099912,0.3940009252659976
1772534479829821700,2.63582177734375,0.7335778941661119,-0.1285334409326315,0.33359950192570687
1772534479839837400,2.64583740234375,0.9269558554530143,-0.20284283198565242,0.24744682060480117
1772534479849854500,2.6558544921875,0.9976379959195851,-0.29368484016656876,0.14270079023391008
1772534479859870700,2.66587060546875,1.1750929964095354,-0.4554990578018129,0.028350042302161454
1772534479869887500,2.675887451171875,1.4177555053472517,-0.5900099657088518,-0.09501213347241282
1772534479879903500,2.685903564453125,1.6529460709691046,-0.6006649229750037,-0.14635492882728576
1772534479889920500,2.69592041015625,1.8212094647437334,-0.6427399776384234,-0.16928097331933675
1772534479899936800,2.705936767578125,1.9290531688690185,-0.7484031228542327,-0.14600326584540307
1772534479909953500,2.71595361328125,1.9953034643679857,-0.7909579238586127,-0.14924538957178593
1772534479919969500,2.725969482421875,1.9861153647840022,-0.7898113841719925,-0.20161621280014513
1772534479929986600,2.735986572265625,1.953584383535385,-0.7755212852738798,-0.21683489778526127
1772534479940002600,2.74600244140625,1.8429414040803909,-0.821270206144452,-0.24500278845354914
1772534479950019600,2.75601953125,1.8507436022639274,-0.9334789736114442,-0.360818932762742
1772534479960035600,2.76603564453125,1.8812422009021044,-1.0119527908675372,-0.4909746411349624
1772534479970051600,2.776051513671875,1.8047586806803941,-1.0874249420896172,-0.5422162411376834
1772534479980068600,2.786068603515625,1.6536089187920093,-1.1572982503913343,-0.48518181001245975
1772534479990084600,2.796084716796875,1.4892998156011104,-1.1010071849793195,-0.32995003950744867
1772534480000101600,2.8061015625,1.2476374236166476,-1.0224320993058382,-0.21585355859771369
1772534480010117600,2.81611767578125,0.8439134151071309,-1.005479064808786,-0.14511873809583484
1772534480020134700,2.826134765625,0.34897184310257434,-1.0658395716167985,-0.04509345263652503
1772534480030150700,2.836150634765625,-0.14860826071202754,-1.1332387448899448,-0.007308642512932419
1772534480040167700,2.846167724609375,-0.5111071093857288,-1.1958252571843564,-0.1310650783021003
1772534480050183400,2.856183349609375,-0.8596908299535513,-1.313577922514081,-0.2512875678114593
1772534480060200700,2.86620068359375,-1.204411445352435,-1.5025415744900703,-0.22699403435848653
1772534480070216700,2.876216796875,-1.4609493349075318,-1.5803414380073546,-0.20472060855627058
1772534480080233500,2.8862333984375,-1.6899696874618528,-1.5453446511670945,-0.2146931365162134
1772534480090249500,2.89624951171875,-1.8772206903010606,-1.585058383526653,-0.17639891556575893
1772534480100265500,2.906265380859375,-1.9291075294047593,-1.5430774368874727,-0.16404278040491044
1772534480110282800,2.91628271484375,-1.8377233771711587,-1.3431402632154523,-0.1809825170289725
1772534480120298800,2.926298828125,-1.7381062341213225,-1.1649176393538714,-0.04311981447599828
1772534480130315500,2.9363154296875,-1.6710697566807269,-1.0456503316774963,0.08304667812958359
1772534480140331500,2.94633154296875,-1.61498312779963,-0.9405221701212226,0.1152187629379332
1772534480150348500,2.9563486328125,-1.5546359188646077,-0.7665215478688479,0.06812025408931076
1772534480160364500,2.966364501953125,-1.571366104391217,-0.5804099243231118,-0.014281294537149368
1772534480170381600,2.976381591796875,-1.5514707328319548,-0.4873886724069714,-0.0643224327089265
1772534480180397600,2.9863974609375,-1.5773732358515262,-0.39335020627230405,-0.03725132430139929
1772534480190414600,2.99641455078125,-1.3516940104186534,-0.3074956311151385,0.06525401447061449
1772534480200430600,3.0064306640625,-1.1763070483744145,-0.129478028306365,0.20439492026586084
1772534480210447600,3.016447509765625,-1.0068301871567964,0.04184782177880406,0.39482941197939214
1772534480220463600,3.026463623046875,-0.8472989658921957,0.1692535738557577,0.49406694459449496
1772534480230479400,3.036479248046875,-0.7235095046162605,0.265339912430942,0.6174395321652293
1772534480240496600,3.04649658203125,-0.6575988163352012,0.351682271105051,0.7486500833526253
1772534480250512600,3.0565126953125,-0.7408020002007484,0.44729806955903767,0.8936546204842627
1772534480260529400,3.066529296875,-0.7811123832792043,0.5164265508428215,0.9906944603919983
1772534480270545400,3.07654541015625,-0.7810323037803173,0.5922567217223346,0.9753321291524917
1772534480280562700,3.086562744140625,-0.7700923920929431,0.6631639031164348,0.9460518933281302
1772534480290578700,3.09657861328125,-0.5986567980229854,0.7220451311521232,0.8885784862637519
1772534480300595500,3.106595458984375,-0.4488800780534744,0.7934297207996249,0.7723989154696465
1772534480310611500,3.116611572265625,-0.16069968052208422,0.852908330206573,0.6511398494541645
1772534480320628700,3.126628662109375,0.23749767352044582,0.8966242839448153,0.5101121800642461
1772534480330644500,3.13664453125,0.4994780463904142,1.0055484767831862,0.36351189817376434
1772534480340660500,3.146660400390625,0.7059656646192073,1.063279219609499,0.30557332128304987
1772534480350677500,3.156677490234375,0.777103147637844,1.0976432615041731,0.2792911712961271
1772534480360693500,3.166693603515625,0.7586410237520933,1.1476968938313423,0.2734263891822658
1772534480370710500,3.17671044921875,0.8320692480564117,1.1060796659380197,0.35229748039394615
1772534480380726500,3.1867265625,0.796012430769205,1.1091574659481644,0.41573352218978105
1772534480390743600,3.19674365234375,0.750612615597248,1.0774882160954178,0.4575795538702979
1772534480400759600,3.206759521484375,0.718478524711728,1.0100254760667682,0.4202450082648545
1772534480410776600,3.216776611328125,0.6304004282861948,0.938257440059632,0.3085957378441468
1772534480420792600,3.22679248046875,0.6807815390020608,0.8145113795340061,0.14865199025589973
1772534480430809600,3.2368095703125,0.7378010648190975,0.6708211398713291,0.09786936780074611
1772534480440825300,3.246825439453125,0.7089858892232179,0.551468199738115,0.14562887957505882
1772534480450842600,3.256842529296875,0.6947732394754886,0.45245150679945945,0.22296010266728697
1772534480460858600,3.266858642578125,0.6707324386745691,0.3555985677659511,0.29396519147790967
1772534480470874600,3.27687451171875,0.5478203447550535,0.3358000807099044,0.41079818467944856
1772534480480891400,3.286891357421875,0.3440051606059074,0.3268998581565916,0.5799044955516234
1772534480490907600,3.29690771484375,0.23909400280117987,0.3054271542780101,0.7241869654864073
1772534480500924700,3.306924560546875,0.13405834183394907,0.36008112000748516,0.8405867549024522
1772534480510940700,3.316940673828125,0.10980945124030113,0.36740459476336834,0.9620080988075583
1772534480520957400,3.32695751953125,0.25583997041881085,0.35417087305039163,0.984636329396814
1772534480530973700,3.3369736328125,0.5127770884245634,0.3587022328697145,0.9519798220723867
1772534480540990700,3.34699072265625,0.7714449757456779,0.3937624403350055,0.9239992706697434
1772534480551006700,3.3570068359375,0.9651865096479654,0.3807579973332584,0.9061809976454823
1772534480561023700,3.367023681640625,1.154410858386755,0.3106463502310216,0.9085798024155199
1772534480571039700,3.377039794921875,1.1319622952133417,0.2803907665684819,0.8801619555741548
1772534480581056800,3.387056884765625,0.9953782342940568,0.2317715509586036,0.8727614700593054
1772534480591072800,3.39707275390625,0.9692261404275894,0.08284867133945226,0.8064805602263658
1772534480601088800,3.4070888671875,0.9585463409811258,-0.009173194275796413,0.7119196045875549
1772534480611105800,3.417105712890625,0.878917508471012,-0.07417787362784146,0.697054482280463
1772534480621121500,3.42712158203125,0.8424503568172454,-0.1799913870997727,0.6600789427131414
1772534480631138800,3.437138916015625,0.9009218350082635,-0.25411811506226656,0.5892815783690661
1772534480641154800,3.44715478515625,0.8248638467222452,-0.2515701841451228,0.5738162251465022
1772534480651171600,3.457171630859375,0.5964765313744544,-0.2293865555182099,0.6102503513135016
1772534480661187600,3.4671875,0.34166005878448485,-0.2502500414572656,0.6335729939077049
1772534480671204900,3.477204833984375,0.15990005457699297,-0.2953061577580869,0.5251457908060402
1772534480681220900,3.487220947265625,0.05809855322539806,-0.34439766705483194,0.33635311148278413
1772534480691237600,3.497237548828125,-0.03998246629834175,-0.37905060889348385,0.27595716803520914
1772534480701253600,3.507253662109375,-0.15854279474914074,-0.41409634944200513,0.25198672905676067
1772534480711270000,3.517269775390625,-0.2633212660849094,-0.503046990918368,0.26834347816109655
1772534480721286700,3.52728662109375,-0.5569277803182602,-0.5778754374094307,0.33197460413761437
1772534480731302700,3.537302734375,-0.9999217229425906,-0.5402310586698353,0.2761769482657313
1772534480741319700,3.547319580078125,-1.1531728410243987,-0.5876939438514411,0.18991634959094225
1772534480751335700,3.557335693359375,-1.2948352281212805,-0.5663131560400128,0.15089030723460017
1772534480761352700,3.567352783203125,-1.3368535841614007,-0.48277591791450974,0.14409692076742647
1772534480771368700,3.57736865234375,-1.363852650246024,-0.45574484925642605,0.15341807214654982
1772534480781385700,3.5873857421875,-1.292147011950612,-0.4649858480714261,0.16722272561527787
1772534480791401700,3.597401611328125,-1.202589490622282,-0.3496124790936708,0.15608517246395348
1772534480801418800,3.607418701171875,-1.246557227164507,-0.18360563207417727,0.22168219168595968
1772534480811434800,3.617434814453125,-1.2888596608430147,-0.08051759804338217,0.31871655170097946
1772534480821451800,3.62745166015625,-1.4152987598448992,0.015381985788047312,0.26495303200520576
1772534480831467500,3.637467529296875,-1.5211299551039934,0.1341670629054308,0.21290128466337918
1772534480841483800,3.64748388671875,-1.5879671105802058,0.23256518555432557,0.17807210947498678
1772534480851500800,3.657500732421875,-1.6405834330022333,0.27771102596521374,0.19311850663311778
1772534480861516800,3.667516845703125,-1.6320990977734326,0.2794948406420648,0.23473741502687334
1772534480871533600,3.677533447265625,-1.68365275940001,0.3125990917339921,0.2583728498972952
1772534480881549800,3.6875498046875,-1.6711521742671727,0.41315395402535793,0.27875476286448536
1772534480891566800,3.69756689453125,-1.651658369246125,0.43330081612765786,0.3292967632304877
1772534480901582600,3.70758251953125,-1.674275859245658,0.3848601719550788,0.25495799995251
1772534480911599600,3.717599609375,-1.6078630666613578,0.3103606651574373,0.14540588447414338
1772534480921616000,3.727615966796875,-1.3932009098052978,0.31718831922039387,0.012952493618801235
1772534480931632600,3.737632568359375,-1.0568535704761743,0.3811132405117154,-0.12024813540726899
1772534480941648600,3.747648681640625,-0.6623100627660751,0.4590079427056014,-0.23349676731601357
1772534480951664600,3.75766455078125,-0.23602818548977372,0.5432042292617261,-0.34084585632476955
1772534480961682000,3.767681884765625,0.10770517243742943,0.6147592070400715,-0.41245051846373826
1772534480971698000,3.777697998046875,0.35202713901996613,0.6856738410882651,-0.5470500179696828
1772534480981714700,3.787714599609375,0.44252223345935343,0.762280257037282,-0.6728538878079503
1772534480991730700,3.797730712890625,0.4755015429973602,0.7994872672729194,-0.7091403491325676
1772534481001748000,3.807748046875,0.37824879099130626,0.8494254565268754,-0.7791716244749725
1772534481011763700,3.817763671875,0.43107378772795196,0.8518934540756046,-0.8233982311490923
1772534481021780700,3.82778076171875,0.554272297373414,0.8827407200209796,-0.8477480978991836
1772534481031796700,3.837796630859375,0.6657184099048375,0.9318018341794609,-0.8669456964526325
1772534481041813800,3.847813720703125,0.8326485092490911,0.895738002629578,-0.8631227040983735
1772534481051829800,3.857829833984375,0.8751467577606439,0.8827902582511306,-0.8764658775351941
1772534481061846800,3.8678466796875,0.9388877007871865,0.8266533604875207,-0.9509726908564567
1772534481071862800,3.87786279296875,0.9612234512358904,0.7370501003213227,-1.1433411097746342
1772534481081878800,3.887878662109375,0.8870663281351328,0.7074971119701862,-1.3250655312120914
1772534481091895800,3.897895751953125,0.7834270899623632,0.6329919060841203,-1.3874474608451126
1772534481101911800,3.907911865234375,0.66438979164958,0.5105180574513971,-1.3730237986952065
1772534481111928600,3.917928466796875,0.6097112760007382,0.3858713948242366,-1.3693728749722243
1772534481121944600,3.927944580078125,0.623238281571865,0.3118330757975578,-1.3198089258581398
1772534481131961900,3.9379619140625,0.6282967340052128,0.3249620219618082,-1.1690921485595405
1772534481141977900,3.947977783203125,0.6197235514491796,0.3256500042259693,-0.9677410164363681
1772534481151994600,3.95799462890625,0.7607651762992144,0.3305529738366604,-0.7646589688673615
1772534481162010600,3.9680107421875,0.9298720351606606,0.41939927815571426,-0.6349607950042933
1772534481172028000,3.97802783203125,1.06178518165946,0.4907781687147915,-0.609972191959247
1772534481182044000,3.9880439453125,1.1748562650442123,0.5033559107370674,-0.5237716529086232
1772534481192060700,3.998060791015625,1.1574889506578445,0.5959731118969619,-0.5245416874330491
1772534481202076700,4.00807666015625,1.0000374582767486,0.5705903949677944,-0.5068297243274748
1772534481212092700,4.0180927734375,0.9392202937424182,0.4588062826536596,-0.4577328812684864
1772534481222109700,4.028109619140625,1.0305851567536592,0.37933936270698904,-0.4534755160849541
1772534481232125700,4.038125732421875,1.0157225186645984,0.28425913243442774,-0.4546425871029496
1772534481242142700,4.048142822265625,1.0633832645058632,0.16625293073505162,-0.4046387852668762
1772534481252158700,4.05815869140625,1.0599883613705634,0.05216054147854447,-0.43551834604665635
1772534481262175700,4.06817578125,1.0162316372305154,-0.08855521241798997,-0.37663039600923653
1772534481272191700,4.078191650390625,1.0592641387492419,-0.24676482969000935,-0.3014964820318855
1772534481282208800,4.088208740234375,1.2286515681177377,-0.3238897165551781,-0.2328550353463739
1772534481292224800,4.098224853515625,1.3226912032961844,-0.402149306538701,-0.0622600933516398
1772534481302241800,4.10824169921875,1.3490098859012125,-0.5913216328293085,0.07339539974695071
1772534481312257800,4.1182578125,1.336080846223235,-0.8501270289249717,0.17252280478477477
1772534481322273800,4.128273681640625,1.1338386104792355,-1.0028815956614912,0.12400631889700889
1772534481332290600,4.13829052734375,0.8431962067484855,-1.1261351964950561,0.009709164316020905
1772534481342306800,4.148306884765625,0.6753928317010403,-1.3360795310489832,0.014935776390507817
1772534481352323800,4.15832373046875,0.6366799469470977,-1.4705056832820176,0.046302755361050364
1772534481362339800,4.16833984375,0.615741203814745,-1.4858642881944775,0.10823409168235958
1772534481372356600,4.178356689453125,0.6131424194931984,-1.512616978302598,0.2072888150764629
1772534481382372900,4.188372802734375,0.5400000263929366,-1.5792537889011202,0.2800165264286101
1772534481392390000,4.198389892578125,0.43903439134359357,-1.6517289502643049,0.3062290087128058
1772534481402405600,4.208405517578125,0.36686873432099815,-1.6585507591083646,0.26526502056382595
1772534481412422700,4.218422607421875,-0.02090250277519226,-1.6670910623081028,0.11434108505425974
1772534481422438700,4.228438720703125,-0.46278936094045636,-1.7963915420904755,-0.10856080288607627
1772534481432455700,4.23845556640625,-0.8003560129314661,-1.9436063026174901,-0.2997457476407289
1772534481442471700,4.2484716796875,-1.0545926398068666,-1.9751208002999423,-0.40833190416377035
1772534481452487700,4.25848779296875,-1.2887205446332692,-1.8472905392006038,-0.35356216656751926
1772534481462504700,4.268504638671875,-1.5434662900745868,-1.6737676174625753,-0.058183824922633354
1772534481472520700,4.278520751953125,-1.5776099672168493,-1.476666397868842,0.2464466305863112
1772534481482537700,4.288537841796875,-1.5625363167256117,-1.2280994871929287,0.34452644453365355
1772534481492553700,4.2985537109375,-1.4930705663114785,-1.029582409451902,0.3329100583568215
1772534481502570800,4.30857080078125,-1.4240133966982365,-0.9571000876955688,0.3602576090855524
1772534481512586800,4.318586669921875,-1.4490303490549326,-0.8576419345997274,0.27354502885956317
1772534481522603800,4.328603759765625,-1.418624104875326,-0.7473791866339743,0.12119892419292591
1772534481532619800,4.338619873046875,-1.2936398808568714,-0.6399801575362682,-0.04554045661850832
1772534481542636500,4.348636474609375,-1.003759109148383,-0.5777769454710185,-0.14438730028243735
1772534481552652500,4.358652587890625,-0.7067454168200492,-0.4368703451775014,-0.1642200366679579
1772534481562668500,4.36866845703125,-0.43699499447047707,-0.23586612679585814,-0.1913391489356756
1772534481572685800,4.378685791015625,-0.3272457489848137,-0.11914835747182369,-0.21406245566355064
1772534481582701600,4.38870166015625,-0.3352554524391889,-0.08695245339646936,-0.27643108742358163
1772534481592718600,4.398718505859375,-0.4293880265980959,-0.11122706295326351,-0.36062154702711846
1772534481602734600,4.408734619140625,-0.6636795975536107,-0.052083384589105844,-0.4797080182438716
1772534481612751600,4.418751708984375,-0.9596177696049213,-0.08454539225473999,-0.6025037192421033
1772534481622767600,4.428767578125,-1.35509475877285,-0.2217645362071693,-0.7170379705145955
1772534481632784600,4.43878466796875,-1.5524059678554534,-0.35524376297891136,-0.7274064389895647
1772534481642800600,4.448800537109375,-1.5837486161023377,-0.3536326745204627,-0.654066477490589
1772534481652817700,4.458817626953125,-1.5655220545381308,-0.31997765767797826,-0.41592557416316117
1772534481662833700,4.468833740234375,-1.4132090940892696,-0.23588600054010747,-0.08383247647872194
1772534481672850700,4.4788505859375,-1.1420856298208235,-0.03458265308141708,0.1290995321164839
1772534481682866700,4.48886669921875,-0.8503530927658081,0.19733999678567052,0.29501468226453287
1772534481692882400,4.49888232421875,-0.5899579432606696,0.4532829891875386,0.454456964870356
1772534481702899700,4.508899658203125,-0.36113866623640056,0.6692766869083047,0.561904180491343
1772534481712915700,4.518915771484375,-0.21792437352240085,0.8078238645941018,0.6121691905468702
1772534481722932500,4.528932373046875,-0.10329495477974414,0.8821252184711397,0.5970466959452256
1772534481732948500,4.538948486328125,-0.05122866745591163,0.9604523207329213,0.49779199299961324
1772534481742965800,4.5489658203125,-0.006131634622812271,1.0289045101903378,0.34219116998650134
1772534481752981800,4.558981689453125,0.05502689069509506,1.0688815696612,0.14216692995238117
1772534481762998500,4.56899853515625,0.11030629484653472,1.0815708092339336,-0.05334584227297455
1772534481773014500,4.5790146484375,0.16632395014464854,1.0793186463929711,-0.2693812054446898
1772534481783031800,4.58903173828125,0.2685404620379209,1.0342178141675888,-0.48070261877179143
1772534481793047600,4.599047607421875,0.28886954883933064,0.9514585746772587,-0.6215927793871611
1772534481803063600,4.6090634765625,0.3474965098530054,0.8825985350713134,-0.7130961010210216
1772534481813080600,4.61908056640625,0.3538742281913757,0.773397571118176,-0.751091923546791
1772534481823096600,4.6290966796875,0.4510118293851614,0.6078564419142901,-0.7597320338591933
1772534481833113600,4.639113525390625,0.43609132362902164,0.5236303447417915,-0.6584709960598498
1772534481843129600,4.649129638671875,0.4339396985530853,0.5076349032305181,-0.4818581454824656
1772534481853146600,4.659146728515625,0.45963060464859007,0.48282852488458156,-0.24502525601368397
1772534481863162600,4.66916259765625,0.47653673126399515,0.509402059033513,-0.011265472113620488
1772534481873179600,4.6791796875,0.46550329607427116,0.6051980363599956,0.16260343178417533
1772534481883195600,4.689195556640625,0.45358840187489985,0.6237832021035253,0.290331164090801
1772534481893212700,4.699212646484375,0.49963294469118114,0.5946225740708411,0.3968570453494787
1772534481903228400,4.709228515625,0.6728969232320785,0.6245066940724849,0.4075646826509386
1772534481913244700,4.71924462890625,0.904261208564043,0.689731445915997,0.35402452338226137
1772534481923261700,4.72926171875,1.1717922012984752,0.6134409640483558,0.27705011437106875
1772534481933277700,4.739277587890625,1.3756652531147002,0.49683995297178624,0.1707531099648215
1772534481943294500,4.74929443359375,1.4845587585538624,0.42574192518070336,0.07167367225456982
1772534481953310700,4.759310791015625,1.6055881074666976,0.302596314766258,0.0007030337028205394
1772534481963327700,4.76932763671875,1.5768091722279787,0.21767010650038718,-0.07925375212002544
1772534481973343500,4.779343505859375,1.4689023397386074,0.11827990407422184,-0.09091350251454859
1772534481983360500,4.789360595703125,1.2633844433248043,0.08040858471095562,-0.0904481317588128
1772534481993376800,4.799376708984375,1.0217214668184518,0.035072336294502016,-0.1102933622997254
1772534482003393500,4.8093935546875,0.8942161998897791,-0.026241671846061944,-0.06186955966409295
1772534482013409500,4.819409423828125,0.650500967028737,-0.04469911955669522,0.021635675887949762
1772534482023426600,4.829426513671875,0.5224532637864351,-0.10092004234194756,0.10440883430577814
1772534482033442600,4.839442626953125,0.5279255577176809,-0.16014759959727526,0.13699797548241913
1772534482043458800,4.849458740234375,0.3932417774617672,-0.20443696930930016,0.12873426073435693
1772534482053475600,4.8594755859375,0.2820791580468416,-0.24755145002305506,0.1278563819212839
1772534482063491600,4.86949169921875,0.2736965296268463,-0.2992377981185913,-0.013268391167558728
1772534482073508600,4.879508544921875,0.3323340120345354,-0.2969460339196026,-0.203684506974183
1772534482083524600,4.889524658203125,0.38539924726784225,-0.2454867725782096,-0.3983568189205602
1772534482093541600,4.899541748046875,0.3315004838198423,-0.2183959365569055,-0.5377954290207475
1772534482103557600,4.9095576171875,0.1928168202728033,-0.1550631359398365,-0.5749949500696733
1772534482113574400,4.919574462890625,-0.029424831926822662,-0.048084378080815074,-0.5833068148083984
1772534482123590700,4.929590576171875,-0.1613578521698713,0.01970145642235875,-0.5946210397008806
1772534482133607700,4.939607666015625,-0.3153209179133177,0.11462181995809077,-0.6692183808498084
1772534482143623700,4.949623779296875,-0.5829921959012746,0.1316444125600159,-0.714848497646302
1772534482153639700,4.9596396484375,-0.8430454001009464,0.06664514003545045,-0.7447071909457444
1772534482163656700,4.96965673828125,-0.9281418503671884,0.00603036620542407,-0.6637195642378181
1772534482173672700,4.979672607421875,-0.9857055660635232,-0.011783522904664277,-0.5042117238488047
1772534482183689500,4.989689453125,-1.0051239677608013,-0.008928133473545312,-0.29173257358763366
1772534482193705500,4.99970556640625,-0.9916472310721873,0.04994622642993927,-0.17117025766465813
1772534482203722800,5.00972265625,-0.9642366615772247,0.1917110509879887,-0.16998583365306258
1772534482213738800,5.01973876953125,-1.1215531294018029,0.3716084761939943,-0.1902677933771163
1772534482223755500,5.029755615234375,-1.121238072103262,0.3616612288057804,-0.2759580448180437
1772534482233771500,5.039771484375,-0.8764473189651966,0.31924569014161824,-0.44975127139743415
1772534482243788800,5.049788818359375,-0.6277846928298473,0.41061449867561456,-0.5571161424972116
1772534482253804800,5.0598046875,-0.3176461459904909,0.5174710914596915,-0.5607569466849789
1772534482263820500,5.069820556640625,-0.06724748984277248,0.5629515706524253,-0.5432307884750888
1772534482273837600,5.079837646484375,0.09620762686729431,0.5806275125965475,-0.5561457630950957
1772534482283853600,5.089853515625,0.06922843452692032,0.6479343314111232,-0.5317912201698869
1772534482293870600,5.09987060546875,-0.048477907443046565,0.6245305133394896,-0.524152468919754
1772534482303886600,5.109886474609375,-0.1710264287471771,0.6461100385934114,-0.5546655344747007
1772534482313903600,5.119903564453125,-0.3952309054523706,0.6552410011626779,-0.6356837755165994
1772534482323919600,5.129919677734375,-0.7066103922635316,0.4812966391421854,-0.7334494454808532
1772534482333936600,5.1399365234375,-0.9139110804408788,0.12780951057225465,-0.7316939070504158
1772534482343952600,5.14995263671875,-0.9789590144127607,-0.008595978909730911,-0.6970948873560875
1772534482353969700,5.1599697265625,-0.8770259956359863,0.044444852534681556,-0.6201094820268451
1772534482363985700,5.169985595703125,-0.8449012571007013,0.0804287507161498,-0.485974860086292
1772534482374002700,5.180002685546875,-0.9258534471690654,0.15422332411482928,-0.3821687409140169
1772534482384018700,5.190018798828125,-0.9658709847807884,0.2826157491415739,-0.36315636273436247
1772534482394034700,5.20003466796875,-1.0129384409040212,0.4086591268241405,-0.2809512499954551
1772534482404051500,5.210051513671875,-1.0651958668857813,0.5382157733246684,-0.1339843267496675
1772534482414067500,5.2200673828125,-1.0312205320477486,0.7156346795879304,-0.0026045564752072096
1772534482424084700,5.230084716796875,-0.9259843800723552,0.8902394052132964,0.09374861634261905
1772534482434100700,5.240100830078125,-0.7384908006489277,1.006149073024839,0.08765373353362083
1772534482444117500,5.250117431640625,-0.5153904857933521,1.0575357075214384,-0.011141498674079774
1772534482454133500,5.260133544921875,-0.36712592395246024,1.0378922648966311,-0.15408808036260305
1772534482464150800,5.27015087890625,-0.32249066341221333,0.9690576519928872,-0.386816639785096
1772534482474166500,5.28016650390625,-0.07218027006983757,0.8122466494724154,-0.7083654192373157
1772534482484183600,5.29018359375,0.11365560527443885,0.699034111790359,-0.9452143465254456
1772534482494199600,5.300199462890625,0.27597265786528585,0.6317091727972031,-1.0637196568533778
1772534482504215800,5.3102158203125,0.3924327991664409,0.5862978133179247,-1.1105682095289229
1772534482514232600,5.320232666015625,0.47189621198177334,0.5182672102734446,-1.118956683167815
1772534482524248600,5.33024853515625,0.537153404790163,0.43920565625727176,-1.1390974077902734
1772534482534265600,5.340265625,0.6072188746631145,0.30783085441887376,-1.0971539436172693
1772534482544281600,5.350281494140625,0.721940063342452,0.24777868290767072,-0.9765187085885554
1772534482554298400,5.36029833984375,0.7979062816917896,0.2103907631471753,-0.836077460784465
1772534482564314400,5.370314453125,0.931805633571744,0.1161794246636331,-0.6476458698585629
1772534482574331600,5.38033154296875,1.1450894878119229,0.053380438662320374,-0.4884800478402525
1772534482584347400,5.390347412109375,1.3141419861376284,0.016736761397868394,-0.2633484463527799
1772534482594364400,5.400364501953125,1.4907897618979216,-0.0744562521778047,-0.02265212292149663
1772534482604380400,5.41038037109375,1.6539122856527566,-0.14919906621202825,0.17563688168469815
1772534482614396400,5.420396484375,1.7009733120352029,-0.1809326134726405,0.28613194056898356
1772534482624413400,5.430413330078125,1.5517355212479829,-0.2691160699687898,0.20409842153731733
1772534482634429400,5.440429443359375,1.4904022238850592,-0.5643827724993229,0.01753806784339249
1772534482644446500,5.450446533203125,1.585993764680624,-0.8346174712345004,-0.13208846653308717
1772534482654462500,5.46046240234375,1.6886001526743173,-0.8728938642673194,-0.29897688216008245
1772534482664479500,5.4704794921875,1.9349878196150063,-0.90604779971987,-0.4591425288707018
1772534482674495500,5.48049560546875,2.151048152831197,-1.0186384061112999,-0.5074167669678107
1772534482684512300,5.49051220703125,2.2653268584400412,-1.119012797269225,-0.4089318062856793
1772534482694528300,5.5005283203125,2.0483914959549905,-1.1320238161422311,-0.22430585472043602
1772534482704545500,5.510545654296875,1.7368623715400695,-1.2611603375345468,-0.18621451766462996
1772534482714561500,5.5205615234375,1.408633456736803,-1.467875627039373,-0.17385341406771912
1772534482724577500,5.53057763671875,1.0629641623109578,-1.5683666303142905,-0.14206526880934833
1772534482734594300,5.54059423828125,0.9483055174738169,-1.6161729221060872,-0.18574037908054888
1772534482744610600,5.550610595703125,0.9086778559625148,-1.6595814173303542,-0.2251007679577917
1772534482754627600,5.560627685546875,0.967100818836689,-1.5773960322052238,-0.22561295526362954
1772534482764643300,5.570643310546875,0.8575088097393512,-1.4466729722738265,-0.16634535825885832
1772534482774660400,5.580660400390625,0.5921791264414787,-1.3728966651841998,0.001071574754267931
1772534482784676600,5.590676513671875,0.16597557509839533,-1.2619298606023193,-0.03899979367023334
1772534482794693400,5.600693359375,-0.3800514564990997,-1.261595660211891,-0.2539952924001962
1772534482804709400,5.61070947265625,-0.7939765410274267,-1.3751732318140566,-0.3999542076472193
1772534482814726400,5.620726318359375,-1.0199012656539679,-1.3131103050023316,-0.4654683708913624
1772534482824742700,5.63074267578125,-1.1741390566855667,-1.1828605616711079,-0.4113071571148932
1772534482834758400,5.64075830078125,-1.3695955778121947,-1.0264978874400257,-0.33295594332516193
1772534482844775400,5.650775390625,-1.6839093645095824,-0.8879466181010007,-0.2622359550662339
1772534482854791400,5.66079150390625,-1.9568921929091214,-0.6930139747180044,-0.31702735650502145
1772534482864808400,5.670808349609375,-2.393388590207696,-0.5839677629351615,-0.6366285820860416
1772534482874824400,5.680824462890625,-2.3948200843155383,-0.5749836614906787,-0.6376975264918059
1772534482884841500,5.690841552734375,-2.221699313637614,-0.5847280797831714,-0.7618989295694977
1772534482894857500,5.700857421875,-1.9007547106236218,-0.47953225981816644,-0.7527139717906713
1772534482904874500,5.71087451171875,-1.615924792563915,-0.3845980138875544,-0.5381866568280383
1772534482914890500,5.720890380859375,-1.464652865600586,-0.2764563497290015,-0.2497066187629476
1772534482924907500,5.730907470703125,-1.3605465944379567,-0.13673749791532755,-0.11280436787311918
1772534482934923500,5.740923583984375,-1.34485568883121,0.019292583360522985,-0.11001748623410239
1772534482944939300,5.750939208984375,-1.5158318486958742,0.19697510899603365,-0.17047157134339214
1772534482954956500,5.76095654296875,-1.6533698493391273,0.272572494032979,-0.10755975435106083
1772534482964972500,5.77097265625,-1.7235183213204144,0.3003464900128543,-0.013897848177514969
1772534482974989300,5.7809892578125,-1.7900351588010788,0.35326413346901536,0.07505222247669008
1772534482985005300,5.79100537109375,-1.8656851508080958,0.3758637955509126,0.196126127483882
1772534482995022600,5.801022705078125,-1.7360341040223837,0.4239966889485717,0.2234684905808419
1772534483005038600,5.81103857421875,-1.4326666587531567,0.5026346107251942,0.12930718351779505
1772534483015055400,5.821055419921875,-0.9901941096544266,0.6308180691763758,0.004484095744648948
1772534483025071400,5.8310712890625,-0.6755985834062099,0.7711227580539882,-0.04162994124442339
1772534483035088600,5.841088623046875,-0.40219256115853785,0.8634962135858834,-0.0448815314854728
1772534483045104400,5.8511044921875,0.11139350556135177,0.9557304067775606,-0.022573580075858624
1772534483055120400,5.861120361328125,0.34242695150375363,1.0686489299491047,0.16119922754205762
1772534483065137400,5.871137451171875,0.47795653493404383,1.142568883293122,0.4144248872766271
1772534483075153400,5.8811533203125,0.7065174532830715,1.205062310476601,0.5577535270852968
1772534483085170400,5.89117041015625,0.7897872726440429,1.2867178265087307,0.5545926153689622
1772534483095186400,5.9011865234375,0.8420201487064362,1.3453580853953957,0.4838650283254683
1772534483105203500,5.911203369140625,0.8356623041123151,1.3031969598837196,0.28477435194756834
1772534483115219500,5.921219482421875,0.7786299188137054,1.2512063681446015,-0.04841098881983198
1772534483125236500,5.931236572265625,0.7485311331480741,1.1807665120013058,-0.22349201758690176
1772534483135252500,5.94125244140625,0.7325655022531747,1.0950978148050605,-0.2960469113891013
1772534483145269500,5.95126953125,0.6990922717183828,0.9845270238034427,-0.3241201643101871
1772534483155285200,5.96128515625,0.583500729945302,0.89772523092404,-0.4136453177388757
1772534483165302500,5.971302490234375,0.36893969537615773,0.8482977676711976,-0.44563868497945364
1772534483175318500,5.981318603515625,0.1648825191646814,0.7375448981009424,-0.38338524056430906
1772534483185334500,5.99133447265625,0.03425765891075134,0.6098210199855267,-0.30774259161353107
1772534483195351300,6.001351318359375,-0.041968087157607074,0.5778136242195964,-0.23682043184600768
1772534483205367600,6.011367431640625,0.0725315677255392,0.6119705992348492,-0.08355499297790228
1772534483215384600,6.021384521484375,0.3552595450699329,0.6806257639184594,0.025300810799375174
1772534483225400300,6.031400390625,0.5756096844345331,0.7425022282473742,0.11669126490959897
1772534483235417300,6.041417236328125,0.770616708227992,0.7575593659952282,0.1552447030518204
1772534483245433300,6.051433349609375,0.9278893369108437,0.732832774887234,0.17793323072725906
1772534483255450400,6.061450439453125,0.9362567677617073,0.7087909511730075,0.120986331755016
1772534483265466400,6.07146630859375,0.7836796034187078,0.6125047061115503,0.09476573922960087
1772534483275483400,6.0814833984375,0.7470973009526729,0.43527664624527096,0.17758114762026816
1772534483285499400,6.09149951171875,0.8024719821721314,0.34990912395268675,0.18236275587361306
1772534483295515600,6.101515625,0.8631552911937236,0.3304826850794256,0.21494278216203674
1772534483305532400,6.111532470703125,0.9578735562860965,0.3016198709495365,0.2817548031969927
1772534483315548400,6.12154833984375,0.9457043950647115,0.25541677657067774,0.21027575846537946
1772534483325565400,6.1315654296875,0.8344786472856998,0.1780067891538143,0.07047752127256245
1772534483335581400,6.14158154296875,0.8041858003526926,0.06026040743440389,-0.02495214349217713
1772534483345598500,6.151598388671875,0.6998644251346587,-0.007688070284575224,-0.08316772895967588
1772534483355614500,6.161614501953125,0.7060574345558881,-0.08347805528417229,-0.09205083598140626
1772534483365631200,6.17163134765625,0.7722469397783279,-0.14365122282654047,-0.05951117823598906
1772534483375647500,6.1816474609375,0.7433464239865542,-0.19014570136740802,-0.05413894714573398
1772534483385664500,6.19166455078125,0.7799778262913226,-0.2541661919876933,-0.022746285744663326
1772534483395680500,6.201680419921875,0.7436462837159633,-0.2285533195644617,0.03847549580149352
1772534483405696500,6.211696533203125,0.46018414687812326,-0.25544717170894143,0.10271025022696703
1772534483415713500,6.221713623046875,0.12309738735854625,-0.2802332379192114,0.20287437790138646
1772534483425729500,6.2317294921875,-0.08561550570428371,-0.24498349923118948,0.20057079540044068
1772534483435746300,6.241746337890625,-0.3095557785153389,-0.21725524208918212,0.11478753191381692
1772534483445762300,6.25176220703125,-0.3449415646731853,-0.2479385496445,0.058158667648490515
1772534483455779600,6.261779541015625,-0.3655985682547092,-0.3086184976652264,0.05447754971664399
1772534483465795600,6.271795654296875,-0.354431277552247,-0.3569721942067146,0.033344014664553105
1772534483475812400,6.281812255859375,-0.4122223722636699,-0.4376977359123528,-0.08930524533400312
1772534483485828400,6.291828369140625,-0.6342816536337137,-0.5647136118888855,-0.26603732011057435
1772534483495845600,6.301845703125,-0.8832657668083905,-0.7024361753188073,-0.47883061435483393
1772534483505861600,6.311861572265625,-1.1099573841542005,-0.7359859782211482,-0.6735881203666328
1772534483515877400,6.32187744140625,-1.3313386201322077,-0.6847856600768863,-0.752245988952741
1772534483525894400,6.331894287109375,-1.4843869091182946,-0.6354276087984443,-0.7104435406856239
1772534483535910400,6.341910400390625,-1.5571943711757659,-0.5592737589225173,-0.7143415710374712
1772534483545927400,6.351927490234375,-1.6247510730981827,-0.5447726476222277,-0.7044489033807069
1772534483555943400,6.361943359375,-1.4101526291280984,-0.4742275775387883,-0.7490583718925714
1772534483565960400,6.37196044921875,-1.1362217062234878,-0.28907427763119337,-0.7669082090988755
1772534483575976400,6.3819765625,-0.8266057219535112,-0.19097601471170783,-0.7221981297567487
1772534483585993500,6.391993408203125,-0.5438946957439184,-0.02565378895550966,-0.6211728734746575
1772534483596009500,6.402009521484375,-0.43683775808215136,0.19551482718512414,-0.46445407928228377
1772534483606026500,6.412026611328125,-0.2810644280463457,0.262601281247288,-0.27505386251993474
1772534483616042500,6.42204248046875,-0.26656360900700093,0.3146408266946673,-0.12042758362740277
1772534483626059500,6.4320595703125,-0.40630291908681393,0.2584491300038993,0.005434300008416175
1772534483636075500,6.442075439453125,-0.5126180984705686,0.14296864738985895,0.07024743884373456
1772534483646091500,6.452091552734375,-0.5356669656246901,0.05248115173503756,0.017637400032021106
1772534483656108300,6.4621083984375,-0.5231085128247738,-0.0011509236007928847,0.04265665394365787
1772534483666124300,6.472124267578125,-0.4851823945343494,-0.006835837369412183,0.11616846487820148
1772534483676141600,6.4821416015625,-0.3806441616952419,0.10398469060957431,0.1793225479274988
1772534483686157600,6.492157470703125,-0.27948972607553,0.24637071580588815,0.18639814886953682
1772534483696174300,6.50217431640625,-0.2348100418716669,0.38553500247672196,0.15076646165922283
1772534483706190300,6.5121904296875,-0.2136655470341444,0.557121110933274,-0.050562020240724086
1772534483716207600,6.52220751953125,-0.11659516585767268,0.6099037298329174,-0.20041487418636678
1772534483726223400,6.532223388671875,0.08983400018215179,0.5959095451414584,-0.20295571777559815
1772534483736240400,6.542240478515625,0.390468805617094,0.684439623118192,-0.19449220613911747
1772534483746256400,6.55225634765625,0.5151496627748012,0.7936547617271542,-0.2573904147312045
1772534483756272600,6.562272705078125,0.5453191755890846,0.8386711305394768,-0.3155448993949219
1772534483766289400,6.572289306640625,0.5622820008277892,0.8008328366629779,-0.4300584366729483
1772534483776305400,6.582305419921875,0.48215574018955226,0.7245422086648643,-0.5117095322582871
1772534483786322400,6.592322509765625,0.35849019755423067,0.6233971253953874,-0.6182585203979164
1772534483796338400,6.60233837890625,0.13282500064671038,0.4752577973693609,-0.8418524639893322
1772534483806355500,6.61235546875,0.13347557350993156,0.28150851855203507,-1.1312369766134769
1772534483816371500,6.622371337890625,0.18952011681497097,0.19366788414418695,-1.3608806486979126
1772534483826388500,6.632388427734375,0.23561434399187564,0.08468187811598181,-1.4396286067202686
1772534483836404500,6.642404541015625,0.3526151680409908,-0.002020984433591366,-1.3299775609120725
1772534483846421500,6.65242138671875,0.39238954454660413,0.012768003897368907,-1.135708130678162
1772534483856437500,6.6624375,0.3684598029047251,0.0790643304951489,-0.9199944189425557
1772534483866453500,6.67245361328125,0.3506108424812555,0.12293269831612705,-0.6465686690811068
1772534483876470500,6.682470458984375,0.3274532542556524,0.1798214373603463,-0.34175635876581073
1772534483886486500,6.692486572265625,0.22566811951696872,0.22667276651486754,-0.07303940764982253
1772534483896503600,6.702503662109375,0.027855975174903867,0.18786080530062316,0.08333071923535317
1772534483906519300,6.712519287109375,0.04930617496073246,0.08909677194878458,0.11892981935031711
1772534483916536300,6.722536376953125,0.24671383015513418,0.04609188908934593,0.04113799300901592
1772534483926552600,6.732552490234375,0.5443471156865358,0.07911328420341014,-0.010632014781981705
1772534483936569300,6.7425693359375,0.8936813623607158,0.10341536628901958,-0.11158157547935843
1772534483946585300,6.75258544921875,1.203210252869129,0.05436886517778039,-0.19628025859966872
1772534483956602400,6.762602294921875,1.444180570936203,-0.036395109330862756,-0.2651626561678946
1772534483966618600,6.77261865234375,1.6611802308291195,-0.14781389546394347,-0.33397089252136647
1772534483976634600,6.782634521484375,1.6808184127569197,-0.23513313634619115,-0.3463199403543025
1772534483986651400,6.7926513671875,1.5409084222853182,-0.296594736263901,-0.36242655062247064
1772534483996667400,6.80266748046875,1.4476806880116462,-0.4159079289086163,-0.37862208128310737
1772534484006684400,6.812684326171875,1.3341285431116818,-0.495726000380516,-0.4317168348718434
1772534484016700400,6.822700439453125,1.336946523141861,-0.5721585210673511,-0.5546100048951804
1772534484026717400,6.832717529296875,1.4330185409307479,-0.7229331660330295,-0.590132715305686
1772534484036733400,6.8427333984375,1.457548586553335,-0.7822546851821244,-0.6096202732490376
1772534484046750500,6.85275048828125,1.3292132985413074,-0.8539234985984862,-0.623655191809684
1772534484056766500,6.862766357421875,1.236049861675501,-0.9847497266434132,-0.47988465345241127
1772534484066783500,6.872783447265625,1.008388522514701,-0.9815034381985663,-0.3660450699131936
1772534484076799500,6.882799560546875,0.6913344971984624,-0.943335766237229,-0.26850798454042524
1772534484086815200,6.892815185546875,0.34449089829623697,-0.9354276234611868,-0.1948279774321243
1772534484096832500,6.90283251953125,0.07154547929763794,-0.923186419916898,-0.3436177321908995
1772534484106848500,6.9128486328125,-0.2155599824786186,-0.9220582926698029,-0.4447214970692992
1772534484116865300,6.922865234375,-0.5254121135920286,-0.90915307225883,-0.5300729084772989
1772534484126881300,6.93288134765625,-0.8032797914236783,-0.9849839737907051,-0.542003986626491
1772534484136898600,6.942898681640625,-1.0265507866710424,-0.968124608926475,-0.47101592201590536
1772534484146914600,6.95291455078125,-1.2551122895419597,-0.7943370449028909,-0.3686686964150518
1772534484156931300,6.962931396484375,-1.5063982499182222,-0.5692421952292323,-0.3071693583028391
1772534484166947300,6.972947265625,-1.7030343362182379,-0.522899984640628,-0.3408780415613204
1772534484176964600,6.982964599609375,-1.6565590007692574,-0.5663420898735523,-0.4427193634666502
1772534484186980600,6.992980712890625,-1.5387112045019864,-0.5150713368415832,-0.4292331282973289
1772534484196996400,7.002996337890625,-1.2554103957057,-0.445985379525274,-0.34136991673149164
1772534484207013400,7.013013427734375,-0.9689613520115613,-0.42072789641097186,-0.1502622932630591
1772534484217029400,7.023029296875,-0.7434107213944197,-0.276134570428729,-0.011270888074254616
1772534484227046400,7.03304638671875,-0.567342206826806,-0.1582793215073645,0.10501522096740082
1772534484237062400,7.0430625,-0.44879415333569045,-0.1161618890069425,0.2040119122976437
1772534484247079400,7.053079345703125,-0.40691549802720545,-0.02474997198358178,0.22133911386933178
1772534484257095400,7.063095458984375,-0.4064776911318302,0.0212241359449923,0.35130642352998254
1772534484267112400,7.073112548828125,-0.35658640975952144,0.1381723530240357,0.45655959970541293
1772534484277128400,7.08312841796875,-0.39787060630619525,0.2833795731209218,0.5413638255594297
1772534484287145500,7.0931455078125,-0.5225023636251688,0.34624402557387945,0.5079486453548073
1772534484297161200,7.1031611328125,-0.755249043226242,0.3423065399944782,0.40085714783631266
1772534484307177500,7.113177490234375,-1.0861468849778175,0.30619287795349953,0.3884382131049409
1772534484317194500,7.123194580078125,-1.3468506620407104,0.28536300202310083,0.3442346950454637
1772534484327210500,7.13321044921875,-1.500859905013442,0.3180802996240556,0.264162246953696
1772534484337227300,7.143227294921875,-1.4520400522649288,0.31720161709338424,0.18484171320777384
1772534484347243500,7.153243408203125,-1.2421207060217856,0.35520664583891626,0.06603688107714988
1772534484357260500,7.163260498046875,-1.0309282711029053,0.43248058578595516,-0.0626473847693298
1772534484367276500,7.173276611328125,-0.7834913873702287,0.4844872518770396,-0.05211703113038092
1772534484377293300,7.183293212890625,-0.48202948346137997,0.5732312648653983,0.029975067954417317
1772534484387309600,7.1933095703125,-0.1578735171854496,0.7194201894760132,0.17353139730542896
1772534484397326600,7.20332666015625,0.11035013398826121,0.8528431560158729,0.3667574559662491
1772534484407342300,7.21334228515625,0.2903834605336189,0.9587427403360604,0.5024940697433427
1772534484417358300,7.2233583984375,0.4205716829359531,1.0612738711364567,0.5666401229720562
1772534484427375600,7.233375732421875,0.4532634077042341,1.12896252887547,0.5744128758653998
1772534484437391600,7.2433916015625,0.33816052623093124,1.093598370027542,0.40070473375357685
1772534484447408400,7.253408447265625,0.13523030822277068,0.9600323417551815,0.11947663957811891
1772534484457424400,7.26342431640625,-0.015937573844194412,0.7889050829820334,-0.18023984543550758
1772534484467441700,7.273441650390625,-0.04791092121005058,0.6433660005822778,-0.410338787006773
1772534484477457400,7.28345751953125,0.032306524842977524,0.5738267465405166,-0.5048846546743064
1772534484487474400,7.293474365234375,0.1939414403885603,0.5344913459740579,-0.4951038133615628
1772534484497490400,7.303490478515625,0.39148704274892804,0.525359945013374,-0.5103287454243749
1772534484507507500,7.313507568359375,0.5419271950632334,0.5696412775494158,-0.52097785747163
1772534484517523500,7.3235234375,0.6659907971054315,0.6094860889427364,-0.4655137444030493
1772534484527539500,7.33353955078125,0.7597036845475434,0.6462015162691473,-0.3231731292510405
1772534484537556500,7.343556396484375,0.899311477202177,0.6691372784376144,-0.12521459870822726
1772534484547572500,7.353572509765625,0.9762538471072911,0.7078817273736,0.09208674754500389
1772534484557589200,7.36358935546875,0.9823854817301034,0.7430269827738404,0.2864091866077855
1772534484567605200,7.373605224609375,1.0141858106166124,0.7456624458439648,0.4119576569128781
1772534484577622300,7.383622314453125,1.0731699145048856,0.7193485855445265,0.5667701060272753
1772534484587638000,7.393637939453125,1.0896475865751505,0.7457572845205664,0.6177715405985713
1772534484597655300,7.4036552734375,1.078020277145505,0.6775481100387871,0.5526487878248095
1772534484607671300,7.41367138671875,1.1437065090209244,0.4882182550989091,0.4280007004255429
1772534484617688000,7.42368798828125,1.1821850004971026,0.3514411558255553,0.2403795490996912
1772534484627704000,7.4337041015625,1.2143757900059222,0.23177257387191055,0.08488658864153549
1772534484637720000,7.443719970703125,1.180727787426114,0.12524170591086148,-0.02009516844768077
1772534484647737300,7.4537373046875,1.16952659445405,0.017729279566556216,-0.06663379665752872
1772534484657753300,7.46375341796875,1.1479045452326535,-0.07758855885416269,-0.07591509095029905
1772534484667770000,7.47377001953125,1.0366460642278195,-0.1386133747898042,-0.032038594621792434
1772534484677786000,7.4837861328125,0.903888283598423,-0.20508461956307292,0.02794434757810086
1772534484687803400,7.493803466796875,0.7514455592900514,-0.29337898908779025,0.06753401516657322
1772534484697819100,7.503819091796875,0.6734218238890171,-0.3641908934138715,0.15976550494451075
1772534484707836200,7.513836181640625,0.7413257318139076,-0.3917170521125197,0.3059821943448856
1772534484717852200,7.52385205078125,0.850187088549137,-0.4114500727169215,0.42414420766048133
1772534484727868200,7.5338681640625,0.979905939874053,-0.5164964012086392,0.5320692699262872
1772534484737885200,7.54388525390625,1.1089449922412633,-0.6179308228135109,0.5463892159733921
1772534484747901200,7.553901123046875,1.1457125881463288,-0.6436584076575934,0.44278223610240963
1772534484757918200,7.563918212890625,0.9280085793763398,-0.6901464564576745,0.330413163507171
1772534484767934200,7.573934326171875,0.7119698734700679,-0.8307434062801301,0.25023411323577166
1772534484777951200,7.583951171875,0.33173838422894475,-0.8841241372033953,0.21876641383711248
1772534484787967200,7.59396728515625,0.08452829498946667,-0.8914147326029837,0.24102665136419235
1772534484797984000,7.60398388671875,-0.020849895805120467,-0.865524942934513,0.2591444187916815
1772534484808000000,7.614,-0.0935848771482706,-0.8136841349296271,0.2668908681999892
1772534484818017300,7.624017333984375,-0.14046411722302435,-0.8106671251960098,0.24165154179688542
1772534484828033300,7.634033203125,-0.24391923100054264,-0.8634231483496725,0.15940153047032654
1772534484838050000,7.644050048828125,-0.4718114563077688,-0.9037684566110372,0.06531396449692548
1772534484848066000,7.654066162109375,-0.6891413710683584,-0.8821497683905064,-0.0012017404725775122
1772534484858082300,7.664082275390625,-0.9276531900674104,-0.7669634464174508,-0.15787190975025295
1772534484868099300,7.674099365234375,-1.0969418352365494,-0.7297621352702379,-0.36700558550842105
1772534484878115000,7.684114990234375,-1.3356436238497496,-0.6988743911840021,-0.4604334454640746
1772534484888132000,7.694132080078125,-1.5169991389095783,-0.6222326116606592,-0.4974302470151335
1772534484898148400,7.7041484375,-1.492176247820258,-0.5077081145972013,-0.522523917869851
1772534484908165000,7.7141650390625,-1.3942775991261005,-0.34473493618518114,-0.49616095773167906
1772534484918181000,7.72418115234375,-1.2777981686025857,-0.19167203415185213,-0.45379210775345563
1772534484928198100,7.7341982421875,-1.136178451603651,-0.09011924686431884,-0.4348305829782039
1772534484938214400,7.74421435546875,-1.0741115792691707,-0.018024901512265205,-0.4655972579680383
1772534484948231200,7.754231201171875,-0.9831868612408637,-0.002212707613408565,-0.5328103340845555
1772534484958247200,7.7642470703125,-0.8808575366228818,0.023312048134952783,-0.5709279563590884
1772534484968263200,7.77426318359375,-0.7642424970209598,0.013820873951166867,-0.5244084164422005
1772534484978280200,7.7842802734375,-0.6850339357495308,0.044482992587983605,-0.4297969361925497
1772534484988296200,7.794296142578125,-0.5876993506789208,0.12256079626381397,-0.3059838383127004
1772534484998313200,7.804313232421875,-0.6582791998147964,0.3011218582995236,-0.2388639569049701
1772534485008329200,7.8143291015625,-0.9079168084621428,0.4324640730425715,-0.11509667092822491
1772534485018346200,7.82434619140625,-1.1532476598262786,0.5075824423909187,-0.018569639380834994
1772534485028362200,7.8343623046875,-1.3921592917978762,0.66943450781852,-0.06848835674934088
1772534485038379300,7.844379150390625,-1.621469567209482,0.736931003986299,-0.12756247700862586
1772534485048395300,7.854395263671875,-1.5555664777129887,0.7364471659921109,-0.26001013224292546
1772534485058411000,7.864410888671875,-1.4286632683306932,0.7495113763570785,-0.4275997914744541
1772534485068428300,7.87442822265625,-1.333007430127263,0.6967753730781376,-0.4738725170234218
1772534485078444300,7.8844443359375,-1.1167816772162913,0.5747356780789792,-0.4969918190652504
1772534485088461000,7.8944609375,-0.9024217181771993,0.4494213453233242,-0.608096570813097
1772534485098477000,7.90447705078125,-0.7850532298594712,0.29023469971269367,-0.7749580984331667
1772534485108494300,7.914494384765625,-0.6090010819047689,0.104865565097332,-0.9738795191913843
1772534485118510300,7.92451025390625,-0.33613924953639507,-0.068321694945544,-1.1583598152082413
1772534485128527000,7.934527099609375,0.0021457798570394516,-0.17766615902259944,-1.293954061372578
1772534485138543000,7.944543212890625,0.42385552691221234,-0.28221111386343833,-1.3241091072700917
1772534485148560400,7.954560302734375,0.8202665820598601,-0.29545433405712246,-1.191682604421675
1772534485158576000,7.964576171875,1.1692197204619645,-0.2517183604441583,-1.0319465812999755
1772534485168592100,7.974592041015625,1.495070800217986,-0.17746990579813718,-0.859432544343546
1772534485178609200,7.984609130859375,1.7832213871330023,-0.16201543929576873,-0.6710586749542504
1772534485188625200,7.994625244140625,2.0634189692169427,-0.1407175074622035,-0.49309806302972137
1772534485198642200,8.00464208984375,2.3031793269723653,-0.10436842923015355,-0.4730551362259313
1772534485208658200,8.014658203125,2.4359821157872674,-0.2579784437522292,-0.45039534145463256
1772534485218675200,8.02467529296875,2.506560211357474,-0.5012690214604139,-0.5446130731463432
1772534485228691200,8.034691162109375,2.4307670114874838,-0.6940059083648026,-0.7812433161824941
1772534485238708200,8.044708251953125,2.307044185706973,-0.9477072593197226,-0.7960587541289627
1772534485248724200,8.05472412109375,2.2559143024504182,-1.09689361218065,-0.7693954228047281
1772534485258741200,8.0647412109375,2.2029805846422907,-1.0989414846211671,-0.7354764943290502
1772534485268757000,8.074757080078125,2.1670131992042063,-1.0873314185872673,-0.6994852896239608
1772534485278773200,8.084773193359375,2.0979314796715975,-1.0990835234403609,-0.7127762214168906
1772534485288790300,8.094790283203125,1.8328958108842373,-1.1414502545267342,-0.8104798589956015
1772534485298806300,8.10480615234375,1.630028136718273,-1.2547700519755483,-0.9153567492045461
1772534485308823000,8.114822998046876,1.6078092906475066,-1.3462315072290598,-0.9735251527957618
1772534485318839300,8.12483935546875,1.4583406137138604,-1.3726188711561262,-1.03203615927957
1772534485328856300,8.134856201171875,1.270350775206089,-1.5000938890770077,-0.9135844788350165
1772534485338872300,8.144872314453124,0.8718272579491138,-1.6290540309891104,-0.7805517537217587
1772534485348889000,8.15488916015625,0.5562386290103197,-1.7257593782454728,-0.8337804358884692
1772534485358905300,8.1649052734375,0.2418903555214405,-1.8147459678180515,-0.7515314840078353
1772534485368921300,8.17492138671875,-0.042289574196934694,-1.7918964226283132,-0.5272777613334357
1772534485378938000,8.184938232421874,-0.2781727982580662,-1.63724683592543,-0.2870866840105504
1772534485388954000,8.1949541015625,-0.5394423925101757,-1.4384285832807422,-0.037191374275088306
1772534485398971100,8.20497119140625,-0.9078098409563302,-1.2957104035206137,0.29137442606603725
1772534485408987400,8.2149873046875,-1.4259084166646003,-1.0982394738316534,0.5334663137752562
1772534485419004200,8.225004150390625,-1.9529647903323173,-0.855373843537271,0.516922298470512
1772534485429020200,8.235020263671874,-2.5759435441851615,-0.7318386492833495,0.34934487766604866
1772534485439037200,8.245037109375,-2.9234534980416296,-0.7228976563282311,0.17633390577184035
1772534485449053200,8.25505322265625,-2.946440990397334,-0.6123582833781838,-0.0025922449829056857
1772534485459070200,8.2650703125,-2.6974767509669064,-0.4983383748359978,-0.07380401708045974
1772534485469086200,8.275086181640624,-2.1488702242702242,-0.47021819576695556,-0.1901226127527654
1772534485479102200,8.285102294921876,-1.4725830740779637,-0.3380925755612552,-0.3870000335279852
1772534485489119200,8.295119140625,-0.9301403307080268,-0.09619944356083869,-0.4939274265259504
1772534485499135200,8.30513525390625,-0.43144086747467514,0.158015409874171,-0.5495637543562799
1772534485509152300,8.31515234375,-0.023923311901092526,0.33209012027606366,-0.5169495518036187
1772534485519168300,8.325168212890626,-0.03279693870842457,0.39127296160683034,-0.2931112232633866
1772534485529185300,8.335185302734375,-0.11324760899543762,0.4979131351612508,-0.16054920266810804
1772534485539201300,8.345201171875,-0.10732990938425063,0.7285150578185916,-0.3606859175002202
1772534485549218300,8.35521826171875,-0.1875087769925594,0.8339008473977446,-0.6800712718408555
1772534485559234000,8.365234130859376,-0.41487493259906766,0.7251077335931361,-0.8341801757957786
1772534485569251000,8.3752509765625,-0.8728717985659837,0.5735298094205558,-0.9240968127600848
1772534485579267000,8.38526708984375,-1.1369260551005602,0.40527503734380005,-1.1583352652888745
1772534485589283000,8.395282958984374,-1.460696821451187,0.18471636979505418,-1.1153096319023519
1772534485599300000,8.405300048828124,-1.9047545939147472,0.005055822084844112,-0.7453188200380653
1772534485609316000,8.415316162109375,-2.1226392199486495,-0.023296412174403668,-0.546559677169472
1772534485619333000,8.4253330078125,-2.173296809518337,0.040771424718946216,-0.41283312457315624
1772534485629349000,8.43534912109375,-2.279751105111837,0.16409882144108415,-0.21425642559938132
1772534485639366100,8.4453662109375,-2.2629618828743694,0.3734752929791808,0.03886648614676669
1772534485649382100,8.455382080078126,-1.9649714544683694,0.6457755459420382,0.20680453869085758
1772534485659399000,8.46539892578125,-1.5537509527236222,0.8958134059533477,0.36635742379799485
1772534485669415000,8.475414794921875,-1.1170610786795616,1.0617791903100908,0.5295685756843537
1772534485679432200,8.48543212890625,-0.7546464011579751,1.1802648460894822,0.5583280390376225
1772534485689448200,8.4954482421875,-0.3504156121701002,1.15202820103392,0.5661685599375516
1772534485699464200,8.505464111328125,0.03647533496022224,1.1710085035748778,0.45417102406844495
1772534485709481000,8.51548095703125,0.3533399751842022,1.2129732297316194,0.2540886332394555
1772534485719497000,8.5254970703125,0.5577618930548429,1.1818230353169143,0.008004497556295245
1772534485729514200,8.53551416015625,0.6579471913814544,1.0259373309478164,-0.19900321729015558
1772534485739530000,8.545530029296875,0.6449018318474292,0.8931722437947988,-0.3176589324068278
1772534485749547000,8.555547119140625,0.7334539755254983,0.8632561212196945,-0.46163609925210475
1772534485759563000,8.56556298828125,0.7660054150402545,0.8577255212299525,-0.5668600493330508
1772534485769580000,8.575580078125,0.7092080075412989,0.8107875367052852,-0.5823565648788586
1772534485779596000,8.585595947265626,0.6901590236783027,0.7477604410365224,-0.5417276173705234
1772534485789612000,8.595612060546875,0.7731517796635627,0.675880030696094,-0.48619522483870387
1772534485799629000,8.605629150390625,1.0129431170791388,0.7244155135452747,-0.44967787736766035
1772534485809645000,8.61564501953125,1.8356226054996252,1.2440198176413775,-0.9603534634683281
1772534485819662000,8.625662109375,1.950016461920738,1.0374173408612608,-0.6174036571342497
1772534485829678000,8.635677978515625,1.5948504403531552,0.4557837199620902,0.32703751306161283
1772534485839695000,8.645695068359375,1.594876743838191,0.24278598918691277,0.5999439882893115
1772534485849711000,8.655711181640624,1.5703320851683615,0.15906681862324476,0.8042964211203157
1772534485859728100,8.66572802734375,1.3568360494822262,0.24752850753888486,0.8240369674440473
1772534485869744000,8.675744140625,1.1567536221206187,0.3059481094121933,0.7980573075350373
1772534485879761000,8.685760986328125,0.904466375747323,0.2940086652934551,0.8704370456997305
1772534485889777200,8.695777099609375,0.6775035402446985,0.23388678954690695,0.8531529526174068
1772534485899793200,8.705793212890624,0.657220630672574,0.22072584080919622,0.7921976947866379
1772534485909810200,8.71581005859375,0.6565121901422739,0.2197488124705851,0.7352247845903038
1772534485919826000,8.725825927734375,0.4659072007000446,0.1707860441200435,0.7390683813411743
1772534485929843200,8.73584326171875,0.1265893211275339,0.07907499801963568,0.6188713915992528
1772534485939859200,8.745859130859374,0.04891863694787025,-0.060414721213281154,0.45471243746876716
1772534485949876000,8.7558759765625,0.13226385963261128,-0.13514949807152152,0.3501658751927316
1772534485959892000,8.76589208984375,0.12493453965783119,-0.1935851742967963,0.2757400181531906
1772534485969909200,8.7759091796875,0.17759236313402652,-0.23601561826914547,0.2410607728295028
1772534485979925200,8.78592529296875,0.3138911773711443,-0.2862703261263668,0.2154281727924943
1772534485989941200,8.795941162109376,0.41660044121742246,-0.3464839718095958,0.1563214654378593
1772534485999958000,8.8059580078125,0.4039250840395689,-0.4015319052927196,0.1724063387982547
1772534486009974000,8.81597412109375,0.30670740334689617,-0.41908582829236984,0.2690069105058908
1772534486019991000,8.825990966796875,0.33118075034618377,-0.4645506715245545,0.24934907402954995
1772534486030007000,8.836007080078126,0.30790918035209175,-0.4322000152789056,0.14652458630576728
1772534486040024000,8.846024169921876,-0.10836568217277526,-0.42799920258820057,0.0810127611491829
1772534486050040000,8.8560400390625,-0.7242986091673373,-0.4035255633279681,-0.060587885823100804
1772534486060057000,8.86605712890625,-0.8556430158674716,-0.2696046572033316,-0.15008023296073078
1772534486070073000,8.876072998046874,-0.9403560197740792,-0.13400208160206675,-0.1838086073003709
1772534486080090000,8.886090087890626,-1.1628799960464238,-0.014539689745008945,-0.18275383755043148
1772534486090106000,8.896106201171875,-1.2759820590913296,0.08855857341885566,-0.13378683141618966
1772534486100121900,8.906121826171875,-1.1921598665446043,0.09018354427218436,-0.13030812245495615
1772534486110139100,8.91613916015625,-1.0611989062041043,0.04113149020299315,-0.2574168643467128
1772534486120155100,8.926155029296876,-0.8405214345812797,-0.00027881694138050077,-0.48416072333641347
1772534486130172000,8.936171875,-0.642155163487792,-0.09415230177268386,-0.6066428283408284
1772534486140188000,8.94618798828125,-0.7100427047997713,-0.1972257227562368,-0.5368347672950476
1772534486150205200,8.956205078125,-0.8414116614192724,-0.19969503547921777,-0.48790458603985604
1772534486160221200,8.96622119140625,-1.123110295715928,-0.11774185167476534,-0.5267043453596532
1772534486170238000,8.976238037109376,-1.3158166413515806,0.0043611178189516065,-0.6112862702324986
1772534486180254000,8.98625390625,-1.3619704897612332,0.20013240398317575,-0.7292056704312563
1772534486190270200,8.996270263671875,-1.2176385911941527,0.44857963380217547,-0.8030467133201659
1772534486200287000,9.006286865234374,-1.1946440845757722,0.6207869428969919,-0.7768933042794466
1772534486210303000,9.016302978515625,-1.2522177371442318,0.6199784029930829,-0.6775592890199273
1772534486220320000,9.026320068359375,-1.1976537877857685,0.4346094145081937,-0.5322841182533651
1772534486230336300,9.036336181640625,-1.091063883113861,0.3348261211112141,-0.43186566875800486
1772534486240353000,9.04635302734375,-1.045557684957981,0.2763774392738938,-0.4346355718627572
1772534486250369000,9.056369140625,-0.994534769207239,0.24844123846963045,-0.510003312862292
1772534486260386000,9.066385986328125,-0.8409329379916191,0.18658289431929587,-0.6625811347924172
1772534486270402000,9.076402099609375,-0.6237181740432978,0.10086626632809638,-0.7778644873991608
1772534486280419000,9.086419189453125,-0.4825865328222513,0.04601560898274183,-0.8058635243065655
1772534486290435000,9.09643505859375,-0.2562245858222246,0.054715340527892106,-0.8797084396529943
1772534486300451000,9.106451171875,0.05226151763498783,0.04733838201910257,-1.0083587849635631
1772534486310467800,9.1164677734375,0.287912101984024,0.05149740139469504,-1.1762789182584732
1772534486320484000,9.126484130859374,0.18684125299453735,0.035306583441793916,-1.2671040483698248
1772534486330501000,9.136501220703124,0.029465748459100723,0.044646950978040695,-1.3348308461621403
1772534486340517000,9.14651708984375,-0.11447335139811038,0.16418518455028533,-1.3284841074839233
1772534486350534000,9.156533935546875,-0.2703846285998821,0.3425622683212161,-1.2930493676178156
1772534486360550100,9.166550048828125,-0.2637549813270569,0.5196827030945569,-1.0982752757973968
1772534486370567200,9.176567138671874,-0.2757441098064184,0.7100837674625218,-0.9776818340837955
1772534486380583200,9.186583251953126,-0.19438976867794988,0.8311421963393688,-1.0142104336012154
1772534486390600000,9.196599853515625,0.08137538391649722,0.8645258488945663,-1.0646259580433368
1772534486400616200,9.2066162109375,0.3058616001725197,0.8294089428059757,-1.1158127591188995
1772534486410632200,9.216632080078124,0.4351315386861562,0.7092737662538886,-1.2090241267796604
1772534486420649000,9.22664892578125,0.3740092537254095,0.5099168766878545,-1.284695380770415
1772534486430665000,9.2366650390625,-0.022980478093028067,0.3039204029768705,-1.3867888508059083
1772534486440682200,9.24668212890625,-0.04786883563399315,0.2418127602405846,-1.4522843824148177
1772534486450698200,9.2566982421875,0.27318916462659837,0.29258476997017857,-1.3988742792665958
1772534486460715000,9.266715087890624,0.45153146934509275,0.26492607093304393,-1.2677614893652498
1772534486470731000,9.27673095703125,0.5512345371127129,0.20250278637632727,-1.0829820642713457
1772534486480748300,9.286748291015625,0.6783972742140293,0.14149506770595907,-0.8358238513495773
1772534486490764000,9.296763916015625,0.9002946430206298,0.1646852430269122,-0.7673615788895637
1772534486500780000,9.306780029296876,1.2761410490453242,0.31918650730028747,-0.7523720264852046
1772534486510797000,9.316797119140626,1.6518436626851558,0.49221170864924785,-0.7368794929947704
1772534486521439000,9.32743896484375,1.846389498707652,0.5508747638896108,-0.655119055283442
1772534486531456000,9.3374560546875,1.847728638356924,0.6938005950510502,-0.7560643781971186
1772534486541472000,9.347471923828126,1.9072803130000828,0.6949604326106608,-0.7746571427252144
1772534486551489800,9.35748974609375,2.0173744264006612,0.6079477003943174,-0.611897095607221
1772534486561505800,9.367505859375,1.9817840575814245,0.4630887822784483,-0.38334889060929417
1772534486571522800,9.377522705078125,1.8505735063940285,0.2896105033997446,-0.2197846144363284
1772534486581538800,9.387538818359374,1.5998177073717117,0.16990005506575107,-0.08037702052891255
1772534486591555800,9.397555908203126,1.1474795978188514,0.0524435962036252,0.03246982564590871
1772534486601571800,9.40757177734375,0.8684148191571235,-0.023626155585423112,0.04866977675333619
1772534486611587800,9.417587890625,0.6953069079607724,-0.14592757026068864,-0.09423281966298817
1772534486621604900,9.42760498046875,0.7737848168700933,-0.29070991600900886,-0.24455548307746647
1772534486631620900,9.437620849609376,0.9336994844943285,-0.3401883787967264,-0.3837788795243948
1772534486641638000,9.447637939453125,0.9678115974545478,-0.369162982738018,-0.44037966847270726
1772534486651654000,9.45765380859375,0.9823930805146693,-0.4594946302440017,-0.32925884237289427
1772534486661671000,9.4676708984375,0.8673761237591504,-0.6126816701136529,-0.18240882350504398
1772534486671687000,9.47768701171875,0.8513122931867837,-0.7719251604780555,-0.12549626519381998
1772534486681703700,9.48770361328125,1.0408382552206517,-0.917164748474583,-0.13544804262667895
1772534486691719700,9.4977197265625,1.3118261104106903,-0.9586657295770943,-0.18996033486314118
1772534486701737000,9.507737060546875,1.3923551066309212,-1.0313885820910333,-0.1869638564608991
1772534486711753000,9.5177529296875,1.3066612749934197,-1.1365471387855708,-0.07359262108579277
1772534486721769000,9.52776904296875,1.1746107658505438,-1.1747603303890675,0.0404033951241523
1772534486731785700,9.53778564453125,0.8021697843551635,-1.1842856260381638,0.14606201029531657
1772534486741801700,9.5478017578125,0.3698801910966635,-1.1706284912813454,0.16905205993428826
1772534486751819000,9.557819091796874,-0.14584697930514812,-1.131297328498587,0.14407434360943733
1772534486761834800,9.567834716796876,-0.5962532440125942,-1.0805005496539175,0.16230302406549452
1772534486771851800,9.577851806640625,-0.9109148212343454,-1.0787857816252857,0.1803399813417345
1772534486781867800,9.58786767578125,-1.2691396458506583,-1.1097885303933173,0.1663289185807109
1772534486791884800,9.597884765625,-1.961046389979124,-1.0953840113352984,0.06053491352684796
1772534486801900800,9.60790087890625,-2.5622131249964237,-0.9731490860249846,-0.14450316348075865
1772534486811916800,9.617916748046875,-2.704323840382695,-0.7076887620847672,-0.34956995512619615
1772534486821933800,9.627933837890625,-2.7853087636768814,-0.45156873261556024,-0.6099137397702783
1772534486831949800,9.63794970703125,-2.729124519640207,-0.23429821989201008,-0.9565196574591099
1772534486841966800,9.647966796875,-2.3266928890287875,-0.13255897012166679,-1.0285651221681387
1772534486851982800,9.65798291015625,-1.7604840701460838,-0.16892638772800564,-1.0311099112801254
1772534486861999900,9.667999755859375,-1.018513026165962,-0.3720988900594413,-0.9359373996142297
1772534486872015600,9.678015625,-0.8929781825274229,-0.38207550967261195,-0.7627160911712795
1772534486882033000,9.688032958984374,-1.0246581047922372,-0.31125023440830407,-0.6872828106548636
1772534486892049000,9.698048828125,-1.0170137275189162,-0.34073607580736276,-0.7291271983675658
1772534486902065700,9.708065673828125,-1.3621575367659329,-0.18123123109303413,-0.5686105462621898
1772534486912081700,9.71808154296875,-1.4569383457005023,-0.17078136794492602,-0.38205812014639373
1772534486922099000,9.728098876953124,-1.5959885044723747,-0.16951777774989604,-0.06364098978340625
1772534486932115000,9.738114990234376,-1.679465829104185,-0.10534341174215078,0.26504429048523304
1772534486942130700,9.748130615234375,-1.67604345344007,-0.1396631761036813,0.2670827375102788
1772534486952147700,9.758147705078125,-1.8349504053264856,0.2419996611148119,0.685782927485928
1772534486962164000,9.7681640625,-1.7717898925364017,0.38356750179603694,0.7087026153024285
1772534486972180700,9.7781806640625,-1.727894636708498,0.47463045925125474,0.6049657619740814
1772534486982196700,9.78819677734375,-1.723595478209853,0.5039190975777804,0.4129423571012914
1772534486992213800,9.7982138671875,-1.7238409774035215,0.49176966397017235,0.4274113196976483
1772534487002230000,9.80822998046875,-0.7385556825786829,0.6889520590413362,-0.1682948848914355
1772534487012246800,9.818246826171874,-0.37029286355078217,0.5917017912533133,-0.20837270132303237
1772534487022262800,9.8282626953125,-0.13301730834841727,0.4912966396309435,-0.08734196417070925
1772534487032279800,9.83827978515625,0.05732464624345302,0.49818245362192387,0.0082435122102499
1772534487042295800,9.8482958984375,0.055468789243698115,0.5233925173979252,0.0018489158023148773
1772534487052311800,9.858311767578124,0.6438438472270965,0.6962678619474172,-0.12417634170167148
1772534487062328800,9.868328857421876,0.6412754580438137,0.721407052444294,-0.12411065605431794
1772534487072344800,9.8783447265625,1.1038310102283955,0.8187308969251811,-0.5544668700974434
1772534487082361900,9.88836181640625,1.2707768916636704,0.7675961182978004,-0.630033129343763
1772534487092377900,9.8983779296875,1.2696078478842974,0.779192594197765,-0.6309625191483647
1772534487102395000,9.908394775390626,1.1923568504214286,0.6048584291420877,-0.550093331188336
1772534487112411000,9.918410888671875,1.1407967590540646,0.5601898508541285,-0.44613962023891507
1772534487122428000,9.928427978515625,1.0691191778093576,0.47974268769845363,-0.46790962656363844
1772534487132444000,9.93844384765625,0.9504729246407747,0.4053383118383586,-0.5857455862626433
1772534487142461000,9.9484609375,0.9480214398354291,0.4056402173943817,-0.5602275525160133
1772534487152476700,9.9584765625,0.8985334785670042,0.3240482681177556,-0.7574719069074839
1772534487162492700,9.96849267578125,0.9655594346135854,0.3242763047199696,-0.6541724220830947
1772534487172510000,9.978510009765625,0.9731558810919523,0.35408056441843505,-0.43442258669920264
1772534487182526000,9.98852587890625,1.048038395857811,0.34586320956274863,-0.17995916533060372
1772534487192542700,9.998542724609376,1.0464484963178633,0.3498580513525754,-0.16915347448214887
1772534487202558700,10.008558837890625,1.0685726498425006,0.2746395826306194,0.10327500797025858
1772534487212576000,10.018575927734375,1.133720537057519,0.22163462621718644,0.10482720584832131
1772534487222592000,10.028592041015624,1.1448632778406143,0.20176219714209437,0.18950952235572038
1772534487232608800,10.03860888671875,1.0814771396011114,0.21070640496760606,0.3191650991860777
1772534487242624800,10.048624755859375,1.0848901629149914,0.18090784435756505,0.31697737988345326
1772534487252640800,10.058640869140625,0.6468214017331599,0.3015387685373425,0.5486184363301843
1772534487262657800,10.06865771484375,0.2853910590738058,0.30884390391893685,0.6546609362524003
1772534487272673800,10.078673828125,0.31764322338104245,0.27226240517050027,0.6715290689449757
1772534487282690800,10.08869091796875,0.5425140550404787,0.23858188856057821,0.5412975188575685
1772534487292706800,10.098706787109375,0.5417874943315982,0.23935250760689378,0.5472771047238261
1772534487302723800,10.108723876953125,0.8975888911932707,0.06487155449166894,0.5378793809771537
1772534487312739800,10.11873974609375,1.0625655183821916,-0.03839958102107048,0.6463427513707429
1772534487322756900,10.1287568359375,1.2056599841088056,-0.03465586444810033,0.7494627149097621
1772534487332772600,10.138772705078125,1.2642431059807537,-0.040798020464926955,0.8273236609645187
1772534487342790000,10.148789794921875,1.2639905925244093,-0.04459039848521352,0.8329530451536178
1772534487352806000,10.158805908203124,1.2555997807979582,-0.04254289137087762,0.7942373839206993
1772534487362822000,10.16882177734375,1.1926105329215526,-0.0418919531814754,0.7534195627767593
1772534487372838700,10.178838623046875,0.8691419643878936,-0.1048811279926449,0.7052050555102527
1772534487382855000,10.18885498046875,0.6090197866052389,-0.15384228890798984,0.6737997903559356
1772534487392872000,10.198871826171874,0.6126666186749935,-0.18236432677619158,0.6631720864228904
1772534487402888000,10.208887939453126,0.3258715380221605,-0.12936536171212792,0.7322085785742849
1772534487412904700,10.21890478515625,0.1168032556504011,-0.11553213973604141,0.8479285690326244
1772534487422921000,10.2289208984375,-0.0625105244487524,-0.12123626966178416,0.9040336103532463
1772534487432938000,10.23893798828125,-0.1559393342524767,-0.1748519783847034,0.8006001238856464
1772534487442953700,10.24895361328125,-0.15960896267592906,-0.15841310395486652,0.8214461472332477
1772534487452969700,10.2589697265625,-0.18398703260719776,-0.29438085960671306,0.15366985495053231
1772534487462986800,10.26898681640625,-0.31604514053463933,-0.3423858888410032,-0.11093743235692381
1772534487473003000,10.2790029296875,-0.653074616909027,-0.35837256252393124,-0.27313100469857454
1772534487483019800,10.289019775390624,-1.0268003775179386,-0.256172051917389,-0.35474582339413463
1772534487493035800,10.299035888671876,-1.0314660312414168,-0.2537154525455087,-0.31927754658460616
1772534487503052800,10.309052734375,-1.6887205641835927,0.18002426645606756,-0.6847590643309056
1772534487513068800,10.31906884765625,-1.9526766210407018,0.2176498674299568,-0.8541976393647491
1772534487523085800,10.3290859375,-1.9587480499088763,0.22550722986683247,-0.8152759341657161
1772534487533101800,10.339101806640626,-2.057550953966379,0.11466646281741559,-1.1493719874367117
1772534487543118600,10.34911865234375,-2.0639152283012865,0.12528335309550165,-1.1124873410232365
1772534487553134600,10.359134521484375,-1.9391110370248554,-0.01347936703711748,-1.343619425034523
1772534487563150600,10.369150634765624,-1.7626567380100489,-0.06015818916894495,-1.3252037706390023
1772534487573167600,10.379167724609376,-1.78027890394032,-0.10780234920158982,-1.2145260121315717
1772534487583183600,10.38918359375,-2.019479289725423,-0.10190993016213178,-1.045388612001389
1772534487593200600,10.39920068359375,-2.021034702473879,-0.1199167114958167,-1.025072530812025
1772534487603216600,10.409216552734375,-2.4318437008082867,0.216694101075083,-0.6551334491349756
1772534487613233700,10.419233642578124,-2.818403224027157,0.36384763293415306,-0.4178814209386706
1772534487623249400,10.42924951171875,-3.144181823068857,0.5651728999637067,-0.20268778755441308
1772534487633266700,10.4392666015625,-3.222452226707339,0.7093849715434014,-0.0913590177923441
1772534487643282700,10.44928271484375,-3.223601396742463,0.6990982630677521,-0.07955971279665827
1772534487653299500,10.459299560546874,-2.5912813985705374,0.7886295539762824,-0.2900850621089339
1772534487663315500,10.4693154296875,-2.0402783321261406,0.717464086972177,-0.43224546185582874
1772534487673331500,10.47933154296875,-1.389207456254959,0.5998940116677433,-0.4723414715312421
1772534487683348700,10.4893486328125,-0.6055611705839633,0.5115352716699242,-0.423808619030565
1772534487693364700,10.49936474609375,-0.6018699148505926,0.5503401455562561,-0.46927770004644986
1772534487703381500,10.509381591796876,0.70448740876019,0.38065322178453204,-0.45612288878858087
1772534487713397500,10.5193974609375,1.1955354804575442,0.3592633008185774,-0.5871468313626945
1772534487723414800,10.529414794921875,1.5601964756011961,0.38911929070428014,-0.7046886304207146
1772534487733430500,10.539430419921874,1.7737860347896812,0.4673276619572192,-0.7624208345517516
1772534487743447600,10.549447509765624,1.7780413541465996,0.4912126876745373,-0.814029295105487
1772534487753463600,10.559463623046875,1.8677339000314472,0.7422430658545345,-0.8540795659430325
1772534487763479600,10.5694794921875,1.9004899222075937,0.8271702239684761,-0.9243621856980025
1772534487773496600,10.57949658203125,1.921401777333021,0.8923467527560889,-0.9446435609001665
1772534487783512600,10.5895126953125,1.903111502882838,0.98222415368855,-0.9556842295482754
1772534487793529600,10.599529541015626,1.9017881453245877,1.0131645778100937,-0.9782585379932075
1772534487803545600,10.609545654296875,1.8072493284523485,0.9451815402343868,-1.1999766047101468
1772534487813562600,10.619562744140625,1.7081173385709523,0.9131083857558667,-1.297728903736174
1772534487823578600,10.62957861328125,1.5606693538099528,0.8799782695703208,-1.3504197526991366
1772534487833595400,10.639595458984376,1.3058178099066018,0.80392013515383,-1.3279219435565173
1772534487843611400,10.649611328125,1.3048445809602736,0.8121325215734541,-1.329176473662257
1772534487853628700,10.659628662109375,0.9829881237983703,0.7394288121514022,-1.296856212554872
1772534487863644700,10.669644775390625,0.9729518829524516,0.7572378789559007,-1.265784344073385
1772534487873660700,10.67966064453125,0.8971662818670272,0.7048340302407741,-1.1267733482681215
1772534487883677400,10.689677490234375,0.8816542399585247,0.6247708979666232,-0.8479334644034504
1772534487893693700,10.699693603515625,0.8860229565620422,0.6194790751688182,-0.8841245025295764
1772534487903710700,10.709710693359375,0.7433084300637245,0.5194600733198225,-0.2961412934079766
1772534487913726500,10.7197265625,0.6702203974992036,0.4384720812857151,0.026490166714414953
1772534487923743500,10.729743408203126,0.605259557288885,0.34801629594340916,0.24609511373490095
1772534487933759700,10.739759765625,0.7062211006850003,0.18705284991860388,0.29380517861060795
1772534487943776500,10.749776611328125,0.7121656883031129,0.16605886946767567,0.2519355833914131
1772534487953792500,10.75979248046875,0.8819821567386388,-0.16473543884418904,-0.108948523562029
1772534487963808500,10.76980859375,1.4097761970311402,-0.15436010223701596,-0.43672954846732315
1772534487973825500,10.779825439453125,2.1654127782702446,-0.09604666415192187,-0.46435562387648965
1772534487983841500,10.789841552734375,2.874091793501377,-0.10614026120826602,-0.10419146522805094
1772534487993858600,10.799858642578124,2.8801427641034123,-0.11710581879355013,-0.21456432250477372
1772534488003874600,10.80987451171875,0.5676888283073902,-0.9900129809338599,0.9099229606527834
1772534488013891600,10.8198916015625,1.4937217236965894,-1.0889883920140564,0.6585286445312202
1772534488023907600,10.829907470703125,1.4905939470648766,-1.0648892120894045,0.6684203623399138
1772534488033924600,10.839924560546875,2.5945377700179812,-0.9041966919604688,-0.17757384109664706
1772534488043940600,10.849940673828126,2.592014973542094,-0.8890192888338119,-0.15547440188815817
1772534488053957400,10.859957275390625,2.129760450130701,-0.9027714083977043,-0.4316065428977832
1772534488063973600,10.8699736328125,2.130311069750786,-0.9113330466464161,-0.4157923762375489
1772534488073989600,10.87998974609375,1.4213140746116637,-1.2822452111393212,-0.33261008902955796
