time,seconds_elapsed,z,y,x
1772534477255591400,0.06159130859375,1.014549970626831,0.2888038456439972,0.2802164554595947
1772534477265608200,0.071608154296875,1.08367919921875,0.37595951557159424,0.3035888969898224
1772534477275624200,0.081624267578125,1.1447908878326416,0.4126897156238556,0.3133653998374939
1772534477285641500,0.091641357421875,1.2017580270767212,0.40853652358055115,0.3004767596721649
1772534477295657500,0.101657470703125,1.2538959980010986,0.3872365653514862,0.2654987871646881
1772534477305674200,0.11167431640625,1.2888166904449463,0.34168824553489685,0.20228146016597748
1772534477315690200,0.121690185546875,1.3092012405395508,0.2550448775291443,0.11821051687002182
1772534477325707500,0.13170751953125,1.3325755596160889,0.11987348645925522,0.03838546574115753
1772534477335723500,0.1417236328125,1.3848896026611328,-0.029223384335637093,0.03409956768155098
1772534477345740300,0.151740234375,1.4655951261520386,-0.17195603251457214,0.13351216912269592
1772534477355756300,0.16175634765625,1.5470136404037476,-0.32126104831695557,0.28870007395744324
1772534477365772300,0.171772216796875,1.6165794134140015,-0.44571375846862793,0.45159444212913513
1772534477375789300,0.181789306640625,1.6816606521606445,-0.5719847083091736,0.5848654508590698
1772534477385805300,0.191805419921875,1.733923316001892,-0.6916570663452148,0.6477125883102417
1772534477395822300,0.201822265625,1.778327226638794,-0.7358464002609253,0.6024183630943298
1772534477405838300,0.21183837890625,1.819429874420166,-0.6286925077438354,0.49747219681739807
1772534477415855400,0.22185546875,1.8548754453659058,-0.4156288504600525,0.3830791115760803
1772534477425871400,0.231871337890625,1.885404348373413,-0.17139381170272827,0.2990339994430542
1772534477435888400,0.241888427734375,1.9074103832244873,0.030061395838856697,0.2476530373096466
1772534477445904100,0.251904052734375,1.9213083982467651,0.14254292845726013,0.22796908020973206
1772534477455921400,0.26192138671875,1.9210095405578613,0.14595791697502136,0.21410715579986572
1772534477465937400,0.2719375,1.9105457067489624,0.1162325069308281,0.21075530350208282
1772534477475953400,0.281953369140625,1.889961838722229,0.09957552701234818,0.22914788126945496
1772534477485970200,0.29197021484375,1.864159345626831,0.07268692553043365,0.26591628789901733
1772534477495986200,0.301986083984375,1.848857045173645,-0.006786375772207975,0.2995920479297638
1772534477506003500,0.31200341796875,1.8499681949615479,-0.16498613357543945,0.3433464467525482
1772534477516019500,0.32201953125,1.8543826341629028,-0.29481929540634155,0.4003727436065674
1772534477526036200,0.3320361328125,1.8583108186721802,-0.31738078594207764,0.4573383033275604
1772534477536052500,0.342052490234375,1.8402382135391235,-0.30040690302848816,0.4984968602657318
1772534477546069500,0.352069580078125,1.80060875415802,-0.24680037796497345,0.5085649490356445
1772534477556085200,0.362085205078125,1.732163667678833,-0.19001242518424988,0.49001941084861755
1772534477566102500,0.3721025390625,1.6365734338760376,-0.1545013040304184,0.4463880658149719
1772534477576118500,0.382118408203125,1.537779450416565,-0.13774345815181732,0.3858487606048584
1772534477586134500,0.392134521484375,1.4359979629516602,-0.13077875971794128,0.31038516759872437
1772534477596151300,0.4021513671875,1.3329441547393799,-0.1084124967455864,0.2374815195798874
1772534477606167600,0.41216748046875,1.2343214750289917,-0.053748719394207,0.19312870502471924
1772534477616184600,0.4221845703125,1.1571855545043945,0.004268570337444544,0.16079239547252655
1772534477626200300,0.432200439453125,1.102051019668579,0.0608503594994545,0.13003768026828766
1772534477636217300,0.44221728515625,1.07787024974823,0.10772916674613953,0.1103796660900116
1772534477646233600,0.452233642578125,1.076441764831543,0.15381170809268951,0.1289759874343872
1772534477656250400,0.46225048828125,1.0892326831817627,0.22859737277030945,0.18190322816371918
1772534477666266400,0.472266357421875,1.1009080410003662,0.3022739887237549,0.2619836926460266
1772534477676283400,0.482283447265625,1.1132677793502808,0.3449418246746063,0.3526696264743805
1772534477686299600,0.492299560546875,1.1297274827957153,0.34893977642059326,0.4281204640865326
1772534477696315600,0.502315673828125,1.163536787033081,0.3342170715332031,0.4697471559047699
1772534477706332400,0.51233251953125,1.2014503479003906,0.2971663773059845,0.4737786650657654
1772534477716348400,0.522348388671875,1.2388337850570679,0.22312690317630768,0.4551951587200165
1772534477726365400,0.532365478515625,1.2639456987380981,0.13423804938793182,0.4435662031173706
1772534477736381400,0.54238134765625,1.2814007997512817,0.07613932341337204,0.4791250228881836
1772534477746398500,0.5523984375,1.2945150136947632,0.07969970256090164,0.5581032037734985
1772534477756414500,0.56241455078125,1.30644690990448,0.1196339875459671,0.6576276421546936
1772534477766431200,0.57243115234375,1.3146792650222778,0.2034258097410202,0.7632877826690674
1772534477776447500,0.582447509765625,1.329318642616272,0.35855308175086975,0.8886268138885498
1772534477786464500,0.592464599609375,1.3498328924179077,0.5609626173973083,1.0106347799301147
1772534477796480500,0.60248046875,1.3827159404754639,0.722377359867096,1.1095161437988281
1772534477806497300,0.612497314453125,1.441812515258789,0.807481050491333,1.17887282371521
1772534477816513500,0.622513427734375,1.5095607042312622,0.8378173112869263,1.2233766317367554
1772534477826529500,0.632529541015625,1.5592163801193237,0.8360958695411682,1.2366058826446533
1772534477836546300,0.64254638671875,1.57864511013031,0.7728529572486877,1.2070132493972778
1772534477846562300,0.652562255859375,1.5640077590942383,0.6896089315414429,1.116963267326355
1772534477856579600,0.66257958984375,1.5076332092285156,0.6381241679191589,0.9808865785598755
1772534477866595600,0.672595703125,1.4355326890945435,0.5642363429069519,0.8212345838546753
1772534477876612400,0.6826123046875,1.3676854372024536,0.4969198405742645,0.6647387742996216
1772534477886628400,0.69262841796875,1.3098140954971313,0.47310611605644226,0.5269231200218201
1772534477896645600,0.702645751953125,1.2517915964126587,0.44723352789878845,0.4150373339653015
1772534477906661600,0.71266162109375,1.1941062211990356,0.43993857502937317,0.35389140248298645
1772534477916678400,0.722678466796875,1.116312861442566,0.44628068804740906,0.3429931402206421
1772534477926694400,0.7326943359375,1.012847900390625,0.4528893232345581,0.3624528646469116
1772534477936710400,0.74271044921875,0.8857378363609314,0.5083587169647217,0.3943953216075897
1772534477946727400,0.7527275390625,0.7408365607261658,0.631698489189148,0.42075952887535095
1772534477956743400,0.762743408203125,0.6054912805557251,0.7116762399673462,0.4189866781234741
1772534477966760400,0.772760498046875,0.5141616463661194,0.7160741686820984,0.40044763684272766
1772534477976776400,0.7827763671875,0.4697020351886749,0.6767658591270447,0.36504775285720825
1772534477986793500,0.79279345703125,0.47003281116485596,0.578784167766571,0.30095264315605164
1772534477996809500,0.8028095703125,0.5118749737739563,0.4284476935863495,0.22482497990131378
1772534478006826500,0.812826416015625,0.5721412301063538,0.26899945735931396,0.17006586492061615
1772534478016842200,0.82284228515625,0.6385109424591064,0.1268104761838913,0.13065767288208008
1772534478026859500,0.832859619140625,0.7166683077812195,0.00020352122373878956,0.10521862655878067
1772534478036875500,0.84287548828125,0.795684278011322,-0.09339974820613861,0.11151593178510666
1772534478046891500,0.8528916015625,0.8478585481643677,-0.12456965446472168,0.17641982436180115
1772534478056908300,0.862908203125,0.8578376173973083,-0.031330231577157974,0.29514554142951965
1772534478066924300,0.87292431640625,0.822891116142273,0.3256811797618866,0.38170626759529114
1772534478076941600,0.882941650390625,0.799595057964325,0.5966539978981018,0.382680207490921
1772534478086957600,0.89295751953125,0.7733336091041565,0.665379524230957,0.2721542418003082
1772534478096974300,0.902974365234375,0.6798766255378723,0.5736483335494995,0.14267557859420776
1772534478106990300,0.912990234375,0.5021916031837463,0.570985734462738,0.03206997364759445
1772534478117007600,0.923007568359375,0.28557300567626953,0.5905510187149048,-0.05275196582078934
1772534478127023400,0.9330234375,0.0969005674123764,0.5840030908584595,-0.09411298483610153
1772534478137040400,0.943040283203125,-0.030349312350153923,0.5444062352180481,-0.07771077752113342
1772534478147056400,0.953056396484375,-0.0850042998790741,0.4911118149757385,-0.017832264304161072
1772534478157073400,0.963073486328125,-0.08340942859649658,0.44093218445777893,0.07585274428129196
1772534478167089400,0.97308935546875,-0.041507788002491,0.388254314661026,0.17049136757850647
1772534478177105400,0.98310546875,0.039490364491939545,0.33485543727874756,0.23458413779735565
1772534478187122400,0.993122314453125,0.14402449131011963,0.24210497736930847,0.2725253999233246
1772534478197138400,1.003138427734375,0.25235968828201294,0.15784046053886414,0.29012301564216614
1772534478207155500,1.013155517578125,0.3426049053668976,0.09614166617393494,0.2952554523944855
1772534478217171500,1.02317138671875,0.4158318042755127,0.047436054795980453,0.2896725535392761
1772534478227188200,1.033188232421875,0.47373825311660767,0.020806312561035156,0.25240930914878845
1772534478237204500,1.04320458984375,0.5080019235610962,0.04104567691683769,0.16676080226898193
1772534478247221500,1.053221435546875,0.5328580141067505,0.09389504045248032,0.048351868987083435
1772534478257237500,1.063237548828125,0.5755385160446167,0.16803334653377533,-0.0695589929819107
1772534478267254300,1.073254150390625,0.6445426344871521,0.2405320554971695,-0.16538192331790924
1772534478277270500,1.0832705078125,0.7352927923202515,0.2839917838573456,-0.22245925664901733
1772534478287286500,1.09328662109375,0.8415225148200989,0.33043143153190613,-0.22768543660640717
1772534478297303600,1.103303466796875,0.954037606716156,0.3545738756656647,-0.19925716519355774
1772534478307319300,1.1133193359375,1.0699002742767334,0.32820671796798706,-0.147234708070755
1772534478317336600,1.123336669921875,1.1629198789596558,0.28671517968177795,-0.075779989361763
1772534478327352600,1.1333525390625,1.216533899307251,0.28844597935676575,-0.0026839422062039375
1772534478337369300,1.143369384765625,1.2634484767913818,0.32163897156715393,0.04382908716797829
1772534478347385300,1.15338525390625,1.3230576515197754,0.35218700766563416,0.03890969604253769
1772534478357402600,1.163402587890625,1.385555386543274,0.37036585807800293,-0.008649623952805996
1772534478367418600,1.173418701171875,1.4458214044570923,0.38621407747268677,-0.06744769215583801
1772534478377435400,1.183435302734375,1.4988282918930054,0.416119247674942,-0.11651841551065445
1772534478387451400,1.193451416015625,1.5445177555084229,0.41991984844207764,-0.14904439449310303
1772534478397467400,1.20346728515625,1.577948808670044,0.3873632848262787,-0.15542110800743103
1772534478407484400,1.213484375,1.5977262258529663,0.30639147758483887,-0.1386333405971527
1772534478417500400,1.22350048828125,1.6006196737289429,0.2258549928665161,-0.09009488672018051
1772534478427517400,1.233517333984375,1.5952682495117188,0.19840526580810547,-0.024955028668045998
1772534478437533400,1.243533447265625,1.5934076309204102,0.2045460045337677,0.04051068425178528
1772534478447550500,1.253550537109375,1.599826693534851,0.2449602633714676,0.09742137789726257
1772534478457566500,1.26356640625,1.6118258237838745,0.28269195556640625,0.1279750019311905
1772534478467583500,1.27358349609375,1.6263070106506348,0.28430768847465515,0.12661945819854736
1772534478477599500,1.283599609375,1.6421080827713013,0.2428533434867859,0.09377507865428925
1772534478487616500,1.293616455078125,1.6527650356292725,0.17040684819221497,0.05547056347131729
1772534478497632500,1.303632568359375,1.6577210426330566,0.08462373912334442,0.035922449082136154
1772534478507648500,1.3136484375,1.661433219909668,0.03940512612462044,0.03669369965791702
1772534478517665300,1.323665283203125,1.6522449254989624,0.041868906468153,0.02483273670077324
1772534478527681300,1.333681396484375,1.632562279701233,0.06183622404932976,0.005528547335416079
1772534478537698300,1.3436982421875,1.62181556224823,0.07970467954874039,-0.0190551970154047
1772534478547714300,1.35371435546875,1.6160410642623901,0.10353970527648926,-0.03315237537026405
1772534478557731000,1.36373095703125,1.618515133857727,0.10894645005464554,-0.02320200577378273
1772534478567747000,1.3737470703125,1.6386486291885376,0.11704512685537338,0.03046575002372265
1772534478577764400,1.383764404296875,1.6445132493972778,0.13903707265853882,0.13901080191135406
1772534478587780400,1.3937802734375,1.6365357637405396,0.23887978494167328,0.2605002224445343
1772534478597797000,1.403797119140625,1.6190937757492065,0.4205312430858612,0.36595070362091064
1772534478607813000,1.413813232421875,1.5873690843582153,0.653008222579956,0.39650672674179077
1772534478617830400,1.423830322265625,1.5465644598007202,0.7942508459091187,0.3197186589241028
1772534478627846100,1.43384619140625,1.5138068199157715,0.7708565592765808,0.16365556418895721
1772534478637862100,1.443862060546875,1.5121760368347168,0.6570765376091003,0.02427508868277073
1772534478647879200,1.453879150390625,1.5411304235458374,0.562584400177002,-0.03444468230009079
1772534478657895200,1.463895263671875,1.5849416255950928,0.5025354623794556,-0.0031756856478750706
1772534478667912200,1.473912109375,1.623774766921997,0.4304077923297882,0.0724777951836586
1772534478677928200,1.48392822265625,1.645378828048706,0.3141079843044281,0.13263556361198425
1772534478687945200,1.4939453125,1.649096131324768,0.16563011705875397,0.14275796711444855
1772534478697961200,1.503961181640625,1.6589442491531372,0.06578724086284637,0.12034004926681519
1772534478707978200,1.513978271484375,1.682886004447937,-0.002526033902540803,0.09467409551143646
1772534478717994200,1.523994140625,1.722114086151123,-0.047512687742710114,0.06917321681976318
1772534478728011000,1.534010986328125,1.7685168981552124,-0.06370283663272858,0.06916150450706482
1772534478738027000,1.544027099609375,1.8035109043121338,-0.06820358335971832,0.10667692124843597
1772534478748043300,1.554043212890625,1.8119450807571411,-0.0324929878115654,0.1935311257839203
1772534478758060300,1.564060302734375,1.808355689048767,0.10121937096118927,0.2998109459877014
1772534478768076300,1.574076171875,1.8073742389678955,0.24005316197872162,0.37765246629714966
1772534478778093000,1.584093017578125,1.8077205419540405,0.37558913230895996,0.3954581320285797
1772534478788109300,1.594109375,1.8097532987594604,0.49420925974845886,0.35267844796180725
1772534478798126300,1.604126220703125,1.8184330463409424,0.5992639660835266,0.28142374753952026
1772534478808142000,1.61414208984375,1.820356845855713,0.7094144225120544,0.21090245246887207
1772534478818159000,1.6241591796875,1.8152642250061035,0.8018125891685486,0.16083842515945435
1772534478828175400,1.63417529296875,1.8121682405471802,0.835096001625061,0.1303766667842865
1772534478838192000,1.644192138671875,1.8047797679901123,0.8023585677146912,0.12270130217075348
1772534478848208100,1.6542080078125,1.8099700212478638,0.7232525944709778,0.1406262367963791
1772534478858224000,1.66422412109375,1.8367221355438232,0.6185866594314575,0.18048341572284698
1772534478868241400,1.674241455078125,1.8852553367614746,0.5042549967765808,0.22800858318805695
1772534478878257200,1.684257080078125,1.9390640258789062,0.37976518273353577,0.2896525263786316
1772534478888274200,1.694274169921875,1.9898138046264648,0.2974782884120941,0.3398909270763397
1772534478898290200,1.704290283203125,2.0277576446533203,0.28645193576812744,0.3611737787723541
1772534478908307200,1.71430712890625,2.0390126705169678,0.2903830409049988,0.3410264551639557
1772534478918323200,1.7243232421875,2.038372039794922,0.2749221920967102,0.29103946685791016
1772534478928340200,1.73434033203125,2.019270658493042,0.24402660131454468,0.2255919873714447
1772534478938356200,1.744356201171875,1.9838348627090454,0.20032769441604614,0.16778385639190674
1772534478948373000,1.754373046875,1.9282903671264648,0.14626313745975494,0.1363348513841629
1772534478958389200,1.76438916015625,1.8580083847045898,0.11998093128204346,0.13493743538856506
1772534478968406300,1.77440625,1.7877073287963867,0.14234082400798798,0.14577065408229828
1772534478978422300,1.78442236328125,1.7165719270706177,0.1873534470796585,0.16287659108638763
1772534478988438000,1.79443798828125,1.6567115783691406,0.24159084260463715,0.17827844619750977
1772534478998455300,1.804455322265625,1.6098382472991943,0.27205580472946167,0.1854279786348343
1772534479008471300,1.81447119140625,1.564883828163147,0.28761959075927734,0.18270622193813324
1772534479018488000,1.824488037109375,1.51981782913208,0.26474931836128235,0.17485018074512482
1772534479028504000,1.834504150390625,1.4675545692443848,0.2774829566478729,0.1701909750699997
1772534479038521300,1.844521240234375,1.4126942157745361,0.3507731258869171,0.17791831493377686
1772534479048537300,1.854537353515625,1.3637230396270752,0.4105307161808014,0.19103145599365234
1772534479058554000,1.86455419921875,1.316541075706482,0.45403629541397095,0.1927797645330429
1772534479068570000,1.874570068359375,1.2742992639541626,0.46332114934921265,0.17195916175842285
1772534479078587400,1.88458740234375,1.2386406660079956,0.4462139308452606,0.14715199172496796
1772534479088603100,1.89460302734375,1.2160029411315918,0.42082494497299194,0.13320128619670868
1772534479098619100,1.904619140625,1.2063543796539307,0.37501782178878784,0.12335596233606339
1772534479108636200,1.91463623046875,1.1997244358062744,0.28225967288017273,0.13213002681732178
1772534479118652200,1.924652099609375,1.1936930418014526,0.1918019950389862,0.16317592561244965
1772534479128669200,1.934669189453125,1.1680691242218018,0.12224180996417999,0.2148178219795227
1772534479138685200,1.944685302734375,1.119930624961853,0.14207303524017334,0.25946593284606934
1772534479148702200,1.9547021484375,1.0660154819488525,0.21914811432361603,0.27776265144348145
1772534479158718200,1.96471826171875,1.007798671722412,0.3052697479724884,0.24127213656902313
1772534479168735200,1.9747353515625,0.9469281435012817,0.36786308884620667,0.16115786135196686
1772534479178751200,1.984751220703125,0.8940672874450684,0.3973108232021332,0.05171807482838631
1772534479188768300,1.994768310546875,0.8504143953323364,0.4089176654815674,-0.055333010852336884
1772534479198784000,2.004783935546875,0.8243839740753174,0.41720476746559143,-0.14533916115760803
1772534479208801300,2.01480126953125,0.8103720545768738,0.40907707810401917,-0.19003020226955414
1772534479218817300,2.0248173828125,0.8121243715286255,0.4075849652290344,-0.1896657943725586
1772534479228833300,2.034833251953125,0.8263331651687622,0.3681667149066925,-0.15015967190265656
1772534479238850000,2.04485009765625,0.8364361524581909,0.3125276565551758,-0.08035548031330109
1772534479248866000,2.054865966796875,0.8475119471549988,0.26195263862609863,-0.004979498218744993
1772534479258883300,2.06488330078125,0.8651615977287292,0.19108183681964874,0.060567326843738556
1772534479268899300,2.0748994140625,0.88116455078125,0.10727029293775558,0.11595281958580017
1772534479278916000,2.084916015625,0.8879942297935486,0.03524963557720184,0.1587815135717392
1772534479288932000,2.09493212890625,0.8727265000343323,0.004064264707267284,0.18251246213912964
1772534479298949000,2.10494921875,0.8442314267158508,0.028569135814905167,0.17907068133354187
1772534479308965000,2.114965087890625,0.7996585965156555,0.06743637472391129,0.14255155622959137
1772534479318982100,2.124982177734375,0.7403578162193298,0.08375000208616257,0.07101958990097046
1772534479328998100,2.134998046875,0.6701654195785522,0.055620357394218445,-0.011867042630910873
1772534479339014400,2.145014404296875,0.5793341994285583,-0.004779171664267778,-0.06850150227546692
1772534479349031200,2.15503125,0.480623334646225,-0.02607034519314766,-0.07834214717149734
1772534479359047200,2.165047119140625,0.38481220602989197,-0.06820876151323318,-0.062346652150154114
1772534479369064200,2.175064208984375,0.29117172956466675,-0.14029119908809662,-0.021726254373788834
1772534479379080200,2.185080078125,0.21176287531852722,-0.16654828190803528,0.03393885865807533
1772534479389097200,2.19509716796875,0.1479354202747345,-0.15242154896259308,0.08456635475158691
1772534479399113200,2.20511328125,0.09226291626691818,-0.10781912505626678,0.1057809442281723
1772534479409130000,2.2151298828125,0.04722832515835762,-0.03286872059106827,0.0767250582575798
1772534479419146200,2.225146240234375,0.017765171825885773,0.02743108570575714,-0.002310040406882763
1772534479429163300,2.235163330078125,0.009522687643766403,0.0723908394575119,-0.09521281719207764
1772534479439179300,2.24517919921875,0.020483845844864845,0.10986965149641037,-0.1569560468196869
1772534479449196000,2.255196044921875,0.051360536366701126,0.12469786405563354,-0.15839149057865143
1772534479459212300,2.26521240234375,0.08704344928264618,0.10000967979431152,-0.08950278162956238
1772534479469228300,2.275228271484375,0.11642291396856308,0.11410978436470032,0.03193257004022598
1772534479479245300,2.285245361328125,0.13358443975448608,0.13890860974788666,0.1556931883096695
1772534479489261000,2.295260986328125,0.1352505087852478,0.12677817046642303,0.23343858122825623
1772534479499278300,2.3052783203125,0.1367114931344986,0.06642377376556396,0.24871407449245453
1772534479509294300,2.31529443359375,0.15032263100147247,0.010492868721485138,0.22866500914096832
1772534479519311000,2.32531103515625,0.17802412807941437,0.009160632267594337,0.21188215911388397
1772534479529327000,2.3353271484375,0.20936714112758636,0.028332995250821114,0.20591801404953003
1772534479539344600,2.3453447265625,0.24231532216072083,0.06754650175571442,0.20925267040729523
1772534479549360600,2.355360595703125,0.2775076627731323,0.08869972825050354,0.22659623622894287
1772534479559377700,2.365377685546875,0.29583045840263367,0.11197421699762344,0.25480204820632935
1772534479569393700,2.3753935546875,0.2964666783809662,0.11756099760532379,0.2800796926021576
1772534479579409700,2.38540966796875,0.2918347418308258,0.1272100806236267,0.28829532861709595
1772534479589426400,2.395426513671875,0.2887688875198364,0.11578352004289627,0.26599666476249695
1772534479599442400,2.4054423828125,0.27903759479522705,0.03405988588929176,0.226502925157547
1772534479609459700,2.415459716796875,0.24852445721626282,-0.055403418838977814,0.18786898255348206
1772534479619475700,2.425475830078125,0.2059747725725174,-0.08806830644607544,0.16679225862026215
1772534479629492500,2.435492431640625,0.1506071239709854,-0.09425109624862671,0.15635159611701965
1772534479639508500,2.445508544921875,0.10255690664052963,-0.09775163978338242,0.1584722250699997
1772534479649525800,2.45552587890625,0.0651317685842514,-0.09271746873855591,0.16032391786575317
1772534479659541500,2.46554150390625,0.04760083183646202,-0.06538274139165878,0.16404086351394653
1772534479669558500,2.47555859375,0.05077984929084778,-0.03784671798348427,0.14636999368667603
1772534479679574500,2.485574462890625,0.06733310967683792,-0.024373071268200874,0.11230543255805969
1772534479689591600,2.495591552734375,0.08382420241832733,-0.0036728540435433388,0.06870310008525848
1772534479699607600,2.505607666015625,0.08850114792585373,0.01912255771458149,0.019791437312960625
1772534479709623600,2.51562353515625,0.081309013068676,0.030480138957500458,-0.020571697503328323
1772534479719640600,2.525640625,0.06654883176088333,0.037560418248176575,-0.05190054327249527
1772534479729656600,2.535656494140625,0.05474650487303734,0.044061992317438126,-0.07341036200523376
1772534479739673600,2.545673583984375,0.056410808116197586,0.04040748253464699,-0.08915618062019348
1772534479749689600,2.555689697265625,0.06391080468893051,0.06586810201406479,-0.09616455435752869
1772534479759706600,2.56570654296875,0.07268509268760681,0.10261351615190506,-0.09229951351881027
1772534479769722400,2.575722412109375,0.09686712920665741,0.14332154393196106,-0.09437784552574158
1772534479779739600,2.58573974609375,0.13959766924381256,0.1818569004535675,-0.09562886506319046
1772534479789755600,2.595755615234375,0.20036087930202484,0.2491171509027481,-0.09884223341941833
1772534479799772400,2.6057724609375,0.26015937328338623,0.3140566647052765,-0.10041329264640808
1772534479809788400,2.615788330078125,0.3252536654472351,0.3510405123233795,-0.09741590172052383
1772534479819805700,2.6258056640625,0.38720184564590454,0.35554632544517517,-0.08467528969049454
1772534479829821700,2.63582177734375,0.43849194049835205,0.36489933729171753,-0.05930575355887413
1772534479839837400,2.64583740234375,0.4737824499607086,0.3435816168785095,-0.02570042945444584
1772534479849854500,2.6558544921875,0.4885968267917633,0.31692788004875183,0.018714971840381622
1772534479859870700,2.66587060546875,0.4906761646270752,0.3222998380661011,0.05978640541434288
1772534479869887500,2.675887451171875,0.46959564089775085,0.3355613052845001,0.07925064861774445
1772534479879903500,2.685903564453125,0.43258726596832275,0.34049227833747864,0.058683935552835464
1772534479889920500,2.69592041015625,0.39689478278160095,0.33424848318099976,0.009546482935547829
1772534479899936800,2.705936767578125,0.3649277091026306,0.3225771486759186,-0.05173483490943909
1772534479909953500,2.71595361328125,0.34356117248535156,0.3158388137817383,-0.09897319227457047
1772534479919969500,2.725969482421875,0.32352375984191895,0.32200953364372253,-0.12540853023529053
1772534479929986600,2.735986572265625,0.30478018522262573,0.31395265460014343,-0.12413846701383591
1772534479940002600,2.74600244140625,0.2794472575187683,0.3079119622707367,-0.10088691115379333
1772534479950019600,2.75601953125,0.22399064898490906,0.34368568658828735,-0.07261346280574799
1772534479960035600,2.76603564453125,0.143284410238266,0.3859449326992035,-0.06443070620298386
1772534479970051600,2.776051513671875,0.05100667476654053,0.3970167636871338,-0.08234286308288574
1772534479980068600,2.786068603515625,-0.03250541165471077,0.3776435852050781,-0.12426043301820755
1772534479990084600,2.796084716796875,-0.08590604364871979,0.3376554250717163,-0.16974881291389465
1772534480000101600,2.8061015625,-0.09349267184734344,0.2723512053489685,-0.1965922713279724
1772534480010117600,2.81611767578125,-0.052135638892650604,0.17606033384799957,-0.19621330499649048
1772534480020134700,2.826134765625,0.021206846460700035,0.07374321669340134,-0.15634948015213013
1772534480030150700,2.836150634765625,0.09707178920507431,0.022251524031162262,-0.09112119674682617
1772534480040167700,2.846167724609375,0.1414606273174286,0.03064613789319992,-0.027801765128970146
1772534480050183400,2.856183349609375,0.14791905879974365,0.05778135359287262,0.0037188753485679626
1772534480060200700,2.86620068359375,0.12785933911800385,0.06672576069831848,-0.0018520234152674675
1772534480070216700,2.876216796875,0.09157641977071762,0.07667186856269836,-0.03307385742664337
1772534480080233500,2.8862333984375,0.06390564143657684,0.12293416261672974,-0.06358223408460617
1772534480090249500,2.89624951171875,0.05408301204442978,0.2142738252878189,-0.07589557021856308
1772534480100265500,2.906265380859375,0.058763641864061356,0.336532324552536,-0.0660790279507637
1772534480110282800,2.91628271484375,0.06637335568666458,0.4162295460700989,-0.05689883977174759
1772534480120298800,2.926298828125,0.0857110321521759,0.41644734144210815,-0.053801968693733215
1772534480130315500,2.9363154296875,0.10944218933582306,0.35763198137283325,-0.05173109471797943
1772534480140331500,2.94633154296875,0.12305609881877899,0.2923862636089325,-0.03743645176291466
1772534480150348500,2.9563486328125,0.1179894357919693,0.24307036399841309,-0.0032313456758856773
1772534480160364500,2.966364501953125,0.09576596319675446,0.24939782917499542,0.03382852301001549
1772534480170381600,2.976381591796875,0.06428846716880798,0.27998238801956177,0.07050930708646774
1772534480180397600,2.9863974609375,0.030850080773234367,0.3481196165084839,0.09609908610582352
1772534480190414600,2.99641455078125,0.00802891980856657,0.4377354681491852,0.08798398822546005
1772534480200430600,3.0064306640625,0.010179882869124413,0.4927811622619629,0.04468531534075737
1772534480210447600,3.016447509765625,0.031796492636203766,0.527220606803894,-0.018844394013285637
1772534480220463600,3.026463623046875,0.06732548028230667,0.5393490195274353,-0.07791437208652496
1772534480230479400,3.036479248046875,0.11936204880475998,0.5359388589859009,-0.13166415691375732
1772534480240496600,3.04649658203125,0.1840682476758957,0.4684220254421234,-0.1639973372220993
1772534480250512600,3.0565126953125,0.2644160985946655,0.36262527108192444,-0.1613810509443283
1772534480260529400,3.066529296875,0.3519386947154999,0.2658683657646179,-0.10926302522420883
1772534480270545400,3.07654541015625,0.44229549169540405,0.18728646636009216,-0.017190616577863693
1772534480280562700,3.086562744140625,0.5312729477882385,0.1366197019815445,0.09374405443668365
1772534480290578700,3.09657861328125,0.6077451109886169,0.11989079415798187,0.19637750089168549
1772534480300595500,3.106595458984375,0.6639137268066406,0.11337929964065552,0.27412596344947815
1772534480310611500,3.116611572265625,0.7065653204917908,0.16354314982891083,0.30969542264938354
1772534480320628700,3.126628662109375,0.7388612031936646,0.2180922031402588,0.2874754071235657
1772534480330644500,3.13664453125,0.7611923217773438,0.2478061467409134,0.22202928364276886
1772534480340660500,3.146660400390625,0.7751824259757996,0.2513977587223053,0.1373688280582428
1772534480350677500,3.156677490234375,0.7958067655563354,0.22699043154716492,0.061871133744716644
1772534480360693500,3.166693603515625,0.8240467309951782,0.1866489052772522,0.016008662059903145
1772534480370710500,3.17671044921875,0.8656508922576904,0.13511274755001068,-0.003360242582857609
1772534480380726500,3.1867265625,0.9125921726226807,0.03544051945209503,0.0005281087942421436
1772534480390743600,3.19674365234375,0.9524282813072205,-0.0726206973195076,0.023510389029979706
1772534480400759600,3.206759521484375,0.9709171056747437,-0.17456193268299103,0.058690618723630905
1772534480410776600,3.216776611328125,0.9520733952522278,-0.2336697280406952,0.10000263154506683
1772534480420792600,3.22679248046875,0.9106219410896301,-0.2372315675020218,0.123304083943367
1772534480430809600,3.2368095703125,0.8545882105827332,-0.24696941673755646,0.11416251957416534
1772534480440825300,3.246825439453125,0.7842347025871277,-0.2730945348739624,0.07804916799068451
1772534480450842600,3.256842529296875,0.704793393611908,-0.2791915833950043,0.01556581724435091
1772534480460858600,3.266858642578125,0.6184898018836975,-0.2674552798271179,-0.06009037420153618
1772534480470874600,3.27687451171875,0.5346508622169495,-0.2593981623649597,-0.11974705010652542
1772534480480891400,3.286891357421875,0.474825382232666,-0.227385014295578,-0.13923825323581696
1772534480490907600,3.29690771484375,0.4381294250488281,-0.17204931378364563,-0.12328538298606873
1772534480500924700,3.306924560546875,0.42786329984664917,-0.1300567090511322,-0.08207204192876816
1772534480510940700,3.316940673828125,0.4295690655708313,-0.07902228087186813,-0.024593301117420197
1772534480520957400,3.32695751953125,0.44013580679893494,-0.015394836664199829,0.02678072080016136
1772534480530973700,3.3369736328125,0.45724740624427795,0.04207165166735649,0.04899121820926666
1772534480540990700,3.34699072265625,0.46388012170791626,0.06190130114555359,0.042585890740156174
1772534480551006700,3.3570068359375,0.4680016338825226,0.05999128147959709,0.01644217036664486
1772534480561023700,3.367023681640625,0.481690376996994,0.025710539892315865,-0.017409754917025566
1772534480571039700,3.377039794921875,0.4880353808403015,-0.0413995236158371,-0.029901577159762383
1772534480581056800,3.387056884765625,0.4750431478023529,-0.07513648271560669,-0.006031582597643137
1772534480591072800,3.39707275390625,0.4508986473083496,-0.05962037667632103,0.034429293125867844
1772534480601088800,3.4070888671875,0.41602495312690735,-0.06036712974309921,0.0684237852692604
1772534480611105800,3.417105712890625,0.3755757808685303,-0.08240877836942673,0.07758799195289612
1772534480621121500,3.42712158203125,0.3292422294616699,-0.10955743491649628,0.05722745135426521
1772534480631138800,3.437138916015625,0.2798592150211334,-0.13021476566791534,0.014766012318432331
1772534480641154800,3.44715478515625,0.24214567244052887,-0.15855266153812408,-0.03857417404651642
1772534480651171600,3.457171630859375,0.2181370109319687,-0.18356853723526,-0.06447634845972061
1772534480661187600,3.4671875,0.19927649199962616,-0.1730549931526184,-0.05556870624423027
1772534480671204900,3.477204833984375,0.17353437840938568,-0.11206434667110443,-0.026755167171359062
1772534480681220900,3.487220947265625,0.14592376351356506,-0.03832940757274628,-0.002574368380010128
1772534480691237600,3.497237548828125,0.12389463931322098,-0.0015897675184533,-0.010596875101327896
1772534480701253600,3.507253662109375,0.10498103499412537,-0.012935287319123745,-0.04800420626997948
1772534480711270000,3.517269775390625,0.092924103140831,-0.05506729334592819,-0.09211920201778412
1772534480721286700,3.52728662109375,0.07510825246572495,-0.14306356012821198,-0.10625254362821579
1772534480731302700,3.537302734375,0.05121917277574539,-0.1756819486618042,-0.06373411417007446
1772534480741319700,3.547319580078125,0.0310969315469265,-0.14891508221626282,0.02064070850610733
1772534480751335700,3.557335693359375,0.017646102234721184,-0.13832423090934753,0.11224652826786041
1772534480761352700,3.567352783203125,0.004428543616086245,-0.1430402249097824,0.18718813359737396
1772534480771368700,3.57736865234375,-0.02311333455145359,-0.13828381896018982,0.24061328172683716
1772534480781385700,3.5873857421875,-0.06558007746934891,-0.10445969551801682,0.26359307765960693
1772534480791401700,3.597401611328125,-0.12928450107574463,-0.09838555753231049,0.2499944567680359
1772534480801418800,3.607418701171875,-0.20208869874477386,-0.1235228031873703,0.214983269572258
1772534480811434800,3.617434814453125,-0.2873186469078064,-0.11757543683052063,0.16273045539855957
1772534480821451800,3.62745166015625,-0.38249409198760986,-0.06883544474840164,0.10438098758459091
1772534480831467500,3.637467529296875,-0.46129781007766724,-0.017131241038441658,0.04430247098207474
1772534480841483800,3.64748388671875,-0.5257868766784668,0.024250492453575134,-0.009451685473322868
1772534480851500800,3.657500732421875,-0.577698290348053,0.05496925860643387,-0.04375160112977028
1772534480861516800,3.667516845703125,-0.6136110424995422,0.060857485979795456,-0.047242939472198486
1772534480871533600,3.677533447265625,-0.6448054909706116,0.047798410058021545,-0.028143014758825302
1772534480881549800,3.6875498046875,-0.6701276302337646,0.040544673800468445,0.007321761921048164
1772534480891566800,3.69756689453125,-0.6855444312095642,0.03893958777189255,0.04170796647667885
1772534480901582600,3.70758251953125,-0.6880508065223694,0.04487266018986702,0.08269938826560974
1772534480911599600,3.717599609375,-0.6876004934310913,0.08598973602056503,0.12536270916461945
1772534480921616000,3.727615966796875,-0.6844905614852905,0.16099780797958374,0.16395646333694458
1772534480931632600,3.737632568359375,-0.6716375946998596,0.2535786032676697,0.17992477118968964
1772534480941648600,3.747648681640625,-0.6561107635498047,0.3450368642807007,0.15637582540512085
1772534480951664600,3.75766455078125,-0.6400670409202576,0.4119083285331726,0.10166490823030472
1772534480961682000,3.767681884765625,-0.6265529990196228,0.44537436962127686,0.03153228759765625
1772534480971698000,3.777697998046875,-0.6215071082115173,0.4680224061012268,-0.0235927514731884
1772534480981714700,3.787714599609375,-0.6113275289535522,0.4996596574783325,-0.045360296964645386
1772534480991730700,3.797730712890625,-0.5952199101448059,0.5124154090881348,-0.02253434620797634
1772534481001748000,3.807748046875,-0.575440526008606,0.5201422572135925,0.03849859535694122
1772534481011763700,3.817763671875,-0.5413067936897278,0.545892596244812,0.1046171635389328
1772534481021780700,3.82778076171875,-0.48758983612060547,0.5036589503288269,0.15398892760276794
1772534481031796700,3.837796630859375,-0.41057732701301575,0.407455176115036,0.17808067798614502
1772534481041813800,3.847813720703125,-0.3224296271800995,0.26983651518821716,0.18271921575069427
1772534481051829800,3.857829833984375,-0.2373456060886383,0.1295609027147293,0.19081470370292664
1772534481061846800,3.8678466796875,-0.18504782021045685,0.039911091327667236,0.1971876323223114
1772534481071862800,3.87786279296875,-0.1861943155527115,-0.020410308614373207,0.1899166703224182
1772534481081878800,3.887878662109375,-0.23082007467746735,-0.08326264470815659,0.15625689923763275
1772534481091895800,3.897895751953125,-0.29118087887763977,-0.13515619933605194,0.09511738270521164
1772534481101911800,3.907911865234375,-0.35006120800971985,-0.15227355062961578,0.036295969039201736
1772534481111928600,3.917928466796875,-0.41497042775154114,-0.11876699328422546,-0.00929175317287445
1772534481121944600,3.927944580078125,-0.485723078250885,-0.039739225059747696,-0.05007901042699814
1772534481131961900,3.9379619140625,-0.5643198490142822,0.03063960187137127,-0.09683693200349808
1772534481141977900,3.947977783203125,-0.6231209635734558,0.11618814617395401,-0.1518402099609375
1772534481151994600,3.95799462890625,-0.6569439172744751,0.20310306549072266,-0.21320317685604095
1772534481162010600,3.9680107421875,-0.6650729179382324,0.2506250739097595,-0.2931939363479614
1772534481172028000,3.97802783203125,-0.6508971452713013,0.25188687443733215,-0.37100696563720703
1772534481182044000,3.9880439453125,-0.6195290684700012,0.20593062043190002,-0.42158544063568115
1772534481192060700,3.998060791015625,-0.5898731350898743,0.1245604008436203,-0.43998414278030396
1772534481202076700,4.00807666015625,-0.5536556839942932,0.031724266707897186,-0.4151969254016876
1772534481212092700,4.0180927734375,-0.5261873006820679,-0.016007304191589355,-0.367272287607193
1772534481222109700,4.028109619140625,-0.5105870962142944,-0.04264909401535988,-0.3128501772880554
1772534481232125700,4.038125732421875,-0.508074939250946,-0.064358651638031,-0.2703634202480316
1772534481242142700,4.048142822265625,-0.5259835124015808,-0.049973588436841965,-0.24880138039588928
1772534481252158700,4.05815869140625,-0.5624089241027832,-0.008491392247378826,-0.24217915534973145
1772534481262175700,4.06817578125,-0.5784574151039124,0.04668111354112625,-0.25208044052124023
1772534481272191700,4.078191650390625,-0.5639506578445435,0.12487151473760605,-0.2826274335384369
1772534481282208800,4.088208740234375,-0.5067204236984253,0.21206386387348175,-0.3301669955253601
1772534481292224800,4.098224853515625,-0.41842812299728394,0.24334189295768738,-0.3831127882003784
1772534481302241800,4.10824169921875,-0.3105325996875763,0.2377886176109314,-0.4253908395767212
1772534481312257800,4.1182578125,-0.21074873208999634,0.1959783136844635,-0.4384706914424896
1772534481322273800,4.128273681640625,-0.14927636086940765,0.13470341265201569,-0.4112752676010132
1772534481332290600,4.13829052734375,-0.12065137177705765,0.10858339816331863,-0.3426341712474823
1772534481342306800,4.148306884765625,-0.09811368584632874,0.12434612214565277,-0.2549571096897125
1772534481352323800,4.15832373046875,-0.06031171604990959,0.13640117645263672,-0.18498733639717102
1772534481362339800,4.16833984375,0.008622199296951294,0.1038200706243515,-0.13915643095970154
1772534481372356600,4.178356689453125,0.10385337471961975,0.034660704433918,-0.12728752195835114
1772534481382372900,4.188372802734375,0.22151514887809753,-0.05871135741472244,-0.12799577414989471
1772534481392390000,4.198389892578125,0.3384673297405243,-0.14846335351467133,-0.12343885749578476
1772534481402405600,4.208405517578125,0.4403086304664612,-0.2495577484369278,-0.11670216172933578
1772534481412422700,4.218422607421875,0.5018993020057678,-0.3583763837814331,-0.09695775806903839
1772534481422438700,4.228438720703125,0.5205885767936707,-0.43224114179611206,-0.05850924178957939
1772534481432455700,4.23845556640625,0.5140254497528076,-0.45842933654785156,-0.020216714590787888
1772534481442471700,4.2484716796875,0.48858463764190674,-0.48018091917037964,0.00792049802839756
1772534481452487700,4.25848779296875,0.4494204521179199,-0.5354498028755188,0.012844417244195938
1772534481462504700,4.268504638671875,0.4173741042613983,-0.5456504821777344,0.008718914352357388
1772534481472520700,4.278520751953125,0.4095800817012787,-0.48438313603401184,0.004302061628550291
1772534481482537700,4.288537841796875,0.4292754530906677,-0.3720875382423401,-0.004459057003259659
1772534481492553700,4.2985537109375,0.4653511643409729,-0.20682479441165924,-0.018391650170087814
1772534481502570800,4.30857080078125,0.5023623108863831,-0.029477758333086967,-0.019091932103037834
1772534481512586800,4.318586669921875,0.5245069861412048,0.12410621345043182,0.0010436968877911568
1772534481522603800,4.328603759765625,0.5279147624969482,0.23295244574546814,0.04098817706108093
1772534481532619800,4.338619873046875,0.5276058316230774,0.32678839564323425,0.08398064970970154
1772534481542636500,4.348636474609375,0.5346732139587402,0.3744469881057739,0.10800205171108246
1772534481552652500,4.358652587890625,0.5482361316680908,0.37809500098228455,0.1018512099981308
1772534481562668500,4.36866845703125,0.5628480315208435,0.3390570282936096,0.07005506753921509
1772534481572685800,4.378685791015625,0.5782693028450012,0.24969491362571716,0.026692410930991173
1772534481582701600,4.38870166015625,0.5884694457054138,0.1350380778312683,-0.029165947809815407
1772534481592718600,4.398718505859375,0.5756508708000183,0.0019119798671454191,-0.08940079063177109
1772534481602734600,4.408734619140625,0.5312117338180542,-0.12183216214179993,-0.12339607626199722
1772534481612751600,4.418751708984375,0.45788612961769104,-0.2044825702905655,-0.1132345199584961
1772534481622767600,4.428767578125,0.3677116334438324,-0.2281237691640854,-0.06002875789999962
1772534481632784600,4.43878466796875,0.25895267724990845,-0.19031193852424622,0.011247819289565086
1772534481642800600,4.448800537109375,0.1330094337463379,-0.13760167360305786,0.07484607398509979
1772534481652817700,4.458817626953125,0.025167135521769524,-0.07714871317148209,0.09978125244379044
1772534481662833700,4.468833740234375,-0.046910811215639114,0.005258958321064711,0.0801200121641159
1772534481672850700,4.4788505859375,-0.06638330966234207,0.11048337817192078,0.021559759974479675
1772534481682866700,4.48886669921875,-0.03790358826518059,0.2153424620628357,-0.04009281471371651
1772534481692882400,4.49888232421875,0.032208919525146484,0.3183135986328125,-0.0823313444852829
1772534481702899700,4.508899658203125,0.13518792390823364,0.3608432114124298,-0.09578968584537506
1772534481712915700,4.518915771484375,0.25616171956062317,0.3397941291332245,-0.07421994209289551
1772534481722932500,4.528932373046875,0.37766286730766296,0.2532872259616852,-0.015745261684060097
1772534481732948500,4.538948486328125,0.48240527510643005,0.12941507995128632,0.07214092463254929
1772534481742965800,4.5489658203125,0.5633650422096252,0.0032224804162979126,0.17264719307422638
1772534481752981800,4.558981689453125,0.6203431487083435,-0.11694014817476273,0.25815144181251526
1772534481762998500,4.56899853515625,0.6567250490188599,-0.22998379170894623,0.31489428877830505
1772534481773014500,4.5790146484375,0.6741021275520325,-0.30428361892700195,0.32978615164756775
1772534481783031800,4.58903173828125,0.6651349663734436,-0.3561268746852875,0.3100838363170624
1772534481793047600,4.599047607421875,0.6287447810173035,-0.3783978521823883,0.2569548487663269
1772534481803063600,4.6090634765625,0.5535283088684082,-0.3787749111652374,0.19391971826553345
1772534481813080600,4.61908056640625,0.4372771084308624,-0.3109931945800781,0.1335887312889099
1772534481823096600,4.6290966796875,0.29862937331199646,-0.21784140169620514,0.06019826605916023
1772534481833113600,4.639113525390625,0.15709325671195984,-0.12932297587394714,-0.01664777845144272
1772534481843129600,4.649129638671875,0.040459658950567245,-0.0441652350127697,-0.08561696857213974
1772534481853146600,4.659146728515625,-0.032886989414691925,0.029092468321323395,-0.13635019958019257
1772534481863162600,4.66916259765625,-0.059961821883916855,0.07696063816547394,-0.15630438923835754
1772534481873179600,4.6791796875,-0.05053503066301346,0.09837458282709122,-0.13251464068889618
1772534481883195600,4.689195556640625,-0.01817801408469677,0.11051300913095474,-0.07443194836378098
1772534481893212700,4.699212646484375,0.02178484946489334,0.11309494078159332,0.0068783569149672985
1772534481903228400,4.709228515625,0.060864973813295364,0.09300947934389114,0.08710895478725433
1772534481913244700,4.71924462890625,0.0905083492398262,0.057693835347890854,0.1408534049987793
1772534481923261700,4.72926171875,0.11197507381439209,0.01572825387120247,0.16420598328113556
1772534481933277700,4.739277587890625,0.11087492108345032,-0.05456028878688812,0.15182362496852875
1772534481943294500,4.74929443359375,0.09040562808513641,-0.12613266706466675,0.11564856767654419
1772534481953310700,4.759310791015625,0.0607001930475235,-0.18784210085868835,0.06534039974212646
1772534481963327700,4.76932763671875,0.021404985338449478,-0.2375318855047226,0.015673507004976273
1772534481973343500,4.779343505859375,-0.02894713543355465,-0.26251283288002014,-0.0184794869273901
1772534481983360500,4.789360595703125,-0.08831673860549927,-0.2655678689479828,-0.036205410957336426
1772534481993376800,4.799376708984375,-0.13549543917179108,-0.21801766753196716,-0.028725653886795044
1772534482003393500,4.8093935546875,-0.15718689560890198,-0.1517411768436432,-0.013418606482446194
1772534482013409500,4.819409423828125,-0.1556912660598755,-0.1087564155459404,0.004924981389194727
1772534482023426600,4.829426513671875,-0.1286584883928299,-0.0715690404176712,0.022716879844665527
1772534482033442600,4.839442626953125,-0.09271381795406342,-0.06257554143667221,0.034076593816280365
1772534482043458800,4.849458740234375,-0.062258586287498474,-0.09792216122150421,0.05267126485705376
1772534482053475600,4.8594755859375,-0.050880491733551025,-0.12216305732727051,0.09339525550603867
1772534482063491600,4.86949169921875,-0.06048063188791275,-0.12292464077472687,0.1461988240480423
1772534482073508600,4.879508544921875,-0.0851106122136116,-0.0983540490269661,0.19346913695335388
1772534482083524600,4.889524658203125,-0.11371855437755585,-0.10401353240013123,0.21052561700344086
1772534482093541600,4.899541748046875,-0.15122145414352417,-0.14577803015708923,0.1921045333147049
1772534482103557600,4.9095576171875,-0.20175977051258087,-0.2315783053636551,0.16666387021541595
1772534482113574400,4.919574462890625,-0.2502466142177582,-0.27964863181114197,0.15218639373779297
1772534482123590700,4.929590576171875,-0.2878475785255432,-0.26717936992645264,0.15545310080051422
1772534482133607700,4.939607666015625,-0.3246055841445923,-0.2347727119922638,0.15989018976688385
1772534482143623700,4.949623779296875,-0.38059201836586,-0.20355212688446045,0.14411048591136932
1772534482153639700,4.9596396484375,-0.45534563064575195,-0.1483147144317627,0.10672769695520401
1772534482163656700,4.96965673828125,-0.5276360511779785,-0.09668532758951187,0.04298439994454384
1772534482173672700,4.979672607421875,-0.5787858963012695,-0.06137509644031525,-0.027978243306279182
1772534482183689500,4.989689453125,-0.6031665802001953,-0.04490203037858009,-0.08405882120132446
1772534482193705500,4.99970556640625,-0.6072185635566711,-0.03629549220204353,-0.10769357532262802
1772534482203722800,5.00972265625,-0.5987263321876526,-0.08322206884622574,-0.09384673833847046
1772534482213738800,5.01973876953125,-0.5842397809028625,-0.16434434056282043,-0.030596395954489708
1772534482223755500,5.029755615234375,-0.5605877041816711,-0.1741562932729721,0.06696631014347076
1772534482233771500,5.039771484375,-0.5349694490432739,-0.16127830743789673,0.15240983664989471
1772534482243788800,5.049788818359375,-0.5138928890228271,-0.16082264482975006,0.19330985844135284
1772534482253804800,5.0598046875,-0.49443596601486206,-0.19632844626903534,0.17660380899906158
1772534482263820500,5.069820556640625,-0.4830971360206604,-0.24305212497711182,0.11389441043138504
1772534482273837600,5.079837646484375,-0.4885963201522827,-0.30470722913742065,0.017062408849596977
1772534482283853600,5.089853515625,-0.4935864508152008,-0.40050992369651794,-0.08891753852367401
1772534482293870600,5.09987060546875,-0.4858291745185852,-0.48559099435806274,-0.1721213459968567
1772534482303886600,5.109886474609375,-0.4756699204444885,-0.5623247027397156,-0.21577157080173492
1772534482313903600,5.119903564453125,-0.4582134187221527,-0.6525131464004517,-0.21021701395511627
1772534482323919600,5.129919677734375,-0.45181363821029663,-0.7045126557350159,-0.15803435444831848
1772534482333936600,5.1399365234375,-0.47840502858161926,-0.7086014151573181,-0.0835430696606636
1772534482343952600,5.14995263671875,-0.556008517742157,-0.6641149520874023,-0.028708409518003464
1772534482353969700,5.1599697265625,-0.6603791117668152,-0.5756801962852478,-0.015607256442308426
1772534482363985700,5.169985595703125,-0.7715132236480713,-0.4840839207172394,-0.05721341818571091
1772534482374002700,5.180002685546875,-0.8728992342948914,-0.37567514181137085,-0.13856792449951172
1772534482384018700,5.190018798828125,-0.9498830437660217,-0.23278780281543732,-0.22418032586574554
1772534482394034700,5.20003466796875,-0.9872599840164185,-0.07379763573408127,-0.27562275528907776
1772534482404051500,5.210051513671875,-0.9770941138267517,0.08123505115509033,-0.2768042981624603
1772534482414067500,5.2200673828125,-0.9199051856994629,0.19224919378757477,-0.23401370644569397
1772534482424084700,5.230084716796875,-0.8268436193466187,0.2514268457889557,-0.15448984503746033
1772534482434100700,5.240100830078125,-0.7227566242218018,0.22633133828639984,-0.05200500786304474
1772534482444117500,5.250117431640625,-0.6293796300888062,0.14634498953819275,0.056239694356918335
1772534482454133500,5.260133544921875,-0.5737491250038147,0.007485115900635719,0.16018766164779663
1772534482464150800,5.27015087890625,-0.5643116235733032,-0.10615598410367966,0.2504465579986572
1772534482474166500,5.28016650390625,-0.5904294848442078,-0.1494901329278946,0.2988750636577606
1772534482484183600,5.29018359375,-0.6377850770950317,-0.16830793023109436,0.2920708656311035
1772534482494199600,5.300199462890625,-0.7008476257324219,-0.17002619802951813,0.23155346512794495
1772534482504215800,5.3102158203125,-0.7733785510063171,-0.13810548186302185,0.13589298725128174
1772534482514232600,5.320232666015625,-0.8577775955200195,-0.061396051198244095,0.03257964923977852
1772534482524248600,5.33024853515625,-0.9427875280380249,0.05687706172466278,-0.07312947511672974
1772534482534265600,5.340265625,-1.0076980590820312,0.17851188778877258,-0.17209546267986298
1772534482544281600,5.350281494140625,-1.0507211685180664,0.2676996886730194,-0.25750958919525146
1772534482554298400,5.36029833984375,-1.0788661241531372,0.3245041072368622,-0.3150690495967865
1772534482564314400,5.370314453125,-1.0902706384658813,0.3817894160747528,-0.3419053256511688
1772534482574331600,5.38033154296875,-1.0795687437057495,0.4175511300563812,-0.355527400970459
1772534482584347400,5.390347412109375,-1.0345988273620605,0.41179364919662476,-0.36072054505348206
1772534482594364400,5.400364501953125,-0.9598322510719299,0.36168885231018066,-0.3555487096309662
1772534482604380400,5.41038037109375,-0.8728792071342468,0.2750377655029297,-0.33958688378334045
1772534482614396400,5.420396484375,-0.7910184860229492,0.16089043021202087,-0.294268935918808
1772534482624413400,5.430413330078125,-0.7324231863021851,0.08158061653375626,-0.20742611587047577
1772534482634429400,5.440429443359375,-0.6780132055282593,0.10084565728902817,-0.09843466430902481
1772534482644446500,5.450446533203125,-0.6327241063117981,0.12487068772315979,-0.006004988215863705
1772534482654462500,5.46046240234375,-0.6029534339904785,0.1286502480506897,0.03752091899514198
1772534482664479500,5.4704794921875,-0.5898107886314392,0.14729265868663788,0.016055727377533913
1772534482674495500,5.48049560546875,-0.5635983943939209,0.15175610780715942,-0.056923139840364456
1772534482684512300,5.49051220703125,-0.5091174840927124,0.08038178086280823,-0.1419961154460907
1772534482694528300,5.5005283203125,-0.46226930618286133,-0.04178008437156677,-0.1793821007013321
1772534482704545500,5.510545654296875,-0.44368815422058105,-0.10255151242017746,-0.15378423035144806
1772534482714561500,5.5205615234375,-0.4450272023677826,-0.1080181896686554,-0.06875696778297424
1772534482724577500,5.53057763671875,-0.45553576946258545,-0.054964516311883926,0.03722211718559265
1772534482734594300,5.54059423828125,-0.461622416973114,0.0269138403236866,0.11505833268165588
1772534482744610600,5.550610595703125,-0.44868671894073486,0.11775366961956024,0.13274133205413818
1772534482754627600,5.560627685546875,-0.42356324195861816,0.1674375981092453,0.09277820587158203
1772534482764643300,5.570643310546875,-0.3835749328136444,0.14334511756896973,0.014588018879294395
1772534482774660400,5.580660400390625,-0.33763113617897034,0.08238670974969864,-0.05825503170490265
1772534482784676600,5.590676513671875,-0.3077893555164337,0.04506916180253029,-0.08986169099807739
1772534482794693400,5.600693359375,-0.2866745591163635,0.08880019187927246,-0.06368930637836456
1772534482804709400,5.61070947265625,-0.2601107060909271,0.15909303724765778,-0.004021583124995232
1772534482814726400,5.620726318359375,-0.23766425251960754,0.17274972796440125,0.0472506582736969
1772534482824742700,5.63074267578125,-0.21821171045303345,0.11217913776636124,0.061510562896728516
1772534482834758400,5.64075830078125,-0.19086530804634094,0.00653846375644207,0.04415980353951454
1772534482844775400,5.650775390625,-0.1470617949962616,-0.05538734421133995,0.01875310204923153
1772534482854791400,5.66079150390625,-0.07805901765823364,-0.09313072264194489,0.018496906384825706
1772534482864808400,5.670808349609375,-0.004176539834588766,-0.05227331072092056,0.0645432248711586
1772534482874824400,5.680824462890625,0.049611855298280716,0.08912216871976852,0.12284168601036072
1772534482884841500,5.690841552734375,0.05966901779174805,0.24067974090576172,0.15347442030906677
1772534482894857500,5.700857421875,0.0241932924836874,0.3242262303829193,0.12878532707691193
1772534482904874500,5.71087451171875,-0.023084741085767746,0.28635579347610474,0.0461098849773407
1772534482914890500,5.720890380859375,-0.05710875615477562,0.1791297346353531,-0.056091584265232086
1772534482924907500,5.730907470703125,-0.0687919482588768,0.07062044739723206,-0.1419544368982315
1772534482934923500,5.740923583984375,-0.05934532359242439,-0.018083136528730392,-0.19328318536281586
1772534482944939300,5.750939208984375,-0.04577998071908951,-0.10110185295343399,-0.19200673699378967
1772534482954956500,5.76095654296875,-0.01937500573694706,-0.1458994299173355,-0.15240100026130676
1772534482964972500,5.77097265625,0.01236614491790533,-0.18591448664665222,-0.09246949851512909
1772534482974989300,5.7809892578125,0.04438651725649834,-0.23489511013031006,-0.028370540589094162
1772534482985005300,5.79100537109375,0.05374433472752571,-0.2546113133430481,0.03377938270568848
1772534482995022600,5.801022705078125,0.046669162809848785,-0.18667863309383392,0.08362756669521332
1772534483005038600,5.81103857421875,0.030257698148489,-0.04517291113734245,0.10154371708631516
1772534483015055400,5.821055419921875,0.022478457540273666,0.1187291219830513,0.07296793907880783
1772534483025071400,5.8310712890625,0.019875749945640564,0.24012239277362823,0.021560143679380417
1772534483035088600,5.841088623046875,0.03332171216607094,0.37448444962501526,-0.030440406873822212
1772534483045104400,5.8511044921875,0.07081049680709839,0.4632588028907776,-0.08045057207345963
1772534483055120400,5.861120361328125,0.12880603969097137,0.4187934100627899,-0.10398408025503159
1772534483065137400,5.871137451171875,0.19071626663208008,0.3144289255142212,-0.09583640843629837
1772534483075153400,5.8811533203125,0.256416916847229,0.18865858018398285,-0.04618535563349724
1772534483085170400,5.89117041015625,0.3149840831756592,0.05090179294347763,0.026250232011079788
1772534483095186400,5.9011865234375,0.3665297329425812,-0.06964976340532303,0.08884283155202866
1772534483105203500,5.911203369140625,0.3952524662017822,-0.17098009586334229,0.11896664649248123
1772534483115219500,5.921219482421875,0.40719783306121826,-0.24167834222316742,0.10278955101966858
1772534483125236500,5.931236572265625,0.4140903651714325,-0.26905643939971924,0.05334077775478363
1772534483135252500,5.94125244140625,0.40320318937301636,-0.2807491719722748,-0.014836556278169155
1772534483145269500,5.95126953125,0.366955429315567,-0.27282625436782837,-0.08879519999027252
1772534483155285200,5.96128515625,0.30602389574050903,-0.260745108127594,-0.1437775045633316
1772534483165302500,5.971302490234375,0.20995943248271942,-0.2397223860025406,-0.17037129402160645
1772534483175318500,5.981318603515625,0.10810130834579468,-0.1888868659734726,-0.17272904515266418
1772534483185334500,5.99133447265625,0.017606835812330246,-0.1288999617099762,-0.1604263186454773
1772534483195351300,6.001351318359375,-0.039802856743335724,-0.07360740005970001,-0.13811041414737701
1772534483205367600,6.011367431640625,-0.06177792698144913,0.005428561940789223,-0.11991330236196518
1772534483215384600,6.021384521484375,-0.05005815625190735,0.0683169811964035,-0.10775037854909897
1772534483225400300,6.031400390625,-0.02406517043709755,0.10073324292898178,-0.1152423843741417
1772534483235417300,6.041417236328125,0.0055480413138866425,0.1056869626045227,-0.13820862770080566
1772534483245433300,6.051433349609375,0.03315809741616249,0.08109107613563538,-0.15542621910572052
1772534483255450400,6.061450439453125,0.04361463710665703,0.02900673821568489,-0.14471733570098877
1772534483265466400,6.07146630859375,0.0390465185046196,-0.01612558588385582,-0.0950259417295456
1772534483275483400,6.0814833984375,0.03776960074901581,-0.013121872209012508,-0.02796264737844467
1772534483285499400,6.09149951171875,0.04625469818711281,-0.008565469644963741,0.017749978229403496
1772534483295515600,6.101515625,0.0676288902759552,-0.03863466531038284,0.02532212622463703
1772534483305532400,6.111532470703125,0.08721724152565002,-0.07280968129634857,0.0025987038388848305
1772534483315548400,6.12154833984375,0.0861552506685257,-0.10281331837177277,-0.01676289178431034
1772534483325565400,6.1315654296875,0.06481507420539856,-0.09527790546417236,-0.023873798549175262
1772534483335581400,6.14158154296875,0.040041569620370865,-0.09440670907497406,-0.012882393784821033
1772534483345598500,6.151598388671875,0.006491066887974739,-0.09208603203296661,0.008033807389438152
1772534483355614500,6.161614501953125,-0.03134165331721306,-0.048351824283599854,0.02295243926346302
1772534483365631200,6.17163134765625,-0.0686914250254631,-0.005392374005168676,0.02211913652718067
1772534483375647500,6.1816474609375,-0.1051492691040039,0.03189120814204216,0.0014686405193060637
1772534483385664500,6.19166455078125,-0.13064345717430115,0.07446423172950745,-0.026843957602977753
1772534483395680500,6.201680419921875,-0.13794869184494019,0.06748992949724197,-0.06437080353498459
1772534483405696500,6.211696533203125,-0.1216978132724762,-0.007202689535915852,-0.09146340936422348
1772534483415713500,6.221713623046875,-0.07977869361639023,-0.07283879071474075,-0.07589211314916611
1772534483425729500,6.2317294921875,-0.02793280780315399,-0.09969117492437363,-0.01610148511826992
1772534483435746300,6.241746337890625,0.03142532333731651,-0.10312798619270325,0.06295764446258545
1772534483445762300,6.25176220703125,0.08642519265413284,-0.11554311215877533,0.13012230396270752
1772534483455779600,6.261779541015625,0.1225154772400856,-0.19129271805286407,0.16270525753498077
1772534483465795600,6.271795654296875,0.1293123960494995,-0.3119346797466278,0.16034115850925446
1772534483475812400,6.281812255859375,0.0982840284705162,-0.4216828942298889,0.1404346078634262
1772534483485828400,6.291828369140625,0.04154964163899422,-0.4742206931114197,0.11719319969415665
1772534483495845600,6.301845703125,-0.022666068747639656,-0.46381187438964844,0.09578637033700943
1772534483505861600,6.311861572265625,-0.08922644704580307,-0.4255571663379669,0.08013656735420227
1772534483515877400,6.32187744140625,-0.16179272532463074,-0.3675963580608368,0.07002580910921097
1772534483525894400,6.331894287109375,-0.24047128856182098,-0.27056995034217834,0.05963415652513504
1772534483535910400,6.341910400390625,-0.33019018173217773,-0.1794329136610031,0.05968506261706352
1772534483545927400,6.351927490234375,-0.4218631088733673,-0.07782293856143951,0.05790819972753525
1772534483555943400,6.361943359375,-0.5167927742004395,0.030765097588300705,0.03890983387827873
1772534483565960400,6.37196044921875,-0.6103776097297668,0.10963275283575058,-0.008663544431328773
1772534483575976400,6.3819765625,-0.6943062543869019,0.16374331712722778,-0.08602577447891235
1772534483585993500,6.391993408203125,-0.7651321887969971,0.15140755474567413,-0.15906856954097748
1772534483596009500,6.402009521484375,-0.8069450855255127,0.09256037324666977,-0.1979176551103592
1772534483606026500,6.412026611328125,-0.8114184141159058,0.004738371819257736,-0.19711178541183472
1772534483616042500,6.42204248046875,-0.7897918224334717,-0.11486560106277466,-0.15985918045043945
1772534483626059500,6.4320595703125,-0.7691603302955627,-0.21946126222610474,-0.08342406898736954
1772534483636075500,6.442075439453125,-0.7616298794746399,-0.27611398696899414,0.008892670273780823
1772534483646091500,6.452091552734375,-0.7565711736679077,-0.27761149406433105,0.08723035454750061
1772534483656108300,6.4621083984375,-0.7383172512054443,-0.2723464369773865,0.10787706077098846
1772534483666124300,6.472124267578125,-0.7081180810928345,-0.2508203983306885,0.07726828008890152
1772534483676141600,6.4821416015625,-0.6666406393051147,-0.2112569957971573,0.024226903915405273
1772534483686157600,6.492157470703125,-0.603020429611206,-0.13775774836540222,-0.015064576640725136
1772534483696174300,6.50217431640625,-0.5289573073387146,-0.05358634889125824,-0.015118254348635674
1772534483706190300,6.5121904296875,-0.47927337884902954,0.05657237768173218,0.034154485911130905
1772534483716207600,6.52220751953125,-0.43938902020454407,0.17394688725471497,0.10973519086837769
1772534483726223400,6.532223388671875,-0.3920348286628723,0.2193537801504135,0.1815665066242218
1772534483736240400,6.542240478515625,-0.3463849425315857,0.18540526926517487,0.22846508026123047
1772534483746256400,6.55225634765625,-0.3117002248764038,0.05770004168152809,0.25893881916999817
1772534483756272600,6.562272705078125,-0.27631115913391113,-0.06764412671327591,0.28007328510284424
1772534483766289400,6.572289306640625,-0.22171743214130402,-0.18401600420475006,0.28825560212135315
1772534483776305400,6.582305419921875,-0.1540319323539734,-0.2960585653781891,0.27630069851875305
1772534483786322400,6.592322509765625,-0.10067657381296158,-0.40148910880088806,0.2542819380760193
1772534483796338400,6.60233837890625,-0.09044734388589859,-0.4170766770839691,0.24723321199417114
1772534483806355500,6.61235546875,-0.13931713998317719,-0.33886656165122986,0.253632515668869
1772534483816371500,6.622371337890625,-0.2412571907043457,-0.22715957462787628,0.2290755659341812
1772534483826388500,6.632388427734375,-0.3633497953414917,-0.11963710933923721,0.14868777990341187
1772534483836404500,6.642404541015625,-0.48587608337402344,-0.032977908849716187,0.021913208067417145
1772534483846421500,6.65242138671875,-0.5849773287773132,0.03781530261039734,-0.11751551926136017
1772534483856437500,6.6624375,-0.6368505358695984,0.10634593665599823,-0.22506554424762726
1772534483866453500,6.67245361328125,-0.6380960941314697,0.15702030062675476,-0.26880398392677307
1772534483876470500,6.682470458984375,-0.6080433130264282,0.17989158630371094,-0.2569173574447632
1772534483886486500,6.692486572265625,-0.5602355599403381,0.1543193906545639,-0.20291592180728912
1772534483896503600,6.702503662109375,-0.4953758716583252,0.12621885538101196,-0.11160837113857269
1772534483906519300,6.712519287109375,-0.4245491027832031,0.14230699837207794,-0.005965832620859146
1772534483916536300,6.722536376953125,-0.3528496026992798,0.18380297720432281,0.07537375390529633
1772534483926552600,6.732552490234375,-0.28680694103240967,0.22581034898757935,0.1187870055437088
1772534483936569300,6.7425693359375,-0.23373202979564667,0.26662036776542664,0.11274935305118561
1772534483946585300,6.75258544921875,-0.1807476282119751,0.2847439646720886,0.06712088733911514
1772534483956602400,6.762602294921875,-0.14187416434288025,0.2868090867996216,0.004375422839075327
1772534483966618600,6.77261865234375,-0.10891649127006531,0.27167272567749023,-0.05912605673074722
1772534483976634600,6.782634521484375,-0.08426575362682343,0.21256007254123688,-0.10155820846557617
1772534483986651400,6.7926513671875,-0.06048772484064102,0.16074827313423157,-0.09587981551885605
1772534483996667400,6.80266748046875,-0.03400060534477234,0.13757842779159546,-0.04182063043117523
1772534484006684400,6.812684326171875,-0.015518266707658768,0.13947193324565887,0.03383045643568039
1772534484016700400,6.822700439453125,-0.008350410498678684,0.1575797200202942,0.10008101910352707
1772534484026717400,6.832717529296875,-0.009557886980473995,0.16580089926719666,0.11578993499279022
1772534484036733400,6.8427333984375,-0.03648918494582176,0.11473303288221359,0.09505435824394226
1772534484046750500,6.85275048828125,-0.07888377457857132,0.07380184531211853,0.048622407019138336
1772534484056766500,6.862766357421875,-0.11016081273555756,0.06012706458568573,-0.013161882758140564
1772534484066783500,6.872783447265625,-0.11146122962236404,0.04310626536607742,-0.07471712678670883
1772534484076799500,6.882799560546875,-0.06922666728496552,0.030933881178498268,-0.11239773035049438
1772534484086815200,6.892815185546875,-0.009667469188570976,0.027954069897532463,-0.11283235996961594
1772534484096832500,6.90283251953125,0.0368785560131073,0.031773101538419724,-0.09304531663656235
1772534484106848500,6.9128486328125,0.0654742419719696,-0.008583107963204384,-0.07021430134773254
1772534484116865300,6.922865234375,0.07337357848882675,-0.07244966179132462,-0.02883334644138813
1772534484126881300,6.93288134765625,0.07521967589855194,-0.10735198110342026,0.015625998377799988
1772534484136898600,6.942898681640625,0.0811937004327774,-0.15426698327064514,0.05515459179878235
1772534484146914600,6.95291455078125,0.09923608601093292,-0.21595725417137146,0.10149625688791275
1772534484156931300,6.962931396484375,0.11295600980520248,-0.24901936948299408,0.15870614349842072
1772534484166947300,6.972947265625,0.12209731340408325,-0.17485512793064117,0.2113930583000183
1772534484176964600,6.982964599609375,0.1325651854276657,-0.03425595536828041,0.2291833460330963
1772534484186980600,6.992980712890625,0.13828831911087036,0.12580081820487976,0.1871219128370285
1772534484196996400,7.002996337890625,0.13155236840248108,0.28567609190940857,0.09779166430234909
1772534484207013400,7.013013427734375,0.11729725450277328,0.4227873384952545,-0.02218533679842949
1772534484217029400,7.023029296875,0.11061564832925797,0.5006904006004333,-0.1336331069469452
1772534484227046400,7.03304638671875,0.12950998544692993,0.5240106582641602,-0.20975157618522644
1772534484237062400,7.0430625,0.1651456207036972,0.4960978627204895,-0.22911690175533295
1772534484247079400,7.053079345703125,0.20301949977874756,0.423623651266098,-0.198609858751297
1772534484257095400,7.063095458984375,0.24243566393852234,0.3104546368122101,-0.1311732828617096
1772534484267112400,7.073112548828125,0.2811444401741028,0.15275529026985168,-0.05520180985331535
1772534484277128400,7.08312841796875,0.31576865911483765,-0.010029797442257404,0.007430400233715773
1772534484287145500,7.0931455078125,0.3505255877971649,-0.13790680468082428,0.04466298967599869
1772534484297161200,7.1031611328125,0.39174142479896545,-0.23884253203868866,0.05798959732055664
1772534484307177500,7.113177490234375,0.427834689617157,-0.2980901598930359,0.05901384726166725
1772534484317194500,7.123194580078125,0.4487917721271515,-0.3112592101097107,0.06294605135917664
1772534484327210500,7.13321044921875,0.45238569378852844,-0.2777411937713623,0.07918734103441238
1772534484337227300,7.143227294921875,0.4418295621871948,-0.18013082444667816,0.10144980996847153
1772534484347243500,7.153243408203125,0.4049365222454071,-0.045354366302490234,0.10688265413045883
1772534484357260500,7.163260498046875,0.3361985683441162,0.0864674523472786,0.07447575032711029
1772534484367276500,7.173276611328125,0.27139002084732056,0.1943688690662384,0.019066816195845604
1772534484377293300,7.183293212890625,0.23027734458446503,0.27448710799217224,-0.03528843820095062
1772534484387309600,7.1933095703125,0.22017942368984222,0.30787673592567444,-0.07606915384531021
1772534484397326600,7.20332666015625,0.24421340227127075,0.29244184494018555,-0.09920182824134827
1772534484407342300,7.21334228515625,0.2944568395614624,0.218795046210289,-0.0983584001660347
1772534484417358300,7.2233583984375,0.3625618517398834,0.10854706168174744,-0.06770844012498856
1772534484427375600,7.233375732421875,0.4346081018447876,-0.042199037969112396,-0.00791035033762455
1772534484437391600,7.2433916015625,0.48242002725601196,-0.19047637283802032,0.08091874420642853
1772534484447408400,7.253408447265625,0.48441368341445923,-0.2844944894313812,0.18612158298492432
1772534484457424400,7.26342431640625,0.43667683005332947,-0.3177725076675415,0.2841538190841675
1772534484467441700,7.273441650390625,0.35495054721832275,-0.30279970169067383,0.3389446437358856
1772534484477457400,7.28345751953125,0.24747103452682495,-0.2604328393936157,0.3203361928462982
1772534484487474400,7.293474365234375,0.1310509443283081,-0.21089668571949005,0.22854073345661163
1772534484497490400,7.303490478515625,0.018399465829133987,-0.12251604348421097,0.08340031653642654
1772534484507507500,7.313507568359375,-0.08694080263376236,-0.0036655557341873646,-0.06978603452444077
1772534484517523500,7.3235234375,-0.17343099415302277,0.1307985633611679,-0.18877387046813965
1772534484527539500,7.33353955078125,-0.23890161514282227,0.23871678113937378,-0.2607862651348114
1772534484537556500,7.343556396484375,-0.2772778272628784,0.2953468859195709,-0.2948918044567108
1772534484547572500,7.353572509765625,-0.2805393934249878,0.2613169848918915,-0.29806122183799744
1772534484557589200,7.36358935546875,-0.25666481256484985,0.17011494934558868,-0.2689776122570038
1772534484567605200,7.373605224609375,-0.21256044507026672,0.07878557592630386,-0.21061548590660095
1772534484577622300,7.383622314453125,-0.13864955306053162,-0.01097920909523964,-0.13948310911655426
1772534484587638000,7.393637939453125,-0.058394670486450195,-0.11131753027439117,-0.06458702683448792
1772534484597655300,7.4036552734375,0.011701012030243874,-0.18262334167957306,0.00206824135966599
1772534484607671300,7.41367138671875,0.0616304874420166,-0.2229262888431549,0.03493324667215347
1772534484617688000,7.42368798828125,0.07461383193731308,-0.26151031255722046,0.022967539727687836
1772534484627704000,7.4337041015625,0.05946710333228111,-0.2848033905029297,-0.0284530371427536
1772534484637720000,7.443719970703125,0.02551814168691635,-0.3050746023654938,-0.09426456689834595
1772534484647737300,7.4537373046875,-0.016112392768263817,-0.27362585067749023,-0.1476423144340515
1772534484657753300,7.46375341796875,-0.06397568434476852,-0.23443081974983215,-0.18898072838783264
1772534484667770000,7.47377001953125,-0.11025476455688477,-0.21627472341060638,-0.2193191945552826
1772534484677786000,7.4837861328125,-0.14895181357860565,-0.21493586897850037,-0.22285640239715576
1772534484687803400,7.493803466796875,-0.1811230629682541,-0.20709551870822906,-0.19934149086475372
1772534484697819100,7.503819091796875,-0.19950343668460846,-0.17550230026245117,-0.15741181373596191
1772534484707836200,7.513836181640625,-0.20523294806480408,-0.1295800805091858,-0.11884231120347977
1772534484717852200,7.52385205078125,-0.199374720454216,-0.08359050750732422,-0.09711702167987823
1772534484727868200,7.5338681640625,-0.18652017414569855,-0.04748283699154854,-0.10681039839982986
1772534484737885200,7.54388525390625,-0.17455485463142395,-0.03733113408088684,-0.13578984141349792
1772534484747901200,7.553901123046875,-0.1719827800989151,-0.0848456621170044,-0.1592104732990265
1772534484757918200,7.563918212890625,-0.17578066885471344,-0.15637369453907013,-0.1570723056793213
1772534484767934200,7.573934326171875,-0.18770310282707214,-0.21053440868854523,-0.11843597143888474
1772534484777951200,7.583951171875,-0.20965221524238586,-0.26969224214553833,-0.047905292361974716
1772534484787967200,7.59396728515625,-0.22333714365959167,-0.285068541765213,0.03325693681836128
1772534484797984000,7.60398388671875,-0.2300008088350296,-0.3087162673473358,0.09494021534919739
1772534484808000000,7.614,-0.24339412152767181,-0.33947551250457764,0.11724791675806046
1772534484818017300,7.624017333984375,-0.27951136231422424,-0.36017030477523804,0.08746445924043655
1772534484828033300,7.634033203125,-0.3445209860801697,-0.3649490773677826,0.019679555669426918
1772534484838050000,7.644050048828125,-0.41785186529159546,-0.3470543324947357,-0.04580693691968918
1772534484848066000,7.654066162109375,-0.4837603271007538,-0.30672287940979004,-0.077641561627388
1772534484858082300,7.664082275390625,-0.5436333417892456,-0.24470557272434235,-0.06414249539375305
1772534484868099300,7.674099365234375,-0.6065499782562256,-0.18667955696582794,-0.025947168469429016
1772534484878115000,7.684114990234375,-0.6819984912872314,-0.1723385900259018,0.019874371588230133
1772534484888132000,7.694132080078125,-0.7675714492797852,-0.170770525932312,0.05073374882340431
1772534484898148400,7.7041484375,-0.8484386205673218,-0.17026682198047638,0.05844411998987198
1772534484908165000,7.7141650390625,-0.910957396030426,-0.1768842339515686,0.038501571863889694
1772534484918181000,7.72418115234375,-0.9584694504737854,-0.17007465660572052,-0.004072130657732487
1772534484928198100,7.7341982421875,-0.9993486404418945,-0.1476130187511444,-0.06346062570810318
1772534484938214400,7.74421435546875,-1.0369008779525757,-0.115724578499794,-0.12444818764925003
1772534484948231200,7.754231201171875,-1.0677255392074585,-0.06364966183900833,-0.17569220066070557
1772534484958247200,7.7642470703125,-1.0973860025405884,0.005065266042947769,-0.19891664385795593
1772534484968263200,7.77426318359375,-1.1195347309112549,0.07552239298820496,-0.19022302329540253
1772534484978280200,7.7842802734375,-1.1374460458755493,0.128082737326622,-0.17204995453357697
1772534484988296200,7.794296142578125,-1.1346924304962158,0.13886374235153198,-0.15360303223133087
1772534484998313200,7.804313232421875,-1.111275315284729,0.07979625463485718,-0.13447348773479462
1772534485008329200,7.8143291015625,-1.0526399612426758,0.02390449121594429,-0.10674146562814713
1772534485018346200,7.82434619140625,-0.9571112990379333,-0.006809974554926157,-0.057957589626312256
1772534485028362200,7.8343623046875,-0.8368706703186035,-0.01788552850484848,0.023582277819514275
1772534485038379300,7.844379150390625,-0.7004119753837585,0.011123075149953365,0.1196085512638092
1772534485048395300,7.854395263671875,-0.5542797446250916,0.07725921273231506,0.1918414682149887
1772534485058411000,7.864410888671875,-0.4248867630958557,0.10355357080698013,0.20751050114631653
1772534485068428300,7.87442822265625,-0.3161749243736267,0.05611414834856987,0.17535708844661713
1772534485078444300,7.8844443359375,-0.23088666796684265,-0.0011411855230107903,0.12725737690925598
1772534485088461000,7.8944609375,-0.17334721982479095,-0.06373532116413116,0.09335055202245712
1772534485098477000,7.90447705078125,-0.1561601459980011,-0.09927009791135788,0.084266796708107
1772534485108494300,7.914494384765625,-0.18640965223312378,-0.07389283180236816,0.08472193032503128
1772534485118510300,7.92451025390625,-0.2590000331401825,-0.0017399698263034225,0.08673154562711716
1772534485128527000,7.934527099609375,-0.36109256744384766,0.11256556957960129,0.07154912501573563
1772534485138543000,7.944543212890625,-0.47220379114151,0.23951362073421478,0.027115214616060257
1772534485148560400,7.954560302734375,-0.5721935033798218,0.35153070092201233,-0.045041270554065704
1772534485158576000,7.964576171875,-0.6488726735115051,0.442218154668808,-0.12346316128969193
1772534485168592100,7.974592041015625,-0.6899460554122925,0.5199923515319824,-0.18321996927261353
1772534485178609200,7.984609130859375,-0.6783394813537598,0.5547595024108887,-0.2036529779434204
1772534485188625200,7.994625244140625,-0.6249593496322632,0.5447148680686951,-0.1886841505765915
1772534485198642200,8.00464208984375,-0.5512569546699524,0.4871402978897095,-0.15819638967514038
1772534485208658200,8.014658203125,-0.4559629559516907,0.3886294364929199,-0.12140800803899765
1772534485218675200,8.02467529296875,-0.38533803820610046,0.2518709897994995,-0.09014303982257843
1772534485228691200,8.034691162109375,-0.3522506654262543,0.09530746191740036,-0.04570765793323517
1772534485238708200,8.044708251953125,-0.3286372423171997,-0.03044145368039608,0.0194245558232069
1772534485248724200,8.05472412109375,-0.3152271509170532,-0.13125407695770264,0.09702853113412857
1772534485258741200,8.0647412109375,-0.30462056398391724,-0.22517651319503784,0.15874943137168884
1772534485268757000,8.074757080078125,-0.283310204744339,-0.2905062437057495,0.18339352309703827
1772534485278773200,8.084773193359375,-0.26697996258735657,-0.3310857117176056,0.17210794985294342
1772534485288790300,8.094790283203125,-0.2652190625667572,-0.35230207443237305,0.14311331510543823
1772534485298806300,8.10480615234375,-0.27624350786209106,-0.3087444007396698,0.10989471524953842
1772534485308823000,8.114822998046876,-0.3070775866508484,-0.22850042581558228,0.054688986390829086
1772534485318839300,8.12483935546875,-0.34751492738723755,-0.18945705890655518,-0.029957782477140427
1772534485328856300,8.134856201171875,-0.3786153495311737,-0.20151424407958984,-0.11771746724843979
1772534485338872300,8.144872314453124,-0.43274974822998047,-0.19542722404003143,-0.1657252162694931
1772534485348889000,8.15488916015625,-0.5135495066642761,-0.12304996699094772,-0.17891797423362732
1772534485358905300,8.1649052734375,-0.5920307636260986,-0.04770614951848984,-0.18577022850513458
1772534485368921300,8.17492138671875,-0.6370701193809509,-0.005426071584224701,-0.20610985159873962
1772534485378938000,8.184938232421874,-0.6418890953063965,-0.009249490685760975,-0.2371191680431366
1772534485388954000,8.1949541015625,-0.5863810777664185,-0.05391097068786621,-0.2589664161205292
1772534485398971100,8.20497119140625,-0.4711957573890686,-0.18304602801799774,-0.23943214118480682
1772534485408987400,8.2149873046875,-0.33933839201927185,-0.3158431947231293,-0.15379765629768372
1772534485419004200,8.225004150390625,-0.22272998094558716,-0.4219924211502075,0.010050583630800247
1772534485429020200,8.235020263671874,-0.12949776649475098,-0.43776580691337585,0.23888829350471497
1772534485439037200,8.245037109375,-0.05854896828532219,-0.342020183801651,0.476009339094162
1772534485449053200,8.25505322265625,-0.0012715639313682914,-0.2068474292755127,0.6484029293060303
1772534485459070200,8.2650703125,0.04337689280509949,-0.05167020112276077,0.7249776721000671
1772534485469086200,8.275086181640624,0.0663575753569603,0.1427791714668274,0.6975548267364502
1772534485479102200,8.285102294921876,0.06477752327919006,0.3421167731285095,0.5721050500869751
1772534485489119200,8.295119140625,0.054554879665374756,0.46310773491859436,0.39121463894844055
1772534485499135200,8.30513525390625,0.057724062353372574,0.5403661131858826,0.19850057363510132
1772534485509152300,8.31515234375,0.08666596561670303,0.5443025231361389,0.029514474794268608
1772534485519168300,8.325168212890626,0.14474482834339142,0.45173126459121704,-0.0836913138628006
1772534485529185300,8.335185302734375,0.21307116746902466,0.35488247871398926,-0.14111626148223877
1772534485539201300,8.345201171875,0.2720262408256531,0.28911057114601135,-0.1740022450685501
1772534485549218300,8.35521826171875,0.3148394823074341,0.23850278556346893,-0.2157856523990631
1772534485559234000,8.365234130859376,0.3357212245464325,0.09061775356531143,-0.27069374918937683
1772534485569251000,8.3752509765625,0.2988201975822449,-0.1013178601861,-0.3173275589942932
1772534485579267000,8.38526708984375,0.20505405962467194,-0.26341843605041504,-0.3487248122692108
1772534485589283000,8.395282958984374,0.07965753227472305,-0.4286220371723175,-0.35872817039489746
1772534485599300000,8.405300048828124,-0.05029747635126114,-0.5591667890548706,-0.36078357696533203
1772534485609316000,8.415316162109375,-0.17696088552474976,-0.5744386911392212,-0.35089579224586487
1772534485619333000,8.4253330078125,-0.2748293876647949,-0.4830394387245178,-0.3386266827583313
1772534485629349000,8.43534912109375,-0.3418411612510681,-0.33308589458465576,-0.3287133574485779
1772534485639366100,8.4453662109375,-0.35999152064323425,-0.11822844296693802,-0.31625714898109436
1772534485649382100,8.455382080078126,-0.31270894408226013,0.10257504135370255,-0.29707175493240356
1772534485659399000,8.46539892578125,-0.21779006719589233,0.2564758360385895,-0.26106202602386475
1772534485669415000,8.475414794921875,-0.0980391651391983,0.31414687633514404,-0.20115157961845398
1772534485679432200,8.48543212890625,0.01788753643631935,0.2917248010635376,-0.09727698564529419
1772534485689448200,8.4954482421875,0.11475256830453873,0.20989251136779785,0.03959564119577408
1772534485699464200,8.505464111328125,0.1869303286075592,0.05283508077263832,0.18480491638183594
1772534485709481000,8.51548095703125,0.2291310429573059,-0.1501915454864502,0.31146034598350525
1772534485719497000,8.5254970703125,0.24418102204799652,-0.36773768067359924,0.4042246341705322
1772534485729514200,8.53551416015625,0.23625172674655914,-0.5871342420578003,0.4601595401763916
1772534485739530000,8.545530029296875,0.204370379447937,-0.7643930912017822,0.48584070801734924
1772534485749547000,8.555547119140625,0.15085868537425995,-0.854216992855072,0.48805540800094604
1772534485759563000,8.56556298828125,0.07622702419757843,-0.8845953345298767,0.4588862955570221
1772534485769580000,8.575580078125,0.0004843296483159065,-0.8613912463188171,0.3902382552623749
1772534485779596000,8.585595947265626,-0.07351259142160416,-0.792095959186554,0.2960529923439026
1772534485789612000,8.595612060546875,-0.14304639399051666,-0.6383588314056396,0.17235824465751648
1772534485799629000,8.605629150390625,-0.22745195031166077,-0.388972669839859,0.037011828273534775
1772534485809645000,8.61564501953125,-0.3672013282775879,-0.008798445574939251,-0.12581144273281097
1772534485819662000,8.625662109375,-0.39127296209335327,0.16451247036457062,-0.32082897424697876
1772534485829678000,8.635677978515625,-0.3303755223751068,0.18206962943077087,-0.5097808241844177
1772534485839695000,8.645695068359375,-0.25116509199142456,0.1837400496006012,-0.648890495300293
1772534485849711000,8.655711181640624,-0.1931270956993103,0.14878445863723755,-0.7167147994041443
1772534485859728100,8.66572802734375,-0.17276667058467865,0.07058613747358322,-0.7258901596069336
1772534485869744000,8.675744140625,-0.1741642951965332,-0.040704697370529175,-0.6779325008392334
1772534485879761000,8.685760986328125,-0.15227125585079193,-0.17637278139591217,-0.5724452137947083
1772534485889777200,8.695777099609375,-0.10516578704118729,-0.2806483209133148,-0.41927725076675415
1772534485899793200,8.705793212890624,-0.04445924982428551,-0.32911771535873413,-0.2519739866256714
1772534485909810200,8.71581005859375,0.007511807605624199,-0.3582010269165039,-0.09472418576478958
1772534485919826000,8.725825927734375,0.033608805388212204,-0.4002622961997986,0.03168138489127159
1772534485929843200,8.73584326171875,0.025678446516394615,-0.42831337451934814,0.13157841563224792
1772534485939859200,8.745859130859374,-0.011398326605558395,-0.39590689539909363,0.19817449152469635
1772534485949876000,8.7558759765625,-0.0648285299539566,-0.3532070815563202,0.22209767997264862
1772534485959892000,8.76589208984375,-0.12532424926757812,-0.32769861817359924,0.1950652003288269
1772534485969909200,8.7759091796875,-0.19300395250320435,-0.28893232345581055,0.13752920925617218
1772534485979925200,8.78592529296875,-0.2631201446056366,-0.22399413585662842,0.06038055941462517
1772534485989941200,8.795941162109376,-0.3350907266139984,-0.13922332227230072,-0.030523249879479408
1772534485999958000,8.8059580078125,-0.3960668444633484,-0.07528664171695709,-0.1360846906900406
1772534486009974000,8.81597412109375,-0.44530072808265686,-0.020903564989566803,-0.24895240366458893
1772534486019991000,8.825990966796875,-0.477061927318573,0.02815389260649681,-0.3553767800331116
1772534486030007000,8.836007080078126,-0.48935800790786743,0.04397253692150116,-0.45149320363998413
1772534486040024000,8.846024169921876,-0.48084190487861633,-0.011210598051548004,-0.4840930998325348
1772534486050040000,8.8560400390625,-0.45365503430366516,-0.04913907125592232,-0.40960952639579773
1772534486060057000,8.86605712890625,-0.41230112314224243,-0.0191971305757761,-0.24066103994846344
1772534486070073000,8.876072998046874,-0.36346808075904846,-0.01053067296743393,-0.023352961987257004
1772534486080090000,8.886090087890626,-0.31504279375076294,-0.08360694348812103,0.19537821412086487
1772534486090106000,8.896106201171875,-0.2636618912220001,-0.2027042955160141,0.36310437321662903
1772534486100121900,8.906121826171875,-0.22638718783855438,-0.30873340368270874,0.44782182574272156
1772534486110139100,8.91613916015625,-0.22491686046123505,-0.3764040470123291,0.4421879053115845
1772534486120155100,8.926155029296876,-0.25714394450187683,-0.4029521644115448,0.34384310245513916
1772534486130172000,8.936171875,-0.31238430738449097,-0.4111776053905487,0.19062264263629913
1772534486140188000,8.94618798828125,-0.3783405125141144,-0.39865124225616455,0.03504856303334236
1772534486150205200,8.956205078125,-0.4398004114627838,-0.39535877108573914,-0.10110634565353394
1772534486160221200,8.96622119140625,-0.5030211210250854,-0.3847188949584961,-0.1951490193605423
1772534486170238000,8.976238037109376,-0.5547721982002258,-0.3261384069919586,-0.2502216100692749
1772534486180254000,8.98625390625,-0.5930222272872925,-0.2077965885400772,-0.2821582555770874
1772534486190270200,8.996270263671875,-0.6269985437393188,-0.05365416035056114,-0.29081565141677856
1772534486200287000,9.006286865234374,-0.6427354216575623,0.03436311334371567,-0.2927021384239197
1772534486210303000,9.016302978515625,-0.6443881392478943,0.07896466553211212,-0.28048035502433777
1772534486220320000,9.026320068359375,-0.6193386316299438,0.09633366018533707,-0.25805243849754333
1772534486230336300,9.036336181640625,-0.5777320861816406,0.08545330911874771,-0.2290322482585907
1772534486240353000,9.04635302734375,-0.5319397449493408,0.040988530963659286,-0.19496594369411469
1772534486250369000,9.056369140625,-0.4910426735877991,-0.012537010945379734,-0.15503716468811035
1772534486260386000,9.066385986328125,-0.4751178026199341,-0.048203788697719574,-0.10651669651269913
1772534486270402000,9.076402099609375,-0.49167972803115845,-0.08498816937208176,-0.05676378682255745
1772534486280419000,9.086419189453125,-0.5363761782646179,-0.12553919851779938,-0.027152754366397858
1772534486290435000,9.09643505859375,-0.601220428943634,-0.1571706384420395,-0.0213308185338974
1772534486300451000,9.106451171875,-0.6753690242767334,-0.1571701616048813,-0.0574234277009964
1772534486310467800,9.1164677734375,-0.7527639269828796,-0.1497173011302948,-0.13455496728420258
1772534486320484000,9.126484130859374,-0.8357246518135071,-0.12452239543199539,-0.21193720400333405
1772534486330501000,9.136501220703124,-0.9210741519927979,-0.05874845013022423,-0.2548181116580963
1772534486340517000,9.14651708984375,-0.9928269982337952,0.017098020762205124,-0.24014602601528168
1772534486350534000,9.156533935546875,-1.0262975692749023,0.0755232498049736,-0.18153971433639526
1772534486360550100,9.166550048828125,-1.019538402557373,0.09724700450897217,-0.0977899506688118
1772534486370567200,9.176567138671874,-0.9764130711555481,0.07222341001033783,-0.012613005936145782
1772534486380583200,9.186583251953126,-0.9157757759094238,0.03987850248813629,0.04185514152050018
1772534486390600000,9.196599853515625,-0.8440174460411072,0.007049712352454662,0.042651690542697906
1772534486400616200,9.2066162109375,-0.7829776406288147,-0.02725708670914173,0.00767813203856349
1772534486410632200,9.216632080078124,-0.7538444995880127,-0.06869454681873322,-0.03657002002000809
1772534486420649000,9.22664892578125,-0.7689589262008667,-0.14493702352046967,-0.05094049870967865
1772534486430665000,9.2366650390625,-0.8269228935241699,-0.2244478315114975,0.0000638302881270647
1772534486440682200,9.24668212890625,-0.9112661480903625,-0.24274422228336334,0.09981666505336761
1772534486450698200,9.2566982421875,-1.0011472702026367,-0.22475138306617737,0.1986819952726364
1772534486460715000,9.266715087890624,-1.084003210067749,-0.2551164925098419,0.23604115843772888
1772534486470731000,9.27673095703125,-1.152434229850769,-0.3142746388912201,0.17782658338546753
1772534486480748300,9.286748291015625,-1.2056400775909424,-0.3479002118110657,0.05074403062462807
1772534486490764000,9.296763916015625,-1.2268644571304321,-0.317503958940506,-0.11428939551115036
1772534486500780000,9.306780029296876,-1.2039241790771484,-0.2017218917608261,-0.2902185916900635
1772534486510797000,9.316797119140626,-1.1481328010559082,-0.016490513458848,-0.4433594048023224
1772534486521439000,9.32743896484375,-1.0827151536941528,0.16995500028133392,-0.5533218383789062
1772534486531456000,9.3374560546875,-1.0544774532318115,0.30739834904670715,-0.6366657614707947
1772534486541472000,9.347471923828126,-1.0383622646331787,0.3696010112762451,-0.7065730690956116
1772534486551489800,9.35748974609375,-1.0082142353057861,0.35515156388282776,-0.7542389631271362
1772534486561505800,9.367505859375,-0.9582536816596985,0.2951204478740692,-0.7613333463668823
1772534486571522800,9.377522705078125,-0.9064605236053467,0.20951366424560547,-0.7185997366905212
1772534486581538800,9.387538818359374,-0.8440096378326416,0.06411377340555191,-0.6320212483406067
1772534486591555800,9.397555908203126,-0.775771975517273,-0.12318531423807144,-0.49486804008483887
1772534486601571800,9.40757177734375,-0.7262816429138184,-0.280636727809906,-0.32003337144851685
1772534486611587800,9.417587890625,-0.7131332159042358,-0.35043662786483765,-0.11266309767961502
1772534486621604900,9.42760498046875,-0.7158211469650269,-0.3350169360637665,0.08548460900783539
1772534486631620900,9.437620849609376,-0.7112605571746826,-0.2819165885448456,0.2516022026538849
1772534486641638000,9.447637939453125,-0.697025716304779,-0.19563254714012146,0.35616880655288696
1772534486651654000,9.45765380859375,-0.667170524597168,-0.14026238024234772,0.38529911637306213
1772534486661671000,9.4676708984375,-0.631392776966095,-0.1124134212732315,0.3425236940383911
1772534486671687000,9.47768701171875,-0.6013898849487305,-0.06127413734793663,0.25851714611053467
1772534486681703700,9.48770361328125,-0.5846353769302368,0.04472979158163071,0.15520194172859192
1772534486691719700,9.4977197265625,-0.5773140788078308,0.14632639288902283,0.03786353021860123
1772534486701737000,9.507737060546875,-0.5793761610984802,0.199102520942688,-0.08397422730922699
1772534486711753000,9.5177529296875,-0.5586768984794617,0.1845352053642273,-0.1954367309808731
1772534486721769000,9.52776904296875,-0.5214800238609314,0.08831493556499481,-0.2707037925720215
1772534486731785700,9.53778564453125,-0.4915026128292084,-0.03305959701538086,-0.2783503234386444
1772534486741801700,9.5478017578125,-0.4727155864238739,-0.14413098990917206,-0.22830232977867126
1772534486751819000,9.557819091796874,-0.46209973096847534,-0.2653430998325348,-0.14442333579063416
1772534486761834800,9.567834716796876,-0.45499494671821594,-0.3687174320220947,-0.06776877492666245
1772534486771851800,9.577851806640625,-0.43829813599586487,-0.44974514842033386,-0.02984442561864853
1772534486781867800,9.58786767578125,-0.4091050922870636,-0.5020826458930969,-0.023855773732066154
1772534486791884800,9.597884765625,-0.37495627999305725,-0.5421665906906128,0.007734785787761211
1772534486801900800,9.60790087890625,-0.350808322429657,-0.4564993381500244,0.09073513001203537
1772534486811916800,9.617916748046875,-0.3141757547855377,-0.2419968694448471,0.21226927638053894
1772534486821933800,9.627933837890625,-0.2534567713737488,-0.01298401691019535,0.32285118103027344
1772534486831949800,9.63794970703125,-0.19581058621406555,0.1610247790813446,0.3619273006916046
1772534486841966800,9.647966796875,-0.16210827231407166,0.3148990273475647,0.31601518392562866
1772534486851982800,9.65798291015625,-0.15828406810760498,0.44097644090652466,0.1894943118095398
1772534486861999900,9.667999755859375,-0.16557154059410095,0.5026411414146423,0.02308216691017151
1772534486872015600,9.678015625,-0.17212055623531342,0.5056208372116089,-0.14248976111412048
1772534486882033000,9.688032958984374,-0.18555913865566254,0.45482879877090454,-0.27792641520500183
1772534486892049000,9.698048828125,-0.20900633931159973,0.35771632194519043,-0.35957759618759155
1772534486902065700,9.708065673828125,-0.25070399045944214,0.2642918527126312,-0.3840882480144501
1772534486912081700,9.71808154296875,-0.2949489653110504,0.18180851638317108,-0.3796139061450958
1772534486922099000,9.728098876953124,-0.32454389333724976,0.08173597604036331,-0.37206169962882996
1772534486932115000,9.738114990234376,-0.31769171357154846,-0.011758590117096901,-0.3770779073238373
1772534486942130700,9.748130615234375,-0.28074169158935547,-0.08885151147842407,-0.37842148542404175
1772534486952147700,9.758147705078125,-0.21012532711029053,-0.14557848870754242,-0.37082764506340027
1772534486962164000,9.7681640625,-0.12075283378362656,-0.17967094480991364,-0.33527177572250366
1772534486972180700,9.7781806640625,-0.02736877091228962,-0.18199914693832397,-0.27911853790283203
1772534486982196700,9.78819677734375,0.07420285791158676,-0.16484731435775757,-0.18363544344902039
1772534486992213800,9.7982138671875,0.1726219356060028,-0.09997101128101349,-0.040879689157009125
1772534487002230000,9.80822998046875,0.2485308200120926,0.017441367730498314,0.10376884043216705
1772534487012246800,9.818246826171874,0.28690072894096375,0.11939501762390137,0.20441171526908875
1772534487022262800,9.8282626953125,0.30167916417121887,0.1568816751241684,0.2556706368923187
1772534487032279800,9.83827978515625,0.31971171498298645,0.12474565953016281,0.2838781476020813
1772534487042295800,9.8482958984375,0.34693506360054016,0.07122331857681274,0.29357656836509705
1772534487052311800,9.858311767578124,0.38875624537467957,0.041653722524642944,0.29780927300453186
1772534487062328800,9.868328857421876,0.419209748506546,0.04331979528069496,0.28889063000679016
1772534487072344800,9.8783447265625,0.4312748312950134,0.049182865768671036,0.2505159378051758
1772534487082361900,9.88836181640625,0.4278888702392578,0.05313393101096153,0.18819372355937958
1772534487092377900,9.8983779296875,0.4153207540512085,0.056348904967308044,0.12830671668052673
1772534487102395000,9.908394775390626,0.3938005566596985,0.036733124405145645,0.07666563987731934
1772534487112411000,9.918410888671875,0.3732321262359619,-0.020395485684275627,0.04164585843682289
1772534487122428000,9.928427978515625,0.347632497549057,-0.10368158668279648,0.027888234704732895
1772534487132444000,9.93844384765625,0.30369624495506287,-0.19688701629638672,0.023899275809526443
1772534487142461000,9.9484609375,0.23649857938289642,-0.2617424428462982,0.0373450443148613
1772534487152476700,9.9584765625,0.14518633484840393,-0.2645350992679596,0.06656182557344437
1772534487162492700,9.96849267578125,0.0492028184235096,-0.21506796777248383,0.07897508889436722
1772534487172510000,9.978510009765625,-0.0336422361433506,-0.16834932565689087,0.07079111039638519
1772534487182526000,9.98852587890625,-0.08964531123638153,-0.13373808562755585,0.0461781769990921
1772534487192542700,9.998542724609376,-0.12336449325084686,-0.11440976709127426,0.011840502731502056
1772534487202558700,10.008558837890625,-0.14516806602478027,-0.1194964051246643,-0.03742877393960953
1772534487212576000,10.018575927734375,-0.17715173959732056,-0.11604617536067963,-0.1255570948123932
1772534487222592000,10.028592041015624,-0.20323260128498077,-0.08043278753757477,-0.21952779591083527
1772534487232608800,10.03860888671875,-0.21161851286888123,-0.030221372842788696,-0.2990144193172455
1772534487242624800,10.048624755859375,-0.204014390707016,0.03143533319234848,-0.3543218970298767
1772534487252640800,10.058640869140625,-0.1888515055179596,0.050422552973032,-0.3662736415863037
1772534487262657800,10.06865771484375,-0.169134259223938,-0.014181740581989288,-0.3103501796722412
1772534487272673800,10.078673828125,-0.14691370725631714,-0.08055363595485687,-0.1964287906885147
1772534487282690800,10.08869091796875,-0.12616875767707825,-0.08707625418901443,-0.0627751275897026
1772534487292706800,10.098706787109375,-0.11024860292673111,-0.05644894018769264,0.047075215727090836
1772534487302723800,10.108723876953125,-0.10352491587400436,-0.03158087655901909,0.10956362634897232
1772534487312739800,10.11873974609375,-0.10872410237789154,-0.028312431648373604,0.1160445511341095
1772534487322756900,10.1287568359375,-0.12473715841770172,-0.046669598668813705,0.06931566447019577
1772534487332772600,10.138772705078125,-0.13254547119140625,-0.06838084757328033,-0.005372669547796249
1772534487342790000,10.148789794921875,-0.12817177176475525,-0.06994278728961945,-0.10092662274837494
1772534487352806000,10.158805908203124,-0.11057372391223907,-0.03637222573161125,-0.19499100744724274
1772534487362822000,10.16882177734375,-0.07851618528366089,0.03305451571941376,-0.27302083373069763
1772534487372838700,10.178838623046875,-0.05115699768066406,0.08925178647041321,-0.32316717505455017
1772534487382855000,10.18885498046875,-0.04176855459809303,0.10444672405719757,-0.31940093636512756
1772534487392872000,10.198871826171874,-0.03742488846182823,0.10435052216053009,-0.27053919434547424
1772534487402888000,10.208887939453126,-0.020972412079572678,0.08240074664354324,-0.18451696634292603
1772534487412904700,10.21890478515625,0.024042800068855286,0.03014231100678444,-0.07631190866231918
1772534487422921000,10.2289208984375,0.08259426057338715,-0.05838382616639137,0.04453062266111374
1772534487432938000,10.23893798828125,0.1406252533197403,-0.158866286277771,0.15091829001903534
1772534487442953700,10.24895361328125,0.18377192318439484,-0.23704178631305695,0.2156701236963272
1772534487452969700,10.2589697265625,0.1908588856458664,-0.2707776129245758,0.22470630705356598
1772534487462986800,10.26898681640625,0.16944946348667145,-0.2723422050476074,0.1800520271062851
1772534487473003000,10.2790029296875,0.13158544898033142,-0.29238104820251465,0.10742320120334625
1772534487483019800,10.289019775390624,0.0974985808134079,-0.3331383466720581,0.04961076006293297
1772534487493035800,10.299035888671876,0.0750170350074768,-0.3798705041408539,0.02877189964056015
1772534487503052800,10.309052734375,0.05187097191810608,-0.3946758210659027,0.04305256903171539
1772534487513068800,10.31906884765625,0.014461406506597996,-0.40614286065101624,0.06752786040306091
1772534487523085800,10.3290859375,-0.033171359449625015,-0.3984372615814209,0.09263640642166138
1772534487533101800,10.339101806640626,-0.09178777784109116,-0.3954070508480072,0.09889750927686691
1772534487543118600,10.34911865234375,-0.17397239804267883,-0.3905595541000366,0.07935842871665955
1772534487553134600,10.359134521484375,-0.29424771666526794,-0.37526261806488037,0.040506262332201004
1772534487563150600,10.369150634765624,-0.43688157200813293,-0.3371027112007141,-0.03184862807393074
1772534487573167600,10.379167724609376,-0.5853582620620728,-0.2966223657131195,-0.1342836171388626
1772534487583183600,10.38918359375,-0.733946681022644,-0.28667041659355164,-0.2583243250846863
1772534487593200600,10.39920068359375,-0.863497793674469,-0.2863982617855072,-0.36951735615730286
1772534487603216600,10.409216552734375,-0.9566900730133057,-0.27697521448135376,-0.44054412841796875
1772534487613233700,10.419233642578124,-1.0010851621627808,-0.26388972997665405,-0.46909841895103455
1772534487623249400,10.42924951171875,-1.0038484334945679,-0.25162187218666077,-0.43640440702438354
1772534487633266700,10.4392666015625,-0.9489107728004456,-0.2294536828994751,-0.3349149525165558
1772534487643282700,10.44928271484375,-0.8618469834327698,-0.155698761343956,-0.17967770993709564
1772534487653299500,10.459299560546874,-0.781465470790863,-0.026263870298862457,-0.008382139727473259
1772534487663315500,10.4693154296875,-0.7339349985122681,0.11308017373085022,0.134577676653862
1772534487673331500,10.47933154296875,-0.7065118551254272,0.2415396124124527,0.23148158192634583
1772534487683348700,10.4893486328125,-0.6856310963630676,0.3573943078517914,0.2817002534866333
1772534487693364700,10.49936474609375,-0.6640573143959045,0.4536249339580536,0.2984641492366791
1772534487703381500,10.509381591796876,-0.6434029340744019,0.5007247924804688,0.2763918936252594
1772534487713397500,10.5193974609375,-0.6307616233825684,0.5092445015907288,0.22991611063480377
1772534487723414800,10.529414794921875,-0.6327919960021973,0.4951249659061432,0.18590125441551208
1772534487733430500,10.539430419921874,-0.6460908055305481,0.47128358483314514,0.15891115367412567
1772534487743447600,10.549447509765624,-0.6666997075080872,0.45138975977897644,0.16227126121520996
1772534487753463600,10.559463623046875,-0.677459180355072,0.4219118058681488,0.18887341022491455
1772534487763479600,10.5694794921875,-0.6702079176902771,0.3861599266529083,0.22576510906219482
1772534487773496600,10.57949658203125,-0.6440742611885071,0.31702518463134766,0.25331783294677734
1772534487783512600,10.5895126953125,-0.6044086217880249,0.21959476172924042,0.2603006362915039
1772534487793529600,10.599529541015626,-0.5529919266700745,0.10475059598684311,0.24678832292556763
1772534487803545600,10.609545654296875,-0.5204084515571594,0.020311618223786354,0.21392226219177246
1772534487813562600,10.619562744140625,-0.5258191227912903,-0.025917990133166313,0.16765083372592926
1772534487823578600,10.62957861328125,-0.5669601559638977,-0.04269350692629814,0.11005996912717819
1772534487833595400,10.639595458984376,-0.6186875700950623,-0.05940563976764679,0.04173018038272858
1772534487843611400,10.649611328125,-0.6647605299949646,-0.0865190178155899,-0.0043310546316206455
1772534487853628700,10.659628662109375,-0.7028880715370178,-0.07403349876403809,-0.016527483239769936
1772534487863644700,10.669644775390625,-0.7389235496520996,0.001727571478113532,-0.022715603932738304
1772534487873660700,10.67966064453125,-0.7717201709747314,0.10597512125968933,-0.04846910387277603
1772534487883677400,10.689677490234375,-0.8074973225593567,0.21762016415596008,-0.09970592707395554
1772534487893693700,10.699693603515625,-0.8311726450920105,0.2988428771495819,-0.17571264505386353
1772534487903710700,10.709710693359375,-0.8273003697395325,0.3463374078273773,-0.23424920439720154
1772534487913726500,10.7197265625,-0.7982022762298584,0.38013970851898193,-0.26571086049079895
1772534487923743500,10.729743408203126,-0.7395461797714233,0.3773740231990814,-0.2788149416446686
1772534487933759700,10.739759765625,-0.6513791680335999,0.3475770950317383,-0.273269921541214
1772534487943776500,10.749776611328125,-0.5657122135162354,0.37117722630500793,-0.25364693999290466
1772534487953792500,10.75979248046875,-0.5132473111152649,0.448324978351593,-0.2568496763706207
1772534487963808500,10.76980859375,-0.4569409191608429,0.5726333856582642,-0.2870834767818451
1772534487973825500,10.779825439453125,-0.37371543049812317,0.7579149603843689,-0.30555057525634766
1772534487983841500,10.789841552734375,-0.3118371367454529,0.969058096408844,-0.2770797908306122
1772534487993858600,10.799858642578124,-0.3420248031616211,1.1584876775741577,0.03000001423060894
1772534488003874600,10.80987451171875,-0.4140113890171051,0.6646273732185364,0.17770878970623016
1772534488013891600,10.8198916015625,-0.41817501187324524,0.038838472217321396,0.23275525867938995
1772534488023907600,10.829907470703125,-0.31353992223739624,-0.28211158514022827,0.2404208928346634
1772534488033924600,10.839924560546875,-0.21527329087257385,-0.2776566445827484,0.20362666249275208
1772534488043940600,10.849940673828126,-0.17362384498119354,-0.22932159900665283,0.08926758915185928
1772534488053957400,10.859957275390625,-0.18895898759365082,-0.20670582354068756,-0.04733806103467941
1772534488063973600,10.8699736328125,-0.2242237776517868,-0.166122704744339,-0.13400371372699738
1772534488073989600,10.87998974609375,-0.2622917890548706,-0.11554860323667526,-0.13415074348449707
